#time,accel_x,accel_y,accel_z
163375.115867,-1184.329507,-9400.615463,-1608.800546
163375.116186,-2368.659014,-9548.656652,0.000000
163375.116506,-74.020594,-10658.965565,-76.609550
163375.116825,-1184.329507,-8956.491898,0.000000
163375.117144,0.000000,-9548.656652,612.876398
163375.117463,222.061783,-10140.821405,-842.705048
163375.117782,0.000000,-9474.636058,-306.438199
163375.118101,0.000000,-9030.512492,-306.438199
163375.118420,-592.164754,-7772.162391,-1532.190996
163375.118739,-74.020594,-8142.265362,-76.609550
163375.119059,2294.638420,-9474.636058,-76.609550
163375.119378,-1184.329507,-7772.162391,0.000000
163375.119697,148.041188,-9548.656652,0.000000
163375.120016,2294.638420,-11843.295072,2374.896044
163375.120335,0.000000,-8956.491898,612.876398
163375.120654,-666.185348,-8808.450710,459.657299
163375.120973,-814.226536,-8882.471304,76.609550
163375.121292,-444.123565,-8660.409521,153.219100
163375.121612,-1850.514855,-7698.141797,-153.219100
163375.121931,-888.247130,-9326.594869,459.657299
163375.122250,-74.020594,-9474.636058,-689.485948
163375.122569,-1776.494261,-8364.327145,-3064.381992
163375.122888,-1184.329507,-9548.656652,153.219100
163375.123207,-74.020594,-10658.965565,-76.609550
163375.123526,-1480.411884,-9030.512492,-919.314598
163375.123845,-740.205942,-9474.636058,-536.266849
163375.124165,-444.123565,-9918.759623,-383.047749
163375.124484,0.000000,-9474.636058,-76.609550
163375.124803,222.061783,-9548.656652,0.000000
163375.125122,296.082377,-10288.862594,-229.828649
163375.125441,1702.473667,-11843.295072,-76.609550
163375.125760,-74.020594,-8586.388927,-1302.362347
163375.126079,0.000000,-9548.656652,-2145.067394
163375.126398,3182.885551,-11251.130318,-76.609550
163375.126718,0.000000,-9178.553681,0.000000
163375.127037,0.000000,-9178.553681,0.000000
163375.127356,296.082377,-9548.656652,76.609550
163375.127675,888.247130,-9844.739029,2451.505594
163375.127994,0.000000,-9548.656652,612.876398
163375.128313,-1776.494261,-7772.162391,612.876398
163375.128632,962.267725,-10362.883188,1149.143247
163375.128951,-1184.329507,-8216.285956,-995.924147
163375.129271,-1998.556043,-6883.915261,-2451.505594
163375.129590,-74.020594,-9474.636058,-76.609550
163375.129909,-888.247130,-9548.656652,-229.828649
163375.130228,-592.164754,-9622.677246,-306.438199
163375.130547,-1406.391290,-9252.574275,-689.485948
163375.130866,0.000000,-9844.739029,306.438199
163375.131185,-1258.350101,-8438.347739,-1455.581446
163375.131504,0.000000,-10140.821405,153.219100
163375.131824,-74.020594,-9474.636058,-383.047749
163375.132143,-74.020594,-8586.388927,-1302.362347
163375.132462,-2220.617826,-7476.080014,-3677.258390
163375.132781,814.226536,-10362.883188,-76.609550
163375.133100,0.000000,-9474.636058,-612.876398
163375.133419,296.082377,-9696.697840,0.000000
163375.133738,74.020594,-9474.636058,-76.609550
163375.134057,0.000000,-9474.636058,-76.609550
163375.134377,814.226536,-9326.594869,-383.047749
163375.134696,0.000000,-7772.162391,-1685.410096
163375.135015,0.000000,-8364.327145,0.000000
163375.135334,1184.329507,-9622.677246,2604.724693
163375.135653,-2368.659014,-7179.997637,0.000000
163375.135972,-74.020594,-8660.409521,383.047749
163375.136291,-518.144159,-9030.512492,0.000000
163375.136610,-814.226536,-9104.533087,0.000000
163375.136930,-74.020594,-9474.636058,-76.609550
163375.137249,-74.020594,-9474.636058,-76.609550
163375.137568,-222.061783,-9474.636058,-689.485948
163375.137887,-2368.659014,-7476.080014,0.000000
163375.138206,592.164754,-9400.615463,383.047749
163375.138525,1184.329507,-9252.574275,1915.238745
163375.138844,0.000000,-7920.203579,-919.314598
163375.139163,814.226536,-9622.677246,-842.705048
163375.139483,1036.288319,-9548.656652,-842.705048
163375.139802,1702.473667,-9326.594869,-459.657299
163375.140121,2294.638420,-9474.636058,-1915.238745
163375.140440,3108.864956,-11621.233289,1838.629195
163375.140759,2590.720797,-8882.471304,-995.924147
163375.141078,2960.823768,-8956.491898,383.047749
163375.141397,5773.606348,-10584.944971,4213.525239
163375.141716,2368.659014,-6291.750507,0.000000
163375.142036,5847.626942,-9400.615463,689.485948
163375.142355,5773.606348,-8956.491898,842.705048
163375.142674,5773.606348,-9474.636058,689.485948
163375.142993,6439.791695,-9474.636058,-76.609550
163375.143312,4441.235652,-9104.533087,-689.485948
163375.143631,3256.906145,-8364.327145,-1225.752797
163375.143950,5033.400406,-9844.739029,0.000000
163375.144269,6587.832884,-10584.944971,536.266849
163375.144589,4737.318029,-7179.997637,-2451.505594
163375.144908,7031.956449,-8512.368333,-459.657299
163375.145227,7105.977043,-9548.656652,0.000000
163375.145546,6513.812290,-10140.821405,-229.828649
163375.145865,4589.276840,-10732.986159,-995.924147
163375.146184,4663.297435,-14211.954086,-76.609550
163375.146503,888.247130,-12657.521608,-1378.971896
163375.146822,1628.453072,-12435.459826,0.000000
163375.147142,1554.432478,-10214.842000,153.219100
163375.147461,3182.885551,-7698.141797,1225.752797
163375.147780,2368.659014,-4811.338623,0.000000
163375.148099,2368.659014,-2442.679609,-2451.505594
163375.148418,3552.988522,-4959.379811,-2145.067394
163375.148737,5181.441594,-6809.894666,-1302.362347
163375.149056,3775.050304,-7550.100608,-3140.991542
163375.149375,5847.626942,-14211.954086,-689.485948
163375.149695,3034.844362,-14656.077652,-1455.581446
163375.150014,2516.700203,-16062.468941,842.705048
163375.150333,3256.906145,-14878.139434,2604.724693
163375.150652,2368.659014,-11325.150913,2145.067394
163375.150971,2960.823768,-8142.265362,1838.629195
163375.151290,2294.638420,-3552.988522,-842.705048
163375.151609,1480.411884,-2738.761985,-2221.676944
163375.151928,2960.823768,-6587.832884,1532.190996
163375.152248,2886.803174,-7105.977043,-383.047749
163375.152567,1110.308913,-9474.636058,842.705048
163375.152886,-2738.761985,-9696.697840,-842.705048
163375.153205,-2886.803174,-10881.027347,-306.438199
163375.153524,-1258.350101,-10288.862594,-306.438199
163375.153843,1110.308913,-11177.109724,536.266849
163375.154162,740.205942,-10658.965565,-306.438199
163375.154481,1184.329507,-11769.274478,2604.724693
163375.154801,2294.638420,-11547.212695,1149.143247
163375.155120,-74.020594,-7698.141797,-1915.238745
163375.155439,-1850.514855,-5255.462188,-6971.469032
163375.155758,-1850.514855,-8290.306550,-4903.011187
163375.156077,592.164754,-10362.883188,-3217.601092
163375.156396,3627.009116,-12657.521608,1225.752797
163375.156715,4071.132681,-13027.624579,4213.525239
163375.157034,3478.967927,-13027.624579,4826.401637
163375.157354,1184.329507,-8660.409521,2451.505594
163375.157673,4071.132681,-9474.636058,-76.609550
163375.157992,4959.379811,-9030.512492,2374.896044
163375.158311,6217.729913,-8364.327145,5515.887586
163375.158630,4885.359217,-5477.523971,2451.505594
163375.158949,1998.556043,-6809.894666,-2221.676944
163375.159268,-3627.009116,-8808.450710,-6588.421283
163375.159587,-5033.400406,-12583.501014,-6435.202183
163375.159907,-2442.679609,-14211.954086,-3753.867940
163375.160226,-2442.679609,-12731.542202,-1915.238745
163375.160545,-2368.659014,-10732.986159,0.000000
163375.160864,1258.350101,-9326.594869,1225.752797
163375.161183,7031.956449,-8882.471304,6358.592633
163375.161502,8290.306550,-3627.009116,8580.269578
163375.161821,7031.956449,-1850.514855,7277.907231
163375.162140,2294.638420,-2146.597232,2068.457845
163375.162460,-3182.885551,-6217.729913,-4290.134789
163375.162779,-6143.709319,-12509.480420,-5975.544884
163375.163098,-7105.977043,-15470.304188,-4903.011187
163375.163417,-9252.574275,-15174.221811,-6511.811733
163375.163736,-10066.800811,-13767.830521,-8810.098227
163375.164055,-11251.130318,-12509.480420,-7354.516781
163375.164374,-2886.803174,-12065.356855,-383.047749
163375.164693,2368.659014,-8364.327145,7660.954980
163375.165013,8364.327145,-2960.823768,9039.926876
163375.165332,7920.203579,370.102971,7660.954980
163375.165651,4959.379811,-296.082377,3677.258390
163375.165970,592.164754,-4811.338623,0.000000
163375.166289,-1258.350101,-10436.903782,919.314598
163375.166608,-4515.256246,-12509.480420,-2145.067394
163375.166927,-9326.594869,-13249.686362,-5515.887586
163375.167246,-10066.800811,-15396.283594,-8044.002729
163375.167566,-7179.997637,-17764.942608,-6205.373534
163375.167885,-4737.318029,-13693.809927,-1225.752797
163375.168204,-296.082377,-6957.935855,766.095498
163375.168523,1776.494261,-3923.091493,995.924147
163375.168842,1258.350101,-2072.576638,536.266849
163375.169161,0.000000,-2442.679609,0.000000
163375.169480,4589.276840,-8586.388927,6665.030833
163375.169799,1998.556043,-8290.306550,4213.525239
163375.170119,-1776.494261,-10140.821405,1225.752797
163375.170438,-3552.988522,-11325.150913,-2451.505594
163375.170757,-2442.679609,-15396.283594,-3140.991542
163375.171076,-3108.864956,-15618.345376,-2221.676944
163375.171395,-1110.308913,-13397.727550,-766.095498
163375.171714,-814.226536,-8956.491898,-2451.505594
163375.172033,-592.164754,-6069.688724,-3753.867940
163375.172352,518.144159,-6439.791695,-3064.381992
163375.172672,4663.297435,-9474.636058,3600.648841
163375.172991,4367.215058,-8290.306550,3907.087040
163375.173310,1184.329507,-4811.338623,2451.505594
163375.173629,2294.638420,-7179.997637,612.876398
163375.173948,3478.967927,-9474.636058,1762.019645
163375.174267,2960.823768,-11473.192101,2604.724693
163375.174586,4515.256246,-10955.047942,4060.306139
163375.174905,2664.741391,-8512.368333,0.000000
163375.175225,-296.082377,-8956.491898,-2374.896044
163375.175544,-4145.153275,-9844.739029,-6435.202183
163375.175863,-2886.803174,-13323.706956,-3677.258390
163375.176182,-74.020594,-14137.933492,-76.609550
163375.176501,-666.185348,-9178.553681,-76.609550
163375.176820,-1776.494261,-5995.668130,-2451.505594
163375.177139,2886.803174,-7105.977043,842.705048
163375.177458,3997.112087,-8290.306550,3983.696590
163375.177778,6143.709319,-7846.182985,6435.202183
163375.178097,4367.215058,-5699.585753,2834.553343
163375.178416,1110.308913,-8142.265362,-76.609550
163375.178735,-2072.576638,-10140.821405,-7354.516781
163375.179054,-1628.453072,-15618.345376,-2528.115143
163375.179373,-1850.514855,-15396.283594,-2528.115143
163375.179692,-3849.070898,-12731.542202,-2528.115143
163375.180011,-2442.679609,-11547.212695,-4979.620737
163375.180331,-3330.926739,-10140.821405,-2451.505594
163375.180650,888.247130,-9844.739029,1608.800546
163375.180969,4737.318029,-6883.915261,5515.887586
163375.181288,7031.956449,-4737.318029,7277.907231
163375.181607,2368.659014,-3108.864956,2681.334243
163375.181926,1998.556043,-7105.977043,-229.828649
163375.182245,-1998.556043,-10214.842000,-459.657299
163375.182564,-2442.679609,-12657.521608,-459.657299
163375.182884,-3997.112087,-13619.789333,-383.047749
163375.183203,-5921.647536,-12213.398043,-3753.867940
163375.183522,-7179.997637,-11769.274478,-5515.887586
163375.183841,-3330.926739,-12287.418637,-1838.629195
163375.184160,518.144159,-10288.862594,2604.724693
163375.184479,0.000000,-3627.009116,2451.505594
163375.184799,740.205942,-1850.514855,0.000000
163375.185118,370.102971,-4367.215058,-919.314598
163375.185437,-74.020594,-9474.636058,-76.609550
163375.185756,-222.061783,-11251.130318,1608.800546
163375.186076,-444.123565,-12879.583391,3753.867940
163375.186395,-3034.844362,-11547.212695,-2528.115143
163375.186714,-4219.173869,-11843.295072,-4979.620737
163375.187033,-3256.906145,-13397.727550,-1762.019645
163375.187353,740.205942,-11769.274478,1225.752797
163375.187672,1110.308913,-6365.771101,842.705048
163375.187991,1480.411884,-5329.482782,-459.657299
163375.188310,0.000000,-5477.523971,-3524.039291
163375.188630,0.000000,-8290.306550,-1225.752797
163375.188949,1998.556043,-11769.274478,2374.896044
163375.189268,-74.020594,-10658.965565,2987.772442
163375.189587,-2368.659014,-8660.409521,0.000000
163375.189907,-2442.679609,-10658.965565,-1225.752797
163375.190226,-74.020594,-13027.624579,1149.143247
163375.190545,0.000000,-9548.656652,3677.258390
163375.190864,3182.885551,-7254.018232,2987.772442
163375.191184,2368.659014,-5033.400406,1149.143247
163375.191503,-222.061783,-5625.565159,-3524.039291
163375.191822,-1776.494261,-9104.533087,-3140.991542
163375.192141,-814.226536,-10807.006753,-995.924147
163375.192460,-1258.350101,-10955.047942,536.266849
163375.192780,-2368.659014,-8364.327145,-3677.258390
163375.193099,-2368.659014,-10214.842000,-2451.505594
163375.193418,-74.020594,-11843.295072,-383.047749
163375.193737,1184.329507,-9548.656652,4290.134789
163375.194057,4663.297435,-7920.203579,3600.648841
163375.194376,4071.132681,-6513.812290,1149.143247
163375.194695,0.000000,-5995.668130,-2911.162892
163375.195014,-1110.308913,-9548.656652,-4596.572988
163375.195334,-370.102971,-11621.233289,-2681.334243
163375.195653,-888.247130,-11325.150913,-689.485948
163375.195972,-2368.659014,-10140.821405,-919.314598
163375.196291,-1258.350101,-10362.883188,-3294.210641
163375.196611,-74.020594,-11843.295072,-689.485948
163375.196930,2664.741391,-11917.315666,4290.134789
163375.197249,5033.400406,-8216.285956,4213.525239
163375.197568,4071.132681,-5107.421000,2068.457845
163375.197888,1480.411884,-5255.462188,-1762.019645
163375.198207,-1850.514855,-5995.668130,-3600.648841
163375.198526,-666.185348,-12435.459826,-76.609550
163375.198845,-2072.576638,-11325.150913,306.438199
163375.199165,-2960.823768,-11029.068536,-306.438199
163375.199484,-4737.318029,-8956.491898,-3677.258390
163375.199803,-2442.679609,-11843.295072,-1302.362347
163375.200122,-1184.329507,-10881.027347,1378.971896
163375.200442,2072.576638,-8068.244768,2528.115143
163375.200761,1776.494261,-4959.379811,1608.800546
163375.201080,-592.164754,-4367.215058,-2221.676944
163375.201399,-2442.679609,-5403.503377,-3677.258390
163375.201719,-1554.432478,-11843.295072,-689.485948
163375.202038,-1036.288319,-12435.459826,842.705048
163375.202357,-2442.679609,-10214.842000,-1608.800546
163375.202676,-4737.318029,-9548.656652,-3983.696590
163375.202996,-1258.350101,-13027.624579,-3140.991542
163375.203315,444.123565,-11991.336260,1915.238745
163375.203634,4071.132681,-9474.636058,4596.572988
163375.203953,3775.050304,-5329.482782,2451.505594
163375.204273,2294.638420,-5773.606348,-76.609550
163375.204592,0.000000,-8512.368333,-1302.362347
163375.204911,-74.020594,-10658.965565,-76.609550
163375.205230,-74.020594,-11843.295072,1762.019645
163375.205550,-3108.864956,-9844.739029,0.000000
163375.205869,-5921.647536,-8364.327145,-4290.134789
163375.206188,-1850.514855,-10658.965565,-1915.238745
163375.206507,296.082377,-12065.356855,1302.362347
163375.206827,2812.782580,-9400.615463,4366.744339
163375.207146,2368.659014,-5625.565159,2451.505594
163375.207465,1850.514855,-6513.812290,1149.143247
163375.207784,-1036.288319,-7179.997637,-4903.011187
163375.208103,-1184.329507,-11621.233289,-76.609550
163375.208423,-1850.514855,-11843.295072,-76.609550
163375.208742,-3997.112087,-8364.327145,-3447.429741
163375.209061,-5921.647536,-7179.997637,-4290.134789
163375.209380,-1850.514855,-11103.089130,-3370.820191
163375.209700,666.185348,-12065.356855,459.657299
163375.210019,3478.967927,-10214.842000,3524.039291
163375.210338,3775.050304,-6735.874072,2757.943793
163375.210657,2960.823768,-6143.709319,-766.095498
163375.210977,-2368.659014,-5403.503377,-3677.258390
163375.211296,-1184.329507,-10881.027347,-1225.752797
163375.211615,1702.473667,-14211.954086,3600.648841
163375.211934,518.144159,-10214.842000,536.266849
163375.212254,-2368.659014,-8364.327145,0.000000
163375.212573,-1406.391290,-9474.636058,-2145.067394
163375.212892,888.247130,-10658.965565,919.314598
163375.213211,4737.318029,-9622.677246,4136.915689
163375.213531,3478.967927,-6143.709319,1762.019645
163375.213850,1110.308913,-5329.482782,-536.266849
163375.214169,-2812.782580,-6217.729913,-3677.258390
163375.214488,-4145.153275,-9548.656652,-2451.505594
163375.214808,-1258.350101,-13027.624579,536.266849
163375.215127,-666.185348,-13619.789333,2068.457845
163375.215446,-4145.153275,-9104.533087,-2298.286494
163375.215765,-2738.761985,-9992.780217,-2757.943793
163375.216085,-962.267725,-10584.944971,-153.219100
163375.216404,2442.679609,-9400.615463,3677.258390
163375.216723,1998.556043,-4515.256246,689.485948
163375.217042,1480.411884,-4811.338623,-689.485948
163375.217362,-4589.276840,-4811.338623,-5822.325785
163375.217681,-2812.782580,-10658.965565,-1991.848295
163375.218000,-1258.350101,-13027.624579,-76.609550
163375.218319,-2368.659014,-11473.192101,1225.752797
163375.218639,-3256.906145,-10140.821405,-3370.820191
163375.218958,-3404.947333,-11029.068536,-2604.724693
163375.219277,-370.102971,-11399.171507,383.047749
163375.219596,4145.153275,-9104.533087,3677.258390
163375.219916,7624.121203,-7105.977043,6128.763984
163375.220235,3552.988522,-4515.256246,3677.258390
163375.220554,-74.020594,-5921.647536,-1455.581446
163375.220873,-2294.638420,-9474.636058,-1302.362347
163375.221193,-2960.823768,-11917.315666,-612.876398
163375.221512,-5625.565159,-10732.986159,-1225.752797
163375.221831,-4737.318029,-10881.027347,-2298.286494
163375.222150,-4219.173869,-9918.759623,-3370.820191
163375.222470,-1184.329507,-11621.233289,-995.924147
163375.222789,4071.132681,-11251.130318,4519.963438
163375.223108,3182.885551,-7328.038826,3907.087040
163375.223427,592.164754,-3627.009116,153.219100
163375.223746,-3552.988522,-4811.338623,-3677.258390
163375.224066,-1850.514855,-10510.924376,-2528.115143
163375.224385,-3552.988522,-9844.739029,-2451.505594
163375.224704,-666.185348,-11843.295072,842.705048
163375.225023,-2072.576638,-10732.986159,-766.095498
163375.225343,-3034.844362,-9696.697840,-3294.210641
163375.225662,-962.267725,-11473.192101,-842.705048
163375.225981,5403.503377,-13027.624579,6052.154434
163375.226300,4367.215058,-7772.162391,4903.011187
163375.226620,3256.906145,-5033.400406,2145.067394
163375.226939,0.000000,-5107.421000,-2145.067394
163375.227258,-2368.659014,-7476.080014,-2451.505594
163375.227577,-2368.659014,-9844.739029,-1302.362347
163375.227897,-3256.906145,-10732.986159,0.000000
163375.228216,-2368.659014,-9844.739029,-1225.752797
163375.228535,-296.082377,-10881.027347,-612.876398
163375.228854,1110.308913,-10140.821405,-1915.238745
163375.229174,5551.544565,-12435.459826,4213.525239
163375.229493,4441.235652,-9104.533087,4903.011187
163375.229812,3108.864956,-5699.585753,1762.019645
163375.230131,-370.102971,-5699.585753,-2834.553343
163375.230451,-3552.988522,-8068.244768,-3140.991542
163375.230770,-2812.782580,-12065.356855,-2221.676944
163375.231089,-2146.597232,-11843.295072,-383.047749
163375.231408,-4441.235652,-8660.409521,-3370.820191
163375.231728,-4441.235652,-9548.656652,-3677.258390
163375.232047,-2442.679609,-8956.491898,-4136.915689
163375.232366,2294.638420,-10955.047942,2374.896044
163375.232685,4663.297435,-8808.450710,4443.353888
163375.233005,3923.091493,-5921.647536,2681.334243
163375.233324,222.061783,-5847.626942,-1378.971896
163375.233643,-1036.288319,-9474.636058,-1608.800546
163375.233962,-2220.617826,-11399.171507,-1302.362347
163375.234282,-1258.350101,-13027.624579,-1302.362347
163375.234601,-4145.153275,-10436.903782,-2145.067394
163375.234920,-3256.906145,-9918.759623,-2451.505594
163375.235239,-3552.988522,-7772.162391,-3064.381992
163375.235559,3256.906145,-11547.212695,3294.210641
163375.235878,5847.626942,-8808.450710,6511.811733
163375.236197,5477.523971,-4811.338623,4213.525239
163375.236516,3478.967927,-4145.153275,-689.485948
163375.236836,-74.020594,-7105.977043,-3064.381992
163375.237155,-1850.514855,-11843.295072,-1302.362347
163375.237474,-3330.926739,-11769.274478,-1225.752797
163375.237793,-4293.194464,-11547.212695,-689.485948
163375.238113,-4737.318029,-10732.986159,-1838.629195
163375.238432,-4737.318029,-9548.656652,-3524.039291
163375.238751,-74.020594,-11029.068536,689.485948
163375.239070,3701.029710,-9104.533087,3600.648841
163375.239389,3330.926739,-6143.709319,3370.820191
163375.239709,1998.556043,-6513.812290,-76.609550
163375.240028,-2368.659014,-7179.997637,-2757.943793
163375.240347,-2442.679609,-10732.986159,-2068.457845
163375.240666,-740.205942,-14508.036463,1685.410096
163375.240986,-1850.514855,-11843.295072,-1302.362347
163375.241305,-2072.576638,-12435.459826,-383.047749
163375.241624,-1628.453072,-10881.027347,-2911.162892
163375.241943,1850.514855,-11769.274478,842.705048
163375.242263,4071.132681,-10140.821405,4519.963438
163375.242582,4293.194464,-6883.915261,2757.943793
163375.242901,1184.329507,-4219.173869,0.000000
163375.243220,-1184.329507,-6587.832884,-2911.162892
163375.243540,-2072.576638,-10140.821405,-1225.752797
163375.243859,-74.020594,-13027.624579,-76.609550
163375.244178,-962.267725,-10066.800811,-689.485948
163375.244497,-74.020594,-11251.130318,-76.609550
163375.244817,-1924.535449,-9030.512492,-1685.410096
163375.245136,1184.329507,-10807.006753,1302.362347
163375.245455,4145.153275,-9696.697840,4749.792088
163375.245774,2368.659014,-5995.668130,3677.258390
163375.246094,-2368.659014,-4811.338623,0.000000
163375.246413,-4737.318029,-4811.338623,-4903.011187
163375.246732,-4737.318029,-8956.491898,-3983.696590
163375.247051,-2146.597232,-11843.295072,0.000000
163375.247371,-2442.679609,-10362.883188,-2528.115143
163375.247690,-1628.453072,-10510.924376,-1685.410096
163375.248009,-2442.679609,-9178.553681,-3294.210641
163375.248328,740.205942,-11029.068536,76.609550
163375.248648,3923.091493,-10066.800811,4136.915689
163375.248967,2960.823768,-6587.832884,3677.258390
163375.249286,2294.638420,-5329.482782,-995.924147
163375.249605,-3849.070898,-5995.668130,-5515.887586
163375.249925,-3552.988522,-10881.027347,-3064.381992
163375.250244,-74.020594,-14211.954086,-76.609550
163375.250563,-1554.432478,-10436.903782,-2451.505594
163375.250882,-1850.514855,-10140.821405,-1608.800546
163375.251202,-2146.597232,-9326.594869,-1838.629195
163375.251521,962.267725,-10881.027347,995.924147
163375.251840,5847.626942,-10658.965565,6052.154434
163375.252159,5329.482782,-7105.977043,7277.907231
163375.252479,2294.638420,-3775.050304,1532.190996
163375.252798,-1628.453072,-3923.091493,-4519.963438
163375.253117,-3552.988522,-8660.409521,-2451.505594
163375.253436,-4145.153275,-11917.315666,-1225.752797
163375.253756,-5699.585753,-10140.821405,-2757.943793
163375.254075,-4737.318029,-10955.047942,-2604.724693
163375.254394,-3627.009116,-9844.739029,-3983.696590
163375.254713,-888.247130,-11177.109724,-1225.752797
163375.255032,4663.297435,-11843.295072,3600.648841
163375.255352,4663.297435,-8290.306550,4826.401637
163375.255671,2886.803174,-6809.894666,2374.896044
163375.255990,-962.267725,-3552.988522,-4673.182538
163375.256309,-2664.741391,-8364.327145,-3064.381992
163375.256629,-2368.659014,-11917.315666,612.876398
163375.256948,-1332.370696,-11917.315666,0.000000
163375.257267,-1998.556043,-11103.089130,-1455.581446
163375.257586,-3034.844362,-10436.903782,-3524.039291
163375.257906,-740.205942,-11621.233289,-1302.362347
163375.258225,4663.297435,-11843.295072,4213.525239
163375.258544,5921.647536,-9696.697840,7354.516781
163375.258863,5551.544565,-6513.812290,3600.648841
163375.259183,296.082377,-4515.256246,-1762.019645
163375.259502,-2368.659014,-5403.503377,-2451.505594
163375.259821,-3552.988522,-7179.997637,-2451.505594
163375.260140,-2220.617826,-11325.150913,76.609550
163375.260460,-3849.070898,-9992.780217,-1455.581446
163375.260779,-4219.173869,-9844.739029,-3294.210641
163375.261098,-1258.350101,-11251.130318,-2528.115143
163375.261417,666.185348,-11325.150913,2298.286494
163375.261737,1480.411884,-8660.409521,3677.258390
163375.262056,1628.453072,-5403.503377,612.876398
163375.262375,-74.020594,-7105.977043,-1685.410096
163375.262694,-4737.318029,-5995.668130,-6741.640382
163375.263014,-2590.720797,-10955.047942,-2528.115143
163375.263333,-1702.473667,-11547.212695,153.219100
163375.263652,-2146.597232,-10362.883188,-995.924147
163375.263971,-2146.597232,-9622.677246,-1991.848295
163375.264291,1702.473667,-13027.624579,-76.609550
163375.264610,2664.741391,-10732.986159,2681.334243
163375.264929,5477.523971,-9326.594869,4826.401637
163375.265248,3478.967927,-5995.668130,3217.601092
163375.265568,444.123565,-5847.626942,0.000000
163375.265887,-4145.153275,-5995.668130,-3677.258390
163375.266206,-3034.844362,-11103.089130,-3753.867940
163375.266525,-4737.318029,-11325.150913,-1225.752797
163375.266845,-3552.988522,-10362.883188,-3677.258390
163375.267164,-2664.741391,-8290.306550,-3447.429741
163375.267483,2294.638420,-11843.295072,-76.609550
163375.267802,1998.556043,-11029.068536,2681.334243
163375.268122,3775.050304,-9030.512492,5362.668486
163375.268441,2664.741391,-5699.585753,3140.991542
163375.268760,0.000000,-4367.215058,-1685.410096
163375.269079,-962.267725,-6957.935855,-3753.867940
163375.269399,-3256.906145,-9548.656652,-2911.162892
163375.269718,-2368.659014,-11325.150913,0.000000
163375.270037,-1776.494261,-12065.356855,-153.219100
163375.270356,-4219.173869,-9104.533087,-5286.058936
163375.270675,-1850.514855,-11251.130318,-2834.553343
163375.270995,444.123565,-11177.109724,612.876398
163375.271314,4219.173869,-9844.739029,3907.087040
163375.271633,3849.070898,-6513.812290,3524.039291
163375.271952,1702.473667,-6365.771101,-76.609550
163375.272272,-296.082377,-6809.894666,-2834.553343
163375.272591,-2368.659014,-9326.594869,-2528.115143
163375.272910,-3552.988522,-10732.986159,0.000000
163375.273229,-1776.494261,-11473.192101,383.047749
163375.273549,-3701.029710,-7772.162391,-4290.134789
163375.273868,-814.226536,-11251.130318,-1455.581446
163375.274187,1332.370696,-11399.171507,919.314598
163375.274506,3775.050304,-9918.759623,4290.134789
163375.274826,3775.050304,-6957.935855,3600.648841
163375.275145,3478.967927,-6513.812290,-76.609550
163375.275464,-74.020594,-7920.203579,-459.657299
163375.275783,-370.102971,-9474.636058,-2528.115143
163375.276103,-1776.494261,-10436.903782,-1149.143247
163375.276422,-888.247130,-11917.315666,1225.752797
163375.276741,-5773.606348,-9548.656652,-3064.381992
163375.277060,-3627.009116,-10658.965565,-2528.115143
163375.277380,0.000000,-11473.192101,383.047749
163375.277699,4071.132681,-10066.800811,3983.696590
163375.278018,4663.297435,-7105.977043,4826.401637
163375.278337,1924.535449,-5107.421000,1991.848295
163375.278657,-666.185348,-7105.977043,-1915.238745
163375.278976,-2442.679609,-9474.636058,-3140.991542
163375.279295,-2442.679609,-12435.459826,-1915.238745
163375.279614,-3552.988522,-12065.356855,1378.971896
163375.279934,-4737.318029,-9548.656652,-2451.505594
163375.280253,-2072.576638,-9918.759623,-2145.067394
163375.280572,666.185348,-10881.027347,0.000000
163375.280891,3404.947333,-10807.006753,3677.258390
163375.281211,3478.967927,-8290.306550,2145.067394
163375.281530,2072.576638,-6883.915261,1149.143247
163375.281849,-1258.350101,-7105.977043,-1838.629195
163375.282168,-666.185348,-9474.636058,-3753.867940
163375.282488,-1628.453072,-11695.253884,-766.095498
163375.282807,1332.370696,-14063.912898,3600.648841
163375.283126,-2368.659014,-8956.491898,-1302.362347
163375.283445,-2812.782580,-9548.656652,-2528.115143
163375.283764,0.000000,-10436.903782,-383.047749
163375.284083,2368.659014,-9548.656652,3677.258390
163375.284402,2368.659014,-5995.668130,4903.011187
163375.284721,1702.473667,-5403.503377,0.000000
163375.285040,-1184.329507,-7624.121203,-689.485948
163375.285359,-2442.679609,-9178.553681,-3753.867940
163375.285678,-4219.173869,-10955.047942,-2834.553343
163375.285997,-2738.761985,-13027.624579,-76.609550
163375.286317,-4885.359217,-10584.944971,-2451.505594
163375.286636,-3849.070898,-10362.883188,-3524.039291
163375.286955,-740.205942,-11325.150913,-1302.362347
163375.287274,1184.329507,-10140.821405,2911.162892
163375.287593,4293.194464,-8956.491898,3600.648841
163375.287912,1998.556043,-4367.215058,1685.410096
163375.288231,1702.473667,-5921.647536,-2528.115143
163375.288550,-1776.494261,-7179.997637,-3064.381992
163375.288869,-370.102971,-9622.677246,-2145.067394
163375.289188,1702.473667,-13027.624579,1762.019645
163375.289507,-1554.432478,-11325.150913,-919.314598
163375.289826,-2294.638420,-10066.800811,-2068.457845
163375.290145,-888.247130,-10584.944971,-612.876398
163375.290464,5255.462188,-12435.459826,4826.401637
163375.290783,4737.318029,-7179.997637,6128.763984
163375.291103,4663.297435,-5773.606348,4213.525239
163375.291422,1702.473667,-5773.606348,-76.609550
163375.291741,-74.020594,-8290.306550,-1915.238745
163375.292060,-4737.318029,-9548.656652,0.000000
163375.292379,-3330.926739,-11547.212695,-536.266849
163375.292698,-4589.276840,-11029.068536,-2068.457845
163375.293017,-3404.947333,-10510.924376,-2451.505594
163375.293336,-1554.432478,-10140.821405,-3370.820191
163375.293655,1332.370696,-11029.068536,2068.457845
163375.293974,592.164754,-8364.327145,1838.629195
163375.294293,3182.885551,-6217.729913,-689.485948
163375.294612,296.082377,-7031.956449,-1532.190996
163375.294931,-74.020594,-9474.636058,-2528.115143
163375.295250,0.000000,-10732.986159,0.000000
163375.295569,-370.102971,-11695.253884,383.047749
163375.295888,-1554.432478,-10658.965565,-383.047749
163375.296208,-2072.576638,-9548.656652,-1838.629195
163375.296527,-666.185348,-9548.656652,-4060.306139
163375.296846,2886.803174,-10658.965565,1225.752797
163375.297165,4737.318029,-8956.491898,2987.772442
163375.297484,2368.659014,-4811.338623,2145.067394
163375.297803,1258.350101,-6143.709319,766.095498
163375.298122,-74.020594,-9474.636058,-76.609550
163375.298441,-3404.947333,-9548.656652,-1532.190996
163375.298760,-3775.050304,-11251.130318,-306.438199
163375.299079,-4145.153275,-10881.027347,-995.924147
163375.299398,-3108.864956,-9548.656652,-1302.362347
163375.299717,-2960.823768,-7179.997637,-2451.505594
163375.300036,1036.288319,-9474.636058,1149.143247
163375.300355,0.000000,-7179.997637,3064.381992
163375.300674,1480.411884,-7031.956449,2451.505594
163375.300994,814.226536,-7105.977043,-76.609550
163375.301313,-1480.411884,-7772.162391,-2451.505594
163375.301632,-1702.473667,-10732.986159,-2528.115143
163375.301951,-1258.350101,-12435.459826,-306.438199
163375.302270,-1850.514855,-12065.356855,-1149.143247
163375.302589,-5255.462188,-9548.656652,-4596.572988
163375.302908,-2664.741391,-10140.821405,-3064.381992
163375.303227,1258.350101,-12435.459826,842.705048
163375.303546,4515.256246,-9474.636058,3907.087040
163375.303865,2368.659014,-4811.338623,2451.505594
163375.304184,4145.153275,-5995.668130,3677.258390
163375.304503,0.000000,-3923.091493,-1838.629195
163375.304822,-222.061783,-9844.739029,-1302.362347
163375.305141,-1258.350101,-11621.233289,383.047749
163375.305460,-2590.720797,-10807.006753,0.000000
163375.305780,-1554.432478,-10658.965565,-1302.362347
163375.306099,-1776.494261,-10732.986159,-1685.410096
163375.306418,-666.185348,-11251.130318,0.000000
163375.306737,962.267725,-10214.842000,2221.676944
163375.307056,962.267725,-6809.894666,2221.676944
163375.307375,962.267725,-7624.121203,-76.609550
163375.307694,-1776.494261,-5403.503377,-2451.505594
163375.308013,-74.020594,-10066.800811,-1149.143247
163375.308332,-74.020594,-10881.027347,842.705048
163375.308651,-1258.350101,-10436.903782,0.000000
163375.308970,-2442.679609,-8290.306550,-2528.115143
163375.309289,-2812.782580,-9992.780217,-2528.115143
163375.309608,-1480.411884,-11843.295072,-995.924147
163375.309927,1702.473667,-11473.192101,1608.800546
163375.310246,4663.297435,-9474.636058,3907.087040
163375.310566,2294.638420,-6513.812290,536.266849
163375.310885,-1184.329507,-6291.750507,-1838.629195
163375.311204,-1258.350101,-9252.574275,-2145.067394
163375.311523,-74.020594,-12583.501014,995.924147
163375.311842,-3552.988522,-9548.656652,0.000000
163375.312161,-2442.679609,-9400.615463,-766.095498
163375.312480,-592.164754,-9844.739029,-766.095498
163375.312799,518.144159,-10214.842000,612.876398
163375.313118,1998.556043,-9474.636058,2451.505594
163375.313437,3330.926739,-8734.430116,2374.896044
163375.313756,1702.473667,-6365.771101,-76.609550
163375.314075,-74.020594,-6957.935855,-3677.258390
163375.314394,-740.205942,-10881.027347,-1532.190996
163375.314713,-74.020594,-12435.459826,-689.485948
163375.315032,0.000000,-11917.315666,1838.629195
163375.315351,-1998.556043,-10658.965565,-995.924147
163375.315671,-3330.926739,-9622.677246,-2298.286494
163375.315990,-2294.638420,-10140.821405,-1455.581446
163375.316309,1480.411884,-9548.656652,0.000000
163375.316628,3330.926739,-5847.626942,1915.238745
163375.316947,2368.659014,-3034.844362,459.657299
163375.317266,0.000000,-5403.503377,0.000000
163375.317585,-1850.514855,-8882.471304,-3140.991542
163375.317904,-3108.864956,-11843.295072,-1455.581446
163375.318223,-3552.988522,-13101.645173,612.876398
163375.318542,-3997.112087,-11547.212695,-1991.848295
163375.318861,-3034.844362,-10732.986159,-3217.601092
163375.319180,-1332.370696,-11251.130318,-1302.362347
163375.319499,0.000000,-8364.327145,0.000000
163375.319818,2072.576638,-7698.141797,2374.896044
163375.320137,592.164754,-3775.050304,0.000000
163375.320457,1184.329507,-5847.626942,-1225.752797
163375.320776,2072.576638,-9252.574275,-153.219100
163375.321095,3478.967927,-11843.295072,-76.609550
163375.321414,1776.494261,-12213.398043,2681.334243
163375.321733,-666.185348,-11177.109724,842.705048
163375.322052,-2590.720797,-9844.739029,-2068.457845
163375.322371,-2812.782580,-10140.821405,-2145.067394
163375.322690,-74.020594,-10584.944971,0.000000
163375.323009,4071.132681,-8882.471304,3294.210641
163375.323328,2886.803174,-5773.606348,3600.648841
163375.323647,-74.020594,-3552.988522,-1915.238745
163375.323966,-2960.823768,-7179.997637,-3064.381992
163375.324285,-666.185348,-10658.965565,-2528.115143
163375.324604,-3256.906145,-11621.233289,0.000000
163375.324923,-3478.967927,-10881.027347,-306.438199
163375.325243,-3627.009116,-9548.656652,-2451.505594
163375.325562,-74.020594,-12139.377449,-76.609550
163375.325881,1924.535449,-11843.295072,2374.896044
163375.326200,2294.638420,-9252.574275,1225.752797
163375.326519,1776.494261,-7179.997637,2451.505594
163375.326838,1998.556043,-7105.977043,-1915.238745
163375.327157,-2072.576638,-6291.750507,-4903.011187
163375.327476,-74.020594,-10584.944971,-2528.115143
163375.327795,-296.082377,-13175.665768,383.047749
163375.328114,-814.226536,-11769.274478,459.657299
163375.328433,-2146.597232,-10214.842000,-1302.362347
163375.328752,-666.185348,-11843.295072,-76.609550
163375.329071,888.247130,-10732.986159,0.000000
163375.329390,3552.988522,-8956.491898,4903.011187
163375.329709,5551.544565,-6513.812290,4749.792088
163375.330029,1776.494261,-3404.947333,536.266849
163375.330348,-3552.988522,-4811.338623,-2451.505594
163375.330667,-2590.720797,-9474.636058,-2528.115143
163375.330986,-3997.112087,-11695.253884,-689.485948
163375.331305,-4293.194464,-11473.192101,-766.095498
163375.331624,-4071.132681,-10584.944971,-2298.286494
163375.331943,-1554.432478,-12213.398043,-1685.410096
163375.332262,-2368.659014,-9548.656652,0.000000
163375.332581,592.164754,-9474.636058,1991.848295
163375.332900,2368.659014,-9400.615463,3447.429741
163375.333219,2294.638420,-5921.647536,-995.924147
163375.333538,0.000000,-5995.668130,-2451.505594
163375.333857,222.061783,-9474.636058,-1915.238745
163375.334176,592.164754,-12213.398043,0.000000
163375.334495,-666.185348,-11991.336260,766.095498
163375.334814,-3182.885551,-8882.471304,-2451.505594
163375.335134,-3034.844362,-10066.800811,-3140.991542
163375.335453,-1480.411884,-10584.944971,-1225.752797
163375.335772,3182.885551,-8808.450710,1378.971896
163375.336091,4737.318029,-6587.832884,4290.134789
163375.336410,5847.626942,-7698.141797,4826.401637
163375.336729,0.000000,-5403.503377,0.000000
163375.337048,-1036.288319,-8660.409521,-1762.019645
163375.337367,-2442.679609,-11103.089130,0.000000
163375.337686,-2516.700203,-11251.130318,766.095498
163375.338005,-4515.256246,-8956.491898,-3064.381992
163375.338324,-2886.803174,-10436.903782,-1608.800546
163375.338643,-4145.153275,-8364.327145,-2451.505594
163375.338962,0.000000,-8660.409521,1838.629195
163375.339281,1998.556043,-7402.059420,2451.505594
163375.339600,0.000000,-5995.668130,612.876398
163375.339920,-962.267725,-6069.688724,-3983.696590
163375.340239,-1258.350101,-9474.636058,-2528.115143
163375.340558,-888.247130,-12213.398043,-766.095498
163375.340877,-962.267725,-11843.295072,0.000000
163375.341196,-1258.350101,-11695.253884,-1225.752797
163375.341515,-2664.741391,-11177.109724,-1532.190996
163375.341834,-74.020594,-11547.212695,-995.924147
163375.342153,3478.967927,-11843.295072,3600.648841
163375.342472,4737.318029,-6883.915261,4290.134789
163375.342791,2368.659014,-3034.844362,1532.190996
163375.343110,1184.329507,-6291.750507,-1302.362347
163375.343429,-1480.411884,-8512.368333,-2374.896044
163375.343748,-2368.659014,-11103.089130,-1225.752797
163375.344067,-1258.350101,-11843.295072,-76.609550
163375.344386,-2442.679609,-11029.068536,-995.924147
163375.344706,-3404.947333,-9844.739029,-2451.505594
163375.345025,-3552.988522,-9548.656652,0.000000
163375.345344,888.247130,-10436.903782,3064.381992
163375.345663,148.041188,-5995.668130,0.000000
163375.345982,2294.638420,-5625.565159,842.705048
163375.346301,0.000000,-5181.441594,-1532.190996
163375.346620,-962.267725,-8068.244768,-2528.115143
163375.346939,-592.164754,-11843.295072,612.876398
163375.347258,-74.020594,-14211.954086,2987.772442
163375.347577,-4145.153275,-10881.027347,-1838.629195
163375.347896,-4737.318029,-10510.924376,-3830.477490
163375.348215,-3627.009116,-11473.192101,-3064.381992
163375.348534,0.000000,-10140.821405,612.876398
163375.348853,2368.659014,-8956.491898,4903.011187
163375.349172,2368.659014,-3627.009116,919.314598
163375.349492,296.082377,-4811.338623,-842.705048
163375.349811,-296.082377,-7772.162391,-612.876398
163375.350130,-1554.432478,-9474.636058,-1608.800546
163375.350449,-74.020594,-12731.542202,2681.334243
163375.350768,-2368.659014,-11473.192101,76.609550
163375.351087,-2146.597232,-10362.883188,-1378.971896
163375.351406,-1332.370696,-10732.986159,-1302.362347
163375.351725,0.000000,-9548.656652,1685.410096
163375.352044,2516.700203,-8586.388927,2681.334243
163375.352363,1850.514855,-5033.400406,919.314598
163375.352682,-2072.576638,-3034.844362,-3370.820191
163375.353001,-444.123565,-8660.409521,-1455.581446
163375.353320,-1258.350101,-9548.656652,-3064.381992
163375.353639,-74.020594,-13027.624579,1455.581446
163375.353958,-2294.638420,-10807.006753,153.219100
163375.354277,-3552.988522,-9548.656652,-2298.286494
163375.354597,-2664.741391,-10510.924376,-1455.581446
163375.354916,2146.597232,-12435.459826,1762.019645
163375.355235,4663.297435,-9030.512492,4826.401637
163375.355554,5847.626942,-7105.977043,3600.648841
163375.355873,1702.473667,-5329.482782,-1302.362347
163375.356192,-2664.741391,-7179.997637,-3677.258390
163375.356511,-5107.421000,-8586.388927,-5515.887586
163375.356830,-3701.029710,-13323.706956,-766.095498
163375.357149,-3552.988522,-12213.398043,-995.924147
163375.357468,-2516.700203,-10658.965565,-2298.286494
163375.357787,-370.102971,-11843.295072,-383.047749
163375.358106,4663.297435,-11843.295072,1225.752797
163375.358425,5477.523971,-9400.615463,5286.058936
163375.358744,5551.544565,-6513.812290,2987.772442
163375.359063,2294.638420,-5921.647536,-76.609550
163375.359383,0.000000,-6291.750507,0.000000
163375.359702,-1480.411884,-8734.430116,-2757.943793
163375.360021,-962.267725,-12879.583391,0.000000
163375.360340,-2812.782580,-13101.645173,-612.876398
163375.360659,-4071.132681,-10955.047942,-2528.115143
163375.360978,-1258.350101,-11843.295072,-2528.115143
163375.361297,0.000000,-9992.780217,0.000000
163375.361616,4145.153275,-8956.491898,4596.572988
163375.361935,5033.400406,-6291.750507,5822.325785
163375.362254,4071.132681,-4737.318029,1762.019645
163375.362573,0.000000,-6291.750507,-612.876398
163375.362892,-3108.864956,-9030.512492,-2374.896044
163375.363211,-3701.029710,-12139.377449,-612.876398
163375.363530,-4219.173869,-11843.295072,-995.924147
163375.363849,-4737.318029,-11325.150913,-3677.258390
163375.364169,-4737.318029,-9844.739029,-4903.011187
163375.364488,-2368.659014,-10881.027347,-1225.752797
163375.364807,0.000000,-9548.656652,1225.752797
163375.365126,3478.967927,-8142.265362,2604.724693
163375.365445,1850.514855,-4737.318029,-689.485948
163375.365764,2664.741391,-7624.121203,-76.609550
163375.366083,518.144159,-8216.285956,-1225.752797
163375.366402,592.164754,-11695.253884,766.095498
163375.366721,-962.267725,-11843.295072,1455.581446
163375.367040,-4737.318029,-9548.656652,0.000000
163375.367359,-4145.153275,-9548.656652,-2681.334243
163375.367678,-666.185348,-9770.718434,-1915.238745
163375.367997,2368.659014,-9844.739029,3217.601092
163375.368316,5107.421000,-7698.141797,4596.572988
163375.368635,4071.132681,-4441.235652,1762.019645
163375.368955,-74.020594,-6365.771101,-1378.971896
163375.369274,-2368.659014,-8364.327145,-2374.896044
163375.369593,-2368.659014,-10881.027347,0.000000
163375.369912,-3034.844362,-10658.965565,689.485948
163375.370231,-5921.647536,-8364.327145,-2298.286494
163375.370550,-2442.679609,-9474.636058,-2528.115143
163375.370869,-2368.659014,-10140.821405,0.000000
163375.371188,962.267725,-9992.780217,0.000000
163375.371507,296.082377,-8068.244768,1838.629195
163375.371826,-74.020594,-5033.400406,-4366.744339
163375.372145,-518.144159,-7179.997637,-3447.429741
163375.372464,-814.226536,-9326.594869,-3140.991542
163375.372783,-518.144159,-11843.295072,-1455.581446
163375.373102,-518.144159,-13619.789333,-76.609550
163375.373421,-1998.556043,-12435.459826,-76.609550
163375.373740,-1258.350101,-9474.636058,-2528.115143
163375.374060,370.102971,-10066.800811,-689.485948
163375.374379,2664.741391,-9548.656652,3064.381992
163375.374698,5921.647536,-7772.162391,4903.011187
163375.375017,4071.132681,-3552.988522,1915.238745
163375.375336,222.061783,-5921.647536,-1608.800546
163375.375655,-3034.844362,-9104.533087,-3677.258390
163375.375974,-4071.132681,-11843.295072,-1991.848295
163375.376293,-1258.350101,-14211.954086,-76.609550
163375.376612,-2516.700203,-11399.171507,-76.609550
163375.376931,-666.185348,-11843.295072,-76.609550
163375.377250,-74.020594,-9474.636058,-383.047749
163375.377569,1184.329507,-8068.244768,2451.505594
163375.377888,1184.329507,-5403.503377,4903.011187
163375.378207,962.267725,-4811.338623,1225.752797
163375.378526,-370.102971,-5995.668130,-2221.676944
163375.378846,-1924.535449,-8734.430116,-3447.429741
163375.379165,-2812.782580,-12435.459826,-1991.848295
163375.379484,-2442.679609,-12731.542202,-1762.019645
163375.379803,-3552.988522,-13545.768739,-306.438199
163375.380122,-3034.844362,-10658.965565,-4979.620737
163375.380441,-2220.617826,-10140.821405,-3447.429741
163375.380760,888.247130,-9548.656652,1762.019645
163375.381079,6513.812290,-7179.997637,5515.887586
163375.381398,6217.729913,-4959.379811,4749.792088
163375.381717,1850.514855,-4737.318029,-229.828649
163375.382036,-1258.350101,-8290.306550,-2221.676944
163375.382355,-4145.153275,-9548.656652,-3064.381992
163375.382674,-2886.803174,-12583.501014,76.609550
163375.382993,-3552.988522,-10658.965565,0.000000
163375.383312,-2220.617826,-10732.986159,-2451.505594
163375.383632,-74.020594,-12435.459826,-76.609550
163375.383951,0.000000,-9548.656652,2451.505594
163375.384270,3478.967927,-7031.956449,1149.143247
163375.384589,1480.411884,-5329.482782,2068.457845
163375.384908,-888.247130,-4219.173869,-2221.676944
163375.385229,-1702.473667,-6513.812290,-2911.162892
163375.385548,-1480.411884,-11325.150913,919.314598
163375.385868,-1850.514855,-12731.542202,-76.609550
163375.386187,-3034.844362,-12361.439231,-76.609550
163375.386506,-3627.009116,-11251.130318,-3753.867940
163375.386825,-4145.153275,-10881.027347,-4290.134789
163375.387144,3478.967927,-13027.624579,-76.609550
163375.387464,5773.606348,-9844.739029,5056.230287
163375.387783,6143.709319,-5699.585753,4826.401637
163375.388102,2664.741391,-4219.173869,0.000000
163375.388421,-370.102971,-6809.894666,-2604.724693
163375.388740,-4737.318029,-8364.327145,-2451.505594
163375.389060,-2516.700203,-11769.274478,-459.657299
163375.389379,-2738.761985,-11695.253884,-612.876398
163375.389698,-2146.597232,-10955.047942,-1149.143247
163375.390017,-666.185348,-9474.636058,-1302.362347
163375.390336,1332.370696,-9770.718434,1225.752797
163375.390656,5033.400406,-10066.800811,4826.401637
163375.390975,3478.967927,-6957.935855,4213.525239
163375.391294,1702.473667,-7105.977043,-689.485948
163375.391613,-222.061783,-7994.224174,-1378.971896
163375.391933,-3552.988522,-9548.656652,-2911.162892
163375.392252,-1554.432478,-12583.501014,-689.485948
163375.392571,-2368.659014,-11325.150913,-766.095498
163375.392890,-3034.844362,-9178.553681,-1762.019645
163375.393209,-1850.514855,-8882.471304,-3677.258390
163375.393529,2590.720797,-11251.130318,1455.581446
163375.393848,5255.462188,-9474.636058,5822.325785
163375.394167,7031.956449,-8290.306550,5439.278036
163375.394486,2294.638420,-5551.544565,0.000000
163375.394805,-74.020594,-9474.636058,-383.047749
163375.395125,-4737.318029,-9548.656652,-3983.696590
163375.395444,-4811.338623,-12361.439231,-1915.238745
163375.395763,-3478.967927,-11843.295072,-1225.752797
163375.396082,-2442.679609,-9770.718434,-919.314598
163375.396401,-1776.494261,-9548.656652,0.000000
163375.396721,1776.494261,-9548.656652,306.438199
163375.397040,4737.318029,-9844.739029,5056.230287
163375.397359,5255.462188,-7550.100608,4213.525239
163375.397678,1702.473667,-3627.009116,-919.314598
163375.397997,2294.638420,-8290.306550,-1608.800546
163375.398317,-1406.391290,-9992.780217,-2987.772442
163375.398636,-1406.391290,-12657.521608,-689.485948
163375.398955,-2664.741391,-12879.583391,-689.485948
163375.399274,-3552.988522,-10732.986159,-1225.752797
163375.399594,-3552.988522,-9548.656652,-4136.915689
163375.399913,-2072.576638,-10732.986159,0.000000
163375.400232,4293.194464,-10658.965565,4443.353888
163375.400551,6735.874072,-9178.553681,7277.907231
163375.400870,1554.432478,-2886.803174,0.000000
163375.401190,-74.020594,-5921.647536,-1762.019645
163375.401509,-3849.070898,-8734.430116,-3370.820191
163375.401828,-4071.132681,-11547.212695,-1532.190996
163375.402147,-3849.070898,-12213.398043,-842.705048
163375.402466,-4589.276840,-11325.150913,-612.876398
163375.402786,-2886.803174,-9548.656652,-2451.505594
163375.403105,-1184.329507,-10140.821405,0.000000
163375.403424,0.000000,-7772.162391,1225.752797
163375.403743,2960.823768,-7772.162391,3830.477490
163375.404062,0.000000,-3627.009116,0.000000
163375.404382,-1406.391290,-6513.812290,-2757.943793
163375.404701,-2442.679609,-9252.574275,-3830.477490
163375.405020,-1702.473667,-12287.418637,-1225.752797
163375.405339,-1924.535449,-11547.212695,-76.609550
163375.405658,-962.267725,-10362.883188,-76.609550
163375.405978,-1480.411884,-8734.430116,-1762.019645
163375.406297,1110.308913,-8808.450710,-842.705048
163375.406616,3552.988522,-9548.656652,3677.258390
163375.406935,6809.894666,-8956.491898,8580.269578
163375.407255,592.164754,-4219.173869,1838.629195
163375.407574,-74.020594,-6291.750507,-1608.800546
163375.407893,-3701.029710,-8290.306550,-4290.134789
163375.408212,-5699.585753,-11547.212695,-3447.429741
163375.408531,-2738.761985,-12731.542202,-2528.115143
163375.408851,-2442.679609,-11843.295072,-842.705048
163375.409170,-74.020594,-11251.130318,-689.485948
163375.409489,-370.102971,-9474.636058,-842.705048
163375.409808,1184.329507,-8290.306550,2068.457845
163375.410127,4145.153275,-8956.491898,6128.763984
163375.410447,2368.659014,-4811.338623,1838.629195
163375.410766,518.144159,-5699.585753,-1762.019645
163375.411085,-1554.432478,-8438.347739,-3677.258390
163375.411404,-2738.761985,-11621.233289,-3217.601092
163375.411723,-1850.514855,-13619.789333,-1915.238745
163375.412043,-2590.720797,-13323.706956,-1608.800546
163375.412362,-2442.679609,-11547.212695,-3830.477490
163375.412681,-74.020594,-11843.295072,-1302.362347
163375.413000,2960.823768,-9548.656652,1838.629195
163375.413319,9400.615463,-11251.130318,9422.974625
163375.413639,5921.647536,-3627.009116,4903.011187
163375.413958,2294.638420,-3478.967927,536.266849
163375.414277,-1332.370696,-6513.812290,-2451.505594
163375.414596,-4145.153275,-10140.821405,-2451.505594
163375.414916,-3552.988522,-10140.821405,0.000000
163375.415235,-3034.844362,-12435.459826,-612.876398
163375.415554,-2886.803174,-11325.150913,-306.438199
163375.415873,-666.185348,-11843.295072,-1302.362347
163375.416192,1110.308913,-10510.924376,1149.143247
163375.416512,4367.215058,-9474.636058,4826.401637
163375.416831,1776.494261,-5995.668130,1762.019645
163375.417150,-666.185348,-4663.297435,-1608.800546
163375.417469,-1850.514855,-7105.977043,-3753.867940
163375.417788,-2368.659014,-9844.739029,-1838.629195
163375.418108,-3108.864956,-11917.315666,0.000000
163375.418427,-4737.318029,-10732.986159,0.000000
163375.418746,-3330.926739,-11695.253884,-2528.115143
163375.419065,-666.185348,-11547.212695,-1685.410096
163375.419384,2294.638420,-10658.965565,-1302.362347
163375.419704,6069.688724,-10140.821405,4979.620737
163375.420023,4959.379811,-6069.688724,3907.087040
163375.420342,1998.556043,-5403.503377,76.609550
163375.420661,-1332.370696,-7105.977043,-2528.115143
163375.420980,-2960.823768,-9696.697840,-1838.629195
163375.421300,-4589.276840,-10140.821405,0.000000
163375.421619,-2368.659014,-10732.986159,612.876398
163375.421938,-1628.453072,-10066.800811,-76.609550
163375.422257,-74.020594,-10140.821405,-1915.238745
163375.422577,3478.967927,-11843.295072,1762.019645
163375.422896,2220.617826,-9400.615463,3600.648841
163375.423215,2368.659014,-6587.832884,2681.334243
163375.423534,0.000000,-5403.503377,-842.705048
163375.423853,-1184.329507,-6587.832884,-2145.067394
163375.424173,-1702.473667,-10214.842000,-2145.067394
163375.424492,-1406.391290,-12435.459826,-383.047749
163375.424811,-4367.215058,-11547.212695,-1915.238745
163375.425130,-5921.647536,-8660.409521,-3983.696590
163375.425449,-370.102971,-11843.295072,-1302.362347
163375.425769,1184.329507,-10881.027347,1072.533697
163375.426088,4145.153275,-9696.697840,3370.820191
163375.426407,4811.338623,-6735.874072,3907.087040
163375.426726,2664.741391,-4811.338623,229.828649
163375.427045,-2368.659014,-3627.009116,-4903.011187
163375.427365,-2442.679609,-9992.780217,-4060.306139
163375.427684,-3182.885551,-11399.171507,-1838.629195
163375.428003,-1998.556043,-12287.418637,-459.657299
163375.428322,-888.247130,-10066.800811,-383.047749
163375.428641,-74.020594,-10658.965565,-1838.629195
163375.428961,4663.297435,-13027.624579,2374.896044
163375.429280,4589.276840,-9474.636058,3907.087040
163375.429599,4219.173869,-7105.977043,4213.525239
163375.429918,3997.112087,-6587.832884,2298.286494
163375.430238,0.000000,-4811.338623,-2451.505594
163375.430557,-1406.391290,-9400.615463,-2528.115143
163375.430876,-2072.576638,-11621.233289,-1455.581446
163375.431195,-2960.823768,-11843.295072,-1149.143247
163375.431514,-3627.009116,-11251.130318,-2604.724693
163375.431834,-4071.132681,-9622.677246,-4519.963438
163375.432153,-74.020594,-11547.212695,-383.047749
163375.432472,3182.885551,-11843.295072,4213.525239
163375.432791,4367.215058,-7698.141797,3753.867940
163375.433110,3404.947333,-7994.224174,3600.648841
163375.433430,-2368.659014,-4811.338623,-2451.505594
163375.433749,-3330.926739,-8512.368333,-3677.258390
163375.434068,-2442.679609,-11843.295072,-1608.800546
163375.434387,-1998.556043,-11991.336260,-536.266849
163375.434706,-3552.988522,-9548.656652,-1838.629195
163375.435026,-2368.659014,-9992.780217,-1991.848295
163375.435345,0.000000,-11325.150913,766.095498
163375.435664,4367.215058,-11251.130318,3294.210641
163375.435983,4219.173869,-7698.141797,4060.306139
163375.436302,4663.297435,-8290.306550,4826.401637
163375.436622,148.041188,-4811.338623,-1225.752797
163375.436941,-888.247130,-8364.327145,-1991.848295
163375.437260,-1480.411884,-10732.986159,-995.924147
163375.437579,-2368.659014,-10732.986159,612.876398
163375.437899,-4737.318029,-9548.656652,0.000000
163375.438218,-4737.318029,-8364.327145,-3064.381992
163375.438537,-74.020594,-11843.295072,-229.828649
163375.438856,2886.803174,-10658.965565,2681.334243
163375.439175,4367.215058,-7105.977043,2987.772442
163375.439495,4071.132681,-6809.894666,2374.896044
163375.439814,-1406.391290,-5699.585753,-2451.505594
163375.440133,-3108.864956,-8512.368333,-4213.525239
163375.440452,-2812.782580,-10658.965565,-2298.286494
163375.440771,-4145.153275,-11325.150913,0.000000
163375.441091,-2442.679609,-11103.089130,-689.485948
163375.441410,-4145.153275,-10140.821405,-2145.067394
163375.441729,-962.267725,-11251.130318,0.000000
163375.442048,2294.638420,-12435.459826,2374.896044
163375.442367,2294.638420,-6957.935855,612.876398
163375.442687,2886.803174,-5921.647536,1991.848295
163375.443006,0.000000,-5255.462188,-1991.848295
163375.443325,-740.205942,-8586.388927,-3217.601092
163375.443644,-1184.329507,-11399.171507,-1762.019645
163375.443963,-2590.720797,-12435.459826,-76.609550
163375.444283,-2516.700203,-11177.109724,-1302.362347
163375.444602,-2664.741391,-9474.636058,-2528.115143
163375.444921,0.000000,-8512.368333,-1225.752797
163375.445240,3552.988522,-9992.780217,3677.258390
163375.445560,3627.009116,-5403.503377,3677.258390
163375.445879,4145.153275,-5699.585753,3600.648841
163375.446198,-370.102971,-5107.421000,-1455.581446
163375.446517,-3478.967927,-7772.162391,-4366.744339
163375.446836,-2442.679609,-11843.295072,-2528.115143
163375.447156,-1258.350101,-12731.542202,-689.485948
163375.447475,-2442.679609,-11843.295072,-76.609550
163375.447794,-4145.153275,-8068.244768,-2451.505594
163375.448113,-2960.823768,-9252.574275,-1685.410096
163375.448432,1184.329507,-11029.068536,3217.601092
163375.448752,0.000000,-7772.162391,1532.190996
163375.449071,1628.453072,-6587.832884,2068.457845
163375.449390,370.102971,-5477.523971,-1149.143247
163375.449709,-518.144159,-7624.121203,-2604.724693
163375.450028,-74.020594,-10658.965565,-2528.115143
163375.450348,-1406.391290,-13397.727550,766.095498
163375.450667,-2442.679609,-13027.624579,-1608.800546
163375.450986,-3034.844362,-10510.924376,-3140.991542
163375.451305,-666.185348,-10362.883188,-3140.991542
163375.451624,4441.235652,-13397.727550,5745.716235
163375.451944,5255.462188,-8512.368333,5209.449386
163375.452263,5329.482782,-5477.523971,4826.401637
163375.452582,2294.638420,-4145.153275,383.047749
163375.452901,-1184.329507,-6143.709319,-3370.820191
163375.453221,-1850.514855,-10510.924376,-3064.381992
163375.453540,-2220.617826,-13397.727550,612.876398
163375.453859,-2146.597232,-13027.624579,1685.410096
163375.454178,-1258.350101,-11843.295072,-1302.362347
163375.454497,-2442.679609,-9474.636058,-2528.115143
163375.454817,1406.391290,-12435.459826,2374.896044
163375.455136,1850.514855,-8660.409521,2757.943793
163375.455455,2664.741391,-6291.750507,3217.601092
163375.455774,1406.391290,-4515.256246,0.000000
163375.456093,-2368.659014,-4811.338623,-2451.505594
163375.456413,-3256.906145,-9548.656652,-2757.943793
163375.456732,-2220.617826,-12065.356855,0.000000
163375.457051,-1554.432478,-13323.706956,-76.609550
163375.457370,-2590.720797,-10658.965565,-2528.115143
163375.457689,-1554.432478,-10658.965565,-4979.620737
163375.458009,2590.720797,-12731.542202,1149.143247
163375.458328,4293.194464,-9178.553681,3524.039291
163375.458647,4737.318029,-6291.750507,3600.648841
163375.458966,2368.659014,-4811.338623,153.219100
163375.459285,0.000000,-5995.668130,-1532.190996
163375.459605,-1998.556043,-9548.656652,-4749.792088
163375.459924,0.000000,-12213.398043,612.876398
163375.460243,-74.020594,-12435.459826,1149.143247
163375.460562,-888.247130,-12435.459826,-76.609550
163375.460882,-370.102971,-11843.295072,-76.609550
163375.461201,-1776.494261,-10732.986159,0.000000
163375.461520,1924.535449,-9696.697840,2757.943793
163375.461839,2886.803174,-7328.038826,2911.162892
163375.462158,1480.411884,-5107.421000,1225.752797
163375.462478,-666.185348,-6365.771101,-1915.238745
163375.462797,-666.185348,-9474.636058,-2528.115143
163375.463116,-3701.029710,-10288.862594,-1838.629195
163375.463435,-5921.647536,-10140.821405,0.000000
163375.463754,-3849.070898,-12879.583391,-76.609550
163375.464074,-4737.318029,-10288.862594,-2451.505594
163375.464393,-370.102971,-11029.068536,-306.438199
163375.464712,3404.947333,-9918.759623,3140.991542
163375.465031,5033.400406,-6883.915261,4060.306139
163375.465350,666.185348,-1850.514855,0.000000
163375.465670,0.000000,-5181.441594,-2528.115143
163375.465989,-2368.659014,-8364.327145,-6128.763984
163375.466308,-1776.494261,-12509.480420,0.000000
163375.466627,-666.185348,-13323.706956,536.266849
163375.466946,-2072.576638,-11325.150913,1838.629195
163375.467266,-2146.597232,-9622.677246,-2221.676944
163375.467585,-740.205942,-10584.944971,-383.047749
163375.467904,1554.432478,-9474.636058,2604.724693
163375.468223,3775.050304,-6735.874072,2451.505594
163375.468543,4663.297435,-4737.318029,1762.019645
163375.468862,518.144159,-4959.379811,-689.485948
163375.469181,-1258.350101,-8216.285956,-1838.629195
163375.469500,-1184.329507,-10955.047942,-383.047749
163375.469819,-1480.411884,-11917.315666,536.266849
163375.470139,-2738.761985,-11695.253884,-689.485948
163375.470458,-5921.647536,-10140.821405,-3677.258390
163375.470777,-1258.350101,-12435.459826,-919.314598
163375.471096,2738.761985,-12509.480420,2451.505594
163375.471415,1184.329507,-5995.668130,612.876398
163375.471735,2294.638420,-5921.647536,995.924147
163375.472054,-222.061783,-5477.523971,-2145.067394
163375.472373,-1258.350101,-7846.182985,-3064.381992
163375.472692,-740.205942,-10807.006753,-612.876398
163375.473011,-370.102971,-11843.295072,1455.581446
163375.473331,-1258.350101,-10955.047942,229.828649
163375.473650,-3256.906145,-8364.327145,-4290.134789
163375.473969,-3552.988522,-10732.986159,-1225.752797
163375.474288,592.164754,-11769.274478,766.095498
163375.474607,1184.329507,-7179.997637,2451.505594
163375.474927,2738.761985,-5625.565159,1378.971896
163375.475246,1110.308913,-5033.400406,-1455.581446
163375.475565,0.000000,-7105.977043,-1838.629195
163375.475884,222.061783,-9548.656652,0.000000
163375.476204,-74.020594,-10807.006753,-76.609550
163375.476523,-3478.967927,-9474.636058,-76.609550
163375.476842,-5921.647536,-8364.327145,-3370.820191
163375.477161,-1776.494261,-11177.109724,-536.266849
163375.477480,3478.967927,-13027.624579,4213.525239
163375.477800,2368.659014,-7772.162391,3677.258390
163375.478119,2220.617826,-6439.791695,1762.019645
163375.478438,-666.185348,-5181.441594,-2145.067394
163375.478757,-2886.803174,-7328.038826,-4443.353888
163375.479076,-3034.844362,-9622.677246,-3140.991542
163375.479396,-666.185348,-14211.954086,-76.609550
163375.479715,-3627.009116,-11399.171507,-1455.581446
163375.480034,-4441.235652,-9548.656652,-1991.848295
163375.480353,-2368.659014,-11325.150913,-612.876398
163375.480672,1998.556043,-13027.624579,2987.772442
163375.480992,2072.576638,-7772.162391,2757.943793
163375.481311,3182.885551,-5403.503377,1915.238745
163375.481630,1924.535449,-4293.194464,-842.705048
163375.481949,888.247130,-7920.203579,-2451.505594
163375.482268,148.041188,-11029.068536,-919.314598
163375.482588,-74.020594,-13027.624579,995.924147
163375.482907,-2516.700203,-11843.295072,-76.609550
163375.483226,-2442.679609,-10658.965565,-3753.867940
163375.483545,-1924.535449,-10066.800811,-2528.115143
163375.483865,3478.967927,-13027.624579,3600.648841
163375.484184,4219.173869,-8660.409521,4366.744339
163375.484503,3849.070898,-4811.338623,3370.820191
163375.484822,1702.473667,-4071.132681,0.000000
163375.485141,0.000000,-6291.750507,-919.314598
163375.485461,-1184.329507,-9548.656652,0.000000
163375.485780,-814.226536,-11917.315666,0.000000
163375.486099,-1258.350101,-13397.727550,1762.019645
163375.486418,-3775.050304,-11399.171507,-2221.676944
163375.486737,-5625.565159,-9548.656652,-5439.278036
163375.487057,-370.102971,-13027.624579,-383.047749
163375.487376,518.144159,-9400.615463,1608.800546
163375.487695,2368.659014,-6365.771101,2374.896044
163375.488014,1924.535449,-4441.235652,-306.438199
163375.488333,1184.329507,-6587.832884,306.438199
163375.488653,0.000000,-7772.162391,-3370.820191
163375.488972,-1554.432478,-10140.821405,0.000000
163375.489291,-2960.823768,-11621.233289,0.000000
163375.489610,-2738.761985,-11843.295072,-689.485948
163375.489930,-4441.235652,-9548.656652,-3677.258390
163375.490249,370.102971,-12213.398043,76.609550
163375.490568,0.000000,-8364.327145,1838.629195
163375.490887,3478.967927,-7105.977043,3064.381992
163375.491206,2072.576638,-4589.276840,383.047749
163375.491526,2294.638420,-7105.977043,-1915.238745
163375.491845,0.000000,-8364.327145,-1225.752797
163375.492164,1702.473667,-11843.295072,2987.772442
163375.492483,592.164754,-11843.295072,2374.896044
163375.492803,-1406.391290,-9474.636058,-76.609550
163375.493122,-4145.153275,-9548.656652,-2451.505594
163375.493441,-2442.679609,-11325.150913,-1455.581446
163375.493760,0.000000,-10436.903782,842.705048
163375.494079,2220.617826,-8142.265362,1838.629195
163375.494399,0.000000,-2590.720797,-2451.505594
163375.494718,-962.267725,-5477.523971,-3907.087040
163375.495037,-2220.617826,-9548.656652,-2451.505594
163375.495356,-296.082377,-12361.439231,2451.505594
163375.495676,-666.185348,-11251.130318,-76.609550
163375.495995,-1850.514855,-10658.965565,1149.143247
163375.496314,-4145.153275,-9548.656652,-2298.286494
163375.496633,-370.102971,-11251.130318,-1302.362347
163375.496952,2812.782580,-11029.068536,1915.238745
163375.497272,3552.988522,-7994.224174,2604.724693
163375.497591,0.000000,-3034.844362,-2451.505594
163375.497910,-1036.288319,-6439.791695,-3447.429741
163375.498229,-3182.885551,-7476.080014,-4596.572988
163375.498549,0.000000,-11917.315666,919.314598
163375.498868,1554.432478,-12361.439231,2834.553343
163375.499187,0.000000,-10140.821405,2451.505594
163375.499506,-2294.638420,-9104.533087,-1762.019645
163375.499825,-2442.679609,-9770.718434,-383.047749
163375.500145,814.226536,-10140.821405,1838.629195
163375.500464,3256.906145,-7105.977043,2451.505594
163375.500783,4663.297435,-5921.647536,1838.629195
163375.501102,1184.329507,-6291.750507,459.657299
163375.501422,-74.020594,-8290.306550,-2528.115143
163375.501741,-1850.514855,-11547.212695,-383.047749
163375.502060,-3256.906145,-11325.150913,0.000000
163375.502379,-7105.977043,-9548.656652,-3370.820191
163375.502698,-5921.647536,-10955.047942,-4060.306139
163375.503018,-3330.926739,-11843.295072,-2604.724693
163375.503337,1480.411884,-11177.109724,1455.581446
163375.503656,6439.791695,-8290.306550,4826.401637
163375.503975,4071.132681,-4145.153275,2451.505594
163375.504295,296.082377,-4219.173869,-1838.629195
163375.504614,0.000000,-7476.080014,-1838.629195
163375.504933,-74.020594,-11251.130318,-842.705048
163375.505252,-2960.823768,-10732.986159,0.000000
163375.505571,-666.185348,-12731.542202,-76.609550
163375.505891,-2516.700203,-11029.068536,-2145.067394
163375.506210,-2294.638420,-11325.150913,-1608.800546
163375.506529,592.164754,-11103.089130,1608.800546
163375.506848,5625.565159,-11547.212695,6665.030833
163375.507168,2960.823768,-4663.297435,1838.629195
163375.507487,740.205942,-3701.029710,-1072.533697
163375.507806,-370.102971,-7105.977043,-2145.067394
163375.508125,0.000000,-9548.656652,0.000000
163375.508444,-2368.659014,-10140.821405,1149.143247
163375.508764,-4441.235652,-9548.656652,-2145.067394
163375.509083,-5329.482782,-10362.883188,-3064.381992
163375.509402,-3552.988522,-11325.150913,-2145.067394
163375.509721,518.144159,-10955.047942,-689.485948
163375.510041,5551.544565,-10658.965565,4826.401637
163375.510360,2368.659014,-5995.668130,1685.410096
163375.510679,592.164754,-4885.359217,-2068.457845
163375.510998,-1258.350101,-6957.935855,-3983.696590
163375.511317,-1998.556043,-10140.821405,-842.705048
163375.511637,0.000000,-12361.439231,995.924147
163375.511956,-1258.350101,-11547.212695,-76.609550
163375.512275,-3627.009116,-8882.471304,-3217.601092
163375.512594,-2960.823768,-10732.986159,-1838.629195
163375.512914,-370.102971,-9770.718434,-1991.848295
163375.513233,3478.967927,-9474.636058,3983.696590
163375.513552,3775.050304,-5847.626942,2451.505594
163375.513871,1480.411884,-4367.215058,-766.095498
163375.514190,-592.164754,-6513.812290,-2681.334243
163375.514510,-74.020594,-11843.295072,-76.609550
163375.514829,-74.020594,-11843.295072,2987.772442
163375.515148,-1850.514855,-10066.800811,-689.485948
163375.515467,-4737.318029,-9548.656652,-3064.381992
163375.515787,-3552.988522,-9548.656652,-1838.629195
163375.516106,-1554.432478,-9548.656652,0.000000
163375.516425,3701.029710,-9548.656652,4060.306139
163375.516744,2664.741391,-6143.709319,2068.457845
163375.517063,-296.082377,-5255.462188,-1455.581446
163375.517383,-74.020594,-8290.306550,-2528.115143
163375.517702,-74.020594,-11843.295072,-2451.505594
163375.518021,-74.020594,-14211.954086,-76.609550
163375.518340,-2738.761985,-11769.274478,-689.485948
163375.518660,-4737.318029,-8364.327145,-4366.744339
163375.518979,-4145.153275,-9548.656652,-1532.190996
163375.519298,-1850.514855,-9548.656652,-919.314598
163375.519617,3552.988522,-9548.656652,3907.087040
163375.519936,4737.318029,-5699.585753,3753.867940
163375.520256,2812.782580,-3923.091493,0.000000
163375.520575,1702.473667,-7550.100608,-2604.724693
163375.520894,-1776.494261,-9548.656652,-2451.505594
163375.521213,-1184.329507,-13471.748144,842.705048
163375.521533,-2442.679609,-14211.954086,-76.609550
163375.521852,-4293.194464,-9622.677246,-3294.210641
163375.522171,-2368.659014,-11621.233289,0.000000
163375.522490,1110.308913,-11103.089130,919.314598
163375.522809,4663.297435,-9178.553681,4903.011187
163375.523129,4367.215058,-5921.647536,4443.353888
163375.523448,2146.597232,-3627.009116,0.000000
163375.523767,-592.164754,-4811.338623,-4903.011187
163375.524086,-1628.453072,-8956.491898,-2451.505594
163375.524406,-1776.494261,-11917.315666,612.876398
163375.524725,-1258.350101,-14063.912898,-76.609550
163375.525044,-3627.009116,-11251.130318,-2528.115143
163375.525363,-3552.988522,-11843.295072,-2221.676944
163375.525682,-2812.782580,-12361.439231,-2298.286494
163375.526002,1184.329507,-11177.109724,1762.019645
163375.526321,3849.070898,-6883.915261,3294.210641
163375.526640,1184.329507,-2442.679609,0.000000
163375.526959,0.000000,-3627.009116,-2451.505594
163375.527279,-3552.988522,-5995.668130,-3677.258390
163375.527598,-296.082377,-12509.480420,919.314598
163375.527917,-2146.597232,-11251.130318,-229.828649
163375.528236,-2442.679609,-11547.212695,-1915.238745
163375.528555,-2664.741391,-11769.274478,-2757.943793
163375.528875,-666.185348,-11325.150913,-1762.019645
163375.529194,3256.906145,-10955.047942,2834.553343
163375.529513,5255.462188,-7624.121203,4443.353888
163375.529832,1184.329507,-2442.679609,1225.752797
163375.530152,1110.308913,-4441.235652,-1915.238745
163375.530471,-2220.617826,-6735.874072,-3370.820191
163375.530790,-2220.617826,-11917.315666,0.000000
163375.531109,-1480.411884,-13101.645173,2145.067394
163375.531428,-2442.679609,-10510.924376,-2528.115143
163375.531748,-3627.009116,-10140.821405,-2145.067394
163375.532067,-2442.679609,-11103.089130,-1149.143247
163375.532386,814.226536,-10881.027347,2145.067394
163375.532705,3478.967927,-9474.636058,4826.401637
163375.533025,2220.617826,-5625.565159,2068.457845
163375.533344,-74.020594,-5625.565159,-3140.991542
163375.533663,-2442.679609,-9474.636058,-3140.991542
163375.533982,-4589.276840,-10510.924376,-3447.429741
163375.534301,-4737.318029,-11325.150913,0.000000
163375.534621,-3627.009116,-10658.965565,-2757.943793
163375.534940,-3404.947333,-10510.924376,-2298.286494
163375.535259,-1702.473667,-11029.068536,-1302.362347
163375.535578,2294.638420,-10288.862594,2451.505594
163375.535898,7031.956449,-9474.636058,6052.154434
163375.536217,4663.297435,-5773.606348,2834.553343
163375.536536,1776.494261,-6735.874072,-76.609550
163375.536855,-1258.350101,-7105.977043,-3753.867940
163375.537174,-2664.741391,-10732.986159,-1838.629195
163375.537494,-2368.659014,-11325.150913,1225.752797
163375.537813,-1850.514855,-11177.109724,-383.047749
163375.538132,-2368.659014,-10140.821405,-2298.286494
163375.538451,-1628.453072,-11325.150913,-2298.286494
163375.538770,1554.432478,-11325.150913,1762.019645
163375.539090,5847.626942,-9474.636058,5439.278036
163375.539409,3552.988522,-4811.338623,4290.134789
163375.539728,1702.473667,-5625.565159,-1302.362347
163375.540047,-3182.885551,-6957.935855,-4366.744339
163375.540367,-4663.297435,-9548.656652,-3370.820191
163375.540686,-3182.885551,-10732.986159,-1991.848295
163375.541005,-2738.761985,-11399.171507,-536.266849
163375.541324,-3627.009116,-10214.842000,-3140.991542
163375.541643,-2886.803174,-10658.965565,-2757.943793
163375.541963,2294.638420,-13027.624579,2374.896044
163375.542282,4663.297435,-9030.512492,4826.401637
163375.542601,2960.823768,-4663.297435,1991.848295
163375.542920,148.041188,-3627.009116,-3370.820191
163375.543240,-2368.659014,-7179.997637,-3064.381992
163375.543559,-1850.514855,-10658.965565,-3907.087040
163375.543878,-74.020594,-14211.954086,1149.143247
163375.544197,-2442.679609,-11103.089130,0.000000
163375.544516,-3182.885551,-9622.677246,-2145.067394
163375.544836,-2072.576638,-10510.924376,-2451.505594
163375.545155,1480.411884,-11917.315666,3677.258390
163375.545474,4885.359217,-8660.409521,4903.011187
163375.545793,6143.709319,-5181.441594,4519.963438
163375.546113,2220.617826,-4367.215058,-383.047749
163375.546432,-1480.411884,-6587.832884,-4596.572988
163375.546751,-4663.297435,-8364.327145,-3677.258390
163375.547070,-3034.844362,-11621.233289,-1608.800546
163375.547389,-3404.947333,-11917.315666,0.000000
163375.547709,-3330.926739,-10658.965565,-1915.238745
163375.548028,-3330.926739,-11251.130318,-3140.991542
163375.548347,1776.494261,-13397.727550,2757.943793
163375.548666,4293.194464,-9030.512492,4596.572988
163375.548986,5255.462188,-5995.668130,4060.306139
163375.549305,1480.411884,-4219.173869,-153.219100
163375.549624,-3256.906145,-5181.441594,-3447.429741
163375.549943,-2442.679609,-10362.883188,-3753.867940
163375.550262,-3775.050304,-12065.356855,-2221.676944
163375.550582,-4737.318029,-11917.315666,-3677.258390
163375.550901,-5921.647536,-10732.986159,-3677.258390
163375.551220,-1258.350101,-11843.295072,-2528.115143
163375.551539,1480.411884,-13027.624579,1455.581446
163375.551859,3775.050304,-9696.697840,4443.353888
163375.552178,5921.647536,-5551.544565,4673.182538
163375.552497,4071.132681,-3256.906145,1838.629195
163375.552816,666.185348,-5995.668130,-919.314598
163375.553135,-2072.576638,-9548.656652,-1838.629195
163375.553455,-1258.350101,-14211.954086,2374.896044
163375.553774,-2442.679609,-11547.212695,-842.705048
163375.554093,-4737.318029,-10732.986159,-3064.381992
163375.554412,-2442.679609,-9770.718434,-6205.373534
163375.554732,-592.164754,-11843.295072,612.876398
163375.555051,3182.885551,-9992.780217,4519.963438
163375.555370,4441.235652,-6661.853478,4826.401637
163375.555689,1702.473667,-5329.482782,2374.896044
163375.556008,-888.247130,-7105.977043,-842.705048
163375.556328,-1924.535449,-10658.965565,-1302.362347
163375.556647,-1850.514855,-11843.295072,-1302.362347
163375.556966,-4737.318029,-11029.068536,-1225.752797
163375.557285,-6513.812290,-9548.656652,-2451.505594
163375.557605,-3627.009116,-9548.656652,-4673.182538
163375.557924,-666.185348,-11843.295072,-1225.752797
163375.558243,2516.700203,-11325.150913,2221.676944
163375.558562,3923.091493,-8142.265362,3753.867940
163375.558881,4663.297435,-7105.977043,2374.896044
163375.559201,0.000000,-4811.338623,-3677.258390
163375.559520,-74.020594,-9844.739029,-2374.896044
163375.559839,-74.020594,-12435.459826,-76.609550
163375.560158,2294.638420,-11843.295072,1149.143247
163375.560478,0.000000,-9548.656652,919.314598
163375.560797,-1258.350101,-8882.471304,-2068.457845
163375.561116,592.164754,-10732.986159,-229.828649
163375.561435,3108.864956,-10066.800811,3447.429741
163375.561754,5033.400406,-8364.327145,5132.839837
163375.562074,3923.091493,-4589.276840,2451.505594
163375.562393,-1184.329507,-4811.338623,-3064.381992
163375.562712,-2368.659014,-7994.224174,-4903.011187
163375.563031,-1628.453072,-12953.603985,-995.924147
163375.563351,-2442.679609,-11547.212695,-689.485948
163375.563670,-4737.318029,-10732.986159,306.438199
163375.563989,-2664.741391,-9770.718434,-2911.162892
163375.564308,-1628.453072,-11029.068536,-1838.629195
163375.564627,1924.535449,-10732.986159,2145.067394
163375.564947,2960.823768,-7179.997637,2451.505594
163375.565266,2442.679609,-3108.864956,1302.362347
163375.565585,0.000000,-4737.318029,-2528.115143
163375.565904,-4441.235652,-6291.750507,-5515.887586
163375.566224,-2812.782580,-11769.274478,-2374.896044
163375.566543,-74.020594,-14211.954086,-76.609550
163375.566862,-2960.823768,-11917.315666,-1225.752797
163375.567181,-2368.659014,-10436.903782,-3140.991542
163375.567500,-1110.308913,-11325.150913,-1532.190996
163375.567820,2960.823768,-11769.274478,3140.991542
163375.568139,2960.823768,-7179.997637,3677.258390
163375.568458,4515.256246,-6513.812290,4826.401637
163375.568777,1702.473667,-3849.070898,-766.095498
163375.569097,-2664.741391,-5995.668130,-3370.820191
163375.569416,-3552.988522,-9548.656652,0.000000
163375.569735,-74.020594,-13027.624579,-76.609550
163375.570054,-3849.070898,-11029.068536,-612.876398
163375.570373,-3627.009116,-9770.718434,-2451.505594
163375.570693,-3182.885551,-10955.047942,-2298.286494
163375.571012,0.000000,-11547.212695,2987.772442
163375.571331,2886.803174,-9030.512492,4979.620737
163375.571650,4663.297435,-5921.647536,3294.210641
163375.571970,222.061783,-3997.112087,-1302.362347
163375.572289,-3923.091493,-4811.338623,-5439.278036
163375.572608,-4589.276840,-9548.656652,-4290.134789
163375.572927,-74.020594,-12435.459826,-76.609550
163375.573246,-2664.741391,-10436.903782,-919.314598
163375.573566,-3330.926739,-9770.718434,-3294.210641
163375.573885,-2220.617826,-10658.965565,-2911.162892
163375.574204,2590.720797,-13101.645173,3907.087040
163375.574523,5477.523971,-10510.924376,5822.325785
163375.574843,5847.626942,-6809.894666,5822.325785
163375.575162,3478.967927,-6513.812290,-76.609550
163375.575481,-1776.494261,-5995.668130,-3447.429741
163375.575800,-3552.988522,-7476.080014,-3677.258390
163375.576119,-74.020594,-12435.459826,1149.143247
163375.576439,-1184.329507,-10881.027347,383.047749
163375.576758,-2368.659014,-9400.615463,-2374.896044
163375.577077,-2812.782580,-10732.986159,-3370.820191
163375.577396,1850.514855,-14211.954086,2374.896044
163375.577716,2664.741391,-10288.862594,3677.258390
163375.578035,4071.132681,-6809.894666,3753.867940
163375.578354,0.000000,-3627.009116,-1685.410096
163375.578673,-3627.009116,-4811.338623,-5898.935335
163375.578992,-3627.009116,-9548.656652,-4903.011187
163375.579312,-1258.350101,-12509.480420,0.000000
163375.579631,-2146.597232,-11547.212695,-995.924147
163375.579950,-2960.823768,-9918.759623,-2145.067394
163375.580269,-2146.597232,-10066.800811,-1915.238745
163375.580589,1776.494261,-11621.233289,2068.457845
163375.580908,3552.988522,-8364.327145,4903.011187
163375.581227,5773.606348,-7031.956449,4979.620737
163375.581546,2516.700203,-6587.832884,1762.019645
163375.581865,-2442.679609,-5995.668130,-5822.325785
163375.582185,-2442.679609,-11547.212695,-5592.497135
163375.582504,-3478.967927,-13101.645173,-1838.629195
163375.582823,-3923.091493,-11843.295072,-1455.581446
163375.583142,-3775.050304,-10362.883188,-2145.067394
163375.583462,-148.041188,-12435.459826,-76.609550
163375.583781,1998.556043,-10881.027347,2451.505594
163375.584100,4663.297435,-9474.636058,7277.907231
163375.584419,7031.956449,-7105.977043,6052.154434
163375.584738,814.226536,-2886.803174,0.000000
163375.585058,-74.020594,-5921.647536,-2528.115143
163375.585377,-2368.659014,-9104.533087,-3140.991542
163375.585696,-1998.556043,-12287.418637,-536.266849
163375.586015,-2442.679609,-12435.459826,-383.047749
163375.586335,-3627.009116,-10732.986159,-1915.238745
163375.586654,-5329.482782,-9548.656652,-3677.258390
163375.586973,-814.226536,-11843.295072,-383.047749
163375.587292,3034.844362,-10807.006753,3600.648841
163375.587611,4441.235652,-7402.059420,4903.011187
163375.587931,2294.638420,-3701.029710,1455.581446
163375.588250,-74.020594,-3923.091493,-2298.286494
163375.588569,-1406.391290,-9474.636058,-2834.553343
163375.588888,-3330.926739,-11547.212695,-2221.676944
163375.589208,-5921.647536,-9548.656652,0.000000
163375.589527,-3404.947333,-10732.986159,-919.314598
163375.589846,-2960.823768,-9548.656652,-4903.011187
163375.590165,814.226536,-11843.295072,-689.485948
163375.590484,3256.906145,-10807.006753,2987.772442
163375.590804,4515.256246,-7846.182985,4443.353888
163375.591123,2516.700203,-5255.462188,612.876398
163375.591442,-1036.288319,-5995.668130,-3370.820191
163375.591761,-740.205942,-9178.553681,-3447.429741
163375.592081,-74.020594,-12435.459826,-76.609550
163375.592400,-592.164754,-11325.150913,689.485948
163375.592719,2294.638420,-11843.295072,-76.609550
163375.593038,-1776.494261,-8290.306550,-1762.019645
163375.593357,-518.144159,-9918.759623,-689.485948
163375.593677,3034.844362,-10955.047942,2911.162892
163375.593996,4811.338623,-9104.533087,6665.030833
163375.594315,3404.947333,-6587.832884,4749.792088
163375.594634,-1184.329507,-5107.421000,-2451.505594
163375.594954,-3404.947333,-9252.574275,-3907.087040
163375.595273,-4219.173869,-11843.295072,-3753.867940
163375.595592,-4367.215058,-11843.295072,-2451.505594
163375.595911,-2442.679609,-10658.965565,-2528.115143
163375.596230,-2738.761985,-9992.780217,-2834.553343
163375.596550,-888.247130,-11029.068536,-1455.581446
163375.596869,1702.473667,-10955.047942,2451.505594
163375.597188,6069.688724,-9474.636058,7584.345430
163375.597507,5329.482782,-6365.771101,2451.505594
163375.597826,1924.535449,-7105.977043,-689.485948
163375.598146,-666.185348,-8734.430116,-2987.772442
163375.598465,-2146.597232,-11843.295072,-1915.238745
163375.598784,-2960.823768,-10732.986159,0.000000
163375.599103,-1258.350101,-11103.089130,-1302.362347
163375.599423,-2664.741391,-9548.656652,-2451.505594
163375.599742,-1258.350101,-10584.944971,-1302.362347
163375.600061,2516.700203,-11473.192101,2987.772442
163375.600380,5921.647536,-9548.656652,7277.907231
163375.600699,2960.823768,-3923.091493,4903.011187
163375.601019,296.082377,-4515.256246,0.000000
163375.601338,-1332.370696,-8364.327145,-1378.971896
163375.601657,-3034.844362,-11695.253884,-3140.991542
163375.601976,-5921.647536,-10732.986159,0.000000
163375.602296,-4219.173869,-11547.212695,-1149.143247
163375.602615,-4441.235652,-9992.780217,-3217.601092
163375.602934,-2738.761985,-11103.089130,-2757.943793
163375.603253,0.000000,-9548.656652,0.000000
163375.603572,3478.967927,-8660.409521,3294.210641
163375.603892,2886.803174,-5551.544565,2834.553343
163375.604211,-74.020594,-3849.070898,-3447.429741
163375.604530,-3256.906145,-6735.874072,-4596.572988
163375.604849,-666.185348,-12435.459826,-689.485948
163375.605169,-2368.659014,-11917.315666,612.876398
163375.605488,-1036.288319,-11473.192101,76.609550
163375.605807,-2294.638420,-9844.739029,-2221.676944
163375.606126,-2294.638420,-10362.883188,-2374.896044
163375.606445,814.226536,-10066.800811,0.000000
163375.606765,4663.297435,-8882.471304,4826.401637
163375.607084,7031.956449,-6513.812290,4826.401637
163375.607403,888.247130,-3034.844362,-1072.533697
163375.607722,-1776.494261,-4959.379811,-4903.011187
163375.608042,-666.185348,-13619.789333,-689.485948
163375.608361,-3256.906145,-11917.315666,0.000000
163375.608680,-3034.844362,-11399.171507,-536.266849
163375.608999,-4071.132681,-10214.842000,-2681.334243
163375.609318,-3182.885551,-10436.903782,-3447.429741
163375.609638,-1258.350101,-10807.006753,-76.609550
163375.609957,4219.173869,-11251.130318,5439.278036
163375.610276,4663.297435,-7550.100608,3447.429741
163375.610595,370.102971,-4441.235652,-1608.800546
163375.610915,-3256.906145,-4811.338623,-4903.011187
163375.611234,-74.020594,-11547.212695,-2528.115143
163375.611553,-1776.494261,-12509.480420,-766.095498
163375.611872,-1554.432478,-11843.295072,-153.219100
163375.612191,-2886.803174,-10288.862594,-2298.286494
163375.612511,-1776.494261,-10732.986159,-1532.190996
163375.612830,1554.432478,-11917.315666,1378.971896
163375.613149,5255.462188,-11547.212695,4826.401637
163375.613468,5921.647536,-7624.121203,6894.859482
163375.613788,4663.297435,-4737.318029,1762.019645
163375.614107,-1332.370696,-3923.091493,-3370.820191
163375.614426,-74.020594,-10362.883188,-1915.238745
163375.614745,-2368.659014,-11399.171507,459.657299
163375.615064,-2220.617826,-10881.027347,766.095498
163375.615384,-2664.741391,-10288.862594,-1608.800546
163375.615703,-2960.823768,-11029.068536,-1532.190996
163375.616022,-1480.411884,-11029.068536,0.000000
163375.616341,1776.494261,-10732.986159,4903.011187
163375.616661,4071.132681,-8586.388927,4519.963438
163375.616980,1406.391290,-4959.379811,-383.047749
163375.617299,-3849.070898,-2738.761985,-6128.763984
163375.617618,-1554.432478,-9474.636058,-2681.334243
163375.617937,-1480.411884,-11843.295072,0.000000
163375.618257,-666.185348,-12139.377449,1378.971896
163375.618576,-1628.453072,-9992.780217,-306.438199
163375.618895,-1184.329507,-10436.903782,-1838.629195
163375.619214,-2368.659014,-9548.656652,-2451.505594
163375.619534,1776.494261,-10436.903782,2451.505594
163375.619853,4145.153275,-8734.430116,4290.134789
163375.620172,2368.659014,-6143.709319,612.876398
163375.620491,-74.020594,-6513.812290,-3753.867940
163375.620810,-3182.885551,-9622.677246,-3983.696590
163375.621130,-2368.659014,-11917.315666,-919.314598
163375.621449,-1850.514855,-11547.212695,612.876398
163375.621768,-666.185348,-11621.233289,2374.896044
163375.622087,-1554.432478,-9770.718434,-2145.067394
163375.622407,-148.041188,-10066.800811,-383.047749
163375.622726,1184.329507,-9030.512492,1762.019645
163375.623045,2368.659014,-7179.997637,4903.011187
163375.623364,4663.297435,-4737.318029,2374.896044
163375.623683,518.144159,-5847.626942,-1532.190996
163375.624003,-2294.638420,-7994.224174,-4290.134789
163375.624322,-2072.576638,-12065.356855,-1532.190996
163375.624641,-1480.411884,-12731.542202,919.314598
163375.624960,-4145.153275,-9548.656652,0.000000
163375.625280,-3627.009116,-9844.739029,-3294.210641
163375.625599,-2664.741391,-10732.986159,-1685.410096
163375.625918,1258.350101,-10732.986159,2145.067394
163375.626237,4515.256246,-7179.997637,3677.258390
163375.626556,4071.132681,-3552.988522,1762.019645
163375.626876,1702.473667,-4737.318029,-1302.362347
163375.627195,-3849.070898,-5995.668130,-4826.401637
163375.627514,-3256.906145,-11695.253884,-1838.629195
163375.627833,-3034.844362,-14211.954086,-76.609550
163375.628152,-4737.318029,-11917.315666,-1225.752797
163375.628472,-3775.050304,-10955.047942,-3753.867940
163375.628791,-2442.679609,-11251.130318,-2451.505594
163375.629110,1332.370696,-11177.109724,1149.143247
163375.629429,4663.297435,-8438.347739,4290.134789
163375.629749,6439.791695,-6513.812290,4213.525239
163375.630068,2886.803174,-4145.153275,-1302.362347
163375.630387,666.185348,-8290.306550,-1915.238745
163375.630706,-74.020594,-10066.800811,-1915.238745
163375.631025,2886.803174,-14211.954086,3600.648841
163375.631345,0.000000,-11325.150913,1225.752797
163375.631664,-2738.761985,-9474.636058,-2757.943793
163375.631983,-3108.864956,-10807.006753,-3677.258390
163375.632302,518.144159,-11843.295072,383.047749
163375.632622,4737.318029,-8956.491898,4903.011187
163375.632941,4811.338623,-5995.668130,4136.915689
163375.633260,3330.926739,-6513.812290,1455.581446
163375.633579,-666.185348,-6513.812290,-3753.867940
163375.633898,-2368.659014,-9548.656652,-2374.896044
163375.634218,-74.020594,-11843.295072,-76.609550
163375.634537,-1628.453072,-11399.171507,612.876398
163375.634856,-3182.885551,-9918.759623,-2068.457845
163375.635175,-3182.885551,-10881.027347,-3294.210641
163375.635495,-74.020594,-13101.645173,-76.609550
163375.635814,2664.741391,-11325.150913,4596.572988
163375.636133,1184.329507,-5995.668130,1838.629195
163375.636452,1184.329507,-5995.668130,-1532.190996
163375.636771,-370.102971,-6513.812290,-3907.087040
163375.637091,-2072.576638,-9548.656652,-3370.820191
163375.637410,3478.967927,-12731.542202,2374.896044
163375.637729,370.102971,-10807.006753,2145.067394
163375.638048,-2738.761985,-9548.656652,-995.924147
163375.638368,-3849.070898,-10362.883188,-2757.943793
163375.638687,-74.020594,-12657.521608,1532.190996
163375.639006,592.164754,-8364.327145,3677.258390
163375.639325,2960.823768,-6883.915261,4366.744339
163375.639644,1628.453072,-4737.318029,612.876398
163375.639964,-1480.411884,-6661.853478,-2298.286494
163375.640283,-6513.812290,-7772.162391,-4903.011187
163375.640602,-3182.885551,-11251.130318,-229.828649
163375.640921,-3552.988522,-11325.150913,459.657299
163375.641241,-4219.173869,-10066.800811,-1149.143247
163375.641560,-4071.132681,-9548.656652,-3370.820191
163375.641879,-2368.659014,-10955.047942,536.266849
163375.642198,0.000000,-8956.491898,2145.067394
163375.642517,2368.659014,-6291.750507,919.314598
163375.642837,0.000000,-4811.338623,0.000000
163375.643156,-74.020594,-7105.977043,-1915.238745
163375.643475,-2368.659014,-8364.327145,-4290.134789
163375.643794,-148.041188,-12731.542202,229.828649
163375.644114,-740.205942,-11917.315666,536.266849
163375.644433,-2442.679609,-10436.903782,-1532.190996
163375.644752,-2442.679609,-9326.594869,-4060.306139
163375.645071,-74.020594,-10955.047942,-383.047749
163375.645390,3330.926739,-10066.800811,3600.648841
163375.645710,4145.153275,-5033.400406,4290.134789
163375.646029,3552.988522,-4071.132681,1838.629195
163375.646348,2886.803174,-7846.182985,-76.609550
163375.646667,-2368.659014,-8364.327145,-2451.505594
163375.646987,-1480.411884,-12731.542202,2987.772442
163375.647306,-2294.638420,-11177.109724,919.314598
163375.647625,-2812.782580,-10436.903782,-995.924147
163375.647944,-3627.009116,-8438.347739,-4519.963438
163375.648263,-666.185348,-13027.624579,-76.609550
163375.648583,1110.308913,-9474.636058,1149.143247
163375.648902,1184.329507,-7179.997637,1838.629195
163375.649221,0.000000,-3627.009116,-2451.505594
163375.649540,-74.020594,-8290.306550,-1302.362347
163375.649860,-1184.329507,-8660.409521,-3907.087040
163375.650179,518.144159,-12509.480420,-76.609550
163375.650498,1110.308913,-12509.480420,1302.362347
163375.650817,-518.144159,-10881.027347,0.000000
163375.651136,-1258.350101,-10066.800811,-1915.238745
163375.651456,-74.020594,-12657.521608,-689.485948
163375.651775,2738.761985,-10955.047942,2451.505594
163375.652094,7624.121203,-9474.636058,4826.401637
163375.652413,3552.988522,-2442.679609,0.000000
163375.652733,3478.967927,-6513.812290,-1302.362347
163375.653052,-1332.370696,-8512.368333,-2528.115143
163375.653371,-1554.432478,-11325.150913,0.000000
163375.653690,-1184.329507,-11621.233289,1149.143247
163375.654009,-2368.659014,-11029.068536,612.876398
163375.654329,-4145.153275,-8956.491898,-2451.505594
163375.654648,-2590.720797,-11177.109724,-1149.143247
163375.654967,1480.411884,-11843.295072,3447.429741
163375.655286,2886.803174,-8290.306550,2987.772442
163375.655606,962.267725,-2442.679609,-1225.752797
163375.655925,1110.308913,-4737.318029,-2528.115143
163375.656244,-1184.329507,-7105.977043,-3830.477490
163375.656563,-888.247130,-11251.130318,-919.314598
163375.656882,-592.164754,-12509.480420,1149.143247
163375.657202,-2368.659014,-12213.398043,1532.190996
163375.657521,-4737.318029,-9548.656652,-4903.011187
163375.657840,-4737.318029,-11103.089130,-2757.943793
163375.658159,-74.020594,-12731.542202,1762.019645
163375.658479,5847.626942,-11251.130318,6052.154434
163375.658798,5847.626942,-4737.318029,3600.648841
163375.659117,296.082377,-4219.173869,-1991.848295
163375.659436,-2516.700203,-6291.750507,-3524.039291
163375.659755,-3034.844362,-10807.006753,-1915.238745
163375.660075,-74.020594,-13397.727550,2451.505594
163375.660394,-2886.803174,-11547.212695,1149.143247
163375.660713,-1258.350101,-9474.636058,-1302.362347
163375.661032,-2516.700203,-9548.656652,-2528.115143
163375.661351,-2368.659014,-8364.327145,0.000000
163375.661671,3478.967927,-9474.636058,4213.525239
163375.661990,4145.153275,-6957.935855,3064.381992
163375.662309,148.041188,-4811.338623,-2528.115143
163375.662628,-1554.432478,-7476.080014,-3983.696590
163375.662948,-666.185348,-11177.109724,-2221.676944
163375.663267,0.000000,-10732.986159,612.876398
163375.663586,-666.185348,-11103.089130,995.924147
163375.663905,-2960.823768,-9770.718434,-1838.629195
163375.664224,-2442.679609,-11843.295072,-1915.238745
163375.664544,1110.308913,-11251.130318,-76.609550
163375.664863,5033.400406,-10881.027347,6052.154434
163375.665182,4737.318029,-5403.503377,3370.820191
163375.665501,1776.494261,-4219.173869,-459.657299
163375.665821,-1406.391290,-6069.688724,-3677.258390
163375.666140,-2294.638420,-10140.821405,-3677.258390
163375.666459,-1554.432478,-11251.130318,-1302.362347
163375.666778,-1776.494261,-11917.315666,536.266849
163375.667097,-3034.844362,-10288.862594,-2221.676944
163375.667417,-2516.700203,-10436.903782,-2834.553343
163375.667736,1702.473667,-11547.212695,1685.410096
163375.668055,3775.050304,-9326.594869,3907.087040
163375.668374,3701.029710,-5403.503377,3064.381992
163375.668694,3256.906145,-4663.297435,0.000000
163375.669013,1480.411884,-6883.915261,-1225.752797
163375.669332,-2368.659014,-8364.327145,-2451.505594
163375.669651,0.000000,-11917.315666,766.095498
163375.669970,-814.226536,-12139.377449,919.314598
163375.670290,-3108.864956,-9770.718434,-1762.019645
163375.670609,-4293.194464,-10214.842000,-3983.696590
163375.670928,-1258.350101,-11843.295072,-1455.581446
163375.671247,2590.720797,-10214.842000,2987.772442
163375.671567,3256.906145,-5033.400406,2987.772442
163375.671886,0.000000,-2442.679609,0.000000
163375.672205,-2220.617826,-5477.523971,-3064.381992
163375.672524,-4737.318029,-8364.327145,-1838.629195
163375.672843,-2442.679609,-11251.130318,0.000000
163375.673163,-2442.679609,-11991.336260,842.705048
163375.673482,-3330.926739,-11103.089130,-1149.143247
163375.673801,-4219.173869,-10140.821405,-4290.134789
163375.674120,-1924.535449,-10658.965565,-2834.553343
163375.674440,592.164754,-9548.656652,0.000000
163375.674759,1776.494261,-7179.997637,3064.381992
163375.675078,2072.576638,-5699.585753,-459.657299
163375.675397,-74.020594,-7105.977043,-3753.867940
163375.675716,-1184.329507,-10140.821405,-2145.067394
163375.676036,370.102971,-12731.542202,689.485948
163375.676355,222.061783,-11621.233289,1838.629195
163375.676674,-1850.514855,-9400.615463,-153.219100
163375.676993,-4737.318029,-7179.997637,-4290.134789
163375.677313,-2812.782580,-9918.759623,-689.485948
163375.677632,2368.659014,-9548.656652,3677.258390
163375.677951,6513.812290,-7179.997637,8120.612279
163375.678270,2368.659014,-3627.009116,2451.505594
163375.678589,-74.020594,-4737.318029,-4366.744339
163375.678909,-3108.864956,-9770.718434,-3447.429741
163375.679228,-3849.070898,-11991.336260,-1225.752797
163375.679547,-3701.029710,-12287.418637,-459.657299
163375.679866,-4219.173869,-11547.212695,-1838.629195
163375.680186,-5773.606348,-10214.842000,-3447.429741
163375.680505,-1998.556043,-10658.965565,-1762.019645
163375.680824,592.164754,-9548.656652,2451.505594
163375.681143,2960.823768,-7179.997637,4903.011187
163375.681462,3478.967927,-5551.544565,1455.581446
163375.681782,518.144159,-3923.091493,-4673.182538
163375.682101,-888.247130,-9104.533087,-4060.306139
163375.682420,-518.144159,-13027.624579,-1225.752797
163375.682739,-1036.288319,-13323.706956,306.438199
163375.683059,-2368.659014,-11547.212695,-995.924147
163375.683378,-1554.432478,-11843.295072,-2528.115143
163375.683697,-666.185348,-11547.212695,-689.485948
163375.684016,5255.462188,-11843.295072,4519.963438
163375.684335,5995.668130,-6069.688724,4903.011187
163375.684655,4737.318029,-2738.761985,3983.696590
163375.684974,1184.329507,-4367.215058,0.000000
163375.685293,-1554.432478,-7105.977043,-3064.381992
163375.685612,-2442.679609,-10732.986159,-1455.581446
163375.685932,-2220.617826,-12435.459826,1225.752797
163375.686251,-2738.761985,-10066.800811,-1455.581446
163375.686570,-3034.844362,-10066.800811,-1302.362347
163375.686889,-2442.679609,-9474.636058,-2834.553343
163375.687209,0.000000,-9548.656652,612.876398
163375.687528,3108.864956,-8364.327145,1532.190996
163375.687847,4071.132681,-7105.977043,4213.525239
163375.688166,-1480.411884,-3627.009116,-3064.381992
163375.688486,-1258.350101,-7328.038826,-4366.744339
163375.688805,-1332.370696,-11325.150913,-1838.629195
163375.689124,-962.267725,-12731.542202,689.485948
163375.689444,-2368.659014,-10732.986159,-1838.629195
163375.689763,-4145.153275,-10436.903782,-3217.601092
163375.690082,-5329.482782,-9844.739029,-4903.011187
163375.690401,1184.329507,-13397.727550,1991.848295
163375.690721,5847.626942,-9474.636058,6128.763984
163375.691040,7476.080014,-6217.729913,4826.401637
163375.691359,2220.617826,-3552.988522,-842.705048
163375.691678,-1406.391290,-6661.853478,-3447.429741
163375.691998,-2072.576638,-9844.739029,-1762.019645
163375.692317,-1258.350101,-12139.377449,1762.019645
163375.692636,-3034.844362,-11029.068536,383.047749
163375.692955,-2442.679609,-10362.883188,-1915.238745
163375.693275,-3775.050304,-9992.780217,-1991.848295
163375.693594,-370.102971,-10510.924376,76.609550
163375.693913,888.247130,-8364.327145,1225.752797
163375.694232,3478.967927,-7105.977043,2374.896044
163375.694552,-888.247130,-4071.132681,-1225.752797
163375.694871,-1924.535449,-6735.874072,-4060.306139
163375.695190,-2072.576638,-10510.924376,-2528.115143
163375.695509,-74.020594,-14211.954086,2068.457845
163375.695829,-1776.494261,-11843.295072,842.705048
163375.696148,-2738.761985,-10362.883188,-1991.848295
163375.696467,-2442.679609,-11843.295072,-2528.115143
163375.696787,-74.020594,-11843.295072,-76.609550
163375.697106,2368.659014,-8364.327145,3064.381992
163375.697425,4663.297435,-6513.812290,3600.648841
163375.697744,962.267725,-5181.441594,-995.924147
163375.698064,-2960.823768,-6513.812290,-4596.572988
163375.698383,-3849.070898,-10955.047942,-4366.744339
163375.698702,-74.020594,-14211.954086,-76.609550
163375.699021,-1184.329507,-11991.336260,1225.752797
163375.699341,-74.020594,-11547.212695,-76.609550
163375.699660,-1258.350101,-8882.471304,-2145.067394
163375.699979,592.164754,-9548.656652,229.828649
163375.700298,4367.215058,-8734.430116,2221.676944
163375.700618,4071.132681,-6439.791695,4443.353888
163375.700937,962.267725,-4219.173869,-536.266849
163375.701256,-1184.329507,-6587.832884,-3600.648841
163375.701575,-1924.535449,-11843.295072,-1915.238745
163375.701895,-3552.988522,-11917.315666,153.219100
163375.702214,-4441.235652,-10732.986159,-1838.629195
163375.702533,-4737.318029,-9844.739029,-3064.381992
163375.702852,-3108.864956,-11621.233289,-2298.286494
163375.703172,-74.020594,-10955.047942,-1302.362347
163375.703491,6439.791695,-11251.130318,4826.401637
163375.703810,5995.668130,-6735.874072,4903.011187
163375.704130,2738.761985,-4737.318029,612.876398
163375.704449,-1850.514855,-5921.647536,-3370.820191
163375.704768,-2960.823768,-10140.821405,-2451.505594
163375.705087,-1332.370696,-13767.830521,-689.485948
163375.705407,-962.267725,-13545.768739,1762.019645
163375.705726,-1258.350101,-11251.130318,-1455.581446
163375.706045,-3404.947333,-9548.656652,-3217.601092
163375.706364,2294.638420,-12435.459826,-76.609550
163375.706684,3775.050304,-10140.821405,3983.696590
163375.707003,4663.297435,-6365.771101,4519.963438
163375.707322,2590.720797,-3627.009116,842.705048
163375.707641,0.000000,-5255.462188,-1378.971896
163375.707961,-3552.988522,-7179.997637,-4903.011187
163375.708280,-518.144159,-12879.583391,-229.828649
163375.708599,-1628.453072,-12583.501014,536.266849
163375.708918,-2368.659014,-10955.047942,-1378.971896
163375.709238,-1554.432478,-10658.965565,-3753.867940
163375.709557,-666.185348,-10732.986159,-1149.143247
163375.709876,4441.235652,-11769.274478,5515.887586
163375.710195,6439.791695,-7698.141797,6128.763984
163375.710515,4663.297435,-6217.729913,3600.648841
163375.710834,-740.205942,-4811.338623,-766.095498
163375.711153,-4737.318029,-6587.832884,-4749.792088
163375.711473,-3034.844362,-11547.212695,-1378.971896
163375.711792,-3330.926739,-11769.274478,-459.657299
163375.712111,-4441.235652,-11103.089130,-2221.676944
163375.712430,-4367.215058,-9844.739029,-4519.963438
163375.712750,-666.185348,-12731.542202,-76.609550
163375.713069,2886.803174,-12139.377449,3677.258390
163375.713388,6439.791695,-9474.636058,6052.154434
163375.713707,3478.967927,-5329.482782,2298.286494
163375.714027,148.041188,-6809.894666,-76.609550
163375.714346,-1850.514855,-7476.080014,-3677.258390
163375.714665,-1406.391290,-11695.253884,-995.924147
163375.714984,-1702.473667,-12213.398043,76.609550
163375.715304,-3034.844362,-10658.965565,-1838.629195
163375.715623,-4737.318029,-8364.327145,-4903.011187
163375.715942,-888.247130,-9548.656652,-3677.258390
163375.716261,1184.329507,-10732.986159,3064.381992
163375.716581,5847.626942,-9474.636058,6894.859482
163375.716900,4441.235652,-5625.565159,3600.648841
163375.717219,1702.473667,-7105.977043,-76.609550
163375.717538,-2738.761985,-6661.853478,-3370.820191
163375.717858,-2664.741391,-10288.862594,-1302.362347
163375.718177,-2368.659014,-11547.212695,766.095498
163375.718496,-4737.318029,-9548.656652,0.000000
163375.718816,-5921.647536,-8364.327145,-3753.867940
163375.719135,-4737.318029,-9548.656652,-2451.505594
163375.719454,0.000000,-11325.150913,1685.410096
163375.719773,4367.215058,-11547.212695,5439.278036
163375.720093,2294.638420,-5921.647536,-76.609550
163375.720412,-74.020594,-6809.894666,-1608.800546
163375.720731,-1850.514855,-7476.080014,-4749.792088
163375.721050,-1702.473667,-10510.924376,-2911.162892
163375.721370,-1702.473667,-12583.501014,-459.657299
163375.721689,-2960.823768,-11325.150913,842.705048
163375.722008,-666.185348,-9918.759623,-2221.676944
163375.722327,0.000000,-10140.821405,-1302.362347
163375.722647,592.164754,-9548.656652,1225.752797
163375.722966,6513.812290,-10140.821405,7354.516781
163375.723285,5255.462188,-3997.112087,1685.410096
163375.723604,1702.473667,-5033.400406,-229.828649
163375.723924,-2368.659014,-6587.832884,-4366.744339
163375.724243,-3478.967927,-10140.821405,-3217.601092
163375.724562,-2442.679609,-12731.542202,-76.609550
163375.724881,-1554.432478,-11843.295072,-76.609550
163375.725201,-2812.782580,-9178.553681,-76.609550
163375.725520,-74.020594,-11547.212695,-383.047749
163375.725839,1110.308913,-10658.965565,1608.800546
163375.726159,3108.864956,-8364.327145,5822.325785
163375.726478,962.267725,-3923.091493,1225.752797
163375.726797,-222.061783,-4811.338623,-1915.238745
163375.727116,-2442.679609,-6809.894666,-4443.353888
163375.727436,-2738.761985,-10658.965565,-3983.696590
163375.727755,-74.020594,-14211.954086,-1302.362347
163375.728074,-1850.514855,-12287.418637,-76.609550
163375.728393,-962.267725,-11843.295072,-1608.800546
163375.728713,-74.020594,-10510.924376,-2834.553343
163375.729032,2368.659014,-10066.800811,1149.143247
163375.729351,5625.565159,-10140.821405,7660.954980
163375.729670,5329.482782,-5551.544565,4903.011187
163375.729990,1702.473667,-4737.318029,1072.533697
163375.730309,-1998.556043,-6439.791695,-3370.820191
163375.730628,-3627.009116,-9474.636058,-3677.258390
163375.730947,-1258.350101,-13619.789333,-689.485948
163375.731267,-1628.453072,-12805.562797,2068.457845
163375.731586,-1258.350101,-10955.047942,-766.095498
163375.731905,-1850.514855,-11251.130318,-1302.362347
163375.732224,-74.020594,-10362.883188,-76.609550
163375.732544,2664.741391,-11029.068536,7048.078582
163375.732863,3404.947333,-6217.729913,3677.258390
163375.733182,1184.329507,-4145.153275,229.828649
163375.733502,-1702.473667,-6069.688724,-3370.820191
163375.733821,-4145.153275,-7772.162391,-4903.011187
163375.734140,-4145.153275,-11325.150913,-2451.505594
163375.734459,-3552.988522,-12065.356855,-766.095498
163375.734779,-4219.173869,-11917.315666,-2145.067394
163375.735098,-2738.761985,-12731.542202,-3140.991542
163375.735417,-74.020594,-13027.624579,-689.485948
163375.735736,5773.606348,-11843.295072,5515.887586
163375.736056,6661.853478,-6661.853478,5132.839837
163375.736375,3108.864956,-4145.153275,1455.581446
163375.736694,-962.267725,-4959.379811,-3064.381992
163375.737013,-4737.318029,-7179.997637,-5822.325785
163375.737333,-2368.659014,-11325.150913,-1532.190996
163375.737652,-2368.659014,-11917.315666,1225.752797
163375.737971,-74.020594,-12731.542202,-76.609550
163375.738290,-1258.350101,-9992.780217,-76.609550
163375.738610,2294.638420,-11547.212695,-76.609550
163375.738929,3256.906145,-10732.986159,4673.182538
163375.739248,4515.256246,-6809.894666,4749.792088
163375.739567,2294.638420,-4737.318029,1378.971896
163375.739887,-370.102971,-4885.359217,-2068.457845
163375.740206,-2368.659014,-7179.997637,-3677.258390
163375.740525,-2738.761985,-9548.656652,-2451.505594
163375.740845,-4441.235652,-10732.986159,0.000000
163375.741164,-3627.009116,-11325.150913,-2451.505594
163375.741483,-2960.823768,-10658.965565,-2911.162892
163375.741802,1702.473667,-14211.954086,-76.609550
163375.742122,2738.761985,-11325.150913,3294.210641
163375.742441,5033.400406,-8364.327145,4979.620737
163375.742760,2516.700203,-5551.544565,1532.190996
163375.743079,-2368.659014,-5107.421000,-2451.505594
163375.743399,-2516.700203,-8142.265362,-3677.258390
163375.743718,-1850.514855,-11843.295072,-1991.848295
163375.744037,-2146.597232,-11843.295072,-76.609550
163375.744356,-3256.906145,-8512.368333,-1378.971896
163375.744676,-74.020594,-11251.130318,-76.609550
163375.744995,0.000000,-10436.903782,0.000000
163375.745314,3478.967927,-10732.986159,2987.772442
163375.745633,4145.153275,-8438.347739,4749.792088
163375.745953,1480.411884,-5625.565159,1225.752797
163375.746272,-2442.679609,-3627.009116,-6128.763984
163375.746591,-888.247130,-8586.388927,-3447.429741
163375.746910,-1554.432478,-11325.150913,-2145.067394
163375.747230,-1628.453072,-11473.192101,383.047749
163375.747549,-2590.720797,-9474.636058,-689.485948
163375.747868,-74.020594,-10658.965565,-76.609550
163375.748188,1702.473667,-11843.295072,-76.609550
163375.748507,3182.885551,-10658.965565,2681.334243
163375.748826,4441.235652,-8290.306550,4826.401637
163375.749145,3256.906145,-5995.668130,4903.011187
163375.749465,-3552.988522,-3627.009116,-3524.039291
163375.749784,-3849.070898,-7402.059420,-5362.668486
163375.750103,-4219.173869,-11843.295072,-4136.915689
163375.750422,-3404.947333,-12657.521608,-1302.362347
163375.750742,-2442.679609,-11399.171507,-689.485948
163375.751061,-1480.411884,-10214.842000,-995.924147
163375.751380,-74.020594,-10955.047942,-689.485948
163375.751699,2294.638420,-13619.789333,4213.525239
163375.752019,4071.132681,-8882.471304,4213.525239
163375.752338,3108.864956,-6587.832884,4596.572988
163375.752657,0.000000,-4219.173869,-1225.752797
163375.752976,-444.123565,-7179.997637,-3753.867940
163375.753296,-1110.308913,-11103.089130,-2528.115143
163375.753615,-1850.514855,-13175.665768,-306.438199
163375.753934,-3997.112087,-9844.739029,-2451.505594
163375.754253,-2664.741391,-10436.903782,-2221.676944
163375.754573,-1184.329507,-11325.150913,0.000000
163375.754892,4071.132681,-11843.295072,3600.648841
163375.755211,6143.709319,-9474.636058,6818.249932
163375.755531,7105.977043,-7994.224174,6665.030833
163375.755850,1184.329507,-3627.009116,0.000000
163375.756169,-2294.638420,-5329.482782,-3294.210641
163375.756488,-4145.153275,-10288.862594,-3830.477490
163375.756808,-4737.318029,-11917.315666,0.000000
163375.757127,-5921.647536,-9548.656652,0.000000
163375.757446,-4811.338623,-8808.450710,-3907.087040
163375.757765,-3552.988522,-10881.027347,-2451.505594
163375.758085,-74.020594,-11843.295072,0.000000
163375.758404,3478.967927,-9474.636058,3600.648841
163375.758723,4663.297435,-7105.977043,4519.963438
163375.759042,518.144159,-4885.359217,-1225.752797
163375.759362,-1184.329507,-7105.977043,-3524.039291
163375.759681,-1406.391290,-9474.636058,-2911.162892
163375.760000,-2368.659014,-10732.986159,-1838.629195
163375.760319,-1258.350101,-11843.295072,-76.609550
163375.760639,-2960.823768,-9548.656652,-2451.505594
163375.760958,-1702.473667,-10140.821405,-4596.572988
163375.761277,1776.494261,-12065.356855,1838.629195
163375.761596,4663.297435,-8882.471304,2681.334243
163375.761916,5921.647536,-7328.038826,5362.668486
163375.762235,2220.617826,-5255.462188,536.266849
163375.762554,-1406.391290,-5625.565159,-3370.820191
163375.762874,-2886.803174,-9400.615463,-3447.429741
163375.763193,-2442.679609,-12657.521608,766.095498
163375.763512,-1332.370696,-10658.965565,1149.143247
163375.763831,-3552.988522,-7328.038826,-2987.772442
163375.764151,-4737.318029,-9548.656652,-2145.067394
163375.764470,-740.205942,-12287.418637,919.314598
163375.764789,518.144159,-8660.409521,1225.752797
163375.765108,3404.947333,-7031.956449,3447.429741
163375.765428,666.185348,-5329.482782,-153.219100
163375.765747,-2442.679609,-6735.874072,-4366.744339
163375.766066,-2442.679609,-11251.130318,-3753.867940
163375.766385,-370.102971,-14211.954086,-689.485948
163375.766705,-2442.679609,-14211.954086,-76.609550
163375.767024,-3627.009116,-9770.718434,-3447.429741
163375.767343,-3552.988522,-9548.656652,-3064.381992
163375.767662,0.000000,-10140.821405,1225.752797
163375.767982,2960.823768,-9548.656652,3677.258390
163375.768301,5847.626942,-7105.977043,5362.668486
163375.768620,3034.844362,-5107.421000,1455.581446
163375.768939,-592.164754,-5625.565159,-2757.943793
163375.769259,-74.020594,-9474.636058,-3140.991542
163375.769578,-2072.576638,-11917.315666,0.000000
163375.769897,-148.041188,-13027.624579,1302.362347
163375.770217,-1258.350101,-9770.718434,-76.609550
163375.770536,-370.102971,-9474.636058,-2221.676944
163375.770855,0.000000,-11325.150913,1838.629195
163375.771174,2072.576638,-9548.656652,3064.381992
163375.771494,3627.009116,-6957.935855,4136.915689
163375.771813,1924.535449,-5403.503377,229.828649
163375.772132,-1184.329507,-5995.668130,-4290.134789
163375.772451,-1628.453072,-9474.636058,-4596.572988
163375.772771,-2368.659014,-11325.150913,0.000000
163375.773090,-1258.350101,-11843.295072,612.876398
163375.773409,-1258.350101,-11843.295072,-1302.362347
163375.773728,-4219.173869,-9474.636058,-4366.744339
163375.774048,0.000000,-12879.583391,459.657299
163375.774367,3256.906145,-11103.089130,2451.505594
163375.774686,5329.482782,-8586.388927,4749.792088
163375.775005,2664.741391,-5625.565159,1072.533697
163375.775325,-2368.659014,-4811.338623,-4290.134789
163375.775644,-2368.659014,-7476.080014,-4213.525239
163375.775963,-1480.411884,-11917.315666,-3677.258390
163375.776282,-1776.494261,-13397.727550,1838.629195
163375.776602,-1258.350101,-11843.295072,-76.609550
163375.776921,-74.020594,-9474.636058,-689.485948
163375.777240,740.205942,-11473.192101,842.705048
163375.777560,2146.597232,-10066.800811,3370.820191
163375.777879,3923.091493,-7550.100608,4903.011187
163375.778198,2738.761985,-4811.338623,2374.896044
163375.778517,0.000000,-3034.844362,0.000000
163375.778837,-1924.535449,-5477.523971,-4826.401637
163375.779156,-2368.659014,-11917.315666,-919.314598
163375.779475,-1850.514855,-12731.542202,-76.609550
163375.779794,-3627.009116,-13027.624579,-76.609550
163375.780114,-2960.823768,-13027.624579,-689.485948
163375.780433,-3256.906145,-10807.006753,-2451.505594
163375.780752,962.267725,-11251.130318,1838.629195
163375.781071,3701.029710,-8364.327145,4213.525239
163375.781391,2368.659014,-4811.338623,2451.505594
163375.781710,1110.308913,-4959.379811,-842.705048
163375.782029,-74.020594,-7698.141797,-3140.991542
163375.782348,-2960.823768,-9844.739029,-2911.162892
163375.782668,-4737.318029,-11917.315666,0.000000
163375.782987,-1554.432478,-13471.748144,2374.896044
163375.783306,-4441.235652,-9548.656652,-2451.505594
163375.783625,-1998.556043,-10584.944971,-2068.457845
163375.783945,814.226536,-11251.130318,1378.971896
163375.784264,3256.906145,-9400.615463,3830.477490
163375.784583,2294.638420,-4589.276840,383.047749
163375.784903,1554.432478,-5477.523971,-689.485948
163375.785222,-592.164754,-6661.853478,-2911.162892
163375.785541,-592.164754,-9918.759623,-1149.143247
163375.785860,-370.102971,-11399.171507,1149.143247
163375.786180,-74.020594,-13027.624579,3294.210641
163375.786499,-1702.473667,-11843.295072,-76.609550
163375.786818,-1850.514855,-11251.130318,-2528.115143
163375.787137,-74.020594,-10955.047942,919.314598
163375.787457,2146.597232,-9548.656652,3983.696590
163375.787776,0.000000,-3627.009116,1225.752797
163375.788095,518.144159,-5181.441594,-383.047749
163375.788415,-1332.370696,-5699.585753,-3677.258390
163375.788734,-1554.432478,-9326.594869,-2451.505594
163375.789053,-74.020594,-12435.459826,-76.609550
163375.789372,-1850.514855,-10955.047942,229.828649
163375.789692,-1850.514855,-10955.047942,-306.438199
163375.790011,-3108.864956,-10214.842000,-2834.553343
163375.790330,0.000000,-12953.603985,1762.019645
163375.790650,3478.967927,-10140.821405,3217.601092
163375.790969,2664.741391,-6957.935855,2681.334243
163375.791288,814.226536,-4145.153275,-1149.143247
163375.791607,222.061783,-6291.750507,-3064.381992
163375.791927,-666.185348,-9474.636058,-2298.286494
163375.792246,0.000000,-11325.150913,0.000000
163375.792565,-74.020594,-11843.295072,1455.581446
163375.792885,-962.267725,-10658.965565,-76.609550
163375.793204,-1258.350101,-9474.636058,-2528.115143
163375.793523,0.000000,-9548.656652,0.000000
163375.793842,5847.626942,-11547.212695,6052.154434
163375.794162,3552.988522,-6735.874072,3830.477490
163375.794481,1184.329507,-4515.256246,0.000000
163375.794800,-962.267725,-5551.544565,-2911.162892
163375.795120,-2368.659014,-9548.656652,-2757.943793
163375.795439,-3256.906145,-11917.315666,0.000000
163375.795758,-3404.947333,-11917.315666,-2451.505594
163375.796077,-4737.318029,-10140.821405,-1225.752797
163375.796397,-3108.864956,-10955.047942,-2221.676944
163375.796716,-2146.597232,-9844.739029,-2528.115143
163375.797035,4071.132681,-11843.295072,2374.896044
163375.797355,3552.988522,-6365.771101,3830.477490
163375.797674,2146.597232,-5033.400406,306.438199
163375.797993,-148.041188,-6365.771101,-2528.115143
163375.798312,-592.164754,-9548.656652,-1532.190996
163375.798632,-1776.494261,-10732.986159,-1838.629195
163375.798951,-3552.988522,-11917.315666,0.000000
163375.799270,-2442.679609,-12879.583391,-689.485948
163375.799590,-2442.679609,-13027.624579,-1302.362347
163375.799909,-1406.391290,-9548.656652,-2451.505594
163375.800228,3923.091493,-10658.965565,2987.772442
163375.800547,3256.906145,-6587.832884,3600.648841
163375.800867,2220.617826,-4663.297435,1149.143247
163375.801186,296.082377,-4959.379811,-2374.896044
163375.801505,0.000000,-8290.306550,-1685.410096
163375.801825,-2072.576638,-10140.821405,0.000000
163375.802144,-296.082377,-12139.377449,1915.238745
163375.802463,-1850.514855,-13027.624579,-76.609550
163375.802783,-4367.215058,-10362.883188,-3753.867940
163375.803102,-4737.318029,-9548.656652,-2451.505594
163375.803421,962.267725,-11399.171507,2068.457845
163375.803740,2886.803174,-7476.080014,2757.943793
163375.804060,1776.494261,-4737.318029,536.266849
163375.804379,0.000000,-4441.235652,-3140.991542
163375.804698,-370.102971,-7698.141797,-2528.115143
163375.805018,-1702.473667,-10288.862594,-1149.143247
163375.805337,-4589.276840,-9548.656652,-2145.067394
163375.805656,-2664.741391,-11917.315666,-306.438199
163375.805975,-666.185348,-13027.624579,-1455.581446
163375.806295,-3552.988522,-10140.821405,-2451.505594
163375.806614,2886.803174,-11251.130318,2068.457845
163375.806933,4071.132681,-8660.409521,3370.820191
163375.807253,2590.720797,-5625.565159,1532.190996
163375.807572,1110.308913,-4737.318029,-4366.744339
163375.807891,-74.020594,-8586.388927,-2528.115143
163375.808210,2294.638420,-11843.295072,-76.609550
163375.808530,-1184.329507,-10436.903782,1532.190996
163375.808849,-814.226536,-10140.821405,0.000000
163375.809168,-1554.432478,-11843.295072,-76.609550
163375.809488,-3256.906145,-10436.903782,-1685.410096
163375.809807,592.164754,-10732.986159,1149.143247
163375.810126,2442.679609,-8438.347739,3140.991542
163375.810445,1628.453072,-6439.791695,1149.143247
163375.810765,962.267725,-5033.400406,-1915.238745
163375.811084,-74.020594,-9400.615463,-1608.800546
163375.811403,-666.185348,-10066.800811,-1915.238745
163375.811723,-2368.659014,-10362.883188,-689.485948
163375.812042,-4737.318029,-9548.656652,0.000000
163375.812361,-1258.350101,-11843.295072,-76.609550
163375.812680,-2368.659014,-10288.862594,-1838.629195
163375.813000,740.205942,-11769.274478,1149.143247
163375.813319,2516.700203,-8734.430116,2757.943793
163375.813638,1184.329507,-5403.503377,2757.943793
163375.813958,888.247130,-4811.338623,-1838.629195
163375.814277,740.205942,-8216.285956,-2757.943793
163375.814596,1036.288319,-12287.418637,766.095498
163375.814916,-74.020594,-11843.295072,1149.143247
163375.815235,-1258.350101,-9844.739029,-536.266849
163375.815554,-666.185348,-11843.295072,-689.485948
163375.815873,-2516.700203,-10732.986159,-1838.629195
163375.816193,148.041188,-11029.068536,1302.362347
163375.816512,3775.050304,-8882.471304,3983.696590
163375.816831,2960.823768,-5995.668130,4903.011187
163375.817151,1184.329507,-4515.256246,459.657299
163375.817470,0.000000,-5995.668130,-1838.629195
163375.817789,-74.020594,-11695.253884,-689.485948
163375.818108,-1258.350101,-11621.233289,-76.609550
163375.818428,-3923.091493,-10214.842000,-2221.676944
163375.818747,-4219.173869,-11251.130318,-2068.457845
163375.819066,-3627.009116,-10584.944971,-2834.553343
163375.819386,-518.144159,-11029.068536,-229.828649
163375.819705,2516.700203,-9400.615463,3064.381992
163375.820024,3256.906145,-6587.832884,3983.696590
163375.820343,0.000000,-2442.679609,0.000000
163375.820663,-1184.329507,-6587.832884,-4136.915689
163375.820982,-1554.432478,-10510.924376,-3753.867940
163375.821301,-1258.350101,-11991.336260,-2528.115143
163375.821621,-74.020594,-13619.789333,-76.609550
163375.821940,-2516.700203,-11325.150913,-1378.971896
163375.822259,-2886.803174,-10436.903782,-2374.896044
163375.822578,148.041188,-10584.944971,76.609550
163375.822898,5033.400406,-9918.759623,6435.202183
163375.823217,5403.503377,-7105.977043,4519.963438
163375.823536,3182.885551,-4737.318029,842.705048
163375.823856,0.000000,-3627.009116,-4060.306139
163375.824175,0.000000,-8956.491898,-1685.410096
163375.824494,1110.308913,-13027.624579,-76.609550
163375.824813,-1480.411884,-12509.480420,1455.581446
163375.825133,-3997.112087,-10510.924376,-1532.190996
163375.825452,-4219.173869,-10658.965565,-2757.943793
163375.825771,-1480.411884,-11251.130318,-612.876398
163375.826091,0.000000,-7772.162391,2451.505594
163375.826410,3478.967927,-6809.894666,2987.772442
163375.826729,888.247130,-3997.112087,536.266849
163375.827048,-740.205942,-5255.462188,-2911.162892
163375.827368,-1480.411884,-7476.080014,-3600.648841
163375.827687,-666.185348,-11843.295072,-76.609550
163375.828006,-666.185348,-14211.954086,-76.609550
163375.828326,-4737.318029,-11029.068536,-2451.505594
163375.828645,-4441.235652,-11029.068536,-6128.763984
163375.828964,-666.185348,-13027.624579,-76.609550
163375.829284,296.082377,-9548.656652,2451.505594
163375.829603,3997.112087,-7920.203579,2987.772442
163375.829922,2960.823768,-5255.462188,1378.971896
163375.830241,518.144159,-5107.421000,-2221.676944
163375.830561,814.226536,-8290.306550,-1685.410096
163375.830880,2368.659014,-11177.109724,1149.143247
163375.831199,1110.308913,-11843.295072,2068.457845
163375.831519,-2146.597232,-10658.965565,-76.609550
163375.831838,-4737.318029,-9104.533087,-3983.696590
163375.832157,-74.020594,-14211.954086,-76.609550
163375.832476,0.000000,-10732.986159,1838.629195
163375.832796,2442.679609,-7698.141797,3370.820191
163375.833115,1110.308913,-4663.297435,995.924147
163375.833434,-370.102971,-4811.338623,-3217.601092
163375.833754,-2368.659014,-7179.997637,-3677.258390
163375.834073,-1924.535449,-10140.821405,-842.705048
163375.834392,-1258.350101,-13619.789333,2374.896044
163375.834711,-3775.050304,-9548.656652,-2298.286494
163375.835031,-4737.318029,-9696.697840,-3677.258390
163375.835350,-74.020594,-13027.624579,-76.609550
163375.835669,0.000000,-11029.068536,1455.581446
163375.835989,2442.679609,-8660.409521,2681.334243
163375.836308,1776.494261,-6143.709319,536.266849
163375.836627,592.164754,-5403.503377,-1225.752797
163375.836946,-1184.329507,-7772.162391,-2451.505594
163375.837266,0.000000,-10140.821405,0.000000
163375.837585,1702.473667,-12879.583391,1762.019645
163375.837904,-1998.556043,-10362.883188,153.219100
163375.838224,-4663.297435,-7476.080014,-3677.258390
163375.838543,-74.020594,-12879.583391,-383.047749
163375.838862,2072.576638,-11325.150913,2528.115143
163375.839181,3923.091493,-7698.141797,4136.915689
163375.839501,2368.659014,-5477.523971,1762.019645
163375.839820,0.000000,-5403.503377,-1838.629195
163375.840139,-2368.659014,-6587.832884,-4903.011187
163375.840459,-2368.659014,-10732.986159,-1838.629195
163375.840778,-2072.576638,-12287.418637,842.705048
163375.841097,-1850.514855,-13619.789333,-76.609550
163375.841416,-5329.482782,-7772.162391,-4903.011187
163375.841736,-1258.350101,-11621.233289,-995.924147
163375.842055,1628.453072,-10362.883188,2681.334243
163375.842374,4663.297435,-7920.203579,4519.963438
163375.842694,3256.906145,-5107.421000,2298.286494
163375.843013,0.000000,-4145.153275,-1302.362347
163375.843332,-2220.617826,-5699.585753,-5132.839837
163375.843652,-2368.659014,-9548.656652,-4826.401637
163375.843971,-2368.659014,-13101.645173,0.000000
163375.844290,-2146.597232,-12879.583391,1762.019645
163375.844609,-4737.318029,-8364.327145,-3677.258390
163375.844929,-1480.411884,-11843.295072,-2528.115143
163375.845248,1850.514855,-11399.171507,1378.971896
163375.845567,4737.318029,-8364.327145,4673.182538
163375.845887,5847.626942,-4737.318029,2987.772442
163375.846206,4663.297435,-4737.318029,-76.609550
163375.846525,1702.473667,-8882.471304,-689.485948
163375.846844,518.144159,-10510.924376,-2374.896044
163375.847164,-1184.329507,-11917.315666,612.876398
163375.847483,-370.102971,-13397.727550,2221.676944
163375.847802,-4737.318029,-10140.821405,-3064.381992
163375.848122,-3108.864956,-11769.274478,-2834.553343
163375.848441,0.000000,-11325.150913,306.438199
163375.848760,3330.926739,-9474.636058,3753.867940
163375.849079,4663.297435,-4737.318029,2987.772442
163375.849399,4071.132681,-5921.647536,2221.676944
163375.849718,-1258.350101,-5329.482782,-4060.306139
163375.850037,-3404.947333,-8956.491898,-3064.381992
163375.850357,-4145.153275,-11029.068536,-1532.190996
163375.850676,-1332.370696,-14211.954086,2911.162892
163375.850995,-4959.379811,-10288.862594,-2374.896044
163375.851314,-4367.215058,-11991.336260,-3753.867940
163375.851634,-1406.391290,-12287.418637,-995.924147
163375.851953,1554.432478,-9474.636058,2451.505594
163375.852272,3404.947333,-7105.977043,3677.258390
163375.852592,2590.720797,-6809.894666,-76.609550
163375.852911,-1258.350101,-5625.565159,-2987.772442
163375.853230,-4737.318029,-7179.997637,-3677.258390
163375.853549,-2368.659014,-9548.656652,-1149.143247
163375.853869,-74.020594,-14211.954086,2987.772442
163375.854188,-2516.700203,-10436.903782,0.000000
163375.854507,-2812.782580,-9844.739029,-2145.067394
163375.854827,-1036.288319,-10732.986159,76.609550
163375.855146,2368.659014,-9548.656652,4903.011187
163375.855465,3552.988522,-7476.080014,3983.696590
163375.855784,2146.597232,-5403.503377,0.000000
