#time,accel_x,accel_y,accel_z
59489.756981,-370.102971,-9400.615463,919.314598
59489.757291,-2220.617826,-8068.244768,0.000000
59489.757600,0.000000,-8364.327145,1225.752797
59489.757910,592.164754,-10066.800811,1915.238745
59489.758219,-666.185348,-7772.162391,-2451.505594
59489.758529,592.164754,-10436.903782,2911.162892
59489.758838,-222.061783,-9474.636058,-76.609550
59489.759148,0.000000,-9622.677246,1915.238745
59489.759457,-222.061783,-8882.471304,306.438199
59489.759767,-592.164754,-8808.450710,383.047749
59489.760076,-296.082377,-9030.512492,766.095498
59489.760386,-1776.494261,-7254.018232,-1838.629195
59489.760695,-2368.659014,-7179.997637,0.000000
59489.761005,0.000000,-9548.656652,1225.752797
59489.761314,-74.020594,-8882.471304,-76.609550
59489.761624,0.000000,-7772.162391,612.876398
59489.761933,2294.638420,-11843.295072,3600.648841
59489.762243,0.000000,-8956.491898,1225.752797
59489.762552,-74.020594,-9400.615463,919.314598
59489.762862,-518.144159,-8882.471304,689.485948
59489.763171,-518.144159,-9474.636058,536.266849
59489.763481,-74.020594,-8290.306550,-76.609550
59489.763790,-2812.782580,-7179.997637,0.000000
59489.764100,0.000000,-8364.327145,0.000000
59489.764409,-74.020594,-9474.636058,-76.609550
59489.764718,0.000000,-8364.327145,0.000000
59489.765028,2294.638420,-11251.130318,2987.772442
59489.765337,0.000000,-7772.162391,153.219100
59489.765647,-74.020594,-9326.594869,1149.143247
59489.765956,-222.061783,-9252.574275,842.705048
59489.766266,-296.082377,-9252.574275,919.314598
59489.766575,-74.020594,-9474.636058,-76.609550
59489.766885,-1258.350101,-7698.141797,0.000000
59489.767194,-1776.494261,-7846.182985,0.000000
59489.767504,814.226536,-11843.295072,3600.648841
59489.767813,-2368.659014,-7772.162391,0.000000
59489.768123,1184.329507,-9548.656652,1838.629195
59489.768432,-1628.453072,-7846.182985,0.000000
59489.768742,-444.123565,-9104.533087,766.095498
59489.769051,-296.082377,-9178.553681,459.657299
59489.769361,-518.144159,-8882.471304,612.876398
59489.769670,1110.308913,-10658.965565,2374.896044
59489.769980,-74.020594,-9178.553681,-76.609550
59489.770289,-1702.473667,-7772.162391,0.000000
59489.770599,1628.453072,-11621.233289,3600.648841
59489.770908,-1258.350101,-7254.018232,-612.876398
59489.771218,0.000000,-8364.327145,0.000000
59489.771527,-962.267725,-8290.306550,536.266849
59489.771837,-370.102971,-8956.491898,459.657299
59489.772146,-296.082377,-9178.553681,612.876398
59489.772456,-222.061783,-9104.533087,995.924147
59489.772765,1406.391290,-11103.089130,3140.991542
59489.773075,1702.473667,-10658.965565,1149.143247
59489.773384,-666.185348,-8438.347739,76.609550
59489.773694,888.247130,-10881.027347,3677.258390
59489.774003,-74.020594,-8882.471304,-76.609550
59489.774313,-3552.988522,-7179.997637,0.000000
59489.774622,-74.020594,-8882.471304,1149.143247
59489.774931,-888.247130,-8808.450710,229.828649
59489.775241,-296.082377,-9030.512492,842.705048
59489.775550,-518.144159,-8956.491898,766.095498
59489.775860,0.000000,-9548.656652,2451.505594
59489.776169,1406.391290,-10658.965565,2068.457845
59489.776479,-74.020594,-9474.636058,1149.143247
59489.776788,-3552.988522,-5995.668130,0.000000
59489.777098,1702.473667,-11251.130318,2068.457845
59489.777407,-1258.350101,-6809.894666,-995.924147
59489.777717,1110.308913,-10362.883188,1149.143247
59489.778026,-444.123565,-8734.430116,766.095498
59489.778336,-518.144159,-8882.471304,229.828649
59489.778645,-74.020594,-8956.491898,689.485948
59489.778955,-2072.576638,-7772.162391,1225.752797
59489.779264,0.000000,-9548.656652,1685.410096
59489.779574,-74.020594,-10066.800811,2374.896044
59489.779883,-4145.153275,-5995.668130,0.000000
59489.780193,1998.556043,-11251.130318,2374.896044
59489.780502,-74.020594,-8290.306550,-383.047749
59489.780812,1036.288319,-10140.821405,1762.019645
59489.781121,-74.020594,-9178.553681,995.924147
59489.781431,-296.082377,-9252.574275,1072.533697
59489.781740,-370.102971,-9326.594869,459.657299
59489.782050,-2368.659014,-6587.832884,0.000000
59489.782359,0.000000,-8660.409521,1225.752797
59489.782669,148.041188,-9696.697840,2374.896044
59489.782978,-74.020594,-7846.182985,-842.705048
59489.783288,0.000000,-9548.656652,1225.752797
59489.783597,-74.020594,-9474.636058,-76.609550
59489.783907,296.082377,-9622.677246,1838.629195
59489.784216,-148.041188,-8956.491898,689.485948
59489.784526,-444.123565,-9252.574275,842.705048
59489.784835,-370.102971,-9400.615463,842.705048
59489.785144,-1998.556043,-7254.018232,-2145.067394
59489.785454,-2368.659014,-7772.162391,0.000000
59489.785763,0.000000,-9548.656652,2987.772442
59489.786073,-1998.556043,-6291.750507,-1072.533697
59489.786382,1480.411884,-9474.636058,2451.505594
59489.786692,2294.638420,-9474.636058,3600.648841
59489.787001,1184.329507,-8364.327145,1225.752797
59489.787311,1554.432478,-9104.533087,1455.581446
59489.787620,1554.432478,-8734.430116,919.314598
59489.787930,1702.473667,-9030.512492,612.876398
59489.788239,1998.556043,-8290.306550,-1302.362347
59489.788549,0.000000,-7772.162391,0.000000
59489.788858,1184.329507,-8364.327145,0.000000
59489.789168,5847.626942,-11843.295072,2987.772442
59489.789477,2368.659014,-7772.162391,0.000000
59489.789787,3849.070898,-9548.656652,3370.820191
59489.790096,1924.535449,-8364.327145,0.000000
59489.790406,3552.988522,-9326.594869,612.876398
59489.790715,4589.276840,-9252.574275,995.924147
59489.791025,4737.318029,-9030.512492,1302.362347
59489.791334,7031.956449,-9474.636058,1762.019645
59489.791644,4737.318029,-7179.997637,153.219100
59489.791953,5329.482782,-8364.327145,2374.896044
59489.792263,4367.215058,-6883.915261,-995.924147
59489.792572,7031.956449,-10362.883188,1685.410096
59489.792882,7031.956449,-10066.800811,1762.019645
59489.793191,4737.318029,-8660.409521,0.000000
59489.793501,7031.956449,-10214.842000,459.657299
59489.793810,5329.482782,-10732.986159,-153.219100
59489.794120,4441.235652,-11621.233289,0.000000
59489.794429,5255.462188,-13027.624579,-76.609550
59489.794739,1554.432478,-10140.821405,0.000000
59489.795048,1776.494261,-10436.903782,1838.629195
59489.795357,1406.391290,-6883.915261,0.000000
59489.795667,4293.194464,-8068.244768,2298.286494
59489.795976,6439.791695,-7105.977043,3600.648841
59489.796286,4737.318029,-3627.009116,1838.629195
59489.796595,7328.038826,-4737.318029,2681.334243
59489.796905,10362.883188,-5773.606348,2681.334243
59489.797214,8734.430116,-7031.956449,2068.457845
59489.797524,5847.626942,-11251.130318,-689.485948
59489.797833,0.000000,-14285.974681,-2681.334243
59489.798143,-3552.988522,-16728.654289,-3677.258390
59489.798452,-74.020594,-18949.272115,-1608.800546
59489.798762,-4515.256246,-13397.727550,-3064.381992
59489.799071,-296.082377,-11547.212695,-76.609550
59489.799381,0.000000,-5403.503377,0.000000
59489.799690,4441.235652,-4219.173869,3907.087040
59489.800000,5847.626942,-4589.276840,5745.716235
59489.800309,4959.379811,-3478.967927,5439.278036
59489.800619,2294.638420,-3034.844362,2451.505594
59489.800928,444.123565,-3330.926739,2757.943793
59489.801238,1184.329507,-2442.679609,1225.752797
59489.801547,4663.297435,-7698.141797,2374.896044
59489.801857,0.000000,-5255.462188,-2451.505594
59489.802166,296.082377,-15470.304188,612.876398
59489.802476,-5329.482782,-16654.633695,-3677.258390
59489.802785,-6513.812290,-19763.498651,-3217.601092
59489.803095,-6069.688724,-15174.221811,-4060.306139
59489.803404,-4145.153275,-12879.583391,-2145.067394
59489.803714,-74.020594,-6513.812290,-383.047749
59489.804023,1702.473667,-4293.194464,2298.286494
59489.804333,3552.988522,-3034.844362,2451.505594
59489.804642,8882.471304,-5921.647536,7277.907231
59489.804952,5921.647536,-3627.009116,4903.011187
59489.805261,10288.862594,-4219.173869,8580.269578
59489.805570,5921.647536,-3034.844362,4903.011187
59489.805880,3404.947333,-6883.915261,2528.115143
59489.806189,-370.102971,-12435.459826,-689.485948
59489.806499,-1406.391290,-16284.530724,-2834.553343
59489.806808,-74.020594,-17764.942608,-3753.867940
59489.807118,-2442.679609,-15100.201217,-4979.620737
59489.807427,-5181.441594,-18653.189738,-3753.867940
59489.807737,-7105.977043,-13397.727550,-3370.820191
59489.808046,2886.803174,-11843.295072,1149.143247
59489.808356,5921.647536,-3627.009116,4903.011187
59489.808665,11843.295072,-1184.329507,7277.907231
59489.808975,13027.624579,-3478.967927,8197.221829
59489.809284,11103.089130,-5625.565159,6435.202183
59489.809594,8364.327145,-8438.347739,3983.696590
59489.809903,5255.462188,-10658.965565,2068.457845
59489.810213,1702.473667,-12731.542202,-1915.238745
59489.810522,-2146.597232,-14211.954086,-4979.620737
59489.810832,-2368.659014,-14582.057057,-3677.258390
59489.811141,4071.132681,-14211.954086,-1302.362347
59489.811451,2368.659014,-7772.162391,0.000000
59489.811760,3627.009116,-10214.842000,0.000000
59489.812070,1850.514855,-15174.221811,2757.943793
59489.812379,4293.194464,-11177.109724,2911.162892
59489.812689,7105.977043,-8734.430116,3677.258390
59489.812998,6365.771101,-7105.977043,4826.401637
59489.813308,5847.626942,-7105.977043,1762.019645
59489.813617,7031.956449,-10658.965565,2374.896044
59489.813927,4737.318029,-7772.162391,612.876398
59489.814236,4885.359217,-13101.645173,3294.210641
59489.814546,-1258.350101,-12583.501014,-3064.381992
59489.814855,-2442.679609,-16284.530724,-3140.991542
59489.815165,-3923.091493,-14211.954086,-3447.429741
59489.815474,-2146.597232,-13027.624579,-995.924147
59489.815783,1628.453072,-8956.491898,995.924147
59489.816093,5329.482782,-7179.997637,3983.696590
59489.816402,9696.697840,-7105.977043,5822.325785
59489.816712,7031.956449,-9474.636058,6052.154434
59489.817021,1258.350101,-4811.338623,1225.752797
59489.817331,3478.967927,-8290.306550,2911.162892
59489.817640,1110.308913,-5329.482782,-3140.991542
59489.817950,1110.308913,-10658.965565,-76.609550
59489.818259,1480.411884,-11843.295072,459.657299
59489.818569,1036.288319,-12657.521608,-306.438199
59489.818878,-2368.659014,-12509.480420,-2451.505594
59489.819188,-4737.318029,-11917.315666,-2451.505594
59489.819497,-2960.823768,-11917.315666,0.000000
59489.819807,3478.967927,-9474.636058,3294.210641
59489.820116,2368.659014,-3775.050304,612.876398
59489.820426,6735.874072,-5551.544565,4060.306139
59489.820735,6439.791695,-4145.153275,2374.896044
59489.821045,4441.235652,-6069.688724,3064.381992
59489.821354,2442.679609,-8438.347739,1455.581446
59489.821664,2590.720797,-8142.265362,1072.533697
59489.821973,1702.473667,-8216.285956,383.047749
59489.822283,-2368.659014,-9548.656652,0.000000
59489.822592,0.000000,-8956.491898,-1225.752797
59489.822902,-74.020594,-15396.283594,-76.609550
59489.823211,0.000000,-9548.656652,-2911.162892
59489.823521,4663.297435,-10362.883188,2221.676944
59489.823830,8216.285956,-8290.306550,2987.772442
59489.824140,6513.812290,-8734.430116,3677.258390
59489.824449,4367.215058,-8882.471304,2911.162892
59489.824759,3182.885551,-8660.409521,1685.410096
59489.825069,2812.782580,-9918.759623,2145.067394
59489.825378,2590.720797,-7328.038826,0.000000
59489.825688,1480.411884,-9548.656652,306.438199
59489.825998,1480.411884,-11029.068536,3064.381992
59489.826307,-1702.473667,-8438.347739,-1915.238745
59489.826617,592.164754,-10140.821405,766.095498
59489.826926,4663.297435,-9474.636058,2374.896044
59489.827236,2960.823768,-6291.750507,1532.190996
59489.827546,4959.379811,-7105.977043,-76.609550
59489.827855,3552.988522,-7179.997637,306.438199
59489.828165,4811.338623,-9992.780217,1225.752797
59489.828475,5847.626942,-9326.594869,153.219100
59489.828784,3849.070898,-7476.080014,0.000000
59489.829094,1776.494261,-9548.656652,0.000000
59489.829403,3478.967927,-11843.295072,-689.485948
59489.829713,-2368.659014,-10732.986159,-2145.067394
59489.830023,592.164754,-13101.645173,1838.629195
59489.830332,-1184.329507,-10140.821405,0.000000
59489.830642,-296.082377,-9622.677246,612.876398
59489.830951,518.144159,-8216.285956,1302.362347
59489.831261,1554.432478,-7698.141797,2528.115143
59489.831571,5847.626942,-5921.647536,3600.648841
59489.831880,2442.679609,-4293.194464,2911.162892
59489.832190,888.247130,-8364.327145,3983.696590
59489.832500,-2442.679609,-7698.141797,-689.485948
59489.832809,-3997.112087,-10881.027347,-612.876398
59489.833119,-4811.338623,-8882.471304,-4213.525239
59489.833428,-4071.132681,-14211.954086,-689.485948
59489.833738,-74.020594,-9030.512492,-1072.533697
59489.834048,-3182.885551,-13323.706956,995.924147
59489.834357,-1998.556043,-8586.388927,0.000000
59489.834667,-3552.988522,-11917.315666,2451.505594
59489.834976,-1554.432478,-8438.347739,3294.210641
59489.835286,-2442.679609,-8290.306550,-76.609550
59489.835596,-7105.977043,-7179.997637,0.000000
59489.835905,-1258.350101,-7994.224174,3600.648841
59489.836215,1850.514855,-8290.306550,5439.278036
59489.836524,592.164754,-4219.173869,2681.334243
59489.836834,-1480.411884,-7179.997637,2451.505594
59489.837144,-2960.823768,-7846.182985,76.609550
59489.837453,-2442.679609,-11695.253884,383.047749
59489.837763,-2442.679609,-10807.006753,-689.485948
59489.838073,-6069.688724,-9844.739029,-3140.991542
59489.838382,-6513.812290,-12509.480420,0.000000
59489.838692,-5107.421000,-10658.965565,-1608.800546
59489.839001,-3552.988522,-9548.656652,2451.505594
59489.839311,-666.185348,-5699.585753,1302.362347
59489.839621,370.102971,-6513.812290,4060.306139
59489.839930,2072.576638,-5107.421000,3600.648841
59489.840240,1702.473667,-6365.771101,3600.648841
59489.840549,2294.638420,-7772.162391,3753.867940
59489.840859,2368.659014,-8068.244768,3064.381992
59489.841169,-74.020594,-11843.295072,3600.648841
59489.841478,-3034.844362,-9770.718434,-3140.991542
59489.841788,-7105.977043,-11917.315666,-2451.505594
59489.842098,-3627.009116,-16284.530724,-76.609550
59489.842407,-74.020594,-11843.295072,-1302.362347
59489.842717,-888.247130,-9104.533087,76.609550
59489.843026,2664.741391,-8364.327145,1838.629195
59489.843336,2590.720797,-7846.182985,3524.039291
59489.843646,4145.153275,-6513.812290,4673.182538
59489.843955,5403.503377,-5329.482782,2681.334243
59489.844265,1850.514855,-3627.009116,689.485948
59489.844574,2664.741391,-8364.327145,1838.629195
59489.844884,-814.226536,-9474.636058,-766.095498
59489.845194,-4145.153275,-9548.656652,-2451.505594
59489.845503,0.000000,-12509.480420,-612.876398
59489.845813,-74.020594,-11547.212695,-2068.457845
59489.846123,518.144159,-11399.171507,-1608.800546
59489.846432,296.082377,-11473.192101,459.657299
59489.846742,2590.720797,-8660.409521,1149.143247
59489.847051,5255.462188,-9474.636058,3064.381992
59489.847361,5847.626942,-9474.636058,4213.525239
59489.847671,0.000000,-5699.585753,0.000000
59489.847980,-148.041188,-8734.430116,1455.581446
59489.848290,-2738.761985,-5403.503377,-3677.258390
59489.848599,666.185348,-6735.874072,-766.095498
59489.848909,1184.329507,-7179.997637,383.047749
59489.849219,1258.350101,-9030.512492,-229.828649
59489.849528,-222.061783,-10955.047942,-536.266849
59489.849838,2072.576638,-13323.706956,2145.067394
59489.850148,148.041188,-10584.944971,-76.609550
59489.850457,-3256.906145,-9548.656652,0.000000
59489.850767,-74.020594,-11695.253884,995.924147
59489.851076,-3552.988522,-9548.656652,0.000000
59489.851386,-74.020594,-13027.624579,-76.609550
59489.851696,740.205942,-8364.327145,2604.724693
59489.852005,222.061783,-5477.523971,2374.896044
59489.852315,0.000000,-6439.791695,1838.629195
59489.852624,-1184.329507,-7772.162391,2145.067394
59489.852934,-1184.329507,-6587.832884,76.609550
59489.853244,1924.535449,-8956.491898,3677.258390
59489.853553,-74.020594,-9474.636058,-76.609550
59489.853863,-5921.647536,-9548.656652,-2451.505594
59489.854172,-4885.359217,-14434.015869,1378.971896
59489.854482,-5921.647536,-9844.739029,-2451.505594
59489.854792,-3849.070898,-8068.244768,-1072.533697
59489.855101,-2368.659014,-8364.327145,1532.190996
59489.855411,-1554.432478,-7994.224174,1455.581446
59489.855721,-1332.370696,-7476.080014,2757.943793
59489.856030,2664.741391,-9474.636058,6052.154434
59489.856340,1998.556043,-5033.400406,3140.991542
59489.856649,0.000000,-5403.503377,2451.505594
59489.856959,-74.020594,-10066.800811,2374.896044
59489.857269,-6513.812290,-9548.656652,0.000000
59489.857578,-1258.350101,-14211.954086,-76.609550
59489.857888,-1258.350101,-11843.295072,-76.609550
59489.858197,-3182.885551,-10214.842000,-995.924147
59489.858507,-3256.906145,-11029.068536,-919.314598
59489.858817,-3330.926739,-9696.697840,536.266849
59489.859126,-2368.659014,-8364.327145,306.438199
59489.859436,5921.647536,-7402.059420,5286.058936
59489.859746,4663.297435,-6513.812290,4519.963438
59489.860055,592.164754,-5403.503377,2451.505594
59489.860365,-1258.350101,-7698.141797,-76.609550
59489.860674,-3552.988522,-8364.327145,1225.752797
59489.860984,-888.247130,-7846.182985,0.000000
59489.861294,-2220.617826,-9844.739029,0.000000
59489.861603,0.000000,-9326.594869,-1225.752797
59489.861913,-370.102971,-11695.253884,612.876398
59489.862222,5847.626942,-9474.636058,3600.648841
59489.862532,3256.906145,-8660.409521,1685.410096
59489.862842,1480.411884,-6587.832884,1225.752797
59489.863151,962.267725,-10658.965565,-689.485948
59489.863461,-4737.318029,-9548.656652,-1838.629195
59489.863771,-74.020594,-10658.965565,-2528.115143
59489.864080,1110.308913,-10066.800811,-76.609550
59489.864390,1406.391290,-7550.100608,0.000000
59489.864699,2960.823768,-8438.347739,766.095498
59489.865009,2738.761985,-8438.347739,2068.457845
59489.865319,3552.988522,-7179.997637,2451.505594
59489.865628,7476.080014,-9178.553681,4519.963438
59489.865938,3478.967927,-9474.636058,2374.896044
59489.866247,0.000000,-9548.656652,612.876398
59489.866557,-1258.350101,-11843.295072,-1302.362347
59489.866867,-2368.659014,-11325.150913,0.000000
59489.867176,-1628.453072,-8660.409521,-1532.190996
59489.867486,-1776.494261,-9104.533087,-459.657299
59489.867796,-1554.432478,-9918.759623,-1225.752797
59489.868105,-1332.370696,-9770.718434,689.485948
59489.868415,4071.132681,-9178.553681,2374.896044
59489.868724,2368.659014,-5477.523971,2451.505594
59489.869034,740.205942,-8068.244768,4749.792088
59489.869344,-1998.556043,-5995.668130,0.000000
59489.869653,-74.020594,-10955.047942,2374.896044
59489.869963,-2738.761985,-7179.997637,-1838.629195
59489.870272,-1258.350101,-10066.800811,229.828649
59489.870582,-4219.173869,-10510.924376,0.000000
59489.870892,-3256.906145,-9992.780217,-689.485948
59489.871201,-3849.070898,-9622.677246,536.266849
59489.871511,0.000000,-8660.409521,3064.381992
59489.871820,1998.556043,-7105.977043,3294.210641
59489.872130,1480.411884,-6957.935855,3140.991542
59489.872440,-740.205942,-8882.471304,1838.629195
59489.872749,-4589.276840,-8734.430116,0.000000
59489.873059,-3923.091493,-8882.471304,-2451.505594
59489.873369,-3256.906145,-8660.409521,0.000000
59489.873678,-74.020594,-11843.295072,2374.896044
59489.873988,-4293.194464,-8660.409521,0.000000
59489.874297,-2368.659014,-9548.656652,2451.505594
59489.874607,1184.329507,-7772.162391,4290.134789
59489.874917,3478.967927,-7698.141797,4213.525239
59489.875226,2220.617826,-6735.874072,3524.039291
59489.875536,-592.164754,-7624.121203,1378.971896
59489.875845,-4663.297435,-9770.718434,-153.219100
59489.876155,-3627.009116,-9770.718434,-3140.991542
59489.876465,-4219.173869,-9844.739029,-3677.258390
59489.876774,-814.226536,-12435.459826,-76.609550
59489.877084,-3330.926739,-8512.368333,-1685.410096
59489.877394,-2368.659014,-9548.656652,1532.190996
59489.877703,1184.329507,-7179.997637,2451.505594
59489.878013,4663.297435,-7476.080014,3983.696590
59489.878322,3775.050304,-7476.080014,3370.820191
59489.878632,1924.535449,-8808.450710,1838.629195
59489.878942,-1850.514855,-9622.677246,-536.266849
59489.879251,-1258.350101,-10362.883188,-1302.362347
59489.879561,-2072.576638,-7179.997637,-3447.429741
59489.879870,-888.247130,-10140.821405,919.314598
59489.880180,-74.020594,-10362.883188,-689.485948
59489.880490,0.000000,-8364.327145,0.000000
59489.880799,3552.988522,-7179.997637,1225.752797
59489.881109,6291.750507,-7846.182985,4136.915689
59489.881419,4219.173869,-7624.121203,3064.381992
59489.881728,1332.370696,-8512.368333,153.219100
59489.882038,-1480.411884,-10362.883188,-1149.143247
59489.882347,-74.020594,-11251.130318,-1302.362347
59489.882657,-2664.741391,-7476.080014,-4213.525239
59489.882967,-1776.494261,-11325.150913,306.438199
59489.883276,-74.020594,-9178.553681,-1302.362347
59489.883586,0.000000,-8068.244768,612.876398
59489.883895,3256.906145,-6735.874072,2145.067394
59489.884205,4959.379811,-7624.121203,4060.306139
59489.884515,3404.947333,-7254.018232,2681.334243
59489.884824,370.102971,-8956.491898,153.219100
59489.885134,-2368.659014,-10510.924376,-383.047749
59489.885443,-74.020594,-11843.295072,-76.609550
59489.885753,-1258.350101,-9548.656652,-2528.115143
59489.886063,-2368.659014,-10732.986159,306.438199
59489.886372,-2442.679609,-10066.800811,-689.485948
59489.886682,-4145.153275,-7772.162391,0.000000
59489.886992,1184.329507,-6439.791695,1225.752797
59489.887301,4737.318029,-6439.791695,4596.572988
59489.887611,2812.782580,-7328.038826,3600.648841
59489.887920,-666.185348,-8216.285956,229.828649
59489.888230,-4441.235652,-9844.739029,-536.266849
59489.888540,-2146.597232,-12879.583391,-76.609550
59489.888849,-4219.173869,-10066.800811,-2834.553343
59489.889159,-5921.647536,-10140.821405,0.000000
59489.889468,-2442.679609,-9474.636058,-383.047749
59489.889778,-2960.823768,-9548.656652,1225.752797
59489.890088,2886.803174,-7105.977043,1991.848295
59489.890397,2960.823768,-6291.750507,4903.011187
59489.890707,2442.679609,-5921.647536,4213.525239
59489.891017,-296.082377,-7772.162391,2221.676944
59489.891326,-2886.803174,-9104.533087,1149.143247
59489.891636,-1480.411884,-11695.253884,-76.609550
59489.891945,-3182.885551,-11843.295072,-76.609550
59489.892255,-6513.812290,-7179.997637,-3677.258390
59489.892565,-3256.906145,-11177.109724,-76.609550
59489.892874,-1850.514855,-10658.965565,-76.609550
59489.893184,1702.473667,-8734.430116,842.705048
59489.893493,1850.514855,-7772.162391,3677.258390
59489.893803,3256.906145,-7994.224174,3830.477490
59489.894113,1258.350101,-8438.347739,2757.943793
59489.894422,-2960.823768,-7920.203579,1762.019645
59489.894732,-2664.741391,-11917.315666,919.314598
59489.895042,2294.638420,-9474.636058,2374.896044
59489.895351,-3552.988522,-8364.327145,-1838.629195
59489.895661,-1184.329507,-8956.491898,153.219100
59489.895970,-1258.350101,-10362.883188,-76.609550
59489.896280,4663.297435,-8290.306550,2374.896044
59489.896590,3552.988522,-7920.203579,2757.943793
59489.896899,2516.700203,-8216.285956,2298.286494
59489.897209,518.144159,-9252.574275,306.438199
59489.897518,-962.267725,-10066.800811,153.219100
59489.897828,0.000000,-10140.821405,0.000000
59489.898138,-740.205942,-12953.603985,1991.848295
59489.898447,-3034.844362,-8586.388927,-3294.210641
59489.898757,-3256.906145,-10732.986159,-1225.752797
59489.899067,-74.020594,-9474.636058,1149.143247
59489.899376,4071.132681,-8882.471304,3600.648841
59489.899686,3997.112087,-5995.668130,3064.381992
59489.899995,5181.441594,-6587.832884,3370.820191
59489.900305,3701.029710,-7254.018232,1991.848295
59489.900615,74.020594,-8882.471304,0.000000
59489.900924,-2368.659014,-9548.656652,-1532.190996
59489.901234,-2368.659014,-11917.315666,-306.438199
59489.901543,-1850.514855,-11843.295072,-2528.115143
59489.901853,-2960.823768,-11621.233289,-919.314598
59489.902163,-1258.350101,-10362.883188,-76.609550
59489.902472,3923.091493,-8290.306550,4519.963438
59489.902782,4293.194464,-6365.771101,3447.429741
59489.903091,3108.864956,-6217.729913,2681.334243
59489.903401,296.082377,-8290.306550,1072.533697
59489.903711,-2368.659014,-9030.512492,0.000000
59489.904020,-4145.153275,-9548.656652,-1838.629195
59489.904330,-4441.235652,-10140.821405,0.000000
59489.904640,-3627.009116,-11547.212695,-1915.238745
59489.904949,-5921.647536,-9548.656652,-2451.505594
59489.905259,-518.144159,-10658.965565,2068.457845
59489.905568,2072.576638,-9474.636058,4826.401637
59489.905878,2294.638420,-6661.853478,3907.087040
59489.906188,1184.329507,-6587.832884,3217.601092
59489.906497,222.061783,-7772.162391,2145.067394
59489.906807,-1776.494261,-8956.491898,0.000000
59489.907116,-2368.659014,-7772.162391,0.000000
59489.907426,-4737.318029,-7179.997637,0.000000
59489.907736,-2072.576638,-10436.903782,612.876398
59489.908045,-3627.009116,-9770.718434,-1302.362347
59489.908355,-3256.906145,-9844.739029,612.876398
59489.908665,592.164754,-9696.697840,3217.601092
59489.908974,1702.473667,-8660.409521,3217.601092
59489.909284,1702.473667,-7698.141797,2068.457845
59489.909593,0.000000,-8660.409521,1915.238745
59489.909903,-1332.370696,-7772.162391,0.000000
59489.910213,-1258.350101,-8586.388927,0.000000
59489.910522,-4145.153275,-7179.997637,0.000000
59489.910832,-74.020594,-11251.130318,-76.609550
59489.911141,-3849.070898,-8364.327145,-1455.581446
59489.911451,-518.144159,-10066.800811,2374.896044
59489.911761,2368.659014,-9252.574275,3217.601092
59489.912070,2590.720797,-8216.285956,3294.210641
59489.912380,1554.432478,-8068.244768,1685.410096
59489.912690,444.123565,-9400.615463,995.924147
59489.912999,-888.247130,-9400.615463,-76.609550
59489.913309,-74.020594,-9474.636058,-76.609550
59489.913618,-1850.514855,-8586.388927,-2374.896044
59489.913928,-3552.988522,-10140.821405,0.000000
59489.914238,-1850.514855,-10658.965565,-1302.362347
59489.914547,-2072.576638,-8956.491898,1378.971896
59489.914857,1924.535449,-6587.832884,2451.505594
59489.915166,3330.926739,-7031.956449,3677.258390
59489.915476,3701.029710,-6439.791695,2757.943793
59489.915786,1850.514855,-7254.018232,1455.581446
59489.916095,-370.102971,-9474.636058,-76.609550
59489.916405,-74.020594,-9474.636058,-76.609550
59489.916715,-4367.215058,-7772.162391,-4290.134789
59489.917024,-3552.988522,-11917.315666,-1838.629195
59489.917334,-3923.091493,-11547.212695,-2834.553343
59489.917643,-2960.823768,-11621.233289,0.000000
59489.917953,0.000000,-7179.997637,306.438199
59489.918263,2368.659014,-7550.100608,2987.772442
59489.918572,3849.070898,-6809.894666,3524.039291
59489.918882,3478.967927,-6365.771101,2681.334243
59489.919191,1406.391290,-9474.636058,3294.210641
59489.919501,2294.638420,-9474.636058,2374.896044
59489.919811,-1258.350101,-9326.594869,-1915.238745
59489.920120,-5921.647536,-9548.656652,-3370.820191
59489.920430,-3923.091493,-13027.624579,-689.485948
59489.920739,-4737.318029,-10584.944971,-2451.505594
59489.921049,-1776.494261,-8364.327145,0.000000
59489.921359,1628.453072,-8364.327145,2604.724693
59489.921668,2664.741391,-7772.162391,2757.943793
59489.921978,148.041188,-7179.997637,2068.457845
59489.922288,518.144159,-9474.636058,2987.772442
59489.922597,2590.720797,-10510.924376,4519.963438
59489.922907,-666.185348,-7994.224174,-383.047749
59489.923216,-4145.153275,-9548.656652,0.000000
59489.923526,-2442.679609,-10658.965565,-76.609550
59489.923836,-2368.659014,-8364.327145,0.000000
59489.924145,666.185348,-7179.997637,383.047749
59489.924455,1184.329507,-6587.832884,2757.943793
59489.924764,962.267725,-7994.224174,1991.848295
59489.925074,-296.082377,-8882.471304,1455.581446
59489.925383,1702.473667,-11251.130318,2757.943793
59489.925693,888.247130,-11399.171507,2451.505594
59489.926003,-74.020594,-11843.295072,-76.609550
59489.926312,-4737.318029,-7772.162391,-2451.505594
59489.926622,-3627.009116,-11547.212695,-76.609550
59489.926931,-2960.823768,-8364.327145,0.000000
59489.927241,1702.473667,-7105.977043,2221.676944
59489.927550,2738.761985,-6513.812290,4290.134789
59489.927860,3404.947333,-5551.544565,2911.162892
59489.928169,2294.638420,-8882.471304,1762.019645
59489.928479,888.247130,-8956.491898,3064.381992
59489.928789,592.164754,-11325.150913,2374.896044
59489.929098,-1554.432478,-11843.295072,-689.485948
59489.929408,-5921.647536,-10732.986159,-2451.505594
59489.929717,-2442.679609,-13027.624579,-1302.362347
59489.930027,-2368.659014,-9548.656652,-2145.067394
59489.930336,1110.308913,-7698.141797,1149.143247
59489.930646,1184.329507,-7179.997637,2451.505594
59489.930956,1998.556043,-7846.182985,2528.115143
59489.931265,814.226536,-7254.018232,1915.238745
59489.931575,1480.411884,-8364.327145,2451.505594
59489.931884,888.247130,-9252.574275,0.000000
59489.932194,1628.453072,-10658.965565,1762.019645
59489.932503,-3034.844362,-8660.409521,-2451.505594
59489.932813,-3552.988522,-10436.903782,-76.609550
59489.933122,-2146.597232,-9548.656652,-2681.334243
59489.933432,1110.308913,-9474.636058,-76.609550
59489.933742,888.247130,-8734.430116,1225.752797
59489.934051,1332.370696,-9030.512492,1532.190996
59489.934361,-148.041188,-8512.368333,1378.971896
59489.934670,1184.329507,-8364.327145,612.876398
59489.934980,1184.329507,-7179.997637,0.000000
59489.935289,0.000000,-8660.409521,612.876398
59489.935599,-1850.514855,-9474.636058,-1608.800546
59489.935909,-6217.729913,-10140.821405,-1838.629195
59489.936218,-4219.173869,-10066.800811,-2528.115143
59489.936528,-74.020594,-11843.295072,2068.457845
59489.936837,1924.535449,-6587.832884,2068.457845
59489.937147,2072.576638,-8660.409521,3524.039291
59489.937456,1776.494261,-6069.688724,2221.676944
59489.937766,0.000000,-8364.327145,1225.752797
59489.938075,1184.329507,-7179.997637,0.000000
59489.938385,-1184.329507,-10732.986159,1838.629195
59489.938695,-1554.432478,-10658.965565,-1302.362347
59489.939004,-4737.318029,-10140.821405,-1302.362347
59489.939314,-1702.473667,-9474.636058,-76.609550
59489.939623,3478.967927,-10658.965565,2374.896044
59489.939933,666.185348,-8142.265362,2987.772442
59489.940242,1184.329507,-6439.791695,1532.190996
59489.940552,-296.082377,-9252.574275,1991.848295
59489.940862,0.000000,-5995.668130,612.876398
59489.941171,1184.329507,-10362.883188,2911.162892
59489.941481,0.000000,-6587.832884,0.000000
59489.941790,-74.020594,-11547.212695,-76.609550
59489.942100,-3627.009116,-8882.471304,-3677.258390
59489.942409,-1628.453072,-11251.130318,1149.143247
59489.942719,1332.370696,-9992.780217,3524.039291
59489.943029,1554.432478,-7698.141797,2528.115143
59489.943338,1702.473667,-8068.244768,2298.286494
59489.943648,444.123565,-8142.265362,1915.238745
59489.943957,-1480.411884,-7179.997637,0.000000
59489.944267,0.000000,-7105.977043,-76.609550
59489.944576,0.000000,-8364.327145,612.876398
59489.944886,-74.020594,-11843.295072,-76.609550
59489.945195,-3552.988522,-9548.656652,0.000000
59489.945505,-370.102971,-11843.295072,1762.019645
59489.945815,592.164754,-9548.656652,2451.505594
59489.946124,518.144159,-9104.533087,2221.676944
59489.946434,222.061783,-8660.409521,1149.143247
59489.946743,-666.185348,-8808.450710,842.705048
59489.947053,518.144159,-8290.306550,1149.143247
59489.947362,2146.597232,-8364.327145,1838.629195
59489.947672,1110.308913,-7698.141797,-76.609550
59489.947982,-2368.659014,-8364.327145,0.000000
59489.948291,-2590.720797,-8882.471304,-3140.991542
59489.948601,-1998.556043,-11621.233289,-76.609550
59489.948910,0.000000,-9548.656652,0.000000
59489.949220,-370.102971,-9696.697840,842.705048
59489.949529,-444.123565,-9548.656652,536.266849
59489.949839,-1480.411884,-8956.491898,459.657299
59489.950148,1702.473667,-9474.636058,1762.019645
59489.950458,4071.132681,-7994.224174,1915.238745
59489.950768,1110.308913,-8290.306550,1149.143247
59489.951077,-2368.659014,-8364.327145,0.000000
59489.951387,-2146.597232,-13027.624579,-76.609550
59489.951696,-2072.576638,-10288.862594,612.876398
59489.952006,0.000000,-7772.162391,0.000000
59489.952315,-370.102971,-7698.141797,1149.143247
59489.952625,-1036.288319,-8364.327145,612.876398
59489.952935,-2590.720797,-8512.368333,0.000000
59489.953244,-74.020594,-11251.130318,-76.609550
59489.953554,2072.576638,-8808.450710,1838.629195
59489.953863,2294.638420,-9474.636058,1608.800546
59489.954173,-1776.494261,-8068.244768,-1225.752797
59489.954482,-2442.679609,-13619.789333,-76.609550
59489.954792,-2368.659014,-8956.491898,0.000000
59489.955101,-2368.659014,-8364.327145,0.000000
59489.955411,148.041188,-8808.450710,2145.067394
59489.955721,370.102971,-8734.430116,1455.581446
59489.956030,-740.205942,-8068.244768,1838.629195
59489.956340,3478.967927,-9474.636058,2987.772442
59489.956649,2368.659014,-6587.832884,1838.629195
59489.956959,2886.803174,-9474.636058,2374.896044
59489.957268,-2368.659014,-8068.244768,-1225.752797
59489.957578,-1850.514855,-13027.624579,-76.609550
59489.957888,-3256.906145,-9548.656652,0.000000
59489.958197,0.000000,-8956.491898,766.095498
59489.958507,962.267725,-8586.388927,1838.629195
59489.958816,666.185348,-8586.388927,1072.533697
59489.959126,-1406.391290,-8068.244768,919.314598
59489.959435,1702.473667,-10436.903782,1838.629195
59489.959745,962.267725,-8216.285956,842.705048
59489.960055,1998.556043,-9474.636058,2068.457845
59489.960364,0.000000,-8364.327145,0.000000
59489.960674,-74.020594,-11843.295072,-76.609550
59489.960983,-2812.782580,-8364.327145,0.000000
59489.961293,-74.020594,-8142.265362,1149.143247
59489.961602,0.000000,-8364.327145,1455.581446
59489.961912,0.000000,-8364.327145,0.000000
59489.962221,-2220.617826,-10140.821405,229.828649
59489.962531,0.000000,-8068.244768,0.000000
59489.962841,74.020594,-9992.780217,1225.752797
59489.963150,3552.988522,-8438.347739,2451.505594
59489.963460,-666.185348,-9770.718434,-76.609550
59489.963769,-1776.494261,-9844.739029,2451.505594
59489.964079,-1850.514855,-9326.594869,-383.047749
59489.964388,1702.473667,-9474.636058,1762.019645
59489.964698,0.000000,-8808.450710,1685.410096
59489.965008,-1554.432478,-8660.409521,459.657299
59489.965317,-2368.659014,-8660.409521,-459.657299
59489.965627,0.000000,-7772.162391,0.000000
59489.965936,2738.761985,-6661.853478,1685.410096
59489.966246,888.247130,-9548.656652,2757.943793
59489.966555,-1258.350101,-8290.306550,-1378.971896
59489.966865,-1924.535449,-12509.480420,1225.752797
59489.967174,-74.020594,-10658.965565,-1302.362347
59489.967484,-74.020594,-10658.965565,1608.800546
59489.967794,-518.144159,-8586.388927,383.047749
59489.968103,-1332.370696,-8956.491898,0.000000
59489.968413,-3182.885551,-9104.533087,76.609550
59489.968722,-2072.576638,-8364.327145,0.000000
59489.969032,1110.308913,-6143.709319,842.705048
59489.969341,0.000000,-7179.997637,1532.190996
59489.969651,-74.020594,-10066.800811,-76.609550
59489.969961,-7105.977043,-7179.997637,0.000000
59489.970270,-74.020594,-10658.965565,-76.609550
59489.970580,1110.308913,-9474.636058,2374.896044
59489.970889,-74.020594,-8290.306550,1455.581446
59489.971199,-592.164754,-8586.388927,536.266849
59489.971508,-1850.514855,-8882.471304,612.876398
59489.971818,0.000000,-8512.368333,1149.143247
59489.972127,1702.473667,-7698.141797,842.705048
59489.972437,0.000000,-7476.080014,1225.752797
59489.972747,1776.494261,-10955.047942,2374.896044
59489.973056,-3997.112087,-7179.997637,-2374.896044
59489.973366,1702.473667,-11843.295072,2374.896044
59489.973675,1776.494261,-9474.636058,2451.505594
59489.973985,148.041188,-8734.430116,919.314598
59489.974294,-1406.391290,-9400.615463,0.000000
59489.974604,-2294.638420,-10066.800811,383.047749
59489.974914,814.226536,-8882.471304,1149.143247
59489.975223,2072.576638,-9030.512492,2298.286494
59489.975533,0.000000,-7179.997637,1225.752797
59489.975842,814.226536,-9992.780217,2068.457845
59489.976152,-4145.153275,-5995.668130,0.000000
59489.976461,2812.782580,-11251.130318,4290.134789
59489.976771,1184.329507,-7920.203579,2757.943793
59489.977081,0.000000,-8808.450710,1302.362347
59489.977390,-1850.514855,-8660.409521,-766.095498
59489.977700,-3330.926739,-9474.636058,-1225.752797
59489.978009,-370.102971,-10658.965565,-383.047749
59489.978319,2294.638420,-10658.965565,1762.019645
59489.978628,0.000000,-7179.997637,0.000000
59489.978938,1110.308913,-10658.965565,1608.800546
59489.979247,-4293.194464,-7179.997637,-2451.505594
59489.979557,592.164754,-11325.150913,3524.039291
59489.979867,0.000000,-8364.327145,1838.629195
59489.980176,-444.123565,-9252.574275,1685.410096
59489.980486,-1998.556043,-8068.244768,383.047749
59489.980795,-2368.659014,-8956.491898,919.314598
59489.981105,2294.638420,-9474.636058,2068.457845
59489.981414,1924.535449,-7179.997637,2068.457845
59489.981724,-74.020594,-7698.141797,1149.143247
59489.982034,-2072.576638,-8364.327145,0.000000
59489.982343,-74.020594,-11843.295072,-76.609550
59489.982653,-1628.453072,-9844.739029,612.876398
59489.982962,-2368.659014,-8364.327145,0.000000
59489.983272,-1702.473667,-10436.903782,-153.219100
59489.983581,-2442.679609,-10510.924376,-842.705048
59489.983891,-3108.864956,-10732.986159,0.000000
59489.984200,1554.432478,-10510.924376,1608.800546
59489.984510,592.164754,-7179.997637,1838.629195
59489.984820,1998.556043,-7994.224174,2374.896044
59489.985129,-2368.659014,-7179.997637,0.000000
59489.985439,-74.020594,-9474.636058,-76.609550
59489.985748,0.000000,-7179.997637,2451.505594
59489.986058,74.020594,-6587.832884,1072.533697
59489.986367,-1332.370696,-9252.574275,229.828649
59489.986677,-3108.864956,-9770.718434,-995.924147
59489.986987,-3478.967927,-10732.986159,-536.266849
59489.987296,-74.020594,-10732.986159,612.876398
59489.987606,-1036.288319,-8734.430116,76.609550
59489.987915,-74.020594,-10658.965565,995.924147
59489.988225,-814.226536,-7179.997637,-2145.067394
59489.988534,0.000000,-9548.656652,2757.943793
59489.988844,1184.329507,-6587.832884,2451.505594
59489.989153,1702.473667,-6809.894666,2221.676944
59489.989463,0.000000,-8734.430116,1378.971896
59489.989773,-1924.535449,-9474.636058,0.000000
59489.990082,-4219.173869,-9474.636058,-459.657299
59489.990392,0.000000,-10436.903782,1072.533697
59489.990701,2368.659014,-6291.750507,2451.505594
59489.991011,2886.803174,-10658.965565,2987.772442
59489.991320,0.000000,-5995.668130,0.000000
59489.991630,-74.020594,-12879.583391,4213.525239
59489.991940,592.164754,-5551.544565,0.000000
59489.992249,814.226536,-10510.924376,2068.457845
59489.992559,-1406.391290,-9252.574275,-536.266849
59489.992868,-2812.782580,-10214.842000,-1608.800546
59489.993178,-2294.638420,-9696.697840,-612.876398
59489.993487,0.000000,-9252.574275,0.000000
59489.993797,-814.226536,-8586.388927,536.266849
59489.994107,444.123565,-8660.409521,612.876398
59489.994416,518.144159,-8660.409521,-1762.019645
59489.994726,1184.329507,-8956.491898,3677.258390
59489.995035,1702.473667,-9252.574275,383.047749
59489.995345,3330.926739,-7698.141797,2374.896044
59489.995654,-518.144159,-8734.430116,383.047749
59489.995964,-2368.659014,-9178.553681,0.000000
59489.996273,-3849.070898,-9992.780217,-689.485948
59489.996583,-1776.494261,-9844.739029,383.047749
59489.996893,0.000000,-7254.018232,153.219100
59489.997202,0.000000,-9548.656652,1608.800546
59489.997512,-74.020594,-9474.636058,-76.609550
59489.997821,-4441.235652,-7179.997637,0.000000
59489.998131,2294.638420,-8882.471304,1149.143247
59489.998440,1998.556043,-8660.409521,2374.896044
59489.998750,-1258.350101,-9992.780217,76.609550
59489.999060,-3182.885551,-9326.594869,-1532.190996
59489.999369,-4145.153275,-11251.130318,-689.485948
59489.999679,-1258.350101,-9548.656652,1149.143247
59489.999988,1110.308913,-8290.306550,1455.581446
59490.000298,0.000000,-8068.244768,1225.752797
59490.000607,-74.020594,-8290.306550,-76.609550
59490.000917,-2368.659014,-7772.162391,1225.752797
59490.001226,4663.297435,-10658.965565,3294.210641
59490.001536,2294.638420,-9252.574275,3677.258390
59490.001846,-740.205942,-8734.430116,0.000000
59490.002155,-3108.864956,-9770.718434,-536.266849
59490.002465,-4145.153275,-9918.759623,-689.485948
59490.002774,-1258.350101,-9918.759623,536.266849
59490.003084,-1258.350101,-7698.141797,-383.047749
59490.003393,-1776.494261,-8364.327145,0.000000
59490.003703,2294.638420,-11843.295072,3600.648841
59490.004013,1110.308913,-7994.224174,536.266849
59490.004322,4663.297435,-10658.965565,3600.648841
59490.004632,1184.329507,-9104.533087,3064.381992
59490.004941,592.164754,-9844.739029,1149.143247
59490.005251,-1850.514855,-9548.656652,229.828649
59490.005560,-1702.473667,-9474.636058,612.876398
59490.005870,1406.391290,-8586.388927,2298.286494
59490.006180,1998.556043,-8142.265362,1762.019645
59490.006489,0.000000,-7179.997637,0.000000
59490.006799,-74.020594,-11251.130318,3600.648841
59490.007108,-74.020594,-9474.636058,1762.019645
59490.007418,3775.050304,-11251.130318,4213.525239
59490.007727,740.205942,-7772.162391,1838.629195
59490.008037,-296.082377,-10066.800811,153.219100
59490.008346,-2590.720797,-9918.759623,-612.876398
59490.008656,-3330.926739,-10807.006753,-1225.752797
59490.008966,-1258.350101,-10288.862594,-612.876398
59490.009275,-74.020594,-9474.636058,-76.609550
59490.009585,-1258.350101,-8512.368333,0.000000
59490.009894,1776.494261,-10140.821405,4903.011187
59490.010204,3478.967927,-9474.636058,3600.648841
59490.010513,4145.153275,-8882.471304,5669.106685
59490.010823,2368.659014,-5995.668130,3064.381992
59490.011133,2072.576638,-8364.327145,2298.286494
59490.011442,-1184.329507,-9622.677246,766.095498
59490.011752,-3849.070898,-10214.842000,-1149.143247
59490.012061,-1850.514855,-10066.800811,-2451.505594
59490.012371,-2812.782580,-9548.656652,-842.705048
59490.012680,-1258.350101,-11251.130318,-76.609550
59490.012990,-5921.647536,-7179.997637,-3064.381992
59490.013299,-518.144159,-11843.295072,2374.896044
59490.013609,2664.741391,-8364.327145,3294.210641
59490.013919,740.205942,-7179.997637,2451.505594
59490.014228,370.102971,-8142.265362,1455.581446
59490.014538,-2294.638420,-8512.368333,536.266849
59490.014847,-2664.741391,-9326.594869,-306.438199
59490.015157,-1184.329507,-9548.656652,0.000000
59490.015466,-1184.329507,-9178.553681,1072.533697
59490.015776,1110.308913,-9178.553681,842.705048
59490.016086,-2368.659014,-7179.997637,1225.752797
59490.016395,2294.638420,-10658.965565,2987.772442
59490.016705,1184.329507,-8364.327145,3064.381992
59490.017014,1184.329507,-7105.977043,1685.410096
59490.017324,0.000000,-9770.718434,306.438199
59490.017633,-3627.009116,-10214.842000,-995.924147
59490.017943,-5107.421000,-11843.295072,-1608.800546
59490.018252,-2368.659014,-9548.656652,-1225.752797
59490.018562,-1184.329507,-8660.409521,766.095498
59490.018872,1702.473667,-9474.636058,2068.457845
59490.019181,-4145.153275,-5403.503377,0.000000
59490.019491,3478.967927,-9474.636058,3600.648841
59490.019800,2368.659014,-5995.668130,2451.505594
59490.020110,3775.050304,-7328.038826,3447.429741
59490.020419,2960.823768,-7772.162391,1991.848295
59490.020729,-1184.329507,-9030.512492,76.609550
59490.021039,-3034.844362,-9178.553681,-1302.362347
59490.021348,-2368.659014,-9326.594869,-1455.581446
59490.021658,-2368.659014,-9548.656652,0.000000
59490.021967,-74.020594,-11547.212695,-76.609550
59490.022277,-4737.318029,-7179.997637,0.000000
59490.022586,2590.720797,-10510.924376,3447.429741
59490.022896,1776.494261,-4811.338623,1378.971896
59490.023206,4663.297435,-6957.935855,3600.648841
59490.023515,1332.370696,-8068.244768,1532.190996
59490.023825,-2442.679609,-8808.450710,-229.828649
59490.024134,-3627.009116,-10955.047942,-995.924147
59490.024444,-1480.411884,-9474.636058,-689.485948
59490.024753,-3552.988522,-9548.656652,0.000000
59490.025063,-222.061783,-11695.253884,1149.143247
59490.025372,-1850.514855,-7402.059420,-1302.362347
59490.025682,2368.659014,-9696.697840,4290.134789
59490.025992,3478.967927,-6365.771101,1915.238745
59490.026301,4663.297435,-6957.935855,4213.525239
59490.026611,296.082377,-8586.388927,2221.676944
59490.026920,-2812.782580,-9252.574275,0.000000
59490.027230,-3701.029710,-10214.842000,-995.924147
59490.027539,-2294.638420,-9474.636058,-76.609550
59490.027849,-3330.926739,-8882.471304,-919.314598
59490.028159,-4737.318029,-9548.656652,0.000000
59490.028468,-1258.350101,-11843.295072,-76.609550
59490.028778,-74.020594,-9474.636058,1149.143247
59490.029087,1702.473667,-5107.421000,229.828649
59490.029397,4663.297435,-9474.636058,3600.648841
59490.029707,0.000000,-5847.626942,0.000000
59490.030016,-3997.112087,-10436.903782,0.000000
59490.030326,-1924.535449,-9844.739029,-612.876398
59490.030635,-1184.329507,-9548.656652,-76.609550
59490.030945,-2368.659014,-7772.162391,76.609550
59490.031254,-666.185348,-9474.636058,1149.143247
59490.031564,-3330.926739,-6587.832884,0.000000
59490.031874,1184.329507,-7179.997637,2451.505594
59490.032183,1998.556043,-6883.915261,1838.629195
59490.032493,3478.967927,-6513.812290,2681.334243
59490.032802,-518.144159,-9918.759623,842.705048
59490.033112,-2664.741391,-9030.512492,-995.924147
59490.033421,-4367.215058,-11991.336260,-2221.676944
59490.033731,-3256.906145,-10362.883188,-1302.362347
59490.034041,-1998.556043,-10658.965565,-1302.362347
59490.034350,-1480.411884,-10214.842000,842.705048
59490.034660,-2442.679609,-7402.059420,-1302.362347
59490.034969,1776.494261,-8956.491898,3983.696590
59490.035279,4663.297435,-4737.318029,2145.067394
59490.035589,5477.523971,-7179.997637,5286.058936
59490.035898,2368.659014,-7846.182985,2451.505594
59490.036208,-1554.432478,-8586.388927,306.438199
59490.036517,-2738.761985,-9992.780217,-919.314598
59490.036827,-666.185348,-10658.965565,-689.485948
59490.037136,-3552.988522,-8956.491898,-1532.190996
59490.037446,-2368.659014,-10140.821405,0.000000
59490.037756,-74.020594,-11843.295072,2374.896044
59490.038065,518.144159,-8586.388927,1149.143247
59490.038375,4071.132681,-7698.141797,1455.581446
59490.038684,3552.988522,-7179.997637,3907.087040
59490.038994,1998.556043,-7550.100608,1685.410096
59490.039303,-1998.556043,-9326.594869,0.000000
59490.039613,-3478.967927,-10658.965565,-1915.238745
59490.039923,-1850.514855,-11843.295072,-689.485948
59490.040232,-2442.679609,-8882.471304,-1455.581446
59490.040542,-2368.659014,-9548.656652,0.000000
59490.040851,-74.020594,-11843.295072,2374.896044
59490.041161,444.123565,-7254.018232,1532.190996
59490.041471,5847.626942,-8290.306550,4213.525239
59490.041780,3701.029710,-7254.018232,4290.134789
59490.042090,740.205942,-9030.512492,1762.019645
59490.042399,-2590.720797,-9326.594869,0.000000
59490.042709,-2590.720797,-11177.109724,-383.047749
59490.043018,-1258.350101,-10288.862594,612.876398
59490.043328,-2442.679609,-9622.677246,-612.876398
59490.043638,-4145.153275,-8660.409521,-2451.505594
59490.043947,-74.020594,-11251.130318,-76.609550
59490.044257,-888.247130,-7920.203579,306.438199
59490.044566,5847.626942,-8290.306550,4826.401637
59490.044876,2368.659014,-6587.832884,3370.820191
59490.045185,1110.308913,-8808.450710,919.314598
59490.045495,-2294.638420,-9178.553681,306.438199
59490.045805,-2220.617826,-11325.150913,-229.828649
59490.046114,-222.061783,-9844.739029,1072.533697
59490.046424,-2886.803174,-9622.677246,0.000000
59490.046733,-2442.679609,-7772.162391,-3370.820191
59490.047043,-1184.329507,-10436.903782,3370.820191
59490.047353,2294.638420,-8882.471304,2374.896044
59490.047662,4071.132681,-7698.141797,4826.401637
59490.047972,2072.576638,-5551.544565,1991.848295
59490.048281,1554.432478,-8660.409521,1302.362347
59490.048591,-2442.679609,-10288.862594,-153.219100
59490.048900,-3108.864956,-11399.171507,-2068.457845
59490.049210,-2368.659014,-10732.986159,0.000000
59490.049520,-2220.617826,-9844.739029,-1225.752797
59490.049829,-1332.370696,-8364.327145,-2681.334243
59490.050139,0.000000,-9844.739029,2757.943793
59490.050448,3478.967927,-9474.636058,2374.896044
59490.050758,5329.482782,-8290.306550,5439.278036
59490.051067,3627.009116,-6365.771101,3753.867940
59490.051377,3182.885551,-7698.141797,2911.162892
59490.051687,-74.020594,-8290.306550,1149.143247
59490.051996,-1184.329507,-10732.986159,0.000000
59490.052306,-2368.659014,-8660.409521,0.000000
59490.052615,-2886.803174,-9992.780217,-1225.752797
59490.052925,-2146.597232,-10066.800811,-2528.115143
59490.053234,-4737.318029,-9548.656652,0.000000
59490.053544,-74.020594,-10658.965565,1762.019645
59490.053854,1184.329507,-9400.615463,4596.572988
59490.054163,3256.906145,-7846.182985,3677.258390
59490.054473,3552.988522,-6883.915261,2528.115143
59490.054782,-444.123565,-7994.224174,1378.971896
59490.055092,-1998.556043,-10140.821405,0.000000
59490.055402,-2368.659014,-7179.997637,-2451.505594
59490.055711,-2072.576638,-9548.656652,0.000000
59490.056021,-1258.350101,-11251.130318,-76.609550
59490.056330,-5921.647536,-9548.656652,0.000000
59490.056640,2886.803174,-11251.130318,3294.210641
59490.056949,3256.906145,-7179.997637,3753.867940
59490.057259,3182.885551,-7550.100608,3600.648841
59490.057569,1184.329507,-7920.203579,1532.190996
59490.057878,-1258.350101,-8512.368333,766.095498
59490.058188,-2072.576638,-10140.821405,-995.924147
59490.058497,-3997.112087,-8364.327145,-2834.553343
59490.058807,-5625.565159,-9548.656652,-2298.286494
59490.059116,-1850.514855,-13027.624579,-76.609550
59490.059426,-4663.297435,-7476.080014,-2374.896044
59490.059736,1184.329507,-10288.862594,3064.381992
59490.060045,1776.494261,-6883.915261,3677.258390
59490.060355,3182.885551,-8142.265362,3524.039291
59490.060664,2146.597232,-8290.306550,2068.457845
59490.060974,-666.185348,-9622.677246,1532.190996
59490.061284,-222.061783,-10066.800811,612.876398
59490.061593,-74.020594,-7402.059420,-383.047749
59490.061903,-2812.782580,-7920.203579,0.000000
59490.062212,-74.020594,-12435.459826,2374.896044
59490.062522,-3034.844362,-8586.388927,-995.924147
59490.062831,0.000000,-8364.327145,1225.752797
59490.063141,2664.741391,-6587.832884,2451.505594
59490.063451,3478.967927,-7105.977043,3217.601092
59490.063760,518.144159,-8512.368333,1072.533697
59490.064070,-2960.823768,-9178.553681,0.000000
59490.064379,-2516.700203,-11029.068536,-1378.971896
59490.064689,-1850.514855,-9474.636058,-1302.362347
59490.064998,-4737.318029,-8364.327145,-2451.505594
59490.065308,-888.247130,-11843.295072,1762.019645
59490.065618,-1850.514855,-8290.306550,-689.485948
59490.065927,1184.329507,-8364.327145,2451.505594
59490.066237,3997.112087,-5403.503377,3064.381992
59490.066546,2590.720797,-6735.874072,3447.429741
59490.066856,2146.597232,-8808.450710,2757.943793
59490.067166,1332.370696,-6809.894666,1838.629195
59490.067475,74.020594,-11103.089130,2374.896044
59490.067785,-74.020594,-9474.636058,-76.609550
59490.068094,-3404.947333,-10658.965565,-1225.752797
59490.068404,-1776.494261,-11769.274478,919.314598
59490.068713,-3034.844362,-11547.212695,-689.485948
59490.069023,-2960.823768,-9548.656652,0.000000
59490.069333,222.061783,-6513.812290,0.000000
59490.069642,1776.494261,-7254.018232,2221.676944
59490.069952,2516.700203,-7698.141797,2145.067394
59490.070261,-518.144159,-8586.388927,1685.410096
59490.070571,148.041188,-9474.636058,689.485948
59490.070880,1702.473667,-11843.295072,2374.896044
59490.071190,-2442.679609,-9030.512492,-995.924147
59490.071500,-4737.318029,-9548.656652,0.000000
59490.071809,-74.020594,-11251.130318,-76.609550
59490.072119,0.000000,-8660.409521,1302.362347
59490.072428,3775.050304,-7402.059420,1915.238745
59490.072738,2368.659014,-6883.915261,3064.381992
59490.073048,1702.473667,-7624.121203,2068.457845
59490.073357,-148.041188,-8956.491898,1149.143247
59490.073667,-888.247130,-9918.759623,1149.143247
59490.073976,-1258.350101,-11621.233289,-76.609550
59490.074286,-4219.173869,-11103.089130,-1915.238745
59490.074595,-8882.471304,-9548.656652,-4903.011187
59490.074905,-2738.761985,-11843.295072,-689.485948
59490.075215,-1776.494261,-8956.491898,0.000000
59490.075524,3478.967927,-8290.306550,2374.896044
59490.075834,2664.741391,-6883.915261,3677.258390
59490.076143,2738.761985,-7179.997637,3064.381992
59490.076453,296.082377,-8142.265362,2451.505594
59490.076762,1110.308913,-9400.615463,2528.115143
59490.077072,592.164754,-8364.327145,2298.286494
59490.077382,-666.185348,-10066.800811,-76.609550
59490.077691,-5847.626942,-7179.997637,-4596.572988
59490.078001,-3552.988522,-11695.253884,-76.609550
59490.078310,-74.020594,-11547.212695,-76.609550
59490.078620,1702.473667,-8882.471304,2068.457845
59490.078930,0.000000,-7550.100608,1225.752797
59490.079239,518.144159,-9030.512492,1225.752797
59490.079549,74.020594,-9548.656652,2221.676944
59490.079858,1998.556043,-8808.450710,1225.752797
59490.080168,0.000000,-7772.162391,2451.505594
59490.080477,-1554.432478,-9696.697840,-76.609550
59490.080787,-3923.091493,-8364.327145,-2681.334243
59490.081097,-1184.329507,-10881.027347,1991.848295
59490.081406,2294.638420,-8586.388927,2068.457845
59490.081716,3108.864956,-7105.977043,4826.401637
59490.082025,2590.720797,-7179.997637,2528.115143
59490.082335,1406.391290,-8364.327145,1991.848295
59490.082644,-962.267725,-9178.553681,842.705048
59490.082954,-148.041188,-9696.697840,0.000000
59490.083264,-2368.659014,-7772.162391,0.000000
59490.083573,-2368.659014,-10732.986159,-76.609550
59490.083883,-4959.379811,-9548.656652,-2757.943793
59490.084192,-1776.494261,-11399.171507,1762.019645
59490.084502,962.267725,-8142.265362,842.705048
59490.084811,2664.741391,-8586.388927,4826.401637
59490.085121,2294.638420,-7624.121203,3294.210641
59490.085431,814.226536,-7624.121203,2068.457845
59490.085740,-962.267725,-8734.430116,1608.800546
59490.086050,1480.411884,-9548.656652,0.000000
59490.086359,0.000000,-6291.750507,0.000000
59490.086669,-2368.659014,-10140.821405,0.000000
59490.086979,-74.020594,-11843.295072,-76.609550
59490.087288,-4737.318029,-9548.656652,0.000000
59490.087598,1924.535449,-10658.965565,2681.334243
59490.087907,962.267725,-8956.491898,3983.696590
59490.088217,1702.473667,-7698.141797,2221.676944
59490.088526,962.267725,-7994.224174,1838.629195
59490.088836,0.000000,-8216.285956,1378.971896
59490.089146,-222.061783,-8364.327145,-383.047749
59490.089455,-1998.556043,-6883.915261,-3064.381992
59490.089765,-3552.988522,-8364.327145,-4903.011187
59490.090074,-1924.535449,-12287.418637,-76.609550
59490.090384,-5403.503377,-8956.491898,-2451.505594
59490.090693,-444.123565,-11029.068536,1762.019645
59490.091003,296.082377,-7179.997637,2451.505594
59490.091313,2886.803174,-7994.224174,2528.115143
59490.091622,1480.411884,-7772.162391,1991.848295
59490.091932,222.061783,-9030.512492,1762.019645
59490.092241,1998.556043,-8882.471304,1762.019645
59490.092551,222.061783,-5847.626942,0.000000
59490.092861,-2220.617826,-9548.656652,-3677.258390
59490.093170,-1258.350101,-11843.295072,-76.609550
59490.093480,-4811.338623,-9622.677246,-2528.115143
59490.093789,0.000000,-9548.656652,766.095498
59490.094099,592.164754,-8364.327145,2451.505594
59490.094408,1110.308913,-8290.306550,1762.019645
59490.094718,0.000000,-7698.141797,612.876398
59490.095028,148.041188,-9622.677246,1532.190996
59490.095337,2220.617826,-8364.327145,842.705048
59490.095647,0.000000,-6587.832884,0.000000
59490.095956,-592.164754,-9696.697840,612.876398
59490.096266,-1850.514855,-9474.636058,-1915.238745
59490.096575,-2960.823768,-10436.903782,153.219100
59490.096885,2294.638420,-10658.965565,2374.896044
59490.097195,2368.659014,-8364.327145,4903.011187
59490.097504,4293.194464,-8290.306550,3600.648841
59490.097814,962.267725,-8586.388927,1455.581446
59490.098123,0.000000,-9326.594869,1455.581446
59490.098433,1628.453072,-7772.162391,536.266849
59490.098743,592.164754,-8290.306550,1762.019645
59490.099052,-370.102971,-10066.800811,0.000000
59490.099362,-1850.514855,-9474.636058,-1455.581446
59490.099671,-3552.988522,-10881.027347,306.438199
59490.099981,-370.102971,-9474.636058,229.828649
59490.100290,-814.226536,-6587.832884,0.000000
59490.100600,592.164754,-8734.430116,1838.629195
59490.100910,0.000000,-8364.327145,1608.800546
59490.101219,-2294.638420,-8882.471304,919.314598
59490.101529,814.226536,-8956.491898,2298.286494
59490.101838,3478.967927,-7105.977043,4213.525239
59490.102148,1110.308913,-8882.471304,1608.800546
59490.102457,-1184.329507,-7772.162391,1532.190996
59490.102767,-1258.350101,-10658.965565,-76.609550
59490.103077,592.164754,-9548.656652,1532.190996
59490.103386,-74.020594,-9474.636058,842.705048
59490.103696,-2368.659014,-8956.491898,0.000000
59490.104005,-3108.864956,-9178.553681,-153.219100
59490.104315,-2146.597232,-9400.615463,0.000000
59490.104625,0.000000,-9548.656652,1149.143247
59490.104934,-74.020594,-9474.636058,3294.210641
59490.105244,-666.185348,-9474.636058,-76.609550
59490.105553,-4737.318029,-7772.162391,0.000000
59490.105863,-1258.350101,-9474.636058,-76.609550
59490.106172,-2294.638420,-7550.100608,0.000000
59490.106482,1998.556043,-7105.977043,0.000000
59490.106792,148.041188,-8882.471304,766.095498
59490.107101,-592.164754,-9326.594869,766.095498
59490.107411,-740.205942,-9844.739029,612.876398
59490.107720,2368.659014,-9844.739029,2987.772442
59490.108030,3478.967927,-10288.862594,3447.429741
59490.108339,-74.020594,-10510.924376,-76.609550
59490.108649,-4737.318029,-7772.162391,0.000000
59490.108959,-2442.679609,-11843.295072,-1302.362347
59490.109268,-2960.823768,-9548.656652,0.000000
59490.109578,222.061783,-7698.141797,1149.143247
59490.109887,2294.638420,-8068.244768,2145.067394
59490.110197,666.185348,-6883.915261,1532.190996
59490.110507,-444.123565,-8142.265362,1302.362347
59490.110816,1480.411884,-9030.512492,2221.676944
59490.111126,3478.967927,-10658.965565,3600.648841
59490.111435,1110.308913,-9474.636058,842.705048
59490.111745,-2072.576638,-10140.821405,1532.190996
59490.112054,-2442.679609,-10658.965565,-1302.362347
59490.112364,-2072.576638,-9548.656652,0.000000
59490.112674,1702.473667,-8882.471304,1149.143247
59490.112983,148.041188,-8512.368333,1608.800546
59490.113293,-1036.288319,-8734.430116,612.876398
59490.113602,-592.164754,-9622.677246,842.705048
59490.113912,2664.741391,-8808.450710,4213.525239
59490.114221,3997.112087,-9030.512492,4749.792088
59490.114531,1702.473667,-8290.306550,1149.143247
59490.114841,-4737.318029,-5995.668130,0.000000
59490.115150,-74.020594,-12879.583391,2068.457845
59490.115460,-74.020594,-10214.842000,383.047749
59490.115769,1702.473667,-9400.615463,2068.457845
59490.116079,-592.164754,-9548.656652,766.095498
59490.116388,-1184.329507,-8734.430116,383.047749
59490.116698,-740.205942,-9252.574275,842.705048
59490.117008,1480.411884,-8068.244768,2145.067394
59490.117317,1184.329507,-8364.327145,3064.381992
59490.117627,-74.020594,-10066.800811,2068.457845
59490.117936,-5921.647536,-7179.997637,0.000000
59490.118246,-222.061783,-11547.212695,2374.896044
59490.118556,518.144159,-8290.306550,842.705048
59490.118865,1258.350101,-6735.874072,2374.896044
59490.119175,-1110.308913,-8956.491898,459.657299
59490.119484,-1850.514855,-8364.327145,459.657299
59490.119794,-2886.803174,-10807.006753,306.438199
59490.120103,370.102971,-9696.697840,612.876398
59490.120413,592.164754,-7772.162391,1225.752797
59490.120723,1702.473667,-10658.965565,3600.648841
59490.121032,-2738.761985,-7698.141797,-2528.115143
59490.121342,-4737.318029,-10140.821405,0.000000
59490.121651,-74.020594,-10066.800811,-76.609550
59490.121961,148.041188,-8882.471304,2987.772442
59490.122270,-370.102971,-8660.409521,536.266849
59490.122580,-1332.370696,-8068.244768,842.705048
59490.122890,-74.020594,-8956.491898,1378.971896
59490.123199,2146.597232,-7920.203579,0.000000
59490.123509,0.000000,-5995.668130,0.000000
59490.123818,-592.164754,-10140.821405,2145.067394
59490.124128,-2738.761985,-8586.388927,-2528.115143
59490.124438,-1184.329507,-11325.150913,612.876398
59490.124747,1110.308913,-10214.842000,536.266849
59490.125057,0.000000,-9474.636058,2911.162892
59490.125366,-666.185348,-8808.450710,-76.609550
59490.125676,-3034.844362,-8660.409521,-459.657299
59490.125985,-1850.514855,-9548.656652,229.828649
59490.126295,518.144159,-7772.162391,0.000000
59490.126605,0.000000,-5995.668130,0.000000
59490.126914,1776.494261,-7179.997637,0.000000
59490.127224,2886.803174,-11251.130318,3600.648841
59490.127533,-2220.617826,-7476.080014,0.000000
59490.127843,1628.453072,-10066.800811,1762.019645
59490.128152,0.000000,-8438.347739,1532.190996
59490.128462,-814.226536,-10658.965565,536.266849
59490.128771,-3034.844362,-9400.615463,-1302.362347
59490.129081,-1184.329507,-10955.047942,0.000000
59490.129391,2294.638420,-8364.327145,842.705048
59490.129700,2294.638420,-7105.977043,0.000000
59490.130010,296.082377,-7179.997637,0.000000
59490.130319,0.000000,-9844.739029,2757.943793
59490.130629,-74.020594,-10066.800811,842.705048
59490.130938,1184.329507,-9548.656652,3370.820191
59490.131248,148.041188,-8956.491898,2451.505594
59490.131558,-74.020594,-8956.491898,1072.533697
59490.131867,-2368.659014,-9104.533087,306.438199
59490.132177,-1554.432478,-9474.636058,536.266849
59490.132486,1554.432478,-8734.430116,1762.019645
59490.132796,2294.638420,-7698.141797,536.266849
59490.133105,0.000000,-6587.832884,0.000000
59490.133415,-1184.329507,-9548.656652,1838.629195
59490.133725,-1554.432478,-9474.636058,-76.609550
59490.134034,814.226536,-9474.636058,2604.724693
59490.134344,-1184.329507,-6587.832884,0.000000
59490.134653,-1998.556043,-9918.759623,153.219100
59490.134963,-3330.926739,-9400.615463,-536.266849
59490.135272,-1850.514855,-9770.718434,306.438199
59490.135582,1036.288319,-9474.636058,3294.210641
59490.135891,2294.638420,-7105.977043,2374.896044
59490.136201,0.000000,-7476.080014,0.000000
59490.136511,-74.020594,-10658.965565,2374.896044
59490.136820,-3701.029710,-7772.162391,-1225.752797
59490.137130,1110.308913,-10807.006753,1838.629195
59490.137439,0.000000,-5995.668130,-1378.971896
59490.137749,-2368.659014,-10807.006753,0.000000
59490.138058,-3330.926739,-9178.553681,-842.705048
59490.138368,-2738.761985,-10807.006753,383.047749
59490.138678,1110.308913,-9474.636058,2374.896044
59490.138987,-74.020594,-9474.636058,3600.648841
59490.139297,-74.020594,-8290.306550,-76.609550
59490.139606,-3552.988522,-7772.162391,612.876398
59490.139916,2294.638420,-9474.636058,2374.896044
59490.140225,592.164754,-7179.997637,0.000000
59490.140535,-666.185348,-6883.915261,-459.657299
59490.140845,-1776.494261,-8438.347739,-612.876398
59490.141154,-2738.761985,-9696.697840,-766.095498
59490.141464,-2368.659014,-11029.068536,-842.705048
59490.141773,-74.020594,-11843.295072,1685.410096
59490.142083,1406.391290,-11843.295072,3447.429741
59490.142392,1110.308913,-9474.636058,-76.609550
59490.142702,-2368.659014,-5995.668130,0.000000
59490.143011,2812.782580,-10066.800811,3294.210641
59490.143321,2294.638420,-6587.832884,0.000000
59490.143631,1702.473667,-7698.141797,1149.143247
59490.143940,-1628.453072,-8956.491898,612.876398
59490.144250,-2738.761985,-9474.636058,-153.219100
59490.144559,-888.247130,-10436.903782,1149.143247
59490.144869,2368.659014,-8364.327145,3064.381992
59490.145178,2072.576638,-9400.615463,4060.306139
59490.145488,4071.132681,-11251.130318,3600.648841
59490.145798,-1258.350101,-7550.100608,-995.924147
59490.146107,0.000000,-10732.986159,1225.752797
59490.146417,1702.473667,-9326.594869,-76.609550
59490.146726,-74.020594,-9474.636058,-76.609550
59490.147036,-2294.638420,-9844.739029,-842.705048
59490.147345,-3478.967927,-9696.697840,-842.705048
59490.147655,-1332.370696,-10658.965565,689.485948
59490.147965,1184.329507,-7179.997637,2757.943793
59490.148274,1776.494261,-5995.668130,4903.011187
59490.148584,4663.297435,-9474.636058,4826.401637
59490.148893,-962.267725,-5477.523971,383.047749
59490.149203,1628.453072,-10881.027347,3677.258390
59490.149512,1998.556043,-7994.224174,-76.609550
59490.149822,-74.020594,-11251.130318,-76.609550
59490.150132,-3404.947333,-10436.903782,-2145.067394
59490.150441,-6143.709319,-11325.150913,-2451.505594
59490.150751,-3627.009116,-11769.274478,-1225.752797
59490.151060,-2368.659014,-8364.327145,0.000000
59490.151370,-3552.988522,-7179.997637,612.876398
59490.151679,0.000000,-8364.327145,2451.505594
59490.151989,1998.556043,-8882.471304,2374.896044
59490.152298,592.164754,-5995.668130,1838.629195
59490.152608,4071.132681,-7105.977043,3600.648841
59490.152918,1702.473667,-9178.553681,2374.896044
59490.153227,-1036.288319,-8882.471304,-153.219100
59490.153537,-3330.926739,-10214.842000,-766.095498
59490.153846,-2442.679609,-11547.212695,-536.266849
59490.154156,-3330.926739,-8364.327145,-2451.505594
59490.154465,-3552.988522,-7476.080014,0.000000
59490.154775,0.000000,-7179.997637,0.000000
59490.155085,2294.638420,-11843.295072,4213.525239
59490.155394,1036.288319,-7772.162391,1378.971896
59490.155704,2886.803174,-9474.636058,4213.525239
59490.156013,296.082377,-8808.450710,2145.067394
59490.156323,-1406.391290,-9104.533087,-76.609550
59490.156632,-3552.988522,-9030.512492,-995.924147
59490.156942,-2146.597232,-9474.636058,-612.876398
59490.157252,-1406.391290,-7179.997637,-995.924147
59490.157561,-2146.597232,-6291.750507,-1532.190996
59490.157871,0.000000,-7476.080014,612.876398
59490.158180,2294.638420,-11251.130318,3294.210641
59490.158490,2294.638420,-9474.636058,2068.457845
59490.158799,2886.803174,-10436.903782,4290.134789
59490.159109,0.000000,-8956.491898,1838.629195
59490.159418,-888.247130,-10362.883188,306.438199
59490.159728,-3256.906145,-9030.512492,-459.657299
59490.160038,-2812.782580,-10214.842000,-383.047749
59490.160347,-74.020594,-7550.100608,-76.609550
59490.160657,-74.020594,-5773.606348,1149.143247
59490.160966,0.000000,-4811.338623,0.000000
59490.161276,1776.494261,-8808.450710,3677.258390
59490.161585,2886.803174,-9474.636058,2374.896044
59490.161895,1184.329507,-7772.162391,1225.752797
59490.162205,-2960.823768,-9548.656652,0.000000
59490.162514,-2072.576638,-10584.944971,-1072.533697
59490.162824,-4737.318029,-11325.150913,-1149.143247
59490.163133,-1702.473667,-11029.068536,-612.876398
59490.163443,-74.020594,-9474.636058,-76.609550
59490.163752,-74.020594,-8290.306550,2374.896044
59490.164062,0.000000,-5403.503377,0.000000
59490.164372,888.247130,-8956.491898,4290.134789
59490.164681,4663.297435,-8290.306550,2987.772442
59490.164991,2368.659014,-6587.832884,3677.258390
59490.165300,592.164754,-6587.832884,306.438199
59490.165610,-1036.288319,-10066.800811,-306.438199
59490.165919,-4293.194464,-10436.903782,-1762.019645
59490.166229,-3256.906145,-12213.398043,-1762.019645
59490.166538,-370.102971,-11843.295072,-76.609550
59490.166848,-74.020594,-11843.295072,-76.609550
59490.167158,-666.185348,-9474.636058,-689.485948
59490.167467,-4145.153275,-7772.162391,0.000000
59490.167777,3849.070898,-9918.759623,4596.572988
59490.168086,2368.659014,-4811.338623,2451.505594
59490.168396,962.267725,-4959.379811,1762.019645
59490.168705,-592.164754,-7328.038826,919.314598
59490.169015,-3182.885551,-9622.677246,-459.657299
59490.169325,-2368.659014,-10436.903782,-459.657299
59490.169634,-74.020594,-10955.047942,995.924147
59490.169944,1998.556043,-11843.295072,1532.190996
59490.170253,-74.020594,-9474.636058,-76.609550
59490.170563,-4145.153275,-8068.244768,0.000000
59490.170872,1776.494261,-11251.130318,3600.648841
59490.171182,814.226536,-7179.997637,76.609550
59490.171492,-74.020594,-8290.306550,-76.609550
59490.171801,-2738.761985,-8808.450710,-842.705048
59490.172111,-4737.318029,-10066.800811,-919.314598
59490.172420,-1110.308913,-10066.800811,383.047749
59490.172730,2368.659014,-8660.409521,2834.553343
59490.173039,3849.070898,-8512.368333,1838.629195
59490.173349,3478.967927,-10658.965565,4213.525239
59490.173659,-1554.432478,-6513.812290,842.705048
59490.173968,0.000000,-10140.821405,2451.505594
59490.174278,3478.967927,-6365.771101,2374.896044
59490.174587,1702.473667,-8882.471304,842.705048
59490.174897,-2664.741391,-9548.656652,-1532.190996
59490.175206,-5699.585753,-11029.068536,-1991.848295
59490.175516,-2960.823768,-12213.398043,-1378.971896
59490.175825,-2368.659014,-8364.327145,0.000000
59490.176135,-2072.576638,-9548.656652,0.000000
59490.176445,1480.411884,-8956.491898,2834.553343
59490.176754,2294.638420,-9178.553681,3600.648841
59490.177064,4737.318029,-5995.668130,2451.505594
59490.177373,5847.626942,-6513.812290,4213.525239
59490.177683,3182.885551,-7994.224174,2374.896044
59490.177992,-370.102971,-9548.656652,76.609550
59490.178302,-3478.967927,-10510.924376,-1608.800546
59490.178612,-3330.926739,-12065.356855,-1072.533697
59490.178921,-3552.988522,-7772.162391,-2451.505594
59490.179231,-3552.988522,-8364.327145,-3064.381992
59490.179540,0.000000,-10732.986159,1225.752797
59490.179850,-74.020594,-10362.883188,2374.896044
59490.180159,1776.494261,-6291.750507,0.000000
59490.180469,4663.297435,-7105.977043,3294.210641
59490.180779,3330.926739,-9104.533087,3600.648841
59490.181088,-518.144159,-8142.265362,536.266849
59490.181398,-3552.988522,-9474.636058,-459.657299
59490.181707,-1702.473667,-10066.800811,-383.047749
59490.182017,-3552.988522,-7179.997637,-1915.238745
59490.182326,-4441.235652,-7698.141797,-1608.800546
59490.182636,-4145.153275,-9548.656652,0.000000
59490.182945,-74.020594,-11547.212695,1762.019645
59490.183255,2072.576638,-7772.162391,76.609550
59490.183565,4959.379811,-9474.636058,5439.278036
59490.183874,1332.370696,-8364.327145,2604.724693
59490.184184,-2072.576638,-8438.347739,-383.047749
59490.184493,-3775.050304,-10510.924376,-919.314598
59490.184803,-1332.370696,-10584.944971,0.000000
59490.185112,-962.267725,-6883.915261,-689.485948
59490.185422,-2368.659014,-8290.306550,-76.609550
59490.185732,-3552.988522,-7179.997637,0.000000
59490.186041,-74.020594,-10955.047942,2528.115143
59490.186351,1702.473667,-8290.306550,536.266849
59490.186660,2368.659014,-9104.533087,4826.401637
59490.186970,0.000000,-8512.368333,1225.752797
59490.187279,-1998.556043,-8734.430116,-459.657299
59490.187589,-4663.297435,-10955.047942,-1532.190996
59490.187899,-1924.535449,-10140.821405,-153.219100
59490.188208,-666.185348,-8734.430116,-76.609550
59490.188518,-74.020594,-9474.636058,2374.896044
59490.188827,-2590.720797,-6587.832884,0.000000
59490.189137,0.000000,-8364.327145,2757.943793
59490.189446,5847.626942,-9474.636058,4826.401637
59490.189756,4737.318029,-7476.080014,5362.668486
59490.190065,1776.494261,-6883.915261,1991.848295
59490.190375,-740.205942,-9178.553681,0.000000
59490.190685,-3627.009116,-10807.006753,-1685.410096
59490.190994,-3256.906145,-12731.542202,-1608.800546
59490.191304,-1258.350101,-11843.295072,-76.609550
59490.191613,-74.020594,-13027.624579,-76.609550
59490.191923,-2590.720797,-7328.038826,-1455.581446
59490.192232,0.000000,-7772.162391,1225.752797
59490.192542,5551.544565,-9474.636058,4826.401637
59490.192852,4737.318029,-4811.338623,3677.258390
59490.193161,1776.494261,-6291.750507,2757.943793
59490.193471,0.000000,-7254.018232,919.314598
59490.193780,-2812.782580,-10955.047942,-306.438199
59490.194090,-1480.411884,-11621.233289,-383.047749
59490.194399,-74.020594,-11843.295072,-76.609550
59490.194709,-74.020594,-13915.871710,2374.896044
59490.195019,-1850.514855,-8290.306550,-1915.238745
59490.195328,-2960.823768,-8660.409521,0.000000
59490.195638,4663.297435,-11843.295072,4826.401637
59490.195947,1480.411884,-4811.338623,2757.943793
59490.196257,1998.556043,-7179.997637,1838.629195
59490.196566,-592.164754,-7254.018232,0.000000
59490.196876,-3478.967927,-9992.780217,-995.924147
59490.197186,-2442.679609,-10658.965565,-383.047749
59490.197495,-1332.370696,-10214.842000,306.438199
59490.197805,-2368.659014,-10732.986159,612.876398
59490.198114,-2442.679609,-9326.594869,-1302.362347
59490.198424,-3552.988522,-8364.327145,306.438199
59490.198733,4663.297435,-11843.295072,6052.154434
59490.199043,2368.659014,-3627.009116,1532.190996
59490.199352,1998.556043,-8808.450710,2374.896044
59490.199662,-1480.411884,-7254.018232,0.000000
59490.199972,-4145.153275,-11843.295072,-766.095498
59490.200281,-518.144159,-9770.718434,-536.266849
59490.200591,-2368.659014,-9548.656652,0.000000
59490.200900,-3552.988522,-8364.327145,0.000000
59490.201210,-1258.350101,-10658.965565,-76.609550
59490.201519,-2368.659014,-8364.327145,306.438199
59490.201829,4663.297435,-11399.171507,5592.497135
59490.202139,1998.556043,-5625.565159,1762.019645
59490.202448,3478.967927,-7698.141797,2834.553343
59490.202758,-148.041188,-8364.327145,689.485948
59490.203067,-2664.741391,-9844.739029,-689.485948
59490.203377,-2368.659014,-11177.109724,-689.485948
59490.203686,-3552.988522,-7179.997637,-2145.067394
59490.203996,-4737.318029,-9548.656652,-2451.505594
59490.204306,-74.020594,-10658.965565,-76.609550
59490.204615,-1628.453072,-7476.080014,459.657299
59490.204925,7031.956449,-10584.944971,7048.078582
59490.205234,5847.626942,-5329.482782,3600.648841
59490.205544,4367.215058,-8882.471304,3600.648841
59490.205853,-518.144159,-8882.471304,689.485948
59490.206163,-2368.659014,-10881.027347,-383.047749
59490.206472,-962.267725,-10658.965565,-536.266849
59490.206782,-3552.988522,-8364.327145,-2451.505594
59490.207092,-3923.091493,-8734.430116,-2298.286494
59490.207401,-1184.329507,-10732.986159,1225.752797
59490.207711,1702.473667,-9178.553681,1762.019645
59490.208020,2664.741391,-6291.750507,4903.011187
59490.208330,4663.297435,-7698.141797,4213.525239
59490.208639,3478.967927,-8586.388927,3294.210641
59490.208949,962.267725,-7994.224174,1455.581446
59490.209259,-1924.535449,-10658.965565,459.657299
59490.209568,-1998.556043,-10584.944971,-995.924147
59490.209878,-4589.276840,-8734.430116,-3447.429741
59490.210187,-3034.844362,-9474.636058,-1915.238745
59490.210497,-4737.318029,-8364.327145,0.000000
59490.210806,-74.020594,-10362.883188,2374.896044
59490.211116,962.267725,-5995.668130,1302.362347
59490.211426,5255.462188,-7698.141797,4826.401637
59490.211735,1776.494261,-8068.244768,3370.820191
59490.212045,-296.082377,-7550.100608,995.924147
59490.212354,-2220.617826,-10288.862594,-459.657299
59490.212664,-1776.494261,-10140.821405,-919.314598
59490.212973,-3034.844362,-8882.471304,-1608.800546
59490.213283,-3849.070898,-10658.965565,-1762.019645
59490.213592,-2960.823768,-9548.656652,0.000000
59490.213902,-74.020594,-11843.295072,-76.609550
59490.214212,0.000000,-7476.080014,1225.752797
59490.214521,0.000000,-5403.503377,2451.505594
59490.214831,592.164754,-7179.997637,2145.067394
59490.215140,148.041188,-7254.018232,1455.581446
59490.215450,-1406.391290,-9400.615463,-76.609550
59490.215759,-592.164754,-9770.718434,0.000000
59490.216069,-666.185348,-11843.295072,-76.609550
59490.216379,-1258.350101,-12879.583391,1149.143247
59490.216688,-3034.844362,-9474.636058,-1302.362347
59490.216998,-2368.659014,-9548.656652,306.438199
59490.217307,4663.297435,-10658.965565,6052.154434
59490.217617,0.000000,-5403.503377,2451.505594
59490.217926,1110.308913,-6513.812290,1149.143247
59490.218236,-1036.288319,-7846.182985,1072.533697
59490.218546,-222.061783,-9400.615463,459.657299
59490.218855,592.164754,-10066.800811,766.095498
59490.219165,-814.226536,-10362.883188,459.657299
59490.219474,-2072.576638,-12509.480420,612.876398
59490.219784,-2442.679609,-9474.636058,-1302.362347
59490.220093,-2368.659014,-10732.986159,0.000000
59490.220403,2886.803174,-8882.471304,2374.896044
59490.220713,0.000000,-4811.338623,1225.752797
59490.221022,3478.967927,-7994.224174,3294.210641
59490.221332,1628.453072,-6809.894666,1762.019645
59490.221641,444.123565,-10214.842000,1838.629195
59490.221951,518.144159,-9696.697840,536.266849
59490.222260,-1776.494261,-10140.821405,306.438199
59490.222570,-3552.988522,-9548.656652,0.000000
59490.222879,-666.185348,-11843.295072,-76.609550
59490.223189,-2294.638420,-8364.327145,306.438199
59490.223499,4663.297435,-10584.944971,5592.497135
59490.223808,2294.638420,-5773.606348,1149.143247
59490.224118,3478.967927,-7994.224174,2374.896044
59490.224427,0.000000,-7920.203579,1225.752797
59490.224737,-592.164754,-9770.718434,536.266849
59490.225046,-666.185348,-10140.821405,-306.438199
59490.225356,-3552.988522,-9548.656652,0.000000
59490.225666,-4145.153275,-9548.656652,-2451.505594
59490.225975,-1480.411884,-10140.821405,1532.190996
59490.226285,-74.020594,-9474.636058,1149.143247
59490.226594,592.164754,-6587.832884,3677.258390
59490.226904,2294.638420,-7105.977043,2987.772442
59490.227214,2738.761985,-8882.471304,3600.648841
59490.227523,0.000000,-7031.956449,1838.629195
59490.227833,-592.164754,-9696.697840,383.047749
59490.228143,-1110.308913,-8808.450710,-766.095498
59490.228452,-5921.647536,-7772.162391,-4290.134789
59490.228762,-5995.668130,-9548.656652,-3983.696590
59490.229072,-3404.947333,-11917.315666,-76.609550
59490.229382,-74.020594,-12287.418637,2987.772442
59490.229691,0.000000,-5403.503377,306.438199
59490.230001,2442.679609,-7476.080014,3600.648841
59490.230311,2886.803174,-7105.977043,2604.724693
59490.230620,0.000000,-4811.338623,0.000000
59490.230930,1184.329507,-9770.718434,1762.019645
59490.231240,740.205942,-9474.636058,766.095498
59490.231549,-2368.659014,-7772.162391,0.000000
59490.231859,-5921.647536,-8364.327145,-3064.381992
59490.232169,-3330.926739,-11843.295072,-76.609550
59490.232479,-1850.514855,-10510.924376,-689.485948
59490.232788,0.000000,-5403.503377,612.876398
59490.233098,1998.556043,-7105.977043,2374.896044
59490.233408,2886.803174,-7994.224174,2374.896044
59490.233717,148.041188,-9030.512492,1838.629195
59490.234027,2368.659014,-9400.615463,1838.629195
59490.234337,1332.370696,-9548.656652,1149.143247
59490.234647,-4145.153275,-7772.162391,-2451.505594
59490.234956,-5921.647536,-8364.327145,-3983.696590
59490.235266,-1776.494261,-11843.295072,919.314598
59490.235576,-962.267725,-9030.512492,0.000000
59490.235885,2886.803174,-11251.130318,4826.401637
59490.236195,4071.132681,-7105.977043,2374.896044
59490.236505,3330.926739,-8586.388927,2834.553343
59490.236815,592.164754,-7698.141797,1608.800546
59490.237124,296.082377,-10140.821405,919.314598
59490.237434,814.226536,-8882.471304,766.095498
59490.237744,-2294.638420,-8364.327145,-2221.676944
59490.238053,-1850.514855,-9326.594869,-1608.800546
59490.238363,-4145.153275,-9844.739029,0.000000
59490.238673,-74.020594,-10955.047942,-76.609550
59490.238983,0.000000,-5995.668130,0.000000
59490.239292,4663.297435,-9474.636058,4213.525239
59490.239602,1776.494261,-8660.409521,2911.162892
59490.239912,518.144159,-8290.306550,1762.019645
59490.240221,1036.288319,-9474.636058,1532.190996
59490.240531,814.226536,-8512.368333,1225.752797
59490.240841,-1258.350101,-8290.306550,-76.609550
59490.241151,-1258.350101,-9474.636058,-1302.362347
59490.241460,-5921.647536,-8364.327145,0.000000
59490.241770,-74.020594,-11695.253884,2374.896044
59490.242080,1110.308913,-7105.977043,536.266849
59490.242389,2812.782580,-9474.636058,5439.278036
59490.242699,888.247130,-7179.997637,2451.505594
59490.243009,-444.123565,-9104.533087,1378.971896
59490.243318,-370.102971,-11103.089130,612.876398
59490.243628,148.041188,-8512.368333,919.314598
59490.243938,-74.020594,-9474.636058,-76.609550
59490.244248,-74.020594,-10658.965565,-76.609550
59490.244557,-6513.812290,-7772.162391,-2451.505594
59490.244867,-962.267725,-11473.192101,1762.019645
59490.245177,0.000000,-4811.338623,0.000000
59490.245486,1776.494261,-8956.491898,5056.230287
59490.245796,0.000000,-6587.832884,1225.752797
59490.246106,-814.226536,-8438.347739,1072.533697
59490.246416,666.185348,-10140.821405,1149.143247
59490.246725,888.247130,-9474.636058,1149.143247
59490.247035,-74.020594,-11251.130318,-76.609550
59490.247345,-2442.679609,-11843.295072,-689.485948
59490.247654,-6587.832884,-9548.656652,-3447.429741
59490.247964,-1480.411884,-12065.356855,1149.143247
59490.248274,0.000000,-6587.832884,76.609550
59490.248584,592.164754,-7179.997637,4290.134789
59490.248893,666.185348,-6291.750507,1378.971896
59490.249203,-1554.432478,-8142.265362,1225.752797
59490.249513,-1184.329507,-9548.656652,919.314598
59490.249822,-814.226536,-9474.636058,689.485948
59490.250132,-1406.391290,-11843.295072,229.828649
59490.250442,-2738.761985,-13619.789333,-76.609550
59490.250752,-7772.162391,-9770.718434,-2374.896044
59490.251061,-7105.977043,-11325.150913,0.000000
59490.251371,-74.020594,-11843.295072,2987.772442
59490.251681,-4145.153275,-4811.338623,2757.943793
59490.251990,-2442.679609,-6439.791695,2681.334243
59490.252300,-2368.659014,-5995.668130,2451.505594
59490.252610,-1998.556043,-7254.018232,2451.505594
59490.252919,-2072.576638,-8142.265362,2221.676944
59490.253229,-2960.823768,-8364.327145,612.876398
59490.253539,-7105.977043,-10140.821405,-1225.752797
59490.253849,-7476.080014,-12435.459826,-2068.457845
59490.254158,-10362.883188,-10436.903782,-4903.011187
59490.254468,-6365.771101,-13915.871710,1149.143247
59490.254778,-6513.812290,-7476.080014,0.000000
59490.255087,-1258.350101,-7402.059420,2374.896044
59490.255397,-1554.432478,-7476.080014,4443.353888
59490.255707,-2590.720797,-6735.874072,3294.210641
59490.256017,-2738.761985,-7698.141797,2528.115143
59490.256326,-4145.153275,-7179.997637,2757.943793
59490.256636,-3552.988522,-6587.832884,2451.505594
59490.256946,-2442.679609,-9474.636058,2374.896044
59490.257255,-7179.997637,-8068.244768,-3677.258390
59490.257565,-9474.636058,-10732.986159,-1225.752797
59490.257875,-11399.171507,-10732.986159,-3064.381992
59490.258185,-8956.491898,-11843.295072,-1608.800546
59490.258494,-6365.771101,-9474.636058,612.876398
59490.258804,-1628.453072,-7846.182985,2834.553343
59490.259114,444.123565,-7105.977043,4519.963438
59490.259423,-2368.659014,-5403.503377,3064.381992
59490.259733,-3552.988522,-6587.832884,1225.752797
59490.260043,-1702.473667,-9178.553681,1991.848295
59490.260353,-3627.009116,-5921.647536,-2528.115143
59490.260662,-2368.659014,-9548.656652,919.314598
59490.260972,-2442.679609,-8290.306550,-1762.019645
59490.261282,-2738.761985,-10955.047942,-536.266849
59490.261591,-5773.606348,-12361.439231,-2451.505594
59490.261901,-6587.832884,-13175.665768,-1455.581446
59490.262211,-4959.379811,-12435.459826,0.000000
59490.262521,-5625.565159,-9548.656652,1072.533697
59490.262830,-3552.988522,-5995.668130,1532.190996
59490.263140,2664.741391,-6143.709319,6128.763984
59490.263450,5255.462188,-2368.659014,3600.648841
59490.263759,0.000000,-3627.009116,3677.258390
59490.264069,-666.185348,-7105.977043,-76.609550
59490.264379,-2516.700203,-9030.512492,-459.657299
59490.264688,-3478.967927,-9030.512492,-2145.067394
59490.264998,-7031.956449,-10881.027347,-3830.477490
59490.265308,-7846.182985,-11991.336260,-4136.915689
59490.265618,-4367.215058,-11547.212695,-2528.115143
59490.265927,-1554.432478,-11547.212695,-1378.971896
59490.266237,-4441.235652,-11325.150913,0.000000
59490.266547,-2960.823768,-13101.645173,3983.696590
59490.266856,-74.020594,-9474.636058,3600.648841
59490.267166,4663.297435,-7105.977043,3600.648841
59490.267476,-296.082377,-6143.709319,5209.449386
59490.267786,-2442.679609,-6809.894666,3294.210641
59490.268095,148.041188,-5995.668130,2145.067394
59490.268405,2146.597232,-5921.647536,1608.800546
59490.268715,-1258.350101,-6957.935855,1762.019645
59490.269024,-6587.832884,-9474.636058,-2528.115143
59490.269334,-9474.636058,-11917.315666,-4596.572988
59490.269644,-6661.853478,-14878.139434,-2068.457845
59490.269954,-5995.668130,-14211.954086,-2528.115143
59490.270263,-4811.338623,-13027.624579,-76.609550
59490.270573,-7105.977043,-10732.986159,0.000000
59490.270883,-1406.391290,-8586.388927,2451.505594
59490.271192,2886.803174,-5181.441594,5975.544884
59490.271502,5255.462188,-3330.926739,8427.050478
59490.271812,5847.626942,-2368.659014,6665.030833
59490.272122,-1258.350101,-7105.977043,2068.457845
59490.272431,-7994.224174,-9548.656652,-1838.629195
59490.272741,-5181.441594,-14137.933492,1608.800546
59490.273051,-7179.997637,-11547.212695,-3753.867940
59490.273360,-9770.718434,-12435.459826,-2834.553343
59490.273670,-13027.624579,-12361.439231,-4749.792088
59490.273980,-8512.368333,-13323.706956,-995.924147
59490.274290,-4071.132681,-10140.821405,2298.286494
59490.274599,-1480.411884,-5477.523971,3907.087040
59490.274909,2294.638420,-4515.256246,7354.516781
59490.275219,7031.956449,-2368.659014,7277.907231
59490.275528,3478.967927,-2516.700203,5286.058936
59490.275838,-1776.494261,-9548.656652,4903.011187
59490.276148,-5107.421000,-13619.789333,-76.609550
59490.276457,-8882.471304,-14804.118840,-3447.429741
59490.276767,-7772.162391,-12139.377449,-4826.401637
59490.277077,-8586.388927,-10732.986159,-3753.867940
59490.277387,-8364.327145,-11473.192101,-2987.772442
59490.277696,-6513.812290,-12583.501014,-2221.676944
59490.278006,-5181.441594,-13693.809927,1225.752797
59490.278316,-1554.432478,-11843.295072,4826.401637
59490.278625,-74.020594,-7105.977043,6052.154434
59490.278935,740.205942,-74.020594,5056.230287
59490.279245,5329.482782,518.144159,9193.145976
59490.279555,5329.482782,222.061783,6435.202183
59490.279864,4367.215058,-3108.864956,4060.306139
59490.280174,-148.041188,-8808.450710,306.438199
59490.280484,-7328.038826,-14359.995275,-5362.668486
59490.280793,-12435.459826,-19541.436869,-8197.221829
59490.281103,-16580.613101,-20207.622217,-9806.022374
59490.281413,-14211.954086,-19023.292709,-6741.640382
59490.281723,-7179.997637,-14211.954086,-1915.238745
59490.282032,-2442.679609,-9474.636058,-383.047749
59490.282342,0.000000,-3627.009116,3677.258390
59490.282652,5033.400406,-2442.679609,8580.269578
59490.282961,9104.533087,0.000000,10035.851024
59490.283271,7698.141797,-444.123565,9652.803275
59490.283581,5329.482782,-1998.556043,7277.907231
59490.283891,222.061783,-6069.688724,3370.820191
59490.284200,-6217.729913,-9548.656652,-2451.505594
59490.284510,-10362.883188,-15470.304188,-4596.572988
59490.284820,-12213.398043,-19541.436869,-6511.811733
59490.285129,-16580.613101,-15470.304188,-9806.022374
59490.285439,-11695.253884,-18949.272115,-5286.058936
59490.285749,-9474.636058,-11917.315666,-3677.258390
59490.286059,-2738.761985,-7550.100608,536.266849
59490.286368,3478.967927,-4071.132681,5286.058936
59490.286678,6957.935855,-1184.329507,7660.954980
59490.286988,7624.121203,-74.020594,8580.269578
59490.287297,5107.421000,-74.020594,6741.640382
59490.287607,2516.700203,-2442.679609,4903.011187
59490.287917,-74.020594,-7994.224174,2987.772442
59490.288226,-8290.306550,-7179.997637,-4290.134789
59490.288536,-8734.430116,-15322.262999,-4136.915689
59490.288846,-13989.892304,-17468.860231,-8886.707777
59490.289156,-12139.377449,-20429.683999,-7507.735880
59490.289465,-10807.006753,-20725.766376,-5056.230287
59490.289775,-6217.729913,-15618.345376,-536.266849
59490.290085,-2294.638420,-9844.739029,3294.210641
59490.290394,666.185348,-3701.029710,6665.030833
59490.290704,3552.988522,1110.308913,7354.516781
59490.291014,5329.482782,1554.432478,11644.651570
59490.291324,4663.297435,3552.988522,6971.469032
59490.291633,592.164754,-74.020594,6128.763984
59490.291943,-1332.370696,-5921.647536,2451.505594
59490.292253,-4589.276840,-10288.862594,459.657299
59490.292562,-7772.162391,-14804.118840,-1915.238745
59490.292872,-10140.821405,-17246.798449,-4443.353888
59490.293182,-9400.615463,-18283.086767,-3753.867940
59490.293492,-8364.327145,-18949.272115,-1302.362347
59490.293801,-4885.359217,-14063.912898,-1072.533697
59490.294111,0.000000,-11917.315666,4903.011187
59490.294421,9400.615463,-8882.471304,9116.536426
59490.294730,8068.244768,-1850.514855,8886.707777
59490.295040,11177.109724,-740.205942,9882.631924
59490.295350,9474.636058,-370.102971,11644.651570
59490.295660,6439.791695,-3404.947333,8733.488677
59490.295969,2960.823768,-6069.688724,4903.011187
59490.296279,-2220.617826,-11769.274478,4213.525239
59490.296589,-4811.338623,-14211.954086,-76.609550
59490.296898,-7772.162391,-14211.954086,-3140.991542
59490.297208,-7105.977043,-16654.633695,-3677.258390
59490.297518,-1628.453072,-18357.107362,3524.039291
59490.297828,-1554.432478,-15100.201217,2987.772442
59490.298137,1110.308913,-11695.253884,4519.963438
59490.298447,3552.988522,-6883.915261,7814.174080
59490.298757,5995.668130,-4885.359217,10189.070123
59490.299066,7920.203579,-1036.288319,10955.165621
59490.299376,7105.977043,148.041188,12180.918418
59490.299686,7624.121203,-2368.659014,12180.918418
59490.299995,3478.967927,-2960.823768,7277.907231
59490.300305,0.000000,-7179.997637,3064.381992
59490.300615,666.185348,-14211.954086,7277.907231
59490.300925,-3627.009116,-14211.954086,2221.676944
59490.301234,-4811.338623,-18431.127956,1762.019645
59490.301544,-8734.430116,-16950.716072,2068.457845
59490.301854,-8438.347739,-14285.974681,2834.553343
59490.302163,-2442.679609,-8586.388927,6205.373534
59490.302473,4811.338623,-1184.329507,9806.022374
59490.302783,7698.141797,-518.144159,14249.376263
59490.303093,8216.285956,0.000000,14632.424012
59490.303402,4071.132681,-74.020594,9806.022374
59490.303712,5773.606348,-6513.812290,13406.671215
59490.304022,-2294.638420,-5329.482782,6052.154434
59490.304331,-4737.318029,-8290.306550,6052.154434
59490.304641,-5403.503377,-9548.656652,2604.724693
59490.304951,-3256.906145,-11325.150913,2757.943793
59490.305261,-3330.926739,-15322.262999,3830.477490
59490.305570,-5107.421000,-15618.345376,612.876398
59490.305880,-7994.224174,-19023.292709,3064.381992
59490.306190,-3034.844362,-15988.448347,4826.401637
59490.306499,-74.020594,-9474.636058,4826.401637
59490.306809,0.000000,-2442.679609,9806.022374
59490.307119,5847.626942,-1776.494261,9729.412825
59490.307429,3552.988522,0.000000,10572.117872
59490.307738,4367.215058,148.041188,6971.469032
59490.308048,2442.679609,-2738.761985,5286.058936
59490.308358,-74.020594,-8660.409521,3524.039291
59490.308667,-2220.617826,-13397.727550,306.438199
59490.308977,-7698.141797,-16654.633695,-2451.505594
59490.309287,-9474.636058,-19615.457463,-2145.067394
59490.309596,-9548.656652,-23094.425390,-76.609550
59490.309906,-7105.977043,-10140.821405,-4290.134789
59490.310216,-740.205942,-10732.986159,2528.115143
59490.310526,2368.659014,-6587.832884,4749.792088
59490.310835,5107.421000,-4293.194464,4826.401637
59490.311145,6661.853478,-4145.153275,5132.839837
59490.311455,7105.977043,-2886.803174,5209.449386
59490.311764,3849.070898,-4811.338623,3294.210641
59490.312074,0.000000,-7179.997637,0.000000
59490.312384,0.000000,-9548.656652,1225.752797
59490.312694,-74.020594,-13619.789333,-76.609550
59490.313003,-4737.318029,-9548.656652,-3677.258390
59490.313313,-3627.009116,-13915.871710,-383.047749
59490.313623,-4737.318029,-13693.809927,-2451.505594
59490.313932,-1480.411884,-14211.954086,-2451.505594
59490.314242,-592.164754,-12731.542202,-995.924147
59490.314552,-666.185348,-12509.480420,766.095498
59490.314862,1036.288319,-9770.718434,1762.019645
59490.315171,3330.926739,-3997.112087,229.828649
59490.315481,4145.153275,-1258.350101,3677.258390
59490.315791,5847.626942,-4737.318029,6665.030833
59490.316100,0.000000,-666.185348,1838.629195
59490.316410,3478.967927,-7105.977043,3600.648841
59490.316720,148.041188,-7179.997637,0.000000
59490.317030,-2072.576638,-13693.809927,-76.609550
59490.317339,-4811.338623,-17394.839637,-76.609550
59490.317649,-5033.400406,-16580.613101,-459.657299
59490.317959,-2664.741391,-12731.542202,-76.609550
59490.318268,-74.020594,-9326.594869,1762.019645
59490.318578,1184.329507,-4811.338623,3907.087040
59490.318888,4737.318029,-5995.668130,7354.516781
59490.319198,3478.967927,-7105.977043,4826.401637
59490.319507,-2072.576638,-8364.327145,4903.011187
59490.319817,-2368.659014,-8364.327145,4903.011187
59490.320127,518.144159,-8956.491898,6741.640382
59490.320436,-740.205942,-7624.121203,5209.449386
59490.320746,-1110.308913,-6661.853478,4290.134789
59490.321056,222.061783,-9474.636058,6971.469032
59490.321365,2294.638420,-10658.965565,4826.401637
59490.321675,-3552.988522,-11325.150913,2145.067394
59490.321985,-7105.977043,-11917.315666,2451.505594
59490.322295,-1258.350101,-13027.624579,4826.401637
59490.322604,0.000000,-7179.997637,4903.011187
59490.322914,592.164754,-4811.338623,4519.963438
59490.323224,-592.164754,-6883.915261,6435.202183
59490.323533,74.020594,-8364.327145,7354.516781
59490.323843,1776.494261,-9770.718434,7660.954980
59490.324153,-74.020594,-11843.295072,10342.289223
59490.324463,-1258.350101,-11843.295072,9729.412825
59490.324772,-2146.597232,-8290.306550,5439.278036
59490.325082,-2368.659014,-8364.327145,8580.269578
59490.325392,-1258.350101,-7105.977043,4213.525239
59490.325701,-3552.988522,-5403.503377,2451.505594
59490.326011,-1258.350101,-8586.388927,4213.525239
59490.326321,888.247130,-6883.915261,5515.887586
59490.326631,1036.288319,-7846.182985,5592.497135
59490.326940,-1258.350101,-9326.594869,5439.278036
59490.327250,-1480.411884,-10288.862594,7048.078582
59490.327560,814.226536,-12435.459826,7277.907231
59490.327870,-666.185348,-10658.965565,5439.278036
59490.328179,-2368.659014,-7179.997637,4903.011187
59490.328489,2294.638420,-9474.636058,7277.907231
59490.328799,-74.020594,-7179.997637,2987.772442
59490.329108,-74.020594,-8882.471304,4826.401637
59490.329418,-1776.494261,-8660.409521,4136.915689
59490.329728,518.144159,-7772.162391,4290.134789
59490.330038,148.041188,-6217.729913,3294.210641
59490.330347,0.000000,-5995.668130,3677.258390
59490.330657,814.226536,-9548.656652,4903.011187
59490.330967,-74.020594,-8882.471304,3600.648841
59490.331277,1184.329507,-10140.821405,6741.640382
59490.331586,1998.556043,-10658.965565,4826.401637
59490.331896,-1776.494261,-8364.327145,2911.162892
59490.332206,-74.020594,-9474.636058,4826.401637
59490.332516,148.041188,-8068.244768,3677.258390
59490.332825,740.205942,-6513.812290,2451.505594
59490.333135,-1184.329507,-6513.812290,1455.581446
59490.333445,0.000000,-7772.162391,1225.752797
59490.333754,370.102971,-11325.150913,2604.724693
59490.334064,-370.102971,-13027.624579,-76.609550
59490.334374,-4737.318029,-8364.327145,0.000000
59490.334684,-666.185348,-13915.871710,2374.896044
59490.334993,-2294.638420,-8142.265362,-1302.362347
59490.335303,-74.020594,-9326.594869,1762.019645
59490.335613,740.205942,-6069.688724,1532.190996
59490.335923,2738.761985,-5847.626942,2068.457845
59490.336232,1554.432478,-6661.853478,1685.410096
59490.336542,0.000000,-7476.080014,0.000000
59490.336852,0.000000,-10732.986159,1225.752797
59490.337162,-74.020594,-11843.295072,-76.609550
59490.337471,-4737.318029,-8364.327145,-4596.572988
59490.337781,-666.185348,-11843.295072,-1608.800546
59490.338091,-4145.153275,-8290.306550,-4979.620737
59490.338400,-148.041188,-11177.109724,-2834.553343
59490.338710,-814.226536,-9622.677246,-3524.039291
59490.339020,888.247130,-8660.409521,-2298.286494
59490.339330,296.082377,-9252.574275,-1378.971896
59490.339639,0.000000,-8364.327145,-3677.258390
59490.339949,0.000000,-9548.656652,0.000000
59490.340259,2664.741391,-10732.986159,0.000000
59490.340569,3478.967927,-10658.965565,-1302.362347
59490.340878,-2368.659014,-7179.997637,-3677.258390
59490.341188,-74.020594,-11251.130318,-2528.115143
59490.341498,-74.020594,-10140.821405,-3370.820191
59490.341808,-1258.350101,-9992.780217,-4673.182538
59490.342117,-1850.514855,-10436.903782,-5056.230287
59490.342427,-3108.864956,-11843.295072,-4749.792088
59490.342737,-2294.638420,-9104.533087,-5745.716235
59490.343046,0.000000,-5995.668130,-4903.011187
59490.343356,1480.411884,-9548.656652,0.000000
59490.343666,4663.297435,-11251.130318,-1302.362347
59490.343976,0.000000,-10140.821405,0.000000
59490.344285,-74.020594,-14211.954086,-76.609550
59490.344595,-888.247130,-9548.656652,-1225.752797
59490.344905,-74.020594,-8660.409521,-1302.362347
59490.345215,1184.329507,-5921.647536,-1608.800546
59490.345524,0.000000,-7772.162391,-1378.971896
59490.345834,-74.020594,-8586.388927,-2068.457845
59490.346144,-2146.597232,-8660.409521,-2451.505594
59490.346454,0.000000,-10732.986159,0.000000
59490.346763,3182.885551,-12435.459826,2987.772442
59490.347073,-1258.350101,-8660.409521,76.609550
59490.347383,296.082377,-9548.656652,3064.381992
59490.347692,0.000000,-6587.832884,1225.752797
59490.348002,74.020594,-7402.059420,1838.629195
59490.348312,148.041188,-7476.080014,1838.629195
59490.348622,-962.267725,-8216.285956,1378.971896
59490.348931,-74.020594,-9474.636058,2374.896044
59490.349241,-370.102971,-7698.141797,1149.143247
59490.349551,-1628.453072,-7772.162391,0.000000
59490.349861,2294.638420,-11251.130318,4826.401637
59490.350170,-1850.514855,-7698.141797,2068.457845
59490.350480,-1184.329507,-9548.656652,4903.011187
59490.350790,-2368.659014,-6735.874072,2451.505594
59490.351100,-444.123565,-7772.162391,3524.039291
59490.351409,0.000000,-8290.306550,3983.696590
59490.351719,0.000000,-9326.594869,4673.182538
59490.352029,2294.638420,-11843.295072,7277.907231
59490.352338,2294.638420,-9474.636058,6052.154434
59490.352648,222.061783,-6587.832884,3677.258390
59490.352958,3478.967927,-9474.636058,6665.030833
59490.353268,-2368.659014,-5995.668130,3677.258390
59490.353577,-1480.411884,-8956.491898,3677.258390
59490.353887,-3478.967927,-8438.347739,1991.848295
59490.354197,-2812.782580,-10140.821405,2681.334243
59490.354507,-1776.494261,-8956.491898,3294.210641
59490.354816,-1628.453072,-8216.285956,3677.258390
59490.355126,1036.288319,-9474.636058,6435.202183
59490.355436,3478.967927,-9474.636058,6052.154434
59490.355746,1702.473667,-5995.668130,2451.505594
59490.356055,3478.967927,-10658.965565,7277.907231
59490.356365,-2072.576638,-8364.327145,3370.820191
59490.356675,-1776.494261,-9548.656652,2451.505594
59490.356984,-1850.514855,-8290.306550,2221.676944
59490.357294,-1998.556043,-9030.512492,1225.752797
59490.357604,222.061783,-7179.997637,919.314598
59490.357914,-3552.988522,-8364.327145,1225.752797
59490.358223,888.247130,-10732.986159,6741.640382
59490.358533,2886.803174,-13027.624579,4826.401637
59490.358843,-74.020594,-13027.624579,2374.896044
59490.359153,-2368.659014,-9548.656652,0.000000
59490.359462,1184.329507,-12287.418637,2374.896044
59490.359772,-3923.091493,-8364.327145,-1302.362347
59490.360082,-666.185348,-8290.306550,-689.485948
59490.360392,-1924.535449,-6291.750507,-1532.190996
59490.360701,-1258.350101,-6883.915261,-1915.238745
59490.361011,-1554.432478,-8882.471304,-1302.362347
59490.361321,-1776.494261,-11325.150913,0.000000
59490.361630,888.247130,-12139.377449,1225.752797
59490.361940,2294.638420,-10658.965565,-76.609550
59490.362250,0.000000,-7179.997637,0.000000
59490.362560,1998.556043,-10658.965565,-76.609550
59490.362869,-1184.329507,-5995.668130,-3447.429741
59490.363179,-74.020594,-10510.924376,-1302.362347
59490.363489,-518.144159,-9178.553681,-2451.505594
59490.363799,370.102971,-8808.450710,-2374.896044
59490.364108,-148.041188,-9696.697840,-1608.800546
59490.364418,0.000000,-9548.656652,0.000000
59490.364728,296.082377,-10140.821405,0.000000
59490.365038,2590.720797,-11621.233289,1532.190996
59490.365347,1702.473667,-9474.636058,-1915.238745
59490.365657,-2960.823768,-7772.162391,-2451.505594
59490.365967,1702.473667,-9474.636058,-1302.362347
59490.366276,-74.020594,-9474.636058,-1302.362347
59490.366586,-296.082377,-8512.368333,-2528.115143
59490.366896,-592.164754,-10140.821405,-1915.238745
59490.367206,-666.185348,-12139.377449,-842.705048
59490.367515,0.000000,-9548.656652,0.000000
59490.367825,0.000000,-8660.409521,0.000000
59490.368135,3849.070898,-8660.409521,3677.258390
59490.368445,2886.803174,-5329.482782,-76.609550
59490.368754,888.247130,-7772.162391,766.095498
59490.369064,-74.020594,-11843.295072,-76.609550
59490.369374,-2368.659014,-12657.521608,-995.924147
59490.369683,-3627.009116,-12583.501014,-2374.896044
59490.369993,-3330.926739,-10881.027347,-1915.238745
59490.370303,-2590.720797,-8364.327145,-766.095498
59490.370613,-1850.514855,-5403.503377,-2145.067394
59490.370922,0.000000,-5107.421000,1225.752797
59490.371232,2368.659014,-7772.162391,3677.258390
59490.371542,4663.297435,-10658.965565,3600.648841
59490.371852,0.000000,-9548.656652,2451.505594
59490.372161,-74.020594,-13619.789333,3600.648841
59490.372471,-2368.659014,-8660.409521,0.000000
59490.372781,-2220.617826,-7920.203579,229.828649
59490.373091,-962.267725,-7328.038826,229.828649
59490.373400,-1258.350101,-8364.327145,536.266849
59490.373710,-370.102971,-8438.347739,-689.485948
59490.374020,-1998.556043,-7772.162391,612.876398
59490.374329,0.000000,-7179.997637,1225.752797
59490.374639,592.164754,-9548.656652,4903.011187
59490.374949,1110.308913,-8290.306550,3600.648841
59490.375259,0.000000,-7772.162391,3753.867940
59490.375568,-2960.823768,-7476.080014,1225.752797
59490.375878,-2442.679609,-9474.636058,383.047749
59490.376188,-2368.659014,-9844.739029,536.266849
59490.376498,-2738.761985,-9770.718434,766.095498
59490.376807,-666.185348,-10658.965565,1149.143247
59490.377117,-370.102971,-7254.018232,2068.457845
59490.377427,0.000000,-5403.503377,2451.505594
59490.377737,4663.297435,-9474.636058,7048.078582
59490.378046,2294.638420,-9474.636058,4826.401637
59490.378356,592.164754,-10140.821405,6128.763984
59490.378666,-2368.659014,-9548.656652,1838.629195
59490.378975,-1776.494261,-9326.594869,2298.286494
59490.379285,-740.205942,-8068.244768,2451.505594
59490.379595,-222.061783,-7920.203579,2681.334243
59490.379905,2294.638420,-11251.130318,4519.963438
59490.380214,-74.020594,-10658.965565,3294.210641
59490.380524,-2368.659014,-7772.162391,2451.505594
59490.380834,2664.741391,-11177.109724,6358.592633
59490.381144,1110.308913,-8586.388927,4213.525239
59490.381453,-3552.988522,-4811.338623,2451.505594
59490.381763,-3256.906145,-5255.462188,306.438199
59490.382073,-2664.741391,-7402.059420,612.876398
59490.382383,-2368.659014,-9030.512492,689.485948
59490.382692,-2590.720797,-10510.924376,995.924147
59490.383002,-74.020594,-11843.295072,3600.648841
59490.383312,-74.020594,-9474.636058,4826.401637
59490.383621,2294.638420,-6513.812290,1762.019645
59490.383931,592.164754,-7179.997637,3677.258390
59490.384241,1702.473667,-8734.430116,2987.772442
59490.384551,-3552.988522,-7179.997637,0.000000
59490.384860,-2146.597232,-9326.594869,-383.047749
59490.385170,-2368.659014,-9030.512492,-1838.629195
59490.385480,-2738.761985,-9992.780217,-1225.752797
59490.385790,-2072.576638,-9178.553681,-1302.362347
59490.386099,296.082377,-11843.295072,1302.362347
59490.386409,2294.638420,-10658.965565,3064.381992
59490.386719,2294.638420,-5921.647536,-689.485948
59490.387029,2368.659014,-8364.327145,3064.381992
59490.387338,4663.297435,-9178.553681,1762.019645
59490.387648,0.000000,-4811.338623,0.000000
59490.387958,-1554.432478,-10066.800811,-1608.800546
59490.388267,-2368.659014,-10881.027347,-2987.772442
59490.388577,-1776.494261,-12509.480420,-2604.724693
59490.388887,-2146.597232,-13545.768739,-2451.505594
59490.389197,-888.247130,-12509.480420,0.000000
59490.389506,740.205942,-11103.089130,0.000000
59490.389816,3478.967927,-9474.636058,-76.609550
59490.390126,1184.329507,-5403.503377,0.000000
59490.390436,4071.132681,-7698.141797,1762.019645
59490.390745,0.000000,-5403.503377,-3064.381992
59490.391055,-74.020594,-10362.883188,-536.266849
59490.391365,-1850.514855,-11251.130318,-2451.505594
59490.391675,-2368.659014,-10214.842000,-3217.601092
59490.391984,-2516.700203,-9918.759623,-3064.381992
59490.392294,-2368.659014,-8364.327145,-1838.629195
59490.392604,1702.473667,-10066.800811,0.000000
59490.392913,4367.215058,-11843.295072,1762.019645
59490.393223,1110.308913,-9030.512492,0.000000
59490.393533,0.000000,-10807.006753,1991.848295
59490.393843,-666.185348,-9252.574275,-2451.505594
59490.394152,-666.185348,-10658.965565,-383.047749
59490.394462,-1258.350101,-7105.977043,-1762.019645
59490.394772,-1332.370696,-6365.771101,-1532.190996
59490.395082,-1776.494261,-7772.162391,-1072.533697
59490.395391,-1776.494261,-7772.162391,612.876398
59490.395701,2294.638420,-11251.130318,2757.943793
59490.396011,3478.967927,-9474.636058,1762.019645
59490.396321,0.000000,-7179.997637,1378.971896
59490.396630,1184.329507,-8808.450710,4749.792088
59490.396940,-888.247130,-5403.503377,-1225.752797
59490.397250,-74.020594,-7846.182985,-76.609550
59490.397559,-592.164754,-8438.347739,-766.095498
59490.397869,-2664.741391,-10732.986159,-919.314598
59490.398179,-3997.112087,-12583.501014,-1455.581446
59490.398489,-2368.659014,-12509.480420,0.000000
59490.398798,-3256.906145,-9548.656652,612.876398
59490.399108,0.000000,-4811.338623,2451.505594
59490.399418,4959.379811,-6513.812290,6358.592633
59490.399728,3478.967927,-5329.482782,4213.525239
59490.400037,2590.720797,-8586.388927,4213.525239
59490.400347,-74.020594,-10066.800811,1608.800546
59490.400657,-2294.638420,-10732.986159,306.438199
59490.400967,-3182.885551,-11325.150913,229.828649
59490.401276,-2516.700203,-10732.986159,153.219100
59490.401586,-3552.988522,-7179.997637,1225.752797
59490.401896,0.000000,-7772.162391,2757.943793
59490.402205,4663.297435,-10436.903782,7660.954980
59490.402515,4663.297435,-9474.636058,5745.716235
59490.402825,1184.329507,-7179.997637,4903.011187
59490.403135,3478.967927,-9474.636058,4826.401637
59490.403444,-296.082377,-8438.347739,3370.820191
59490.403754,-1628.453072,-9178.553681,1762.019645
59490.404064,-2146.597232,-9696.697840,1149.143247
59490.404374,-3256.906145,-10436.903782,842.705048
59490.404683,-4441.235652,-7920.203579,0.000000
59490.404993,-4145.153275,-7179.997637,1225.752797
59490.405303,0.000000,-7179.997637,3677.258390
59490.405613,4071.132681,-9474.636058,4826.401637
59490.405922,0.000000,-7179.997637,3064.381992
59490.406232,1702.473667,-11843.295072,4826.401637
59490.406542,-1776.494261,-9548.656652,2451.505594
59490.406851,-962.267725,-7402.059420,766.095498
59490.407161,-3404.947333,-7179.997637,-689.485948
59490.407471,-4441.235652,-8512.368333,0.000000
59490.407781,-3627.009116,-8734.430116,-2298.286494
59490.408090,-3256.906145,-8512.368333,0.000000
59490.408400,0.000000,-8364.327145,1225.752797
59490.408710,2886.803174,-10658.965565,4213.525239
59490.409020,0.000000,-6735.874072,536.266849
59490.409329,2368.659014,-9474.636058,4136.915689
59490.409639,0.000000,-6143.709319,1225.752797
59490.409949,444.123565,-7624.121203,153.219100
59490.410259,-1110.308913,-9474.636058,-536.266849
59490.410568,-1480.411884,-11473.192101,-766.095498
59490.410878,-2738.761985,-9548.656652,-2451.505594
59490.411188,-3552.988522,-7179.997637,0.000000
59490.411497,0.000000,-7179.997637,1225.752797
59490.411807,4071.132681,-8290.306550,2068.457845
59490.412117,888.247130,-7179.997637,612.876398
59490.412427,4071.132681,-11843.295072,3294.210641
59490.412736,592.164754,-10436.903782,0.000000
59490.413046,370.102971,-10584.944971,-995.924147
59490.413356,-1332.370696,-10140.821405,-1838.629195
59490.413666,-2220.617826,-10807.006753,-2145.067394
59490.413975,-1554.432478,-9622.677246,-2681.334243
59490.414285,0.000000,-8364.327145,0.000000
59490.414595,1184.329507,-9548.656652,2451.505594
59490.414905,4663.297435,-10658.965565,3294.210641
59490.415214,592.164754,-5995.668130,306.438199
59490.415524,4515.256246,-9474.636058,3600.648841
59490.415834,0.000000,-6587.832884,-919.314598
59490.416143,-888.247130,-8956.491898,-2221.676944
59490.416453,-3849.070898,-11621.233289,-3677.258390
59490.416763,-5329.482782,-14804.118840,-3983.696590
59490.417073,-2738.761985,-14211.954086,-3140.991542
59490.417382,-2146.597232,-10658.965565,-1915.238745
59490.417692,0.000000,-5403.503377,0.000000
59490.418002,1480.411884,-5995.668130,2757.943793
59490.418312,3330.926739,-5625.565159,2374.896044
59490.418621,1184.329507,-7179.997637,3677.258390
59490.418931,0.000000,-7772.162391,919.314598
59490.419241,-814.226536,-9326.594869,-383.047749
59490.419551,-3775.050304,-9474.636058,-1608.800546
59490.419860,-4515.256246,-9474.636058,-2298.286494
59490.420170,-1258.350101,-9474.636058,-2528.115143
59490.420480,-666.185348,-7105.977043,-1302.362347
59490.420789,-2368.659014,-4811.338623,0.000000
59490.421099,592.164754,-9992.780217,2757.943793
59490.421409,1110.308913,-11251.130318,2068.457845
59490.421719,0.000000,-9548.656652,2451.505594
59490.422028,0.000000,-7772.162391,459.657299
59490.422338,592.164754,-6291.750507,383.047749
59490.422648,-814.226536,-7402.059420,-153.219100
59490.422958,-1776.494261,-9400.615463,-383.047749
59490.423267,-74.020594,-11843.295072,-76.609550
59490.423577,-74.020594,-11843.295072,2374.896044
59490.423887,1702.473667,-8290.306550,536.266849
59490.424196,592.164754,-7772.162391,3064.381992
59490.424506,4071.132681,-9474.636058,3600.648841
59490.424816,0.000000,-7179.997637,2451.505594
59490.425126,1258.350101,-8956.491898,1225.752797
59490.425435,0.000000,-10510.924376,995.924147
59490.425745,-2368.659014,-11399.171507,0.000000
59490.426055,-3404.947333,-12213.398043,-612.876398
59490.426365,-740.205942,-13027.624579,3447.429741
59490.426674,-74.020594,-10658.965565,4060.306139
59490.426984,2886.803174,-8290.306550,3600.648841
59490.427294,0.000000,-6291.750507,3677.258390
59490.427604,2294.638420,-8882.471304,4213.525239
59490.427913,0.000000,-4811.338623,1225.752797
59490.428223,-666.185348,-7994.224174,1455.581446
59490.428533,-1554.432478,-7846.182985,612.876398
59490.428842,-3330.926739,-10140.821405,-153.219100
59490.429152,-4293.194464,-11547.212695,-383.047749
59490.429462,-2960.823768,-12213.398043,2604.724693
59490.429771,-74.020594,-11547.212695,3677.258390
59490.430081,2294.638420,-8290.306550,2987.772442
59490.430391,0.000000,-4811.338623,2451.505594
59490.430700,1480.411884,-7179.997637,4903.011187
59490.431010,1110.308913,-6217.729913,2681.334243
59490.431320,0.000000,-7179.997637,2451.505594
59490.431629,-666.185348,-7254.018232,536.266849
59490.431939,-2368.659014,-8660.409521,0.000000
59490.432249,-3404.947333,-9400.615463,-766.095498
59490.432558,-666.185348,-11547.212695,-76.609550
59490.432868,-74.020594,-10658.965565,-76.609550
59490.433178,518.144159,-7476.080014,-1302.362347
59490.433487,0.000000,-8364.327145,2451.505594
59490.433797,3182.885551,-9474.636058,2987.772442
59490.434106,0.000000,-5995.668130,0.000000
59490.434416,148.041188,-6809.894666,0.000000
59490.434726,592.164754,-7772.162391,612.876398
59490.435035,-1184.329507,-8512.368333,-842.705048
59490.435345,-2146.597232,-10362.883188,-1072.533697
59490.435655,-370.102971,-12731.542202,-76.609550
59490.435964,-74.020594,-13027.624579,-76.609550
59490.436274,1110.308913,-8142.265362,-1608.800546
59490.436584,1184.329507,-9548.656652,2451.505594
59490.436893,2294.638420,-9474.636058,-76.609550
59490.437203,0.000000,-7179.997637,0.000000
59490.437513,518.144159,-9474.636058,-689.485948
59490.437822,-592.164754,-9474.636058,-1685.410096
59490.438132,-1924.535449,-10436.903782,-1762.019645
59490.438442,-2442.679609,-11547.212695,-1991.848295
59490.438751,-1184.329507,-11917.315666,-153.219100
59490.439061,-74.020594,-13619.789333,-76.609550
59490.439371,814.226536,-10658.965565,-76.609550
59490.439680,-2368.659014,-6587.832884,0.000000
59490.439990,3182.885551,-9178.553681,2681.334243
59490.440300,222.061783,-5625.565159,-1608.800546
59490.440609,2294.638420,-7698.141797,-76.609550
59490.440919,888.247130,-8438.347739,0.000000
59490.441229,-1702.473667,-10732.986159,-842.705048
59490.441538,-3478.967927,-11251.130318,-2451.505594
59490.441848,-4737.318029,-11325.150913,0.000000
59490.442158,-1184.329507,-10658.965565,1532.190996
59490.442467,2294.638420,-9474.636058,2374.896044
59490.442777,0.000000,-3627.009116,0.000000
59490.443087,2664.741391,-6957.935855,3370.820191
59490.443396,2294.638420,-5625.565159,536.266849
59490.443706,2294.638420,-8882.471304,2221.676944
59490.444016,-518.144159,-7402.059420,-612.876398
59490.444325,-2812.782580,-9178.553681,-1685.410096
59490.444635,-2516.700203,-10510.924376,-1378.971896
59490.444944,-3552.988522,-9548.656652,0.000000
59490.445254,-1776.494261,-10732.986159,612.876398
59490.445564,2886.803174,-12731.542202,3600.648841
59490.445873,1702.473667,-7105.977043,842.705048
59490.446183,2368.659014,-8364.327145,3370.820191
59490.446493,3478.967927,-7105.977043,2374.896044
59490.446802,1924.535449,-8808.450710,2374.896044
59490.447112,1110.308913,-8586.388927,612.876398
59490.447422,-592.164754,-9770.718434,0.000000
59490.447731,-1998.556043,-11177.109724,-459.657299
59490.448041,-4737.318029,-9548.656652,-2451.505594
59490.448351,-4145.153275,-10732.986159,0.000000
59490.448660,0.000000,-10732.986159,2451.505594
59490.448970,2294.638420,-10658.965565,3600.648841
59490.449280,74.020594,-6291.750507,1378.971896
59490.449589,2442.679609,-7105.977043,3447.429741
59490.449899,2368.659014,-8364.327145,3217.601092
59490.450209,814.226536,-9178.553681,1762.019645
59490.450518,-1332.370696,-10732.986159,995.924147
59490.450828,-1998.556043,-11695.253884,306.438199
59490.451138,-4071.132681,-8956.491898,-2451.505594
59490.451447,-4737.318029,-9548.656652,0.000000
59490.451757,-74.020594,-10658.965565,4213.525239
59490.452067,-1110.308913,-5921.647536,995.924147
59490.452376,296.082377,-7179.997637,3064.381992
59490.452686,-74.020594,-9474.636058,3600.648841
59490.452996,0.000000,-8068.244768,2145.067394
59490.453305,148.041188,-9104.533087,1532.190996
59490.453615,-1406.391290,-9844.739029,1378.971896
59490.453925,-2294.638420,-9548.656652,0.000000
59490.454234,-3034.844362,-7846.182985,-1915.238745
59490.454544,-4589.276840,-6291.750507,-1608.800546
59490.454853,-3552.988522,-5403.503377,0.000000
59490.455163,1628.453072,-10066.800811,3294.210641
59490.455473,222.061783,-7550.100608,689.485948
59490.455782,1184.329507,-9992.780217,3677.258390
59490.456092,296.082377,-8364.327145,1225.752797
59490.456402,888.247130,-8882.471304,1455.581446
59490.456711,-148.041188,-9326.594869,689.485948
59490.457021,-666.185348,-10140.821405,-76.609550
59490.457331,-74.020594,-9474.636058,-689.485948
59490.457640,-962.267725,-7994.224174,-689.485948
59490.457950,-2368.659014,-5995.668130,0.000000
59490.458260,3478.967927,-9474.636058,3600.648841
59490.458569,518.144159,-7402.059420,995.924147
59490.458879,1184.329507,-9548.656652,3983.696590
59490.459189,0.000000,-8068.244768,612.876398
59490.459498,666.185348,-9400.615463,689.485948
59490.459808,-296.082377,-9992.780217,459.657299
59490.460118,-740.205942,-10584.944971,-459.657299
59490.460427,-666.185348,-11547.212695,-76.609550
59490.460737,-1258.350101,-11251.130318,-76.609550
59490.461047,-3552.988522,-7476.080014,0.000000
59490.461356,1924.535449,-10807.006753,3370.820191
59490.461666,1406.391290,-8142.265362,1149.143247
59490.461976,0.000000,-5995.668130,1225.752797
59490.462285,888.247130,-6291.750507,766.095498
59490.462595,1924.535449,-7772.162391,1302.362347
59490.462905,222.061783,-9030.512492,306.438199
59490.463214,-1258.350101,-10140.821405,-612.876398
59490.463524,-74.020594,-11843.295072,-76.609550
59490.463834,-74.020594,-11843.295072,-76.609550
59490.464143,-3627.009116,-7179.997637,-2451.505594
59490.464453,-2368.659014,-9548.656652,612.876398
59490.464762,-74.020594,-9474.636058,1762.019645
59490.465072,-2368.659014,-5403.503377,0.000000
59490.465382,222.061783,-6069.688724,76.609550
59490.465691,592.164754,-6735.874072,766.095498
59490.466001,148.041188,-8808.450710,306.438199
59490.466311,-1480.411884,-10288.862594,-153.219100
59490.466620,-1110.308913,-12731.542202,1991.848295
59490.466930,-74.020594,-11843.295072,2374.896044
59490.467240,-1998.556043,-5699.585753,-1762.019645
59490.467549,592.164754,-7772.162391,1838.629195
59490.467859,1110.308913,-7994.224174,536.266849
59490.468169,0.000000,-5995.668130,0.000000
59490.468478,814.226536,-10510.924376,-76.609550
59490.468788,-592.164754,-10288.862594,-689.485948
59490.469098,-1776.494261,-10732.986159,-306.438199
59490.469407,-1628.453072,-9918.759623,-536.266849
59490.469717,-1184.329507,-10140.821405,1225.752797
59490.470027,1332.370696,-9474.636058,1838.629195
59490.470336,2294.638420,-9474.636058,-76.609550
59490.470646,0.000000,-7772.162391,0.000000
59490.470956,1924.535449,-10510.924376,3830.477490
59490.471265,222.061783,-7402.059420,-1225.752797
59490.471575,1998.556043,-9474.636058,1149.143247
59490.471885,1036.288319,-7920.203579,536.266849
59490.472194,592.164754,-9770.718434,995.924147
59490.472504,148.041188,-10658.965565,842.705048
59490.472814,-2368.659014,-10732.986159,1838.629195
59490.473123,0.000000,-11325.150913,1225.752797
59490.473433,1924.535449,-11843.295072,3753.867940
59490.473743,-74.020594,-9474.636058,2374.896044
59490.474052,0.000000,-7179.997637,3600.648841
59490.474362,-74.020594,-5921.647536,-76.609550
59490.474671,2294.638420,-7994.224174,2681.334243
59490.474981,740.205942,-7179.997637,2068.457845
59490.475291,-518.144159,-9178.553681,1149.143247
59490.475600,-1258.350101,-10658.965565,689.485948
59490.475910,-3552.988522,-9548.656652,0.000000
59490.476220,-2368.659014,-9548.656652,0.000000
59490.476529,-74.020594,-11843.295072,2987.772442
59490.476839,-3256.906145,-6587.832884,0.000000
59490.477149,-444.123565,-8660.409521,2374.896044
59490.477458,-74.020594,-8290.306550,-76.609550
59490.477768,518.144159,-8512.368333,1532.190996
59490.478078,74.020594,-8068.244768,1532.190996
59490.478387,-296.082377,-9918.759623,1225.752797
59490.478697,-666.185348,-10436.903782,1225.752797
59490.479007,-3552.988522,-8364.327145,0.000000
59490.479316,-2368.659014,-7179.997637,0.000000
59490.479626,444.123565,-9474.636058,3064.381992
59490.479936,-1258.350101,-7105.977043,536.266849
59490.480245,0.000000,-7846.182985,2451.505594
59490.480555,3478.967927,-9474.636058,-76.609550
59490.480865,592.164754,-8660.409521,1225.752797
59490.481174,148.041188,-8956.491898,383.047749
59490.481484,-1776.494261,-11177.109724,-229.828649
59490.481794,-1850.514855,-12583.501014,-306.438199
59490.482103,-3478.967927,-9770.718434,-2068.457845
59490.482413,-2368.659014,-7920.203579,-1302.362347
59490.482723,0.000000,-7179.997637,1225.752797
59490.483032,1702.473667,-8882.471304,1762.019645
59490.483342,-1702.473667,-6587.832884,0.000000
59490.483652,3182.885551,-12435.459826,3600.648841
59490.483961,592.164754,-11029.068536,1608.800546
59490.484271,1332.370696,-10214.842000,1532.190996
59490.484580,0.000000,-9622.677246,306.438199
59490.484890,0.000000,-7254.018232,-76.609550
59490.485200,-74.020594,-6217.729913,-1302.362347
59490.485509,0.000000,-7698.141797,-689.485948
59490.485819,0.000000,-9548.656652,0.000000
59490.486129,-74.020594,-14211.954086,-76.609550
59490.486438,-1850.514855,-10140.821405,-2451.505594
59490.486748,148.041188,-9844.739029,2757.943793
59490.487058,148.041188,-5403.503377,306.438199
59490.487367,1776.494261,-5847.626942,1072.533697
59490.487677,740.205942,-8290.306550,536.266849
59490.487987,0.000000,-11103.089130,536.266849
59490.488296,-74.020594,-12731.542202,-76.609550
59490.488606,-74.020594,-11843.295072,-76.609550
59490.488916,-4145.153275,-5403.503377,0.000000
59490.489225,-74.020594,-8290.306550,1455.581446
59490.489535,-1332.370696,-5699.585753,0.000000
59490.489845,0.000000,-9104.533087,3217.601092
59490.490154,0.000000,-9548.656652,919.314598
59490.490464,296.082377,-9844.739029,1685.410096
59490.490774,-148.041188,-9474.636058,1532.190996
59490.491083,148.041188,-7476.080014,842.705048
59490.491393,2294.638420,-8290.306550,1762.019645
59490.491703,2294.638420,-11251.130318,3600.648841
59490.492012,-1554.432478,-7402.059420,-689.485948
59490.492322,-1776.494261,-12657.521608,1225.752797
59490.492632,-2442.679609,-11029.068536,-2681.334243
59490.492941,-3552.988522,-9548.656652,612.876398
59490.493251,-1258.350101,-8734.430116,0.000000
59490.493561,74.020594,-6735.874072,536.266849
59490.493870,592.164754,-6883.915261,919.314598
59490.494180,1332.370696,-8512.368333,1685.410096
59490.494489,2886.803174,-13027.624579,3600.648841
59490.494799,2294.638420,-13471.748144,4826.401637
59490.495109,-1258.350101,-9178.553681,-383.047749
59490.495418,-2960.823768,-9844.739029,612.876398
59490.495728,-74.020594,-9474.636058,-76.609550
59490.496038,-3256.906145,-4811.338623,0.000000
59490.496347,74.020594,-8438.347739,459.657299
59490.496657,0.000000,-8660.409521,536.266849
59490.496967,0.000000,-9770.718434,995.924147
59490.497276,-148.041188,-10362.883188,1149.143247
59490.497586,888.247130,-10732.986159,2451.505594
59490.497896,2516.700203,-11917.315666,4903.011187
59490.498205,-74.020594,-7994.224174,536.266849
59490.498515,-1776.494261,-8956.491898,1225.752797
59490.498825,-74.020594,-9474.636058,-76.609550
59490.499134,-3849.070898,-4811.338623,-2145.067394
59490.499444,518.144159,-7105.977043,-76.609550
59490.499754,0.000000,-7920.203579,459.657299
59490.500063,-148.041188,-10881.027347,1149.143247
59490.500373,-222.061783,-11843.295072,1302.362347
59490.500683,0.000000,-11325.150913,2451.505594
59490.500992,592.164754,-9844.739029,3677.258390
59490.501302,-74.020594,-6513.812290,-76.609550
59490.501612,-2368.659014,-6587.832884,612.876398
