#time,accel_x,accel_y,accel_z
163384.747105,-74.020594,-10658.965565,-76.609550
163384.747424,-4145.153275,-7179.997637,0.000000
163384.747743,-1702.473667,-8290.306550,-995.924147
163384.748062,-1184.329507,-9474.636058,-536.266849
163384.748381,-888.247130,-9178.553681,-306.438199
163384.748700,-666.185348,-9548.656652,-689.485948
163384.749019,-74.020594,-11251.130318,-689.485948
163384.749338,-1480.411884,-9252.574275,0.000000
163384.749657,-666.185348,-9770.718434,-919.314598
163384.749976,-370.102971,-9770.718434,-1072.533697
163384.750295,-518.144159,-9696.697840,-76.609550
163384.750614,-1776.494261,-8956.491898,0.000000
163384.750933,0.000000,-7772.162391,0.000000
163384.751252,1406.391290,-10288.862594,536.266849
163384.751571,814.226536,-9770.718434,-76.609550
163384.751890,592.164754,-8660.409521,0.000000
163384.752209,3478.967927,-10658.965565,-76.609550
163384.752528,1036.288319,-8734.430116,306.438199
163384.752847,370.102971,-8956.491898,76.609550
163384.753166,74.020594,-9252.574275,459.657299
163384.753485,0.000000,-9104.533087,306.438199
163384.753804,666.185348,-9400.615463,-76.609550
163384.754124,-1850.514855,-8438.347739,-842.705048
163384.754443,-1480.411884,-7179.997637,-2451.505594
163384.754762,0.000000,-9548.656652,919.314598
163384.755081,-1406.391290,-7179.997637,-1915.238745
163384.755400,-74.020594,-9474.636058,-76.609550
163384.755719,-1480.411884,-8956.491898,-689.485948
163384.756038,-1406.391290,-8734.430116,-459.657299
163384.756357,-1258.350101,-9400.615463,-919.314598
163384.756676,-962.267725,-10658.965565,-76.609550
163384.756995,-1554.432478,-10214.842000,-1072.533697
163384.757314,-1702.473667,-7772.162391,-3064.381992
163384.757633,592.164754,-11325.150913,536.266849
163384.757952,-74.020594,-9474.636058,-1149.143247
163384.758271,-1776.494261,-7476.080014,0.000000
163384.758590,814.226536,-9474.636058,-76.609550
163384.758909,444.123565,-9548.656652,-383.047749
163384.759228,592.164754,-9474.636058,153.219100
163384.759547,370.102971,-8882.471304,-76.609550
163384.759866,2294.638420,-9474.636058,-76.609550
163384.760185,2294.638420,-11769.274478,2068.457845
163384.760504,1702.473667,-9474.636058,-76.609550
163384.760823,-370.102971,-9104.533087,-153.219100
163384.761142,592.164754,-9548.656652,1838.629195
163384.761461,-2368.659014,-7179.997637,0.000000
163384.761781,-148.041188,-9252.574275,229.828649
163384.762100,-888.247130,-8808.450710,306.438199
163384.762419,-814.226536,-8734.430116,0.000000
163384.762738,-74.020594,-9474.636058,842.705048
163384.763057,-1776.494261,-8364.327145,-1072.533697
163384.763376,-74.020594,-10658.965565,-76.609550
163384.763695,-1554.432478,-8660.409521,-383.047749
163384.764014,-4145.153275,-7179.997637,-2145.067394
163384.764333,-2072.576638,-9844.739029,1838.629195
163384.764652,-2960.823768,-8956.491898,-1532.190996
163384.764971,-962.267725,-9474.636058,-612.876398
163384.765290,-518.144159,-9474.636058,-612.876398
163384.765609,148.041188,-9400.615463,-459.657299
163384.765928,518.144159,-9104.533087,-1225.752797
163384.766247,0.000000,-8956.491898,0.000000
163384.766566,1110.308913,-9992.780217,1762.019645
163384.766885,-74.020594,-9474.636058,-1302.362347
163384.767204,0.000000,-8660.409521,-1532.190996
163384.767523,740.205942,-11473.192101,1149.143247
163384.767842,74.020594,-9844.739029,-612.876398
163384.768161,148.041188,-9548.656652,-383.047749
163384.768480,0.000000,-9030.512492,76.609550
163384.768799,0.000000,-7772.162391,0.000000
163384.769119,0.000000,-7179.997637,0.000000
163384.769438,0.000000,-7179.997637,-1915.238745
163384.769757,-2368.659014,-7772.162391,0.000000
163384.770076,-74.020594,-9474.636058,536.266849
163384.770395,-74.020594,-9474.636058,-76.609550
163384.770714,-148.041188,-10214.842000,919.314598
163384.771033,-1850.514855,-9400.615463,-612.876398
163384.771352,-1036.288319,-9548.656652,-536.266849
163384.771671,-1332.370696,-9252.574275,-995.924147
163384.771990,-3552.988522,-7179.997637,0.000000
163384.772309,-1184.329507,-9474.636058,-76.609550
163384.772628,-370.102971,-7624.121203,-1149.143247
163384.772947,1184.329507,-9548.656652,306.438199
163384.773266,1110.308913,-8882.471304,-76.609550
163384.773585,2294.638420,-9474.636058,-1302.362347
163384.773904,1850.514855,-9696.697840,-383.047749
163384.774223,1998.556043,-9844.739029,-995.924147
163384.774542,1998.556043,-10066.800811,-919.314598
163384.774861,2294.638420,-10140.821405,-383.047749
163384.775180,1480.411884,-9252.574275,0.000000
163384.775499,5255.462188,-10510.924376,-76.609550
163384.775818,3552.988522,-8438.347739,229.828649
163384.776137,2368.659014,-7476.080014,1225.752797
163384.776457,7031.956449,-9474.636058,1225.752797
163384.776776,6439.791695,-7402.059420,-76.609550
163384.777095,5551.544565,-8512.368333,1225.752797
163384.777414,5107.421000,-8586.388927,612.876398
163384.777733,4515.256246,-9252.574275,0.000000
163384.778052,5699.585753,-11547.212695,-76.609550
163384.778371,4145.153275,-10140.821405,-766.095498
163384.778690,4959.379811,-9474.636058,-919.314598
163384.779009,7031.956449,-11251.130318,-76.609550
163384.779328,6143.709319,-8438.347739,-1455.581446
163384.779647,4737.318029,-7179.997637,0.000000
163384.779966,7031.956449,-9474.636058,-1302.362347
163384.780285,5033.400406,-10362.883188,-306.438199
163384.780604,3256.906145,-11843.295072,-766.095498
163384.780923,2072.576638,-11917.315666,-842.705048
163384.781242,3775.050304,-14211.954086,2068.457845
163384.781561,3330.926739,-10288.862594,0.000000
163384.781880,6735.874072,-10658.965565,2374.896044
163384.782199,4663.297435,-6735.874072,536.266849
163384.782518,4219.173869,-5921.647536,-76.609550
163384.782837,4663.297435,-4737.318029,-3140.991542
163384.783156,4441.235652,-6587.832884,-2221.676944
163384.783475,4219.173869,-8734.430116,-2604.724693
163384.783794,3627.009116,-11621.233289,-2145.067394
163384.784114,4071.132681,-15396.283594,-76.609550
163384.784433,1184.329507,-15988.448347,383.047749
163384.784752,3182.885551,-15396.283594,2374.896044
163384.785071,1924.535449,-11325.150913,2757.943793
163384.785390,296.082377,-4811.338623,1225.752797
163384.785709,3923.091493,-4737.318029,1149.143247
163384.786028,4367.215058,-4737.318029,1762.019645
163384.786347,1924.535449,-5255.462188,0.000000
163384.786666,1850.514855,-6809.894666,0.000000
163384.786985,-666.185348,-8364.327145,-1225.752797
163384.787304,-4737.318029,-8364.327145,0.000000
163384.787623,-4145.153275,-10807.006753,-1532.190996
163384.787942,-1110.308913,-11029.068536,0.000000
163384.788261,2886.803174,-12435.459826,-76.609550
163384.788580,1110.308913,-10955.047942,-612.876398
163384.788899,1480.411884,-11843.295072,2374.896044
163384.789218,1258.350101,-9548.656652,919.314598
163384.789537,2664.741391,-8142.265362,-76.609550
163384.789856,888.247130,-6883.915261,-2528.115143
163384.790175,-370.102971,-7550.100608,-4596.572988
163384.790494,-1258.350101,-8364.327145,-4903.011187
163384.790813,3108.864956,-12805.562797,0.000000
163384.791132,3552.988522,-12287.418637,2911.162892
163384.791452,2072.576638,-10658.965565,2681.334243
163384.791771,2294.638420,-9474.636058,536.266849
163384.792090,2294.638420,-8734.430116,-1302.362347
163384.792409,4737.318029,-9844.739029,3294.210641
163384.792728,7476.080014,-9474.636058,6128.763984
163384.793047,8216.285956,-8290.306550,5439.278036
163384.793366,1184.329507,-4811.338623,0.000000
163384.793685,-2146.597232,-7402.059420,-6511.811733
163384.794004,-3627.009116,-11547.212695,-6358.592633
163384.794323,-3034.844362,-13693.809927,-4519.963438
163384.794642,-1998.556043,-14211.954086,-2681.334243
163384.794961,-2294.638420,-12287.418637,-3753.867940
163384.795280,-888.247130,-11029.068536,-1608.800546
163384.795599,3552.988522,-7179.997637,306.438199
163384.795918,7698.141797,-5995.668130,7354.516781
163384.796237,10584.944971,-4145.153275,8503.660028
163384.796556,4737.318029,-1850.514855,4903.011187
163384.796875,1406.391290,-4441.235652,-1532.190996
163384.797194,-888.247130,-10881.027347,-1915.238745
163384.797513,-2516.700203,-13841.851115,-1532.190996
163384.797832,-6217.729913,-13989.892304,-6128.763984
163384.798151,-9548.656652,-12879.583391,-10189.070123
163384.798470,-9030.512492,-14211.954086,-9882.631924
163384.798789,-5403.503377,-13101.645173,-4519.963438
163384.799109,296.082377,-9548.656652,2757.943793
163384.799428,4293.194464,-5921.647536,6665.030833
163384.799747,4737.318029,-2146.597232,5056.230287
163384.800066,5551.544565,-3182.885551,4060.306139
163384.800385,4441.235652,-6291.750507,5745.716235
163384.800704,1406.391290,-7402.059420,6435.202183
163384.801023,-4589.276840,-7476.080014,0.000000
163384.801342,-6809.894666,-11917.315666,-3370.820191
163384.801661,-4811.338623,-14211.954086,-4979.620737
163384.801980,-4811.338623,-14063.912898,-2221.676944
163384.802299,-4219.173869,-11843.295072,-3140.991542
163384.802618,-4071.132681,-11547.212695,-3753.867940
163384.802937,-5329.482782,-8956.491898,-5745.716235
163384.803256,-3330.926739,-8734.430116,-2911.162892
163384.803575,-1554.432478,-8808.450710,1608.800546
163384.803894,-592.164754,-6883.915261,3907.087040
163384.804213,1110.308913,-4737.318029,2987.772442
163384.804532,2072.576638,-6143.709319,2834.553343
163384.804851,3997.112087,-8882.471304,5209.449386
163384.805170,4663.297435,-11251.130318,4519.963438
163384.805489,-1554.432478,-8956.491898,-1072.533697
163384.805808,-2442.679609,-11547.212695,-4979.620737
163384.806127,-5921.647536,-12805.562797,-8197.221829
163384.806447,-4811.338623,-14878.139434,-5515.887586
163384.806766,-3701.029710,-13101.645173,-2221.676944
163384.807085,-814.226536,-11029.068536,-76.609550
163384.807404,814.226536,-7772.162391,1838.629195
163384.807723,5329.482782,-5699.585753,1225.752797
163384.808042,6513.812290,-4811.338623,7354.516781
163384.808361,7920.203579,-4737.318029,7277.907231
163384.808680,2886.803174,-3034.844362,1302.362347
163384.808999,2294.638420,-9474.636058,-689.485948
163384.809318,-740.205942,-11843.295072,-2145.067394
163384.809637,-2072.576638,-14508.036463,-1225.752797
163384.809956,-4145.153275,-14137.933492,-2987.772442
163384.810275,-5033.400406,-13693.809927,-3524.039291
163384.810594,-4145.153275,-11029.068536,-5975.544884
163384.810913,0.000000,-9548.656652,-1838.629195
163384.811232,4441.235652,-7994.224174,2911.162892
163384.811551,4663.297435,-7698.141797,4826.401637
163384.811870,0.000000,-1850.514855,-3370.820191
163384.812189,4071.132681,-6809.894666,-153.219100
163384.812508,4145.153275,-8808.450710,1838.629195
163384.812827,2368.659014,-9992.780217,2757.943793
163384.813146,-1554.432478,-10362.883188,612.876398
163384.813465,-2960.823768,-10881.027347,-1991.848295
163384.813785,-74.020594,-11843.295072,-2528.115143
163384.814104,1628.453072,-11325.150913,459.657299
163384.814423,0.000000,-6587.832884,0.000000
163384.814742,-1924.535449,-7476.080014,-919.314598
163384.815061,-4145.153275,-4811.338623,-6128.763984
163384.815380,888.247130,-9326.594869,-1685.410096
163384.815699,1036.288319,-9104.533087,1149.143247
163384.816018,-1036.288319,-8808.450710,2374.896044
163384.816337,-1850.514855,-8734.430116,-76.609550
163384.816656,-74.020594,-9474.636058,-76.609550
163384.816975,2294.638420,-9918.759623,2374.896044
163384.817294,4663.297435,-8734.430116,4519.963438
163384.817613,0.000000,-6587.832884,2451.505594
163384.817932,-4145.153275,-7550.100608,-1838.629195
163384.818251,-7105.977043,-10140.821405,-4903.011187
163384.818570,-2812.782580,-13027.624579,-2834.553343
163384.818889,-2738.761985,-11547.212695,-1302.362347
163384.819208,-4811.338623,-10732.986159,-1762.019645
163384.819527,-6883.915261,-7476.080014,-4903.011187
163384.819846,-1258.350101,-9030.512492,-995.924147
163384.820165,148.041188,-6291.750507,306.438199
163384.820483,2368.659014,-7624.121203,4596.572988
163384.820802,-74.020594,-7550.100608,2374.896044
163384.821121,-74.020594,-9474.636058,-76.609550
163384.821440,0.000000,-10732.986159,-1532.190996
163384.821759,222.061783,-11769.274478,766.095498
163384.822078,-2664.741391,-11029.068536,76.609550
163384.822397,-4293.194464,-10732.986159,-612.876398
163384.822716,-3627.009116,-9548.656652,-4673.182538
163384.823035,1998.556043,-10658.965565,-383.047749
163384.823354,1184.329507,-7179.997637,2451.505594
163384.823673,222.061783,-5995.668130,0.000000
163384.823992,-296.082377,-8290.306550,-76.609550
163384.824311,0.000000,-8660.409521,-1225.752797
163384.824630,0.000000,-9992.780217,-229.828649
163384.824949,-1258.350101,-9696.697840,2221.676944
163384.825268,-2960.823768,-9104.533087,995.924147
163384.825587,-4367.215058,-7179.997637,-2451.505594
163384.825906,370.102971,-10214.842000,-689.485948
163384.826225,2960.823768,-9548.656652,2451.505594
163384.826544,1184.329507,-6587.832884,2451.505594
163384.826863,-74.020594,-8882.471304,-383.047749
163384.827182,-2368.659014,-8364.327145,-3370.820191
163384.827501,-1628.453072,-10214.842000,-4903.011187
163384.827820,-74.020594,-11843.295072,-919.314598
163384.828139,-518.144159,-11325.150913,842.705048
163384.828458,-888.247130,-10214.842000,0.000000
163384.828777,2294.638420,-9474.636058,-1302.362347
163384.829096,4959.379811,-10214.842000,2374.896044
163384.829415,5847.626942,-8586.388927,4290.134789
163384.829734,3182.885551,-6809.894666,3064.381992
163384.830053,518.144159,-8290.306550,-76.609550
163384.830372,0.000000,-9548.656652,-3370.820191
163384.830691,0.000000,-11621.233289,-1225.752797
163384.831010,-74.020594,-12435.459826,842.705048
163384.831329,-3627.009116,-12435.459826,-76.609550
163384.831648,-4589.276840,-9548.656652,-3677.258390
163384.831967,1702.473667,-9474.636058,-2221.676944
163384.832286,4441.235652,-9252.574275,2834.553343
163384.832605,2960.823768,-6957.935855,3677.258390
163384.832924,148.041188,-6291.750507,842.705048
163384.833243,0.000000,-7772.162391,-1838.629195
163384.833562,1110.308913,-10658.965565,-2528.115143
163384.833881,-1776.494261,-11917.315666,459.657299
163384.834200,-2368.659014,-11325.150913,1838.629195
163384.834519,-3627.009116,-11843.295072,-1302.362347
163384.834838,-4737.318029,-9548.656652,-3677.258390
163384.835157,962.267725,-10510.924376,-1072.533697
163384.835476,2072.576638,-8364.327145,1991.848295
163384.835795,74.020594,-5921.647536,1378.971896
163384.836114,-1850.514855,-6513.812290,-2145.067394
163384.836433,-74.020594,-8882.471304,-3447.429741
163384.836752,740.205942,-10362.883188,-689.485948
163384.837071,-2368.659014,-8364.327145,0.000000
163384.837390,-3552.988522,-10140.821405,919.314598
163384.837709,-3478.967927,-10658.965565,-995.924147
163384.838028,0.000000,-9548.656652,0.000000
163384.838347,2812.782580,-8882.471304,2145.067394
163384.838666,2072.576638,-7476.080014,2528.115143
163384.838985,-1184.329507,-6735.874072,0.000000
163384.839304,-3182.885551,-5773.606348,-4060.306139
163384.839623,-1258.350101,-8882.471304,-2528.115143
163384.839942,-74.020594,-11843.295072,-689.485948
163384.840261,-4737.318029,-8660.409521,0.000000
163384.840580,-3552.988522,-9548.656652,-2451.505594
163384.840899,-74.020594,-12435.459826,2374.896044
163384.841218,1332.370696,-9844.739029,2451.505594
163384.841537,2812.782580,-8438.347739,3217.601092
163384.841856,-444.123565,-6809.894666,766.095498
163384.842175,-3627.009116,-7179.997637,-3753.867940
163384.842494,-4367.215058,-8734.430116,-5592.497135
163384.842813,-370.102971,-13027.624579,-1915.238745
163384.843132,-2738.761985,-10140.821405,-995.924147
163384.843450,-2368.659014,-9548.656652,0.000000
163384.843769,-2368.659014,-9548.656652,0.000000
163384.844088,4663.297435,-11251.130318,-76.609550
163384.844407,5033.400406,-8364.327145,3983.696590
163384.844726,5699.585753,-6957.935855,4213.525239
163384.845045,1554.432478,-7105.977043,1225.752797
163384.845364,-1184.329507,-8142.265362,-995.924147
163384.845683,-814.226536,-11473.192101,-3064.381992
163384.846002,-74.020594,-12953.603985,-229.828649
163384.846321,-666.185348,-13027.624579,-76.609550
163384.846640,-2442.679609,-9992.780217,-1915.238745
163384.846959,0.000000,-9548.656652,-3064.381992
163384.847278,5847.626942,-10658.965565,1762.019645
163384.847597,4589.276840,-7920.203579,4060.306139
163384.847916,2146.597232,-5403.503377,2451.505594
163384.848235,-814.226536,-5699.585753,-1762.019645
163384.848554,592.164754,-9696.697840,-1072.533697
163384.848873,592.164754,-11917.315666,0.000000
163384.849192,-1184.329507,-11917.315666,1838.629195
163384.849511,-2442.679609,-11843.295072,-153.219100
163384.849830,-3923.091493,-9770.718434,-3140.991542
163384.850149,-1776.494261,-8364.327145,-4596.572988
163384.850468,4071.132681,-10362.883188,1762.019645
163384.850787,2294.638420,-7772.162391,2145.067394
163384.851106,-592.164754,-5921.647536,-842.705048
163384.851425,-2146.597232,-7846.182985,-3140.991542
163384.851744,888.247130,-10732.986159,-1378.971896
163384.852063,-3256.906145,-9548.656652,0.000000
163384.852382,-1776.494261,-9844.739029,1838.629195
163384.852701,-2146.597232,-10510.924376,-76.609550
163384.853020,-74.020594,-11843.295072,-689.485948
163384.853339,1184.329507,-7772.162391,0.000000
163384.853658,3775.050304,-9326.594869,4290.134789
163384.853977,0.000000,-6365.771101,919.314598
163384.854296,-3775.050304,-7179.997637,-3064.381992
163384.854615,-3775.050304,-9030.512492,-4979.620737
163384.854934,-1480.411884,-10140.821405,-1608.800546
163384.855253,-3256.906145,-9844.739029,0.000000
163384.855572,-3552.988522,-9548.656652,0.000000
163384.855891,-3552.988522,-8364.327145,-1225.752797
163384.856210,3182.885551,-11177.109724,2374.896044
163384.856529,1184.329507,-7179.997637,2451.505594
163384.856848,1998.556043,-7179.997637,3294.210641
163384.857167,-2294.638420,-6883.915261,-229.828649
163384.857486,-3034.844362,-8882.471304,-3447.429741
163384.857805,-2442.679609,-10955.047942,-4979.620737
163384.858124,-2442.679609,-12139.377449,-1608.800546
163384.858443,-4663.297435,-10658.965565,-1302.362347
163384.858762,-4737.318029,-8364.327145,-3064.381992
163384.859081,0.000000,-10140.821405,-1225.752797
163384.859400,6143.709319,-12731.542202,4826.401637
163384.859719,3108.864956,-7476.080014,3677.258390
163384.860038,1332.370696,-6513.812290,2374.896044
163384.860357,-1036.288319,-7179.997637,-1532.190996
163384.860676,-888.247130,-9400.615463,-3140.991542
163384.860995,-370.102971,-10066.800811,-2221.676944
163384.861314,-74.020594,-13619.789333,2987.772442
163384.861633,-2442.679609,-9770.718434,-383.047749
163384.861952,-2072.576638,-8956.491898,-1532.190996
163384.862271,0.000000,-7772.162391,0.000000
163384.862590,3552.988522,-7772.162391,4903.011187
163384.862909,3182.885551,-6883.915261,2987.772442
163384.863228,-518.144159,-6587.832884,536.266849
163384.863547,-1702.473667,-7920.203579,-2757.943793
163384.863866,-1554.432478,-8956.491898,-3140.991542
163384.864185,0.000000,-10732.986159,0.000000
163384.864504,-4145.153275,-9548.656652,0.000000
163384.864823,-2738.761985,-11251.130318,-1072.533697
163384.865142,2294.638420,-11843.295072,-689.485948
163384.865461,1184.329507,-9548.656652,0.000000
163384.865780,3034.844362,-8882.471304,1762.019645
163384.866099,296.082377,-6735.874072,536.266849
163384.866417,-2294.638420,-7179.997637,-3064.381992
163384.866736,-1184.329507,-9474.636058,-4443.353888
163384.867055,2294.638420,-13619.789333,-1302.362347
163384.867374,-1184.329507,-10732.986159,306.438199
163384.867693,-2516.700203,-9474.636058,0.000000
163384.868012,-1480.411884,-10288.862594,-2068.457845
163384.868331,2664.741391,-10362.883188,1608.800546
163384.868650,4145.153275,-8364.327145,4903.011187
163384.868969,592.164754,-4811.338623,2757.943793
163384.869288,2072.576638,-7105.977043,2145.067394
163384.869607,-370.102971,-7994.224174,-1608.800546
163384.869926,-592.164754,-9548.656652,-4290.134789
163384.870245,-74.020594,-11843.295072,-76.609550
163384.870564,-3256.906145,-10584.944971,0.000000
163384.870883,-4145.153275,-10584.944971,-2145.067394
163384.871202,-1776.494261,-11103.089130,-1838.629195
163384.871521,2516.700203,-10436.903782,1838.629195
163384.871840,3997.112087,-9178.553681,4060.306139
163384.872159,-1776.494261,-5995.668130,1225.752797
163384.872478,-3034.844362,-7402.059420,-2145.067394
163384.872797,-1258.350101,-9474.636058,-3140.991542
163384.873116,-3256.906145,-9548.656652,-4290.134789
163384.873435,-814.226536,-11547.212695,536.266849
163384.873754,-3997.112087,-9844.739029,-383.047749
163384.874073,-2590.720797,-9844.739029,-1608.800546
163384.874392,1628.453072,-10436.903782,-459.657299
163384.874711,4293.194464,-9474.636058,3600.648841
163384.875030,2812.782580,-7550.100608,3600.648841
163384.875349,-2072.576638,-4811.338623,-1762.019645
163384.875668,-4737.318029,-7476.080014,-4290.134789
163384.875987,-1702.473667,-11473.192101,-3370.820191
163384.876306,-4145.153275,-9548.656652,0.000000
163384.876625,-2590.720797,-10732.986159,229.828649
163384.876944,-2220.617826,-10140.821405,-995.924147
163384.877263,740.205942,-10288.862594,-306.438199
163384.877582,4367.215058,-8660.409521,2374.896044
163384.877901,5847.626942,-7698.141797,4519.963438
163384.878220,1702.473667,-8290.306550,4213.525239
163384.878539,-1258.350101,-6809.894666,-1915.238745
163384.878858,-2738.761985,-8586.388927,-3140.991542
163384.879177,-370.102971,-12361.439231,-76.609550
163384.879496,-3552.988522,-10140.821405,0.000000
163384.879815,-4219.173869,-10362.883188,-995.924147
163384.880134,-3775.050304,-9770.718434,-3064.381992
163384.880453,222.061783,-10288.862594,-612.876398
163384.880772,3478.967927,-7698.141797,2374.896044
163384.881091,4663.297435,-8882.471304,4213.525239
163384.881410,-1258.350101,-6513.812290,-1302.362347
163384.881729,-3034.844362,-7254.018232,-4366.744339
163384.882048,-1998.556043,-8956.491898,-4060.306139
163384.882367,2294.638420,-13619.789333,2374.896044
163384.882686,-2368.659014,-9548.656652,153.219100
163384.883005,-2442.679609,-9474.636058,-1762.019645
163384.883324,740.205942,-10362.883188,-1608.800546
163384.883643,4515.256246,-11029.068536,1762.019645
163384.883962,4737.318029,-8882.471304,3983.696590
163384.884281,1406.391290,-7698.141797,1762.019645
163384.884600,-1036.288319,-8068.244768,-2451.505594
163384.884919,-74.020594,-11251.130318,-3140.991542
163384.885238,518.144159,-10658.965565,-1991.848295
163384.885557,1702.473667,-11843.295072,3600.648841
163384.885876,-2368.659014,-9178.553681,459.657299
163384.886195,-814.226536,-9178.553681,-1072.533697
163384.886514,2516.700203,-9548.656652,459.657299
163384.886833,4737.318029,-8956.491898,4903.011187
163384.887152,2368.659014,-5995.668130,4903.011187
163384.887471,-1332.370696,-6883.915261,0.000000
163384.887790,-2812.782580,-9326.594869,-2834.553343
163384.888109,-2442.679609,-10362.883188,-4826.401637
163384.888428,-4441.235652,-10066.800811,-3907.087040
163384.888747,-2442.679609,-12435.459826,-1302.362347
163384.889065,-4219.173869,-9770.718434,-2298.286494
163384.889384,-222.061783,-10214.842000,-1378.971896
163384.889703,3997.112087,-10066.800811,2757.943793
163384.890022,4737.318029,-8660.409521,7354.516781
163384.890341,296.082377,-4811.338623,153.219100
163384.890660,-3552.988522,-6587.832884,-1838.629195
163384.890979,-1258.350101,-11251.130318,-3753.867940
163384.891298,-1702.473667,-11547.212695,-1302.362347
163384.891617,-3034.844362,-8438.347739,0.000000
163384.891936,-2442.679609,-11547.212695,-229.828649
163384.892255,-2516.700203,-10140.821405,-2451.505594
163384.892574,1258.350101,-10436.903782,-229.828649
163384.892893,3775.050304,-9104.533087,3753.867940
163384.893212,1332.370696,-5403.503377,3830.477490
163384.893531,-1258.350101,-5625.565159,0.000000
163384.893850,-2368.659014,-7179.997637,-1532.190996
163384.894169,-1184.329507,-9548.656652,0.000000
163384.894488,-370.102971,-11251.130318,2374.896044
163384.894807,-4737.318029,-7179.997637,0.000000
163384.895126,-2738.761985,-10214.842000,-612.876398
163384.895445,-1110.308913,-10436.903782,-1455.581446
163384.895764,1554.432478,-10732.986159,1455.581446
163384.896083,3182.885551,-8882.471304,2374.896044
163384.896402,-74.020594,-7994.224174,-76.609550
163384.896721,-4737.318029,-6957.935855,-4213.525239
163384.897040,-3627.009116,-9178.553681,-6511.811733
163384.897359,-2368.659014,-11325.150913,-2298.286494
163384.897678,592.164754,-11769.274478,2834.553343
163384.897997,-3404.947333,-8364.327145,-1838.629195
163384.898316,-1036.288319,-9104.533087,-2068.457845
163384.898635,3108.864956,-9844.739029,76.609550
163384.898954,6513.812290,-9696.697840,4060.306139
163384.899273,6735.874072,-7105.977043,3600.648841
163384.899592,1184.329507,-7031.956449,1762.019645
163384.899911,-74.020594,-7105.977043,-2834.553343
163384.900230,0.000000,-9548.656652,-2451.505594
163384.900549,0.000000,-11399.171507,-2451.505594
163384.900868,-3552.988522,-9548.656652,0.000000
163384.901187,-1998.556043,-10658.965565,-1608.800546
163384.901506,-444.123565,-10732.986159,-1762.019645
163384.901825,2590.720797,-10214.842000,1378.971896
163384.902144,3256.906145,-6883.915261,2911.162892
163384.902463,1924.535449,-6735.874072,1225.752797
163384.902782,-3552.988522,-5403.503377,-2451.505594
163384.903101,-222.061783,-10436.903782,-3140.991542
163384.903420,1110.308913,-14211.954086,-76.609550
163384.903739,-2960.823768,-8364.327145,0.000000
163384.904058,-3627.009116,-9178.553681,-2834.553343
163384.904377,-3256.906145,-10140.821405,-3140.991542
163384.904696,666.185348,-10955.047942,-1149.143247
163384.905015,4367.215058,-10140.821405,2681.334243
163384.905334,4663.297435,-9474.636058,4213.525239
163384.905653,-666.185348,-6735.874072,-229.828649
163384.905972,-3256.906145,-6883.915261,-3983.696590
163384.906291,-3182.885551,-7772.162391,-4903.011187
163384.906610,-1776.494261,-10732.986159,919.314598
163384.906929,-1258.350101,-8882.471304,-76.609550
163384.907248,-2146.597232,-10066.800811,-383.047749
163384.907567,148.041188,-10066.800811,-229.828649
163384.907886,3478.967927,-10066.800811,2834.553343
163384.908205,3997.112087,-7994.224174,4826.401637
163384.908524,0.000000,-6291.750507,3064.381992
163384.908843,-3627.009116,-6365.771101,-2987.772442
163384.909162,-3404.947333,-9844.739029,-4290.134789
163384.909481,-1702.473667,-11843.295072,-995.924147
163384.909800,-3849.070898,-9844.739029,0.000000
163384.910119,-5477.523971,-8660.409521,-1838.629195
163384.910438,-3627.009116,-9178.553681,-3447.429741
163384.910757,0.000000,-9844.739029,0.000000
163384.911076,1406.391290,-7179.997637,2451.505594
163384.911395,4071.132681,-8290.306550,4826.401637
163384.911714,-592.164754,-7179.997637,1532.190996
163384.912032,-2146.597232,-7550.100608,-3064.381992
163384.912351,-2072.576638,-9992.780217,-2681.334243
163384.912670,-1850.514855,-11103.089130,-612.876398
163384.912989,-3552.988522,-10436.903782,0.000000
163384.913308,-3627.009116,-10658.965565,-2221.676944
163384.913627,-1554.432478,-10288.862594,-2145.067394
163384.913946,2294.638420,-9770.718434,536.266849
163384.914265,2368.659014,-7772.162391,2451.505594
163384.914585,3478.967927,-7105.977043,2374.896044
163384.914904,-1480.411884,-5847.626942,-2298.286494
163384.915223,0.000000,-9252.574275,-2451.505594
163384.915542,1998.556043,-11399.171507,306.438199
163384.915861,1036.288319,-10362.883188,2987.772442
163384.916180,-1702.473667,-10436.903782,1685.410096
163384.916500,-1628.453072,-9474.636058,-383.047749
163384.916819,2294.638420,-11547.212695,-1915.238745
163384.917138,2368.659014,-9548.656652,1608.800546
163384.917457,1628.453072,-7179.997637,612.876398
163384.917776,-74.020594,-9474.636058,-76.609550
163384.918095,-666.185348,-8290.306550,-4290.134789
163384.918414,-74.020594,-11251.130318,-383.047749
163384.918734,-3478.967927,-7179.997637,0.000000
163384.919053,-3552.988522,-8660.409521,1225.752797
163384.919372,-814.226536,-9474.636058,-612.876398
163384.919691,1184.329507,-9548.656652,76.609550
163384.920010,4663.297435,-10288.862594,2374.896044
163384.920329,3478.967927,-9474.636058,4826.401637
163384.920649,-74.020594,-7105.977043,-76.609550
163384.920968,-3627.009116,-7402.059420,-5592.497135
163384.921287,-1850.514855,-11177.109724,-5592.497135
163384.921606,-74.020594,-12509.480420,-2374.896044
163384.921925,-370.102971,-11843.295072,-76.609550
163384.922244,-1258.350101,-12435.459826,-76.609550
163384.922564,-74.020594,-11843.295072,-1915.238745
163384.922883,1184.329507,-9548.656652,1225.752797
163384.923202,6513.812290,-9252.574275,5209.449386
163384.923521,4663.297435,-5477.523971,4519.963438
163384.923840,296.082377,-5403.503377,2451.505594
163384.924159,-2072.576638,-5995.668130,-2834.553343
163384.924478,-1258.350101,-9696.697840,-1685.410096
163384.924798,-2146.597232,-11251.130318,76.609550
163384.925117,-3552.988522,-10362.883188,153.219100
163384.925436,-3034.844362,-11843.295072,-383.047749
163384.925755,-888.247130,-11473.192101,-383.047749
163384.926074,2294.638420,-10658.965565,2374.896044
163384.926393,2294.638420,-9474.636058,4213.525239
163384.926713,-666.185348,-4959.379811,-383.047749
163384.927032,-2368.659014,-7772.162391,-1838.629195
163384.927351,-2072.576638,-9326.594869,-3983.696590
163384.927670,-148.041188,-11695.253884,-612.876398
163384.927989,-1480.411884,-11325.150913,689.485948
163384.928308,-3552.988522,-10140.821405,-2451.505594
163384.928628,-4145.153275,-9548.656652,-4903.011187
163384.928947,592.164754,-11029.068536,-536.266849
163384.929266,3256.906145,-9548.656652,3064.381992
163384.929585,4219.173869,-8290.306550,3524.039291
163384.929904,-666.185348,-7105.977043,-76.609550
163384.930223,592.164754,-9992.780217,-76.609550
163384.930542,222.061783,-9696.697840,-1225.752797
163384.930862,592.164754,-10140.821405,1685.410096
163384.931181,-592.164754,-9252.574275,0.000000
163384.931500,-370.102971,-11251.130318,-76.609550
163384.931819,-222.061783,-9844.739029,-2374.896044
163384.932138,3478.967927,-11843.295072,2681.334243
163384.932457,1332.370696,-7179.997637,1225.752797
163384.932777,-370.102971,-5773.606348,-76.609550
163384.933096,-2294.638420,-9474.636058,-2528.115143
163384.933415,-2664.741391,-10140.821405,-5132.839837
163384.933734,0.000000,-11843.295072,-1532.190996
163384.934053,-888.247130,-9770.718434,1838.629195
163384.934372,-2516.700203,-8956.491898,-76.609550
163384.934692,-74.020594,-9326.594869,-2528.115143
163384.935011,2590.720797,-10658.965565,383.047749
163384.935330,3552.988522,-8956.491898,4903.011187
163384.935649,3478.967927,-7105.977043,2681.334243
163384.935968,-1776.494261,-5995.668130,-1685.410096
163384.936287,-2368.659014,-8364.327145,-2374.896044
163384.936607,-962.267725,-11621.233289,-2374.896044
163384.936926,-1554.432478,-12065.356855,-459.657299
163384.937245,-3182.885551,-10510.924376,-689.485948
163384.937564,-3478.967927,-10214.842000,-2145.067394
163384.937883,-2368.659014,-7476.080014,-3294.210641
163384.938202,2886.803174,-11251.130318,2374.896044
163384.938521,2886.803174,-6365.771101,2987.772442
163384.938841,1184.329507,-5403.503377,1685.410096
163384.939160,0.000000,-5403.503377,-1838.629195
163384.939479,3478.967927,-11843.295072,-1302.362347
163384.939798,1776.494261,-11029.068536,689.485948
163384.940117,-370.102971,-11251.130318,1838.629195
163384.940436,-3478.967927,-10288.862594,-995.924147
163384.940756,-4219.173869,-10288.862594,-1915.238745
163384.941075,-74.020594,-11103.089130,-1378.971896
163384.941394,4071.132681,-11103.089130,3600.648841
163384.941713,1998.556043,-7105.977043,3600.648841
163384.942032,-1258.350101,-6513.812290,-1455.581446
163384.942351,-3256.906145,-5995.668130,-4903.011187
163384.942671,-74.020594,-9474.636058,-2528.115143
163384.942990,-1184.329507,-10140.821405,1225.752797
163384.943309,-2442.679609,-9474.636058,1378.971896
163384.943628,-2812.782580,-8882.471304,-1149.143247
163384.943947,592.164754,-11103.089130,995.924147
163384.944266,2516.700203,-10732.986159,2451.505594
163384.944585,3108.864956,-9474.636058,2451.505594
163384.944905,962.267725,-8290.306550,1149.143247
163384.945224,-1258.350101,-8882.471304,-4979.620737
163384.945543,-1702.473667,-8956.491898,-6128.763984
163384.945862,2294.638420,-12435.459826,-383.047749
163384.946181,962.267725,-10658.965565,2451.505594
163384.946500,-1406.391290,-9252.574275,229.828649
163384.946820,-1480.411884,-9178.553681,-1608.800546
163384.947139,2886.803174,-11695.253884,1762.019645
163384.947458,2960.823768,-7772.162391,3830.477490
163384.947777,3552.988522,-8216.285956,4673.182538
163384.948096,-666.185348,-6365.771101,536.266849
163384.948415,-2146.597232,-6661.853478,-3907.087040
163384.948735,-1776.494261,-9548.656652,0.000000
163384.949054,-2368.659014,-10436.903782,0.000000
163384.949373,-3923.091493,-10436.903782,229.828649
163384.949692,-4663.297435,-9474.636058,-1455.581446
163384.950011,-1702.473667,-9918.759623,-1532.190996
163384.950330,1702.473667,-8808.450710,-76.609550
163384.950649,1702.473667,-9474.636058,3600.648841
163384.950969,-1850.514855,-5551.544565,-1608.800546
163384.951288,-3849.070898,-6143.709319,-4366.744339
163384.951607,-2368.659014,-8660.409521,-4979.620737
163384.951926,0.000000,-10732.986159,0.000000
163384.952245,-962.267725,-11251.130318,612.876398
163384.952564,-4145.153275,-10436.903782,-1608.800546
163384.952884,-2960.823768,-10288.862594,-3217.601092
163384.953203,1110.308913,-9622.677246,-2221.676944
163384.953522,4219.173869,-9030.512492,2757.943793
163384.953841,3552.988522,-6587.832884,3983.696590
163384.954160,814.226536,-6735.874072,1378.971896
163384.954479,1702.473667,-8882.471304,-383.047749
163384.954799,0.000000,-7772.162391,-1838.629195
163384.955118,-666.185348,-9548.656652,612.876398
163384.955437,-2072.576638,-10362.883188,1532.190996
163384.955756,-2886.803174,-9770.718434,-919.314598
163384.956075,-518.144159,-10214.842000,-689.485948
163384.956394,4663.297435,-10658.965565,2374.896044
163384.956714,1628.453072,-7772.162391,2451.505594
163384.957033,-592.164754,-7031.956449,0.000000
163384.957352,-2294.638420,-7105.977043,-3600.648841
163384.957671,-296.082377,-9770.718434,-2528.115143
163384.957990,0.000000,-11029.068536,0.000000
163384.958309,-2886.803174,-9548.656652,0.000000
163384.958628,-4737.318029,-10140.821405,-1225.752797
163384.958948,-3034.844362,-10066.800811,-2681.334243
163384.959267,814.226536,-9548.656652,-2451.505594
163384.959586,6439.791695,-10658.965565,3294.210641
163384.959905,2960.823768,-7179.997637,2911.162892
163384.960224,-518.144159,-6809.894666,-229.828649
163384.960543,-1184.329507,-8290.306550,-3524.039291
163384.960863,1184.329507,-10955.047942,-1838.629195
163384.961182,1554.432478,-11399.171507,1149.143247
163384.961501,-2960.823768,-9548.656652,612.876398
163384.961820,-1924.535449,-10436.903782,0.000000
163384.962139,2294.638420,-11843.295072,1149.143247
163384.962458,2368.659014,-7179.997637,0.000000
163384.962778,4663.297435,-7550.100608,4060.306139
163384.963097,222.061783,-5995.668130,689.485948
163384.963416,-2146.597232,-6883.915261,-3370.820191
163384.963735,-1406.391290,-10066.800811,-3524.039291
163384.964054,74.020594,-12435.459826,-76.609550
163384.964373,-1850.514855,-11251.130318,536.266849
163384.964692,-6069.688724,-7476.080014,-3677.258390
163384.965012,-4737.318029,-9548.656652,-2145.067394
163384.965331,814.226536,-10658.965565,-76.609550
163384.965650,1184.329507,-7179.997637,2451.505594
163384.965969,2590.720797,-7105.977043,3370.820191
163384.966288,-2072.576638,-6217.729913,-1225.752797
163384.966607,-3108.864956,-7772.162391,-3524.039291
163384.966927,-1554.432478,-9770.718434,-2987.772442
163384.967246,-74.020594,-11251.130318,-76.609550
163384.967565,-2886.803174,-10362.883188,-76.609550
163384.967884,-5625.565159,-8364.327145,-2451.505594
163384.968203,-1480.411884,-10732.986159,-1991.848295
163384.968522,4219.173869,-11843.295072,3600.648841
163384.968842,592.164754,-7179.997637,1838.629195
163384.969161,518.144159,-6217.729913,459.657299
163384.969480,-814.226536,-7105.977043,-2987.772442
163384.969799,740.205942,-10362.883188,-2298.286494
163384.970118,1998.556043,-11251.130318,1149.143247
163384.970437,-74.020594,-11843.295072,3524.039291
163384.970757,-3034.844362,-10658.965565,-1302.362347
163384.971076,-4737.318029,-9548.656652,-3064.381992
163384.971395,-370.102971,-8882.471304,-1532.190996
163384.971714,5477.523971,-11843.295072,5898.935335
163384.972033,1776.494261,-5995.668130,2604.724693
163384.972352,-1850.514855,-6143.709319,-1685.410096
163384.972671,-3627.009116,-8586.388927,-4213.525239
163384.972991,-1776.494261,-10140.821405,-2221.676944
163384.973310,-1110.308913,-10658.965565,612.876398
163384.973629,-2516.700203,-10510.924376,1072.533697
163384.973948,-3330.926739,-9326.594869,-76.609550
163384.974267,-74.020594,-10658.965565,-76.609550
163384.974586,2738.761985,-8734.430116,1915.238745
163384.974906,5477.523971,-9474.636058,4826.401637
163384.975225,-1184.329507,-6291.750507,-612.876398
163384.975544,-2294.638420,-7031.956449,-4213.525239
163384.975863,518.144159,-11029.068536,-3370.820191
163384.976182,2368.659014,-11621.233289,612.876398
163384.976501,-2368.659014,-9548.656652,612.876398
163384.976821,-3627.009116,-10436.903782,-1838.629195
163384.977140,-2368.659014,-10140.821405,-1838.629195
163384.977459,4367.215058,-11251.130318,2068.457845
163384.977778,5847.626942,-7698.141797,3600.648841
163384.978097,4663.297435,-7698.141797,5439.278036
163384.978416,592.164754,-6291.750507,612.876398
163384.978735,-370.102971,-7624.121203,-2374.896044
163384.979055,-962.267725,-10214.842000,-1302.362347
163384.979374,-2072.576638,-10732.986159,2451.505594
163384.979693,-3552.988522,-9548.656652,0.000000
163384.980012,-4737.318029,-9548.656652,-1838.629195
163384.980331,-1184.329507,-10288.862594,-766.095498
163384.980650,3330.926739,-10584.944971,4060.306139
163384.980970,1406.391290,-5847.626942,0.000000
163384.981289,-74.020594,-7105.977043,-76.609550
163384.981608,-3182.885551,-7402.059420,-4903.011187
163384.981927,-1776.494261,-10732.986159,-4749.792088
163384.982246,-370.102971,-12731.542202,-995.924147
163384.982565,-2960.823768,-11029.068536,383.047749
163384.982885,-4515.256246,-9696.697840,-2298.286494
163384.983204,-2960.823768,-8956.491898,-3064.381992
163384.983523,0.000000,-9548.656652,0.000000
163384.983842,5921.647536,-10066.800811,4903.011187
163384.984161,1406.391290,-3923.091493,0.000000
163384.984480,-814.226536,-6587.832884,-306.438199
163384.984799,-1332.370696,-7994.224174,-2911.162892
163384.985119,-518.144159,-10510.924376,-2298.286494
163384.985438,-74.020594,-11843.295072,-76.609550
163384.985757,-1850.514855,-10658.965565,1608.800546
163384.986076,-3182.885551,-9400.615463,-995.924147
163384.986395,-74.020594,-10658.965565,-383.047749
163384.986714,1776.494261,-7772.162391,1915.238745
163384.987034,2368.659014,-5995.668130,3830.477490
163384.987353,-1998.556043,-4219.173869,0.000000
163384.987672,-1776.494261,-7031.956449,-3140.991542
163384.987991,-962.267725,-10066.800811,-2757.943793
163384.988310,-666.185348,-11769.274478,-383.047749
163384.988629,-2442.679609,-11251.130318,-1302.362347
163384.988949,-5403.503377,-10584.944971,-689.485948
163384.989268,-2442.679609,-10658.965565,-3753.867940
163384.989587,0.000000,-10140.821405,0.000000
163384.989906,4737.318029,-8956.491898,1225.752797
163384.990225,0.000000,-4219.173869,612.876398
163384.990544,-1258.350101,-7105.977043,-1762.019645
163384.990864,-2294.638420,-8438.347739,-4060.306139
163384.991183,-888.247130,-11251.130318,-2145.067394
163384.991502,-962.267725,-11251.130318,536.266849
163384.991821,-1480.411884,-11251.130318,842.705048
163384.992140,-3552.988522,-8364.327145,0.000000
163384.992459,1628.453072,-9918.759623,1072.533697
163384.992778,5329.482782,-8956.491898,4903.011187
163384.993098,2886.803174,-5699.585753,1838.629195
163384.993417,-74.020594,-6513.812290,-76.609550
163384.993736,-2368.659014,-8142.265362,-3983.696590
163384.994055,-592.164754,-11621.233289,-3447.429741
163384.994374,1110.308913,-13545.768739,1532.190996
163384.994693,-370.102971,-13619.789333,2374.896044
163384.995013,-3627.009116,-10140.821405,-383.047749
163384.995332,-1406.391290,-9474.636058,-1302.362347
163384.995651,3478.967927,-9474.636058,-76.609550
163384.995970,4737.318029,-7179.997637,4290.134789
163384.996289,4367.215058,-5921.647536,1762.019645
163384.996608,-1332.370696,-7402.059420,-919.314598
163384.996928,-3108.864956,-8586.388927,-4673.182538
163384.997247,-2886.803174,-11399.171507,-3830.477490
163384.997566,-2516.700203,-11547.212695,-383.047749
163384.997885,-3552.988522,-10140.821405,0.000000
163384.998204,-3034.844362,-10288.862594,-1685.410096
163384.998523,1184.329507,-10436.903782,-383.047749
163384.998842,4737.318029,-9548.656652,2374.896044
163384.999162,2368.659014,-5403.503377,3064.381992
163384.999481,-74.020594,-5403.503377,306.438199
163384.999800,-74.020594,-8882.471304,-3140.991542
163385.000119,0.000000,-10584.944971,-3140.991542
163385.000438,-1184.329507,-10732.986159,-1225.752797
163385.000757,-74.020594,-13619.789333,2374.896044
163385.001077,-4145.153275,-9844.739029,0.000000
163385.001396,-1998.556043,-9770.718434,-2451.505594
163385.001715,2294.638420,-10362.883188,766.095498
163385.002034,4219.173869,-8586.388927,3983.696590
163385.002353,1184.329507,-5699.585753,2604.724693
163385.002672,-3256.906145,-5699.585753,-1838.629195
163385.002992,-2738.761985,-8586.388927,-2528.115143
163385.003311,-1850.514855,-9918.759623,-3140.991542
163385.003630,-2960.823768,-9844.739029,612.876398
163385.003949,-1258.350101,-11547.212695,-76.609550
163385.004268,-3849.070898,-9178.553681,-919.314598
163385.004587,-814.226536,-9548.656652,-766.095498
163385.004906,1776.494261,-9326.594869,2221.676944
163385.005226,1776.494261,-7254.018232,4213.525239
163385.005545,-1184.329507,-6587.832884,153.219100
163385.005864,-2442.679609,-8660.409521,-3370.820191
163385.006183,-74.020594,-11843.295072,-3140.991542
163385.006502,-814.226536,-11325.150913,-1072.533697
163385.006821,-2368.659014,-10436.903782,0.000000
163385.007141,-666.185348,-9474.636058,-1302.362347
163385.007460,-1184.329507,-9844.739029,-1685.410096
163385.007779,3775.050304,-10362.883188,1915.238745
163385.008098,5773.606348,-8956.491898,4903.011187
163385.008417,3701.029710,-7920.203579,5822.325785
163385.008736,-1480.411884,-6143.709319,-2451.505594
163385.009056,-4737.318029,-8364.327145,-4290.134789
163385.009375,-1332.370696,-12435.459826,-1915.238745
163385.009694,-1850.514855,-13619.789333,1762.019645
163385.010013,-4737.318029,-7772.162391,0.000000
163385.010332,-1258.350101,-9474.636058,-1302.362347
163385.010651,1184.329507,-9918.759623,689.485948
163385.010971,4219.173869,-8586.388927,3600.648841
163385.011290,3552.988522,-6069.688724,3600.648841
163385.011609,0.000000,-5551.544565,1225.752797
163385.011928,-3256.906145,-6883.915261,-3983.696590
163385.012247,-1628.453072,-10881.027347,-3140.991542
163385.012566,-296.082377,-13101.645173,1455.581446
163385.012885,-1258.350101,-11843.295072,-76.609550
163385.013205,-6513.812290,-8364.327145,-3677.258390
163385.013524,-962.267725,-10362.883188,-2987.772442
163385.013843,3404.947333,-9844.739029,0.000000
163385.014162,5551.544565,-9104.533087,3830.477490
163385.014481,2590.720797,-5255.462188,1762.019645
163385.014800,-962.267725,-6957.935855,-2528.115143
163385.015120,-2516.700203,-8068.244768,-4213.525239
163385.015439,-2368.659014,-9548.656652,-2451.505594
163385.015758,1110.308913,-12435.459826,2068.457845
163385.016077,-74.020594,-11843.295072,2374.896044
163385.016396,-3552.988522,-8364.327145,0.000000
163385.016715,1998.556043,-9770.718434,0.000000
163385.017034,4737.318029,-9104.533087,3140.991542
163385.017354,3256.906145,-6661.853478,3447.429741
163385.017673,-1258.350101,-4589.276840,-1455.581446
163385.017992,-1554.432478,-7254.018232,-2528.115143
163385.018311,-74.020594,-11843.295072,-3140.991542
163385.018630,-74.020594,-12435.459826,-76.609550
163385.018949,-2738.761985,-13027.624579,-76.609550
163385.019268,-2442.679609,-10658.965565,-1302.362347
163385.019588,-1036.288319,-11103.089130,-2681.334243
163385.019907,2368.659014,-9548.656652,612.876398
163385.020226,3997.112087,-8882.471304,2757.943793
163385.020545,1554.432478,-6513.812290,2911.162892
163385.020864,-4441.235652,-5107.421000,-2451.505594
163385.021183,-1258.350101,-9474.636058,-3140.991542
163385.021502,-3552.988522,-9548.656652,-3064.381992
163385.021821,-1924.535449,-9548.656652,-2451.505594
163385.022141,-4441.235652,-9844.739029,0.000000
163385.022460,-1258.350101,-9326.594869,-2528.115143
163385.022779,666.185348,-10584.944971,306.438199
163385.023098,3997.112087,-9844.739029,2987.772442
163385.023417,2442.679609,-7105.977043,3140.991542
163385.023736,-370.102971,-8882.471304,1762.019645
163385.024055,-2146.597232,-9474.636058,-1915.238745
163385.024375,-518.144159,-10288.862594,-2757.943793
163385.024694,0.000000,-9548.656652,-1838.629195
163385.025013,-2960.823768,-9548.656652,1225.752797
163385.025332,-3849.070898,-8956.491898,0.000000
163385.025651,-666.185348,-8290.306550,-2834.553343
163385.025970,3552.988522,-9696.697840,1685.410096
163385.026289,3997.112087,-8956.491898,3830.477490
163385.026608,148.041188,-6883.915261,1685.410096
163385.026928,-2442.679609,-9474.636058,-1302.362347
163385.027247,-3627.009116,-10807.006753,-3907.087040
163385.027566,-1554.432478,-14063.912898,-689.485948
163385.027885,-1850.514855,-11251.130318,-229.828649
163385.028204,-4145.153275,-9548.656652,-919.314598
163385.028523,-4737.318029,-8364.327145,0.000000
163385.028842,1110.308913,-9178.553681,-76.609550
163385.029162,4663.297435,-8586.388927,3294.210641
163385.029481,4367.215058,-6587.832884,3907.087040
163385.029800,518.144159,-6069.688724,306.438199
163385.030119,-74.020594,-9474.636058,-2528.115143
163385.030438,-1776.494261,-10732.986159,-3677.258390
163385.030757,-74.020594,-13915.871710,-1302.362347
163385.031076,-3034.844362,-11325.150913,-1302.362347
163385.031395,-3182.885551,-10140.821405,-2451.505594
163385.031715,-1554.432478,-8512.368333,-3830.477490
163385.032034,5255.462188,-9474.636058,2757.943793
163385.032353,6957.935855,-7846.182985,5439.278036
163385.032672,4367.215058,-5329.482782,4443.353888
163385.032991,-74.020594,-7994.224174,-76.609550
163385.033310,-1258.350101,-7179.997637,-2528.115143
163385.033629,-2368.659014,-9548.656652,-3064.381992
163385.033948,-1776.494261,-11621.233289,0.000000
163385.034268,-1406.391290,-12731.542202,1149.143247
163385.034587,-3034.844362,-9622.677246,-4213.525239
163385.034906,1110.308913,-11843.295072,-1608.800546
163385.035225,1924.535449,-9844.739029,1838.629195
163385.035544,2294.638420,-7476.080014,2221.676944
163385.035863,-74.020594,-6291.750507,306.438199
163385.036182,-888.247130,-8808.450710,-1532.190996
163385.036502,-666.185348,-9474.636058,-2451.505594
163385.036821,592.164754,-10436.903782,0.000000
163385.037140,-1554.432478,-9474.636058,306.438199
163385.037459,-3182.885551,-9548.656652,-3064.381992
163385.037778,-3034.844362,-9548.656652,-4290.134789
163385.038097,2294.638420,-10066.800811,-1302.362347
163385.038416,2368.659014,-8660.409521,2451.505594
163385.038735,1480.411884,-7179.997637,0.000000
163385.039055,-1776.494261,-7698.141797,-689.485948
163385.039374,-518.144159,-11029.068536,-1378.971896
163385.039693,-592.164754,-10362.883188,-919.314598
163385.040012,-370.102971,-10066.800811,1532.190996
163385.040331,-2072.576638,-9030.512492,1608.800546
163385.040650,-3552.988522,-8364.327145,76.609550
163385.040969,592.164754,-9548.656652,1838.629195
163385.041289,3923.091493,-8216.285956,3600.648841
163385.041608,2368.659014,-6143.709319,2451.505594
163385.041927,-1184.329507,-6291.750507,612.876398
163385.042246,-2442.679609,-7105.977043,-4060.306139
163385.042565,-2442.679609,-11547.212695,-3753.867940
163385.042884,-3627.009116,-11177.109724,-2834.553343
163385.043203,-5847.626942,-11399.171507,-1991.848295
163385.043522,-5403.503377,-10732.986159,-2145.067394
163385.043842,-1628.453072,-10140.821405,-383.047749
163385.044161,2664.741391,-9548.656652,2451.505594
163385.044480,4663.297435,-9474.636058,4826.401637
163385.044799,2294.638420,-5921.647536,1915.238745
163385.045118,-1776.494261,-5995.668130,-2068.457845
163385.045437,-1258.350101,-8142.265362,-5439.278036
163385.045756,-962.267725,-12213.398043,-1762.019645
163385.046076,-592.164754,-11473.192101,766.095498
163385.046395,-1702.473667,-10362.883188,0.000000
163385.046714,-222.061783,-11843.295072,-76.609550
163385.047033,3330.926739,-11843.295072,-76.609550
163385.047352,5107.421000,-11177.109724,4826.401637
163385.047671,3775.050304,-8142.265362,3600.648841
163385.047990,-370.102971,-5921.647536,-76.609550
163385.048309,-2368.659014,-6587.832884,-2451.505594
163385.048629,74.020594,-8660.409521,-2757.943793
163385.048948,0.000000,-10288.862594,0.000000
163385.049267,-2368.659014,-9622.677246,229.828649
163385.049586,-3108.864956,-9548.656652,-1685.410096
163385.049905,1702.473667,-11251.130318,-1302.362347
163385.050224,1332.370696,-9548.656652,0.000000
163385.050543,3849.070898,-10140.821405,3907.087040
163385.050862,1406.391290,-7994.224174,3600.648841
163385.051182,-74.020594,-8882.471304,-2528.115143
163385.051501,-4145.153275,-8364.327145,-4290.134789
163385.051820,-2146.597232,-11103.089130,-3524.039291
163385.052139,-1258.350101,-11325.150913,383.047749
163385.052458,-2072.576638,-9992.780217,229.828649
163385.052777,-1628.453072,-9474.636058,-536.266849
163385.053096,1998.556043,-8882.471304,0.000000
163385.053416,3552.988522,-7846.182985,3677.258390
163385.053735,5255.462188,-7550.100608,4903.011187
163385.054054,3182.885551,-7550.100608,2374.896044
163385.054373,-370.102971,-7698.141797,-2604.724693
163385.054692,-1776.494261,-10732.986159,-1838.629195
163385.055011,-1184.329507,-10881.027347,-1608.800546
163385.055330,-2516.700203,-11547.212695,-306.438199
163385.055649,-2590.720797,-10807.006753,-1685.410096
163385.055969,-1924.535449,-9548.656652,-3677.258390
163385.056288,1554.432478,-8364.327145,0.000000
163385.056607,3627.009116,-8290.306550,3600.648841
163385.056926,222.061783,-4811.338623,1532.190996
163385.057245,-1702.473667,-6735.874072,-459.657299
163385.057564,-666.185348,-10658.965565,-2528.115143
163385.057883,-2368.659014,-11917.315666,-1838.629195
163385.058203,-1850.514855,-11399.171507,306.438199
163385.058522,-3108.864956,-10214.842000,0.000000
163385.058841,-3478.967927,-9696.697840,-1685.410096
163385.059160,-3552.988522,-8364.327145,-2451.505594
163385.059479,370.102971,-9474.636058,1762.019645
163385.059798,0.000000,-5995.668130,766.095498
163385.060117,-2368.659014,-5995.668130,-612.876398
163385.060436,-1924.535449,-8956.491898,-1532.190996
163385.060756,-74.020594,-10658.965565,-1915.238745
163385.061075,-592.164754,-10436.903782,612.876398
163385.061394,-1776.494261,-9844.739029,536.266849
163385.061713,-2368.659014,-9400.615463,-1225.752797
163385.062032,-148.041188,-10288.862594,-1302.362347
163385.062351,2368.659014,-9770.718434,1608.800546
163385.062670,5847.626942,-9474.636058,4826.401637
163385.062990,592.164754,-6513.812290,2298.286494
163385.063309,-4737.318029,-4811.338623,-3677.258390
163385.063628,-2812.782580,-8956.491898,-4903.011187
163385.063947,-666.185348,-10658.965565,-2528.115143
163385.064266,-1184.329507,-10140.821405,1072.533697
163385.064585,-2220.617826,-9178.553681,1302.362347
163385.064904,-1480.411884,-8438.347739,-383.047749
163385.065223,2738.761985,-10658.965565,2374.896044
163385.065543,3775.050304,-9400.615463,3830.477490
163385.065862,2886.803174,-7105.977043,3600.648841
163385.066181,-1554.432478,-4885.359217,-1838.629195
163385.066500,-3256.906145,-8364.327145,-3370.820191
163385.066819,-3552.988522,-9548.656652,-4903.011187
163385.067138,-1850.514855,-12435.459826,-2221.676944
163385.067457,-3478.967927,-11843.295072,-995.924147
163385.067777,-2886.803174,-9770.718434,-1991.848295
163385.068096,-222.061783,-10214.842000,-2374.896044
163385.068415,6143.709319,-11843.295072,3600.648841
163385.068734,4663.297435,-8438.347739,3830.477490
163385.069053,4663.297435,-7105.977043,3294.210641
163385.069372,-814.226536,-5699.585753,-1991.848295
163385.069691,0.000000,-7179.997637,-5132.839837
163385.070010,-74.020594,-11251.130318,-3140.991542
163385.070330,-592.164754,-11621.233289,536.266849
163385.070649,-2146.597232,-11399.171507,-153.219100
163385.070968,-1258.350101,-10732.986159,-1915.238745
163385.071287,1998.556043,-11843.295072,-76.609550
163385.071606,2368.659014,-7772.162391,3600.648841
163385.071925,1998.556043,-4885.359217,2298.286494
163385.072244,0.000000,-5847.626942,1225.752797
163385.072563,-74.020594,-8956.491898,-76.609550
163385.072883,1110.308913,-8882.471304,-1915.238745
163385.073202,-74.020594,-11547.212695,1762.019645
163385.073521,-2738.761985,-9548.656652,995.924147
163385.073840,-3923.091493,-8882.471304,-1608.800546
163385.074159,-1554.432478,-9770.718434,-2298.286494
163385.074478,1184.329507,-10732.986159,1532.190996
163385.074797,2368.659014,-10066.800811,2528.115143
163385.075117,-444.123565,-7105.977043,1225.752797
163385.075436,-1258.350101,-8290.306550,-2528.115143
163385.075755,-4145.153275,-8364.327145,-4903.011187
163385.076074,-74.020594,-13027.624579,-76.609550
163385.076393,-1628.453072,-11325.150913,919.314598
163385.076712,-2294.638420,-9992.780217,689.485948
163385.077031,-2516.700203,-9400.615463,-1302.362347
163385.077350,814.226536,-10066.800811,842.705048
163385.077670,0.000000,-5995.668130,306.438199
163385.077989,3256.906145,-7550.100608,3600.648841
163385.078308,148.041188,-7254.018232,536.266849
163385.078627,-1110.308913,-8512.368333,-2374.896044
163385.078946,-370.102971,-10658.965565,-2834.553343
163385.079265,-1850.514855,-10066.800811,-1302.362347
163385.079584,-1554.432478,-11251.130318,1762.019645
163385.079904,-3034.844362,-9770.718434,-306.438199
163385.080223,-3552.988522,-7328.038826,-2911.162892
163385.080542,3552.988522,-9844.739029,4290.134789
163385.080861,2368.659014,-6587.832884,2604.724693
163385.081180,1036.288319,-6143.709319,2221.676944
163385.081499,-2664.741391,-6291.750507,-2451.505594
163385.081818,-2812.782580,-9252.574275,-4979.620737
163385.082137,-1702.473667,-11621.233289,-4290.134789
163385.082457,-1850.514855,-12287.418637,-766.095498
163385.082776,-2442.679609,-11843.295072,2374.896044
163385.083095,-1258.350101,-9474.636058,-2528.115143
163385.083414,74.020594,-9326.594869,-1762.019645
163385.083733,5477.523971,-10658.965565,4826.401637
163385.084052,3404.947333,-5329.482782,3064.381992
163385.084371,1036.288319,-5995.668130,536.266849
163385.084691,-296.082377,-7550.100608,-2987.772442
163385.085010,222.061783,-11177.109724,-3064.381992
163385.085329,0.000000,-9844.739029,0.000000
163385.085648,-2294.638420,-10140.821405,0.000000
163385.085967,-3849.070898,-10288.862594,-1225.752797
163385.086286,-74.020594,-11843.295072,-1302.362347
163385.086605,4071.132681,-10066.800811,1455.581446
163385.086924,6291.750507,-9474.636058,6052.154434
163385.087244,1332.370696,-5255.462188,2604.724693
163385.087563,-518.144159,-6439.791695,-1225.752797
163385.087882,-444.123565,-8586.388927,-2834.553343
163385.088201,0.000000,-9548.656652,0.000000
163385.088520,-3552.988522,-10066.800811,1149.143247
163385.088839,-4737.318029,-8956.491898,0.000000
163385.089158,-3404.947333,-10732.986159,-1532.190996
163385.089478,-74.020594,-12731.542202,-76.609550
163385.089797,2294.638420,-9474.636058,-689.485948
163385.090116,2886.803174,-8882.471304,2374.896044
163385.090435,-1184.329507,-6291.750507,-1302.362347
163385.090754,-2294.638420,-7846.182985,-3600.648841
163385.091073,-444.123565,-10510.924376,-2834.553343
163385.091392,0.000000,-10732.986159,995.924147
163385.091711,-962.267725,-9474.636058,995.924147
163385.092031,-2960.823768,-8364.327145,0.000000
163385.092350,1702.473667,-11177.109724,1149.143247
163385.092669,3478.967927,-9918.759623,1149.143247
163385.092988,3478.967927,-7624.121203,995.924147
163385.093307,962.267725,-7846.182985,1762.019645
163385.093626,-2886.803174,-7402.059420,-3370.820191
163385.093945,-2590.720797,-10140.821405,-4596.572988
163385.094264,-296.082377,-13027.624579,-1302.362347
163385.094584,-74.020594,-11843.295072,2374.896044
163385.094903,-2442.679609,-10658.965565,536.266849
163385.095222,-2738.761985,-9178.553681,-1685.410096
163385.095541,0.000000,-8364.327145,0.000000
163385.095860,2960.823768,-8364.327145,5209.449386
163385.096179,592.164754,-4219.173869,2451.505594
163385.096498,-666.185348,-5921.647536,612.876398
163385.096818,-2886.803174,-7772.162391,-2987.772442
163385.097137,-1998.556043,-10510.924376,-3064.381992
163385.097456,-370.102971,-11843.295072,-1302.362347
163385.097775,-2738.761985,-12879.583391,-153.219100
163385.098094,-3034.844362,-11843.295072,-1302.362347
163385.098413,-1850.514855,-9622.677246,-2604.724693
163385.098732,2146.597232,-9474.636058,1149.143247
163385.099051,4737.318029,-7772.162391,6128.763984
163385.099371,592.164754,-5403.503377,995.924147
163385.099690,-444.123565,-6883.915261,-2068.457845
163385.100009,0.000000,-9326.594869,-3370.820191
163385.100328,962.267725,-11991.336260,-612.876398
163385.100647,1110.308913,-12435.459826,1762.019645
163385.100966,-2960.823768,-10140.821405,1225.752797
163385.101285,-888.247130,-11251.130318,-1072.533697
163385.101605,2294.638420,-13027.624579,-76.609550
163385.101924,4367.215058,-9474.636058,2987.772442
163385.102243,2368.659014,-7476.080014,6052.154434
163385.102562,-296.082377,-5403.503377,-536.266849
163385.102881,-444.123565,-7624.121203,-2911.162892
163385.103200,148.041188,-10214.842000,-2068.457845
163385.103519,-3256.906145,-9548.656652,0.000000
163385.103838,-4737.318029,-9548.656652,0.000000
163385.104158,-3552.988522,-10436.903782,-689.485948
163385.104477,-2368.659014,-9548.656652,-2451.505594
163385.104796,3330.926739,-11251.130318,2221.676944
163385.105115,3478.967927,-8882.471304,2374.896044
163385.105434,1924.535449,-8290.306550,2068.457845
163385.105753,-2220.617826,-7254.018232,-2987.772442
163385.106072,-1702.473667,-9474.636058,-3983.696590
163385.106392,0.000000,-12139.377449,-1225.752797
163385.106711,-2368.659014,-9548.656652,612.876398
163385.107030,-3923.091493,-10140.821405,0.000000
163385.107349,-4737.318029,-7179.997637,-3677.258390
163385.107668,1480.411884,-10732.986159,459.657299
163385.107987,4367.215058,-9770.718434,4826.401637
163385.108306,4663.297435,-6809.894666,2068.457845
163385.108625,370.102971,-6439.791695,919.314598
163385.108945,-666.185348,-8142.265362,-2451.505594
163385.109264,814.226536,-10214.842000,-2451.505594
163385.109583,0.000000,-11399.171507,766.095498
163385.109902,-3552.988522,-9548.656652,1225.752797
163385.110221,-4219.173869,-8438.347739,-3294.210641
163385.110540,-2368.659014,-9696.697840,-1838.629195
163385.110859,2516.700203,-10510.924376,2451.505594
163385.111179,4663.297435,-7994.224174,2374.896044
163385.111498,2886.803174,-8882.471304,3294.210641
163385.111817,-1184.329507,-6809.894666,-1838.629195
163385.112136,-666.185348,-8734.430116,-2604.724693
163385.112455,0.000000,-11103.089130,-306.438199
163385.112774,-2368.659014,-10732.986159,2451.505594
163385.113093,-3552.988522,-10584.944971,153.219100
163385.113412,-3034.844362,-10658.965565,-2068.457845
163385.113732,-2368.659014,-10658.965565,-1915.238745
163385.114051,0.000000,-8660.409521,153.219100
163385.114370,2146.597232,-9474.636058,3447.429741
163385.114689,-2072.576638,-6291.750507,-1225.752797
163385.115008,-1554.432478,-7179.997637,-4060.306139
163385.115327,444.123565,-10214.842000,-2834.553343
163385.115646,444.123565,-11325.150913,153.219100
163385.115966,-3552.988522,-8438.347739,0.000000
163385.116285,-2146.597232,-10288.862594,-76.609550
163385.116604,222.061783,-10214.842000,-842.705048
163385.116923,4071.132681,-10214.842000,2221.676944
163385.117242,4367.215058,-8290.306550,3600.648841
163385.117561,3478.967927,-7698.141797,1455.581446
163385.117880,1036.288319,-8142.265362,-229.828649
163385.118200,-74.020594,-9030.512492,-4060.306139
163385.118519,-592.164754,-9548.656652,-2834.553343
163385.118838,-1184.329507,-11325.150913,2451.505594
163385.119157,-5625.565159,-9548.656652,0.000000
163385.119476,-1850.514855,-11547.212695,-1302.362347
163385.119795,-814.226536,-10732.986159,-842.705048
163385.120115,1924.535449,-9696.697840,2221.676944
163385.120434,2294.638420,-7105.977043,3140.991542
163385.120753,0.000000,-6069.688724,842.705048
163385.121072,-74.020594,-8290.306550,-2681.334243
163385.121391,-74.020594,-13027.624579,-1302.362347
163385.121710,-666.185348,-11251.130318,-76.609550
163385.122030,-3552.988522,-10732.986159,1532.190996
163385.122349,-5329.482782,-9696.697840,-2451.505594
163385.122668,-1406.391290,-11251.130318,-2451.505594
163385.122987,2886.803174,-10732.986159,1838.629195
163385.123306,4145.153275,-8068.244768,3370.820191
163385.123625,592.164754,-4219.173869,0.000000
163385.123944,-888.247130,-6587.832884,-2987.772442
163385.124264,-1776.494261,-8364.327145,-3677.258390
163385.124583,1998.556043,-13323.706956,-76.609550
163385.124902,-370.102971,-10955.047942,1455.581446
163385.125221,-1184.329507,-11843.295072,2681.334243
163385.125540,-2146.597232,-8882.471304,-1225.752797
163385.125859,962.267725,-10362.883188,0.000000
163385.126179,3404.947333,-9548.656652,3600.648841
163385.126498,1184.329507,-5995.668130,1225.752797
163385.126817,-4145.153275,-3627.009116,-2451.505594
163385.127136,-4737.318029,-5699.585753,-6128.763984
163385.127455,-2368.659014,-10140.821405,-2757.943793
163385.127774,-74.020594,-12435.459826,1838.629195
163385.128094,-1850.514855,-9474.636058,-76.609550
163385.128413,-3034.844362,-10807.006753,-995.924147
163385.128732,-1628.453072,-10140.821405,-2604.724693
163385.129051,2146.597232,-10288.862594,842.705048
163385.129370,2812.782580,-8068.244768,3294.210641
163385.129689,0.000000,-5699.585753,0.000000
163385.130009,-1850.514855,-6069.688724,-4060.306139
163385.130328,-2146.597232,-8956.491898,-4903.011187
163385.130647,-888.247130,-11325.150913,-2451.505594
163385.130966,-888.247130,-11917.315666,2145.067394
163385.131285,-1258.350101,-10658.965565,-689.485948
163385.131604,-1184.329507,-9992.780217,-612.876398
163385.131923,2516.700203,-9622.677246,1072.533697
163385.132243,4515.256246,-9030.512492,4136.915689
163385.132562,3108.864956,-6291.750507,3524.039291
163385.132881,370.102971,-7105.977043,536.266849
163385.133200,-666.185348,-8734.430116,-3753.867940
163385.133519,-74.020594,-13619.789333,-1302.362347
163385.133838,-3552.988522,-9548.656652,0.000000
163385.134158,-4145.153275,-10288.862594,0.000000
163385.134477,-4811.338623,-7698.141797,-2987.772442
163385.134796,-1184.329507,-9770.718434,-1225.752797
163385.135115,1850.514855,-9252.574275,2145.067394
163385.135434,2516.700203,-6883.915261,3447.429741
163385.135753,1702.473667,-7105.977043,3600.648841
163385.136073,-74.020594,-7994.224174,-1455.581446
163385.136392,-74.020594,-11843.295072,-2528.115143
163385.136711,-666.185348,-11843.295072,-1915.238745
163385.137030,-4589.276840,-11029.068536,0.000000
163385.137349,-4737.318029,-10732.986159,0.000000
163385.137668,-3330.926739,-10288.862594,-3753.867940
163385.137987,666.185348,-11029.068536,-919.314598
163385.138307,3108.864956,-9326.594869,2451.505594
163385.138626,2664.741391,-6661.853478,2528.115143
163385.138945,2886.803174,-8882.471304,-76.609550
163385.139264,0.000000,-7179.997637,-2451.505594
163385.139583,1702.473667,-11769.274478,-1302.362347
163385.139902,518.144159,-11103.089130,1225.752797
163385.140222,-2442.679609,-8438.347739,0.000000
163385.140541,-2368.659014,-9548.656652,1838.629195
163385.140860,444.123565,-9326.594869,-766.095498
163385.141179,3330.926739,-9844.739029,2068.457845
163385.141498,3404.947333,-7994.224174,4136.915689
163385.141817,74.020594,-5699.585753,0.000000
163385.142137,-2220.617826,-7031.956449,-3983.696590
163385.142456,-2368.659014,-9548.656652,-4136.915689
163385.142775,-444.123565,-11843.295072,-1838.629195
163385.143094,-74.020594,-12435.459826,-76.609550
163385.143413,-3034.844362,-9474.636058,-689.485948
163385.143732,-2368.659014,-10140.821405,0.000000
163385.144051,1110.308913,-10214.842000,-536.266849
163385.144371,3775.050304,-9474.636058,2604.724693
163385.144690,2146.597232,-6809.894666,2451.505594
163385.145009,-3182.885551,-4811.338623,-4290.134789
163385.145328,-3330.926739,-9252.574275,-5056.230287
163385.145647,-2072.576638,-10288.862594,-5286.058936
163385.145966,-2368.659014,-10881.027347,0.000000
163385.146286,-1258.350101,-11547.212695,1455.581446
163385.146605,-74.020594,-9474.636058,-76.609550
163385.146924,0.000000,-9400.615463,0.000000
163385.147243,4145.153275,-8956.491898,2834.553343
163385.147562,4441.235652,-7179.997637,4290.134789
163385.147881,1850.514855,-5995.668130,2451.505594
163385.148201,-4145.153275,-4811.338623,-4290.134789
163385.148520,-1702.473667,-9474.636058,-4979.620737
163385.148839,-3552.988522,-11325.150913,-1838.629195
163385.149158,-2146.597232,-13027.624579,1685.410096
163385.149477,-2368.659014,-11325.150913,1378.971896
163385.149796,-1776.494261,-11029.068536,842.705048
163385.150116,666.185348,-10066.800811,153.219100
163385.150435,3182.885551,-8808.450710,3370.820191
163385.150754,2368.659014,-5773.606348,3830.477490
163385.151073,-2368.659014,-4219.173869,-2451.505594
163385.151392,-1480.411884,-8068.244768,-3370.820191
163385.151711,-962.267725,-11843.295072,-2221.676944
163385.152030,-1554.432478,-10881.027347,-229.828649
163385.152350,-5625.565159,-8364.327145,0.000000
163385.152669,-4145.153275,-11029.068536,-153.219100
163385.152988,-2368.659014,-9548.656652,-3064.381992
163385.153307,2738.761985,-10510.924376,1915.238745
163385.153626,3627.009116,-7698.141797,3370.820191
163385.153945,444.123565,-6217.729913,1225.752797
163385.154265,-1258.350101,-5921.647536,-4060.306139
163385.154584,-1036.288319,-10066.800811,-3064.381992
163385.154903,0.000000,-11325.150913,-1149.143247
163385.155222,-962.267725,-10955.047942,1762.019645
163385.155541,-1406.391290,-10584.944971,842.705048
163385.155860,-74.020594,-11029.068536,-76.609550
163385.156180,3552.988522,-12657.521608,2604.724693
163385.156499,4663.297435,-10066.800811,3600.648841
163385.156818,1332.370696,-6587.832884,2451.505594
163385.157137,-2368.659014,-5995.668130,-1838.629195
163385.157456,-3627.009116,-6143.709319,-6358.592633
163385.157775,-2146.597232,-11621.233289,-2757.943793
163385.158094,-1480.411884,-11325.150913,612.876398
163385.158414,-2886.803174,-9326.594869,919.314598
163385.158733,-1850.514855,-8734.430116,-689.485948
163385.159052,518.144159,-9474.636058,-1225.752797
163385.159371,3552.988522,-9548.656652,3217.601092
163385.159690,4293.194464,-8290.306550,4903.011187
163385.160009,0.000000,-6883.915261,2221.676944
163385.160329,-4737.318029,-7179.997637,-3677.258390
163385.160648,-3923.091493,-10066.800811,-6741.640382
163385.160967,-2516.700203,-12731.542202,-2834.553343
163385.161286,-2368.659014,-11695.253884,-153.219100
163385.161605,-2442.679609,-10288.862594,-1455.581446
163385.161924,-74.020594,-10066.800811,-2374.896044
163385.162244,3552.988522,-10288.862594,1685.410096
163385.162563,5773.606348,-6587.832884,1838.629195
163385.162882,4737.318029,-7179.997637,5209.449386
163385.163201,1110.308913,-7402.059420,-76.609550
163385.163520,-2368.659014,-8660.409521,-3064.381992
163385.163839,-1554.432478,-11695.253884,-3140.991542
163385.164158,-888.247130,-11991.336260,76.609550
163385.164478,-2738.761985,-10362.883188,459.657299
163385.164797,-2516.700203,-9548.656652,-2145.067394
163385.165116,148.041188,-8068.244768,-3064.381992
163385.165435,3182.885551,-8364.327145,306.438199
163385.165754,2664.741391,-7179.997637,4903.011187
163385.166073,814.226536,-6365.771101,2374.896044
163385.166393,-1924.535449,-7105.977043,-1915.238745
163385.166712,-1776.494261,-10732.986159,-2451.505594
163385.167031,-1776.494261,-11769.274478,-2221.676944
163385.167350,-3330.926739,-11547.212695,229.828649
163385.167669,-3849.070898,-10881.027347,-995.924147
163385.167988,-4145.153275,-7179.997637,-3677.258390
163385.168308,1110.308913,-11251.130318,-76.609550
163385.168627,4663.297435,-9178.553681,2987.772442
163385.168946,1554.432478,-5995.668130,2451.505594
163385.169265,-2738.761985,-4441.235652,-2451.505594
163385.169584,-666.185348,-9474.636058,-3753.867940
163385.169903,-2220.617826,-12213.398043,-2681.334243
163385.170223,-1332.370696,-11399.171507,612.876398
163385.170542,-1924.535449,-10436.903782,1072.533697
163385.170861,-1554.432478,-9252.574275,-306.438199
163385.171180,0.000000,-8068.244768,-76.609550
163385.171499,4071.132681,-9474.636058,3294.210641
163385.171818,4367.215058,-7328.038826,4826.401637
163385.172137,1110.308913,-5033.400406,536.266849
163385.172457,-3552.988522,-6587.832884,-2451.505594
163385.172776,-1850.514855,-9178.553681,-6818.249932
163385.173095,-2294.638420,-11547.212695,-2374.896044
163385.173414,-2738.761985,-11547.212695,0.000000
163385.173733,-3923.091493,-10658.965565,-766.095498
163385.174052,-1850.514855,-11843.295072,-689.485948
163385.174372,2294.638420,-12435.459826,1762.019645
163385.174691,4663.297435,-9770.718434,3830.477490
163385.175010,4663.297435,-8882.471304,4826.401637
163385.175329,-2368.659014,-5107.421000,-2298.286494
163385.175648,-4737.318029,-7179.997637,-6128.763984
163385.175967,-1850.514855,-10658.965565,-4366.744339
163385.176287,-1332.370696,-11547.212695,-153.219100
163385.176606,-2812.782580,-10362.883188,-306.438199
163385.176925,-2812.782580,-9548.656652,-1991.848295
163385.177244,2294.638420,-13027.624579,-76.609550
163385.177563,5847.626942,-10658.965565,2451.505594
163385.177882,5625.565159,-9030.512492,6052.154434
163385.178201,1702.473667,-6513.812290,1608.800546
163385.178521,-2590.720797,-6365.771101,-3140.991542
163385.178840,-2368.659014,-7179.997637,-2451.505594
163385.179159,370.102971,-11251.130318,-383.047749
163385.179478,-222.061783,-10436.903782,2068.457845
163385.179797,-2220.617826,-9252.574275,0.000000
163385.180116,-1628.453072,-9844.739029,-1302.362347
163385.180436,3478.967927,-11843.295072,1149.143247
163385.180755,2368.659014,-8660.409521,3677.258390
163385.181074,2442.679609,-8216.285956,3907.087040
163385.181393,-74.020594,-9178.553681,-76.609550
163385.181712,-2442.679609,-8882.471304,-4979.620737
163385.182031,-2960.823768,-10732.986159,-2145.067394
163385.182351,-962.267725,-11991.336260,153.219100
163385.182670,-2442.679609,-10140.821405,0.000000
163385.182989,-3330.926739,-9696.697840,-1455.581446
163385.183308,-1480.411884,-8364.327145,-2451.505594
163385.183627,2738.761985,-8364.327145,1685.410096
163385.183946,4145.153275,-7179.997637,4290.134789
163385.184265,0.000000,-4811.338623,612.876398
163385.184585,-370.102971,-8142.265362,-2068.457845
163385.184904,-1258.350101,-11843.295072,-4979.620737
163385.185223,-2960.823768,-12509.480420,-1838.629195
163385.185542,-2738.761985,-11547.212695,-459.657299
163385.185861,-3182.885551,-10066.800811,-1149.143247
163385.186180,-1554.432478,-10140.821405,-1762.019645
163385.186500,888.247130,-8364.327145,0.000000
163385.186819,4737.318029,-8364.327145,4366.744339
163385.187138,1184.329507,-3034.844362,2451.505594
163385.187457,-1776.494261,-5107.421000,0.000000
163385.187776,-1850.514855,-8734.430116,-2528.115143
163385.188095,-74.020594,-12731.542202,-2528.115143
163385.188415,-2368.659014,-10436.903782,612.876398
163385.188734,-3552.988522,-9992.780217,76.609550
163385.189053,-3552.988522,-9400.615463,-1762.019645
163385.189372,-444.123565,-9844.739029,-76.609550
163385.189691,1776.494261,-8512.368333,1838.629195
163385.190010,3478.967927,-7105.977043,2987.772442
163385.190330,-1702.473667,-5403.503377,612.876398
163385.190649,-3034.844362,-7772.162391,-2451.505594
163385.190968,-1258.350101,-11843.295072,-3140.991542
163385.191287,-2072.576638,-13175.665768,-536.266849
163385.191606,-3330.926739,-11103.089130,0.000000
163385.191925,-3627.009116,-10510.924376,-1455.581446
163385.192244,-1480.411884,-10140.821405,-1915.238745
163385.192564,148.041188,-8660.409521,0.000000
163385.192883,4737.318029,-9548.656652,3753.867940
163385.193202,4071.132681,-7550.100608,4213.525239
163385.193521,518.144159,-8290.306550,-76.609550
163385.193840,-1554.432478,-7402.059420,-5286.058936
163385.194159,0.000000,-11917.315666,-919.314598
163385.194479,-592.164754,-11695.253884,76.609550
163385.194798,-2146.597232,-10288.862594,383.047749
163385.195117,-1850.514855,-9548.656652,-1991.848295
163385.195436,1332.370696,-9918.759623,-612.876398
163385.195755,4663.297435,-9326.594869,76.609550
163385.196074,4737.318029,-7179.997637,4749.792088
163385.196394,888.247130,-5847.626942,1991.848295
163385.196713,-1332.370696,-6291.750507,-2221.676944
163385.197032,-1554.432478,-9474.636058,-2528.115143
163385.197351,-148.041188,-11843.295072,-689.485948
163385.197670,-2072.576638,-11325.150913,1532.190996
163385.197989,-1258.350101,-10658.965565,-76.609550
163385.198308,-2146.597232,-10658.965565,-1915.238745
163385.198628,0.000000,-9548.656652,0.000000
163385.198947,2886.803174,-8586.388927,1225.752797
163385.199266,1554.432478,-6809.894666,2451.505594
163385.199585,-2368.659014,-7105.977043,-2451.505594
163385.199904,-3108.864956,-9326.594869,-4596.572988
163385.200223,-74.020594,-11103.089130,-2987.772442
163385.200543,-74.020594,-11251.130318,536.266849
163385.200862,-2960.823768,-9622.677246,0.000000
163385.201181,-2220.617826,-9548.656652,612.876398
163385.201500,2886.803174,-11251.130318,-76.609550
163385.201819,4737.318029,-7772.162391,4903.011187
163385.202138,5033.400406,-6735.874072,4673.182538
163385.202458,962.267725,-5699.585753,2604.724693
163385.202777,-1850.514855,-7031.956449,-2451.505594
163385.203096,-2294.638420,-9696.697840,-3677.258390
163385.203415,-1850.514855,-10955.047942,-2221.676944
163385.203734,-3552.988522,-10436.903782,0.000000
163385.204053,-1998.556043,-12435.459826,1685.410096
163385.204372,-1258.350101,-9474.636058,-2068.457845
163385.204692,592.164754,-9548.656652,383.047749
163385.205011,1776.494261,-8364.327145,4903.011187
163385.205330,1480.411884,-6735.874072,2068.457845
163385.205649,-1628.453072,-6587.832884,-1455.581446
163385.205968,-2738.761985,-8512.368333,-4673.182538
163385.206287,-3404.947333,-9548.656652,-4903.011187
163385.206607,-3478.967927,-9548.656652,-1225.752797
163385.206926,-2738.761985,-9178.553681,-1915.238745
163385.207245,-4145.153275,-8808.450710,-2451.505594
163385.207564,814.226536,-10214.842000,-2451.505594
163385.207883,5255.462188,-11843.295072,3600.648841
163385.208202,3849.070898,-7772.162391,4596.572988
163385.208522,148.041188,-6365.771101,919.314598
163385.208841,-1924.535449,-7402.059420,-3064.381992
163385.209160,-1332.370696,-10066.800811,-3983.696590
163385.209479,-888.247130,-10510.924376,-995.924147
163385.209798,-74.020594,-11843.295072,1685.410096
163385.210117,-1258.350101,-9030.512492,0.000000
163385.210437,0.000000,-9178.553681,-1302.362347
163385.210756,2368.659014,-9548.656652,612.876398
163385.211075,7624.121203,-11251.130318,4826.401637
163385.211394,1776.494261,-6513.812290,3677.258390
163385.211713,-1776.494261,-6661.853478,-1685.410096
163385.212032,-2516.700203,-9178.553681,-4596.572988
163385.212351,-1110.308913,-11769.274478,-2834.553343
163385.212671,-592.164754,-11325.150913,1532.190996
163385.212990,-2146.597232,-10362.883188,766.095498
163385.213309,-3330.926739,-9474.636058,-1302.362347
163385.213628,-74.020594,-10658.965565,-1608.800546
163385.213947,1924.535449,-7772.162391,612.876398
163385.214266,5847.626942,-8290.306550,3600.648841
163385.214586,518.144159,-5995.668130,1838.629195
163385.214905,-1406.391290,-7179.997637,-2834.553343
163385.215224,-1332.370696,-9474.636058,-3447.429741
163385.215543,-592.164754,-12435.459826,-76.609550
163385.215862,-2072.576638,-11843.295072,612.876398
163385.216181,-2368.659014,-11917.315666,153.219100
163385.216501,-74.020594,-11251.130318,-1608.800546
163385.216820,2886.803174,-11029.068536,1149.143247
163385.217139,1776.494261,-5995.668130,1225.752797
163385.217458,3182.885551,-5921.647536,2681.334243
163385.217777,-666.185348,-5847.626942,-1225.752797
163385.218096,-666.185348,-8586.388927,-3294.210641
163385.218416,370.102971,-11103.089130,-995.924147
163385.218735,962.267725,-12287.418637,2681.334243
163385.219054,-4737.318029,-7476.080014,0.000000
163385.219373,-3034.844362,-10288.862594,-1455.581446
163385.219692,-74.020594,-10658.965565,-76.609550
163385.220012,4071.132681,-10658.965565,2068.457845
163385.220331,0.000000,-5403.503377,2451.505594
163385.220650,-1258.350101,-6513.812290,-76.609550
163385.220969,-2072.576638,-8290.306550,-1915.238745
163385.221288,-1776.494261,-9622.677246,-3140.991542
163385.221608,-1332.370696,-9030.512492,-1302.362347
163385.221927,-2368.659014,-10288.862594,-76.609550
163385.222246,-4737.318029,-8512.368333,-1225.752797
163385.222565,-1480.411884,-9548.656652,-3140.991542
163385.222884,592.164754,-10732.986159,1225.752797
163385.223204,4367.215058,-10955.047942,5745.716235
163385.223523,0.000000,-5403.503377,1838.629195
163385.223842,-2146.597232,-7105.977043,-2681.334243
163385.224161,-1406.391290,-9400.615463,-4673.182538
163385.224480,0.000000,-11843.295072,-2451.505594
163385.224800,-666.185348,-9918.759623,-689.485948
163385.225119,-2294.638420,-10066.800811,383.047749
163385.225438,-2886.803174,-8586.388927,-1302.362347
163385.225757,0.000000,-8364.327145,-1685.410096
163385.226076,5551.544565,-9918.759623,4290.134789
163385.226396,6735.874072,-9474.636058,7124.688131
163385.226715,0.000000,-5107.421000,1838.629195
163385.227034,-1110.308913,-7031.956449,-2528.115143
163385.227353,-1480.411884,-9844.739029,-4366.744339
163385.227672,-2072.576638,-11843.295072,-1685.410096
163385.227992,-4515.256246,-9548.656652,-1762.019645
163385.228311,-3034.844362,-11843.295072,-76.609550
163385.228630,-2960.823768,-8512.368333,-2145.067394
163385.228949,1184.329507,-9844.739029,919.314598
163385.229268,1184.329507,-5995.668130,2451.505594
163385.229587,1184.329507,-5995.668130,3677.258390
163385.229907,-1036.288319,-6291.750507,-1532.190996
163385.230226,-2146.597232,-9252.574275,-4826.401637
163385.230545,-814.226536,-11843.295072,-2757.943793
163385.230864,-2812.782580,-10732.986159,-2145.067394
163385.231183,-3552.988522,-10436.903782,-689.485948
163385.231503,-2960.823768,-10214.842000,-1685.410096
163385.231822,1110.308913,-10658.965565,-1072.533697
163385.232141,6439.791695,-11843.295072,3600.648841
163385.232460,3552.988522,-6587.832884,4903.011187
163385.232779,888.247130,-5107.421000,1378.971896
163385.233099,-518.144159,-7105.977043,-1225.752797
163385.233418,-296.082377,-9326.594869,-2451.505594
163385.233737,0.000000,-10658.965565,306.438199
163385.234056,-74.020594,-10658.965565,2068.457845
163385.234375,-2368.659014,-9548.656652,842.705048
163385.234695,-962.267725,-9548.656652,-995.924147
163385.235014,2516.700203,-9844.739029,766.095498
163385.235333,2368.659014,-7772.162391,3600.648841
163385.235652,0.000000,-5995.668130,3217.601092
163385.235971,-4737.318029,-4811.338623,-3677.258390
163385.236291,-2368.659014,-9548.656652,-4136.915689
163385.236610,-370.102971,-12731.542202,-2451.505594
163385.236929,-1406.391290,-11325.150913,0.000000
163385.237248,-2442.679609,-10362.883188,-1608.800546
163385.237567,-3997.112087,-9548.656652,-2681.334243
163385.237887,-666.185348,-10732.986159,-1455.581446
163385.238206,3701.029710,-9548.656652,2834.553343
163385.238525,5477.523971,-7698.141797,4903.011187
163385.238844,2146.597232,-6513.812290,1915.238745
163385.239163,-1776.494261,-6883.915261,-2911.162892
163385.239483,-666.185348,-10140.821405,-3677.258390
163385.239802,296.082377,-13249.686362,536.266849
163385.240121,-3997.112087,-9548.656652,0.000000
163385.240440,-3034.844362,-10066.800811,-536.266849
163385.240759,-740.205942,-10362.883188,-612.876398
163385.241079,2516.700203,-9770.718434,1532.190996
163385.241398,3627.009116,-8068.244768,3370.820191
163385.241717,1998.556043,-5921.647536,2987.772442
163385.242036,-814.226536,-6365.771101,-1302.362347
163385.242355,-1776.494261,-8438.347739,-4979.620737
163385.242675,-1776.494261,-10732.986159,-2451.505594
163385.242994,-1480.411884,-11917.315666,995.924147
163385.243313,-4737.318029,-9548.656652,612.876398
163385.243632,-3923.091493,-9992.780217,-3140.991542
163385.243951,-1480.411884,-11103.089130,-1915.238745
163385.244271,2294.638420,-10436.903782,2374.896044
163385.244590,2960.823768,-5403.503377,2911.162892
163385.244909,-74.020594,-4145.153275,-76.609550
163385.245228,-1628.453072,-7105.977043,-2528.115143
163385.245547,-2146.597232,-8290.306550,-4366.744339
163385.245867,-2368.659014,-9548.656652,0.000000
163385.246186,-1850.514855,-11399.171507,2374.896044
163385.246505,-4737.318029,-9548.656652,0.000000
163385.246824,-1850.514855,-10658.965565,-2451.505594
163385.247143,592.164754,-11029.068536,766.095498
163385.247463,2590.720797,-9918.759623,2221.676944
163385.247782,222.061783,-4811.338623,0.000000
163385.248101,-74.020594,-8290.306550,-1915.238745
163385.248420,1110.308913,-10362.883188,-3753.867940
163385.248739,1702.473667,-11843.295072,-1608.800546
163385.249059,0.000000,-9548.656652,1225.752797
163385.249378,1702.473667,-11843.295072,3600.648841
163385.249697,-1776.494261,-8364.327145,-766.095498
163385.250016,740.205942,-9770.718434,-306.438199
163385.250335,3701.029710,-9252.574275,3140.991542
163385.250655,3256.906145,-6883.915261,3370.820191
163385.250974,222.061783,-5625.565159,1302.362347
163385.251293,-962.267725,-8290.306550,-2834.553343
163385.251612,-2146.597232,-9770.718434,-3753.867940
163385.251931,-4737.318029,-9548.656652,-3677.258390
163385.252251,-3849.070898,-10140.821405,612.876398
163385.252570,-1258.350101,-11251.130318,-76.609550
163385.252889,-1554.432478,-9844.739029,-1225.752797
163385.253208,2368.659014,-9770.718434,766.095498
163385.253527,3775.050304,-7920.203579,3600.648841
163385.253847,2960.823768,-6439.791695,3677.258390
163385.254166,-888.247130,-7179.997637,0.000000
163385.254485,-74.020594,-9844.739029,-4136.915689
163385.254804,2294.638420,-13915.871710,-689.485948
163385.255123,-1998.556043,-11325.150913,-995.924147
163385.255442,-4737.318029,-9548.656652,-2451.505594
163385.255762,-2442.679609,-10658.965565,-2528.115143
163385.256081,-296.082377,-10436.903782,-1302.362347
163385.256400,3701.029710,-9326.594869,3064.381992
163385.256719,4663.297435,-6587.832884,4903.011187
163385.257038,3256.906145,-7105.977043,4596.572988
163385.257358,444.123565,-6587.832884,-3677.258390
163385.257677,148.041188,-10881.027347,-1072.533697
163385.257996,-74.020594,-11251.130318,-76.609550
163385.258315,-3256.906145,-8660.409521,0.000000
163385.258634,-6365.771101,-8364.327145,-2451.505594
163385.258954,-2442.679609,-11251.130318,-2221.676944
163385.259273,444.123565,-11177.109724,153.219100
163385.259592,1702.473667,-8586.388927,2451.505594
163385.259911,222.061783,-5921.647536,1378.971896
163385.260230,-1776.494261,-6291.750507,-2451.505594
163385.260550,-3256.906145,-7179.997637,-5515.887586
163385.260869,-1036.288319,-11695.253884,-2298.286494
163385.261188,-74.020594,-14211.954086,3294.210641
163385.261507,-1850.514855,-11251.130318,-76.609550
163385.261826,-4737.318029,-7179.997637,0.000000
163385.262146,-74.020594,-10362.883188,-1225.752797
163385.262465,3404.947333,-9104.533087,2221.676944
163385.262784,3923.091493,-7550.100608,3677.258390
163385.263103,1110.308913,-5329.482782,536.266849
163385.263422,-666.185348,-7402.059420,-3140.991542
163385.263742,-1480.411884,-8660.409521,-4290.134789
163385.264061,-2368.659014,-10140.821405,0.000000
163385.264380,1110.308913,-12435.459826,3294.210641
163385.264699,-74.020594,-11251.130318,3600.648841
163385.265018,-2072.576638,-8364.327145,0.000000
163385.265338,2368.659014,-9400.615463,1149.143247
163385.265657,3478.967927,-7994.224174,3677.258390
163385.265976,1776.494261,-6143.709319,2374.896044
163385.266295,-1258.350101,-5329.482782,-4060.306139
163385.266614,-1406.391290,-9548.656652,-4366.744339
163385.266934,-666.185348,-11547.212695,-4366.744339
163385.267253,-3552.988522,-11325.150913,0.000000
163385.267572,-3923.091493,-10140.821405,-2451.505594
163385.267891,-4737.318029,-9548.656652,-2451.505594
163385.268210,-666.185348,-10510.924376,-1762.019645
163385.268530,3256.906145,-9844.739029,2528.115143
163385.268849,3775.050304,-6513.812290,4519.963438
163385.269168,1110.308913,-4811.338623,459.657299
163385.269487,-74.020594,-8882.471304,-2451.505594
163385.269806,-1776.494261,-10140.821405,-3217.601092
163385.270126,-370.102971,-11843.295072,-995.924147
163385.270445,-2442.679609,-11843.295072,-76.609550
163385.270764,-4589.276840,-9548.656652,-2451.505594
163385.271083,-962.267725,-9622.677246,-2298.286494
163385.271402,2442.679609,-9992.780217,1378.971896
163385.271722,3478.967927,-7920.203579,3140.991542
163385.272041,1406.391290,-5255.462188,2451.505594
163385.272360,1998.556043,-8290.306550,-76.609550
163385.272679,-370.102971,-8734.430116,-3677.258390
163385.272998,0.000000,-10881.027347,-2298.286494
163385.273318,-3552.988522,-9548.656652,612.876398
163385.273637,-3552.988522,-9548.656652,0.000000
163385.273956,-3627.009116,-9178.553681,-4673.182538
163385.274275,-518.144159,-11547.212695,-1455.581446
163385.274594,2220.617826,-10140.821405,1608.800546
163385.274914,1850.514855,-7846.182985,3064.381992
163385.275233,-814.226536,-6143.709319,0.000000
163385.275552,-2368.659014,-9844.739029,-1225.752797
163385.275871,-1258.350101,-10584.944971,-3830.477490
163385.276190,-740.205942,-11177.109724,0.000000
163385.276510,-1776.494261,-10288.862594,1838.629195
163385.276829,-3552.988522,-7772.162391,0.000000
163385.277148,0.000000,-10214.842000,0.000000
163385.277467,2294.638420,-9474.636058,229.828649
163385.277786,1332.370696,-7476.080014,2451.505594
163385.278106,0.000000,-5995.668130,2451.505594
163385.278425,-1258.350101,-6217.729913,-4979.620737
163385.278744,-74.020594,-11251.130318,-4366.744339
163385.279063,-74.020594,-11843.295072,-1455.581446
163385.279382,-1036.288319,-11769.274478,229.828649
163385.279702,-2516.700203,-10436.903782,459.657299
163385.280021,-3108.864956,-9104.533087,-383.047749
163385.280340,2146.597232,-10658.965565,1149.143247
163385.280659,3552.988522,-8660.409521,3830.477490
163385.280978,2886.803174,-5255.462188,3524.039291
163385.281298,0.000000,-5107.421000,1838.629195
163385.281617,-4145.153275,-4811.338623,-4903.011187
163385.281936,-666.185348,-10955.047942,-2834.553343
163385.282255,-1184.329507,-11769.274478,-689.485948
163385.282574,-3034.844362,-10658.965565,76.609550
163385.282893,-3849.070898,-10288.862594,-536.266849
163385.283213,-962.267725,-9474.636058,-2528.115143
163385.283532,1998.556043,-10955.047942,1455.581446
163385.283851,1702.473667,-6587.832884,1762.019645
163385.284170,0.000000,-4811.338623,0.000000
163385.284489,-888.247130,-6883.915261,-3677.258390
163385.284809,-1184.329507,-10436.903782,-2451.505594
163385.285128,-370.102971,-12065.356855,-2528.115143
163385.285447,-2590.720797,-11399.171507,0.000000
163385.285766,-3552.988522,-11325.150913,-842.705048
163385.286085,-4145.153275,-10140.821405,-4290.134789
163385.286405,0.000000,-7772.162391,-2298.286494
163385.286724,2368.659014,-7772.162391,1838.629195
163385.287043,3849.070898,-7179.997637,4290.134789
163385.287362,2072.576638,-5773.606348,0.000000
163385.287681,1110.308913,-7698.141797,-2528.115143
163385.288001,370.102971,-10140.821405,-2528.115143
163385.288320,-1406.391290,-11325.150913,-306.438199
163385.288639,-2664.741391,-11843.295072,1149.143247
163385.288958,-3849.070898,-9918.759623,-229.828649
163385.289277,-4145.153275,-8956.491898,-2451.505594
163385.289597,2294.638420,-9474.636058,-76.609550
163385.289916,2146.597232,-7179.997637,2987.772442
163385.290235,0.000000,-3627.009116,0.000000
163385.290554,-3552.988522,-4811.338623,-2451.505594
163385.290873,-74.020594,-8586.388927,-5286.058936
163385.291193,-1850.514855,-12213.398043,-2757.943793
163385.291512,-3775.050304,-12213.398043,-842.705048
163385.291831,-5033.400406,-11547.212695,-1455.581446
163385.292150,-4071.132681,-10955.047942,-1915.238745
163385.292469,1036.288319,-12213.398043,-76.609550
163385.292789,4663.297435,-9474.636058,2834.553343
163385.293108,4663.297435,-8290.306550,4826.401637
163385.293427,592.164754,-3923.091493,0.000000
163385.293746,0.000000,-7179.997637,-2451.505594
163385.294065,-74.020594,-8882.471304,-4979.620737
163385.294385,0.000000,-12435.459826,536.266849
163385.294704,-1554.432478,-11103.089130,536.266849
163385.295023,-1406.391290,-10436.903782,229.828649
163385.295342,-74.020594,-11843.295072,2374.896044
163385.295661,4071.132681,-11251.130318,2987.772442
163385.295981,2368.659014,-7772.162391,3677.258390
163385.296300,1776.494261,-7105.977043,2374.896044
163385.296619,-1258.350101,-7105.977043,-1302.362347
163385.296938,-3552.988522,-7179.997637,-3677.258390
163385.297257,-74.020594,-10362.883188,-1608.800546
163385.297577,-666.185348,-10732.986159,1532.190996
163385.297896,-2738.761985,-9474.636058,0.000000
163385.298215,-3404.947333,-9622.677246,-1991.848295
163385.298534,2294.638420,-12435.459826,-689.485948
163385.298853,1184.329507,-9548.656652,1532.190996
163385.299173,3034.844362,-8956.491898,3600.648841
163385.299492,-74.020594,-7105.977043,-76.609550
163385.299811,-666.185348,-8290.306550,-4979.620737
163385.300130,-2960.823768,-9548.656652,-4290.134789
163385.300449,-1036.288319,-11251.130318,-1149.143247
163385.300769,-1850.514855,-10362.883188,1072.533697
163385.301088,-1776.494261,-9770.718434,306.438199
163385.301407,370.102971,-9548.656652,-1225.752797
163385.301726,4441.235652,-9548.656652,919.314598
163385.302045,3552.988522,-6587.832884,3677.258390
163385.302365,3182.885551,-6069.688724,3064.381992
163385.302684,2294.638420,-8290.306550,-689.485948
163385.303003,-1776.494261,-10066.800811,-3447.429741
163385.303322,0.000000,-11917.315666,-1838.629195
163385.303641,-2146.597232,-11547.212695,-766.095498
163385.303961,-3849.070898,-11473.192101,-1455.581446
163385.304280,-3256.906145,-10436.903782,-2068.457845
163385.304599,0.000000,-8364.327145,-2451.505594
163385.304918,3627.009116,-8660.409521,3294.210641
163385.305237,3108.864956,-4811.338623,2145.067394
163385.305557,0.000000,-5847.626942,2451.505594
163385.305876,-1258.350101,-7698.141797,-2834.553343
163385.306195,-74.020594,-11843.295072,-2528.115143
163385.306514,-2368.659014,-11325.150913,0.000000
163385.306833,-3849.070898,-10584.944971,-153.219100
163385.307153,-3997.112087,-10436.903782,-995.924147
163385.307472,-2368.659014,-10510.924376,-1378.971896
163385.307791,0.000000,-7772.162391,0.000000
163385.308110,1998.556043,-7698.141797,2374.896044
163385.308429,-1110.308913,-4811.338623,306.438199
163385.308748,-3256.906145,-7179.997637,-2681.334243
163385.309068,-1480.411884,-10140.821405,-2757.943793
163385.309387,-1184.329507,-13397.727550,-76.609550
163385.309706,-2442.679609,-10140.821405,76.609550
163385.310025,-2664.741391,-10288.862594,-229.828649
163385.310344,-1258.350101,-9992.780217,-1302.362347
163385.310664,1480.411884,-9548.656652,0.000000
163385.310983,6809.894666,-9178.553681,5515.887586
163385.311302,4737.318029,-8216.285956,5209.449386
163385.311621,-74.020594,-7105.977043,1762.019645
163385.311940,-5107.421000,-5107.421000,-5898.935335
163385.312260,-3256.906145,-10732.986159,-1225.752797
163385.312579,-3256.906145,-10140.821405,-1225.752797
163385.312898,-2886.803174,-10362.883188,1072.533697
163385.313217,-2960.823768,-9844.739029,-229.828649
163385.313536,-444.123565,-9326.594869,-383.047749
163385.313856,3478.967927,-9474.636058,536.266849
163385.314175,3108.864956,-7920.203579,3600.648841
163385.314494,-148.041188,-5995.668130,1225.752797
163385.314813,-2294.638420,-7402.059420,-2987.772442
163385.315132,-1554.432478,-10066.800811,-4136.915689
163385.315452,-148.041188,-14063.912898,-536.266849
163385.315771,-2812.782580,-11029.068536,0.000000
163385.316090,-1850.514855,-11843.295072,-383.047749
163385.316409,-2368.659014,-9548.656652,-3140.991542
163385.316728,2368.659014,-10732.986159,0.000000
163385.317048,4367.215058,-7920.203579,2298.286494
163385.317367,4885.359217,-6661.853478,4596.572988
163385.317686,1332.370696,-6143.709319,1149.143247
163385.318005,-592.164754,-7772.162391,-2911.162892
163385.318325,-74.020594,-11251.130318,-2528.115143
163385.318644,-1554.432478,-11251.130318,-76.609550
163385.318963,-2368.659014,-10140.821405,1225.752797
163385.319282,-740.205942,-10510.924376,1072.533697
163385.319601,1998.556043,-10658.965565,842.705048
163385.319921,592.164754,-8364.327145,2451.505594
163385.320240,2590.720797,-6587.832884,2451.505594
163385.320559,0.000000,-6587.832884,1685.410096
163385.320878,-2442.679609,-7328.038826,-2298.286494
163385.321198,-2220.617826,-9178.553681,-4136.915689
163385.321517,-1850.514855,-11399.171507,-2528.115143
163385.321836,-2442.679609,-11251.130318,-1302.362347
163385.322155,-2442.679609,-10658.965565,-689.485948
163385.322474,-3552.988522,-8956.491898,-2451.505594
163385.322794,0.000000,-9548.656652,0.000000
163385.323113,6439.791695,-10362.883188,4213.525239
163385.323432,3701.029710,-7698.141797,3907.087040
163385.323751,-962.267725,-6143.709319,-612.876398
163385.324070,-2738.761985,-8586.388927,-4519.963438
163385.324390,-2738.761985,-11473.192101,-3140.991542
163385.324709,-2072.576638,-11917.315666,383.047749
163385.325028,-2442.679609,-11325.150913,1302.362347
163385.325347,-666.185348,-10658.965565,-76.609550
163385.325667,0.000000,-9548.656652,0.000000
163385.325986,3330.926739,-8068.244768,1532.190996
163385.326305,5847.626942,-7105.977043,4213.525239
163385.326624,2072.576638,-5403.503377,2757.943793
163385.326943,-74.020594,-7402.059420,-1302.362347
163385.327263,-1258.350101,-8808.450710,-3753.867940
163385.327582,-888.247130,-12435.459826,-229.828649
163385.327901,-2664.741391,-10732.986159,-1838.629195
163385.328220,-4737.318029,-9844.739029,-1838.629195
163385.328540,-1776.494261,-11177.109724,-1302.362347
163385.328859,0.000000,-9548.656652,0.000000
163385.329178,1184.329507,-7179.997637,0.000000
163385.329497,2294.638420,-7698.141797,2834.553343
163385.329816,-1554.432478,-6291.750507,-536.266849
163385.330136,-3330.926739,-7550.100608,-4290.134789
163385.330455,-2442.679609,-10510.924376,-3447.429741
163385.330774,-592.164754,-10881.027347,306.438199
163385.331093,-2368.659014,-9548.656652,306.438199
163385.331412,-1184.329507,-10288.862594,766.095498
163385.331732,1184.329507,-10732.986159,153.219100
163385.332051,3775.050304,-11991.336260,2374.896044
163385.332370,592.164754,-5995.668130,2451.505594
163385.332689,962.267725,-6809.894666,1455.581446
163385.333009,-1554.432478,-7179.997637,-3217.601092
163385.333328,-1628.453072,-9474.636058,-4290.134789
163385.333647,-1554.432478,-9844.739029,-3294.210641
163385.333966,-1850.514855,-10066.800811,-76.609550
163385.334285,-3552.988522,-9548.656652,-919.314598
163385.334605,-3552.988522,-8364.327145,-2145.067394
163385.334924,2368.659014,-10140.821405,1225.752797
163385.335243,6735.874072,-10362.883188,6665.030833
163385.335562,2368.659014,-4811.338623,4903.011187
163385.335882,-296.082377,-6143.709319,612.876398
163385.336201,-2368.659014,-7920.203579,-3753.867940
163385.336520,-2960.823768,-10881.027347,-4136.915689
163385.336839,-3627.009116,-10510.924376,-3294.210641
163385.337158,-3034.844362,-11103.089130,-76.609550
163385.337478,-1850.514855,-10066.800811,-2528.115143
163385.337797,0.000000,-8956.491898,-1838.629195
163385.338116,2664.741391,-8364.327145,0.000000
163385.338435,4663.297435,-9474.636058,6052.154434
163385.338755,592.164754,-5477.523971,1225.752797
163385.339074,-1628.453072,-6957.935855,-2221.676944
163385.339393,-1554.432478,-9548.656652,-4903.011187
163385.339712,-1258.350101,-11769.274478,-2145.067394
163385.340031,-1554.432478,-10066.800811,-383.047749
163385.340351,-666.185348,-11843.295072,-76.609550
163385.340670,-962.267725,-10288.862594,-2834.553343
163385.340989,2590.720797,-11843.295072,-76.609550
163385.341308,3256.906145,-9178.553681,1608.800546
163385.341627,4071.132681,-8882.471304,4826.401637
163385.341947,-888.247130,-6587.832884,0.000000
163385.342266,-1184.329507,-8290.306550,-3447.429741
163385.342585,-666.185348,-10732.986159,-2834.553343
163385.342904,0.000000,-10584.944971,2451.505594
163385.343224,-1258.350101,-8956.491898,2451.505594
163385.343543,-592.164754,-10066.800811,536.266849
163385.343862,2220.617826,-11177.109724,1149.143247
163385.344181,3478.967927,-9474.636058,2374.896044
163385.344500,1702.473667,-6587.832884,1762.019645
163385.344820,1702.473667,-8290.306550,2374.896044
163385.345139,-3256.906145,-6957.935855,-3064.381992
163385.345458,-3404.947333,-9548.656652,-5286.058936
163385.345777,-3256.906145,-11473.192101,-4060.306139
163385.346097,-4145.153275,-11917.315666,612.876398
163385.346416,-4441.235652,-10140.821405,-1532.190996
163385.346735,-1184.329507,-9844.739029,0.000000
163385.347054,4663.297435,-11843.295072,-76.609550
163385.347373,4515.256246,-8734.430116,4213.525239
163385.347693,1406.391290,-4811.338623,1378.971896
163385.348012,444.123565,-7402.059420,1378.971896
163385.348331,-1332.370696,-8364.327145,-3753.867940
163385.348650,-1258.350101,-10955.047942,-3524.039291
163385.348969,-1480.411884,-11991.336260,-536.266849
163385.349289,-2368.659014,-11029.068536,1225.752797
163385.349608,-4737.318029,-8364.327145,-2451.505594
163385.349927,148.041188,-10140.821405,-919.314598
163385.350246,3182.885551,-10658.965565,2681.334243
163385.350566,5255.462188,-8586.388927,4290.134789
163385.350885,3478.967927,-7105.977043,2374.896044
163385.351204,-1480.411884,-6661.853478,-919.314598
163385.351523,-1628.453072,-8734.430116,-3064.381992
163385.351842,-1702.473667,-10066.800811,-1685.410096
163385.352162,-1628.453072,-11621.233289,1685.410096
163385.352481,-3330.926739,-11547.212695,-995.924147
163385.352800,-3034.844362,-11103.089130,-2528.115143
163385.353119,-370.102971,-10362.883188,-1915.238745
163385.353439,296.082377,-8364.327145,1532.190996
163385.353758,2886.803174,-7698.141797,3600.648841
163385.354077,-1184.329507,-7476.080014,0.000000
163385.354396,-2146.597232,-8438.347739,-3907.087040
163385.354715,-1332.370696,-10807.006753,-3064.381992
163385.355035,-888.247130,-11621.233289,383.047749
163385.355354,-4145.153275,-7772.162391,0.000000
163385.355673,-1258.350101,-9918.759623,-76.609550
163385.355992,740.205942,-9770.718434,-842.705048
163385.356311,3849.070898,-10140.821405,1762.019645
163385.356631,3552.988522,-6661.853478,3294.210641
163385.356950,2294.638420,-7105.977043,1072.533697
163385.357269,-74.020594,-9178.553681,-689.485948
163385.357588,-666.185348,-9474.636058,-4213.525239
163385.357908,-1258.350101,-11843.295072,-1302.362347
163385.358227,-666.185348,-11695.253884,2374.896044
163385.358546,-3552.988522,-8660.409521,612.876398
163385.358865,-666.185348,-9918.759623,-1149.143247
163385.359184,1184.329507,-9918.759623,153.219100
163385.359504,2294.638420,-9326.594869,2451.505594
163385.359823,2294.638420,-7698.141797,2528.115143
163385.360142,814.226536,-8290.306550,-76.609550
163385.360461,-1258.350101,-9178.553681,-3753.867940
163385.360781,-2294.638420,-11547.212695,-3753.867940
163385.361100,-2368.659014,-10732.986159,-2145.067394
163385.361419,-814.226536,-12953.603985,2068.457845
163385.361738,-4145.153275,-9844.739029,-1225.752797
163385.362057,-592.164754,-9918.759623,-1532.190996
163385.362377,2442.679609,-9992.780217,1685.410096
163385.362696,4145.153275,-7920.203579,3447.429741
163385.363015,592.164754,-4811.338623,1532.190996
163385.363334,0.000000,-6143.709319,-1685.410096
163385.363654,740.205942,-10140.821405,-1532.190996
163385.363973,-74.020594,-10658.965565,-2528.115143
163385.364292,-3256.906145,-10732.986159,0.000000
163385.364611,-666.185348,-13027.624579,-76.609550
163385.364930,-962.267725,-10362.883188,-1685.410096
163385.365250,2886.803174,-11325.150913,383.047749
163385.365569,4515.256246,-8808.450710,3294.210641
163385.365888,2960.823768,-6587.832884,4290.134789
163385.366207,0.000000,-4811.338623,1225.752797
163385.366526,-3552.988522,-5995.668130,-4903.011187
163385.366846,-2368.659014,-10140.821405,-2451.505594
163385.367165,-962.267725,-11843.295072,1378.971896
163385.367484,-2738.761985,-8660.409521,-383.047749
163385.367803,-1258.350101,-11251.130318,-76.609550
163385.368123,-1628.453072,-9844.739029,-1915.238745
163385.368442,518.144159,-10066.800811,1072.533697
163385.368761,1332.370696,-7624.121203,2068.457845
163385.369080,0.000000,-6291.750507,1225.752797
163385.369399,-2146.597232,-7105.977043,-3217.601092
163385.369719,-3404.947333,-8660.409521,-4903.011187
163385.370038,-2368.659014,-10732.986159,-4903.011187
163385.370357,-666.185348,-12731.542202,-76.609550
163385.370676,-4515.256246,-8956.491898,-3064.381992
163385.370996,-1406.391290,-10881.027347,-2451.505594
163385.371315,2146.597232,-11621.233289,459.657299
163385.371634,4071.132681,-9104.533087,3830.477490
163385.371953,3182.885551,-6735.874072,4060.306139
163385.372272,0.000000,-6217.729913,1762.019645
163385.372592,-1406.391290,-6587.832884,-3600.648841
163385.372911,-2368.659014,-9548.656652,-4060.306139
163385.373230,-2072.576638,-11029.068536,766.095498
163385.373549,-1998.556043,-11251.130318,2374.896044
163385.373868,-5329.482782,-7179.997637,-3064.381992
163385.374188,-74.020594,-10140.821405,-689.485948
163385.374507,1332.370696,-9326.594869,1685.410096
163385.374826,1776.494261,-7476.080014,2987.772442
163385.375145,1110.308913,-6513.812290,2068.457845
163385.375465,-74.020594,-7698.141797,-2528.115143
163385.375784,-1850.514855,-11251.130318,-2528.115143
163385.376103,-2442.679609,-10658.965565,-2528.115143
163385.376422,-3404.947333,-10140.821405,306.438199
163385.376741,-3552.988522,-11621.233289,306.438199
163385.377061,-3552.988522,-9548.656652,-2451.505594
163385.377380,814.226536,-10732.986159,-459.657299
163385.377699,3108.864956,-8586.388927,2528.115143
163385.378018,2516.700203,-6661.853478,2911.162892
163385.378338,2294.638420,-6513.812290,-76.609550
163385.378657,-74.020594,-9474.636058,-1302.362347
163385.378976,-74.020594,-11251.130318,-3753.867940
163385.379295,-2368.659014,-10881.027347,-1838.629195
163385.379614,-4737.318029,-10732.986159,0.000000
163385.379934,-148.041188,-13471.748144,2374.896044
163385.380253,0.000000,-9844.739029,-766.095498
163385.380572,2812.782580,-10140.821405,2068.457845
163385.380891,3404.947333,-7105.977043,2681.334243
163385.381211,2072.576638,-5995.668130,1225.752797
163385.381530,1110.308913,-6809.894666,-2145.067394
163385.381849,888.247130,-9474.636058,-1608.800546
163385.382168,-74.020594,-11103.089130,-76.609550
163385.382487,-1258.350101,-9474.636058,-689.485948
163385.382807,-3478.967927,-9474.636058,229.828649
163385.383126,-74.020594,-12435.459826,-76.609550
163385.383445,222.061783,-10881.027347,-766.095498
163385.383764,1258.350101,-9252.574275,1685.410096
163385.384083,518.144159,-7031.956449,1685.410096
163385.384403,-3552.988522,-4811.338623,0.000000
163385.384722,-2368.659014,-7179.997637,-4596.572988
163385.385041,-1184.329507,-10288.862594,-4903.011187
163385.385360,0.000000,-12213.398043,919.314598
163385.385680,-370.102971,-11251.130318,-76.609550
163385.385999,-1258.350101,-9474.636058,-1302.362347
163385.386318,518.144159,-11325.150913,-229.828649
163385.386637,2072.576638,-10436.903782,1149.143247
163385.386956,3552.988522,-7920.203579,2987.772442
163385.387276,1702.473667,-6735.874072,2145.067394
163385.387595,-2368.659014,-5995.668130,0.000000
163385.387914,-1554.432478,-8364.327145,-5286.058936
163385.388233,-2368.659014,-10732.986159,-1838.629195
163385.388553,-666.185348,-11547.212695,-76.609550
163385.388872,-2368.659014,-11843.295072,-76.609550
163385.389191,-74.020594,-11843.295072,2374.896044
163385.389510,962.267725,-9326.594869,612.876398
163385.389829,2738.761985,-8290.306550,2451.505594
163385.390149,1480.411884,-6957.935855,2221.676944
163385.390468,0.000000,-6291.750507,0.000000
163385.390787,-1258.350101,-9030.512492,-2987.772442
163385.391106,-74.020594,-12731.542202,-2834.553343
163385.391425,-2590.720797,-11991.336260,-995.924147
163385.391745,-5625.565159,-9548.656652,0.000000
163385.392064,-2368.659014,-11547.212695,1149.143247
163385.392383,-2072.576638,-9548.656652,0.000000
163385.392702,1406.391290,-8956.491898,1532.190996
163385.393022,2294.638420,-6883.915261,2681.334243
163385.393341,1184.329507,-5255.462188,1149.143247
163385.393660,-1036.288319,-4811.338623,-4290.134789
163385.393979,-814.226536,-10066.800811,-3524.039291
163385.394298,-2368.659014,-10584.944971,-4290.134789
163385.394618,-3034.844362,-11251.130318,-76.609550
163385.394937,-2220.617826,-10807.006753,-383.047749
163385.395256,1554.432478,-11843.295072,-76.609550
163385.395575,4219.173869,-12879.583391,3907.087040
163385.395895,4663.297435,-8290.306550,2987.772442
163385.396214,2146.597232,-5403.503377,2528.115143
163385.396533,148.041188,-5995.668130,766.095498
163385.396852,-2368.659014,-5403.503377,-6128.763984
163385.397171,-370.102971,-11251.130318,-1991.848295
163385.397491,-1110.308913,-11547.212695,459.657299
163385.397810,-1924.535449,-10955.047942,612.876398
163385.398129,-1850.514855,-11547.212695,-1302.362347
163385.398448,-74.020594,-10584.944971,-919.314598
163385.398767,2294.638420,-10955.047942,2681.334243
163385.399087,2886.803174,-7624.121203,3600.648841
163385.399406,2294.638420,-7105.977043,1149.143247
163385.399725,-888.247130,-7179.997637,-1532.190996
163385.400044,-2368.659014,-7550.100608,-4290.134789
163385.400364,-1480.411884,-10881.027347,-1685.410096
163385.400683,-2664.741391,-10140.821405,-842.705048
163385.401002,-2368.659014,-10362.883188,-1072.533697
163385.401321,-1406.391290,-9844.739029,-3907.087040
163385.401640,1406.391290,-10955.047942,-995.924147
163385.401960,3404.947333,-9770.718434,1225.752797
163385.402279,3404.947333,-8956.491898,2987.772442
163385.402598,1702.473667,-8290.306550,-153.219100
163385.402917,1776.494261,-10288.862594,-1302.362347
163385.403237,148.041188,-10436.903782,-1915.238745
163385.403556,370.102971,-11177.109724,1455.581446
163385.403875,-740.205942,-10436.903782,1378.971896
163385.404194,-1998.556043,-9474.636058,0.000000
163385.404513,-2368.659014,-7772.162391,0.000000
163385.404833,1406.391290,-8364.327145,306.438199
163385.405152,296.082377,-5995.668130,2757.943793
163385.405471,888.247130,-7328.038826,1838.629195
163385.405790,-1702.473667,-7698.141797,-1915.238745
163385.406110,-1406.391290,-11103.089130,-2528.115143
163385.406429,-3034.844362,-11621.233289,-2987.772442
163385.406748,-3256.906145,-11621.233289,-842.705048
163385.407067,-3627.009116,-11547.212695,-536.266849
163385.407386,-4589.276840,-8364.327145,0.000000
163385.407706,0.000000,-9770.718434,995.924147
163385.408025,2294.638420,-7254.018232,1991.848295
163385.408344,888.247130,-5107.421000,1532.190996
163385.408663,0.000000,-5403.503377,0.000000
163385.408982,-74.020594,-8290.306550,-4979.620737
163385.409302,-370.102971,-12361.439231,-2374.896044
163385.409621,-2664.741391,-11769.274478,-1149.143247
163385.409940,-3034.844362,-11251.130318,0.000000
163385.410259,-2146.597232,-11103.089130,-1455.581446
163385.410579,-1776.494261,-10140.821405,-689.485948
163385.410898,2886.803174,-9474.636058,1991.848295
163385.411217,3182.885551,-6439.791695,3600.648841
163385.411536,518.144159,-3923.091493,76.609550
163385.411855,0.000000,-6291.750507,-1072.533697
163385.412175,-74.020594,-7402.059420,-5132.839837
163385.412494,-888.247130,-11103.089130,-383.047749
163385.412813,-1776.494261,-10288.862594,689.485948
163385.413132,-2220.617826,-10436.903782,536.266849
163385.413452,-1554.432478,-11547.212695,-76.609550
163385.413771,1258.350101,-11843.295072,2374.896044
163385.414090,2294.638420,-8734.430116,3524.039291
163385.414409,3478.967927,-8290.306550,1762.019645
163385.414728,-74.020594,-6513.812290,-1532.190996
163385.415048,-2368.659014,-7179.997637,-4903.011187
163385.415367,-2442.679609,-9252.574275,-5132.839837
163385.415686,-1480.411884,-12361.439231,-842.705048
163385.416005,-1776.494261,-11325.150913,383.047749
163385.416324,-2146.597232,-10584.944971,-306.438199
163385.416644,-74.020594,-11843.295072,-76.609550
163385.416963,4071.132681,-10362.883188,2451.505594
163385.417282,3256.906145,-7772.162391,3983.696590
163385.417601,3478.967927,-7105.977043,2604.724693
163385.417921,1110.308913,-8290.306550,-689.485948
163385.418240,0.000000,-8364.327145,-3064.381992
163385.418559,-1332.370696,-10214.842000,-2451.505594
163385.418879,-1850.514855,-11103.089130,0.000000
163385.419198,-2146.597232,-11399.171507,306.438199
163385.419517,-666.185348,-10066.800811,-612.876398
163385.419837,2294.638420,-10658.965565,536.266849
163385.420156,2368.659014,-8364.327145,3677.258390
163385.420475,2886.803174,-7105.977043,3447.429741
163385.420795,1998.556043,-8882.471304,2374.896044
163385.421114,-74.020594,-8290.306550,-2834.553343
163385.421434,-2072.576638,-11325.150913,-612.876398
163385.421753,-2072.576638,-11473.192101,0.000000
163385.422072,-1554.432478,-11251.130318,-76.609550
163385.422392,-3034.844362,-10066.800811,-1302.362347
163385.422711,-4441.235652,-8364.327145,-3677.258390
163385.423030,0.000000,-8956.491898,612.876398
163385.423350,1998.556043,-7550.100608,1762.019645
163385.423669,0.000000,-5329.482782,-1302.362347
163385.423988,-3552.988522,-5995.668130,-3370.820191
163385.424308,-74.020594,-12435.459826,-1915.238745
163385.424627,-1036.288319,-11769.274478,-1532.190996
163385.424946,-2220.617826,-10732.986159,0.000000
163385.425266,-2442.679609,-10881.027347,459.657299
163385.425585,-1554.432478,-9918.759623,-459.657299
163385.425904,0.000000,-7179.997637,306.438199
163385.426224,2664.741391,-7476.080014,2528.115143
163385.426543,1702.473667,-4885.359217,766.095498
163385.426862,0.000000,-6587.832884,0.000000
163385.427182,-370.102971,-8290.306550,-2834.553343
163385.427501,-74.020594,-11251.130318,-3753.867940
163385.427820,-2072.576638,-11473.192101,0.000000
163385.428140,-1702.473667,-10807.006753,919.314598
163385.428459,-1776.494261,-10436.903782,0.000000
163385.428778,-592.164754,-9548.656652,-76.609550
163385.429098,0.000000,-6587.832884,612.876398
163385.429417,1998.556043,-6069.688724,1225.752797
163385.429736,0.000000,-5107.421000,306.438199
163385.430056,-74.020594,-8142.265362,-76.609550
163385.430375,-2442.679609,-7698.141797,-5592.497135
163385.430694,-74.020594,-13471.748144,-76.609550
163385.431014,-1332.370696,-10807.006753,-766.095498
163385.431333,-2146.597232,-11177.109724,-229.828649
163385.431652,-1702.473667,-10140.821405,-1149.143247
163385.431972,0.000000,-8364.327145,0.000000
163385.432291,4071.132681,-8364.327145,3140.991542
163385.432610,4663.297435,-7550.100608,2987.772442
163385.432930,1998.556043,-6809.894666,-76.609550
163385.433249,0.000000,-6587.832884,-3370.820191
163385.433568,2294.638420,-12657.521608,-76.609550
163385.433888,-1480.411884,-10732.986159,0.000000
163385.434207,-1110.308913,-10807.006753,919.314598
163385.434526,-1406.391290,-10066.800811,-612.876398
163385.434846,0.000000,-9696.697840,-689.485948
163385.435165,1702.473667,-7920.203579,0.000000
163385.435484,3478.967927,-7920.203579,3524.039291
163385.435804,2220.617826,-6291.750507,1302.362347
163385.436123,0.000000,-6439.791695,-1838.629195
163385.436442,-666.185348,-9474.636058,-2528.115143
163385.436762,-74.020594,-12139.377449,-842.705048
163385.437081,-296.082377,-11843.295072,1532.190996
163385.437400,-1258.350101,-10658.965565,842.705048
163385.437720,-2590.720797,-9474.636058,-1302.362347
163385.438039,592.164754,-9548.656652,1225.752797
163385.438358,1406.391290,-7179.997637,1455.581446
163385.438678,2294.638420,-7328.038826,2298.286494
163385.438997,-962.267725,-7105.977043,-1838.629195
163385.439316,-2442.679609,-8512.368333,-4673.182538
163385.439636,-1554.432478,-12731.542202,-3983.696590
163385.439955,-2072.576638,-12805.562797,-229.828649
163385.440274,-1554.432478,-11843.295072,1149.143247
163385.440594,-1850.514855,-11843.295072,-76.609550
163385.440913,-962.267725,-9474.636058,-1302.362347
163385.441232,1776.494261,-9548.656652,4290.134789
163385.441552,2146.597232,-6069.688724,2757.943793
163385.441871,1332.370696,-5995.668130,1762.019645
163385.442190,-1702.473667,-7179.997637,-2528.115143
163385.442510,-2368.659014,-10436.903782,-3983.696590
163385.442829,-3182.885551,-10436.903782,-3447.429741
163385.443148,-3552.988522,-10732.986159,536.266849
163385.443468,-3849.070898,-10732.986159,1225.752797
163385.443787,-1258.350101,-10658.965565,-76.609550
163385.444106,1110.308913,-9474.636058,1455.581446
163385.444426,3552.988522,-8882.471304,7660.954980
163385.444745,1332.370696,-5107.421000,3064.381992
163385.445064,-1554.432478,-5477.523971,76.609550
163385.445384,-2664.741391,-7476.080014,-3907.087040
163385.445703,-4737.318029,-9548.656652,-4903.011187
163385.446022,-5477.523971,-9548.656652,-2451.505594
163385.446342,-5107.421000,-10584.944971,-2221.676944
163385.446661,-5625.565159,-10732.986159,-2145.067394
163385.446980,-1110.308913,-10807.006753,-3677.258390
163385.447300,2294.638420,-11251.130318,-76.609550
163385.447619,4145.153275,-9030.512492,2834.553343
163385.447938,1406.391290,-6217.729913,459.657299
163385.448258,0.000000,-6883.915261,-2681.334243
163385.448577,148.041188,-9474.636058,-3830.477490
163385.448896,0.000000,-10140.821405,-2451.505594
163385.449216,1702.473667,-10955.047942,1149.143247
163385.449535,-592.164754,-9548.656652,612.876398
163385.449854,0.000000,-9548.656652,-2451.505594
163385.450174,592.164754,-9548.656652,1225.752797
163385.450493,4663.297435,-8882.471304,2987.772442
163385.450812,3775.050304,-6883.915261,3294.210641
163385.451132,740.205942,-6587.832884,-766.095498
163385.451451,-1406.391290,-7920.203579,-3907.087040
163385.451770,-2294.638420,-9918.759623,-3600.648841
163385.452090,-1702.473667,-11621.233289,-76.609550
163385.452409,-666.185348,-10881.027347,536.266849
163385.452728,-1628.453072,-8956.491898,-2221.676944
163385.453048,0.000000,-9548.656652,0.000000
163385.453367,2960.823768,-10140.821405,2451.505594
163385.453686,3478.967927,-7105.977043,1762.019645
163385.454006,1036.288319,-7179.997637,536.266849
163385.454325,-2516.700203,-7846.182985,-3677.258390
163385.454644,-3330.926739,-10584.944971,-5056.230287
163385.454964,-74.020594,-14211.954086,-76.609550
163385.455283,-74.020594,-13027.624579,1762.019645
163385.455602,-1184.329507,-11473.192101,1991.848295
163385.455922,-814.226536,-10362.883188,-842.705048
163385.456241,1554.432478,-9770.718434,2374.896044
163385.456560,2368.659014,-5995.668130,3064.381992
163385.456880,2886.803174,-6143.709319,2834.553343
163385.457199,0.000000,-6661.853478,383.047749
163385.457518,-1702.473667,-8956.491898,-3600.648841
163385.457838,-2516.700203,-11103.089130,-3370.820191
163385.458157,-814.226536,-13619.789333,-76.609550
163385.458476,-4737.318029,-10732.986159,0.000000
163385.458796,-666.185348,-11843.295072,-76.609550
163385.459115,-74.020594,-9918.759623,-76.609550
163385.459434,2294.638420,-9474.636058,2374.896044
163385.459754,1184.329507,-5995.668130,3677.258390
163385.460073,1110.308913,-5107.421000,459.657299
163385.460392,-2146.597232,-7105.977043,-3370.820191
163385.460712,-3849.070898,-10140.821405,-4826.401637
163385.461031,-3552.988522,-11325.150913,-3370.820191
163385.461350,-2442.679609,-11325.150913,0.000000
163385.461670,-3552.988522,-9844.739029,0.000000
163385.461989,-1998.556043,-10362.883188,-919.314598
163385.462308,2886.803174,-11843.295072,2374.896044
163385.462628,3478.967927,-9178.553681,4213.525239
163385.462947,2368.659014,-7179.997637,3677.258390
163385.463266,-1480.411884,-6513.812290,-1838.629195
163385.463586,-3034.844362,-8660.409521,-4979.620737
163385.463905,-2812.782580,-11621.233289,-4366.744339
163385.464224,-2368.659014,-11029.068536,-3064.381992
163385.464544,-962.267725,-10584.944971,536.266849
163385.464863,0.000000,-8512.368333,0.000000
163385.465182,592.164754,-8660.409521,306.438199
163385.465502,4663.297435,-10658.965565,4060.306139
163385.465821,6439.791695,-9474.636058,4826.401637
163385.466140,592.164754,-6587.832884,919.314598
163385.466460,-2738.761985,-7254.018232,-3600.648841
163385.466779,-3849.070898,-10658.965565,-4213.525239
163385.467098,-1998.556043,-11843.295072,-1302.362347
163385.467418,-3552.988522,-7772.162391,0.000000
163385.467737,-2146.597232,-9474.636058,-76.609550
163385.468056,-2516.700203,-7772.162391,-2451.505594
163385.468376,592.164754,-9548.656652,919.314598
163385.468695,5847.626942,-10658.965565,6358.592633
163385.469014,2368.659014,-8068.244768,5515.887586
163385.469334,-1110.308913,-6513.812290,-1532.190996
163385.469653,-1998.556043,-8290.306550,-4443.353888
163385.469972,-1776.494261,-11621.233289,-3217.601092
163385.470292,-3552.988522,-10436.903782,-2451.505594
163385.470611,-1776.494261,-10066.800811,0.000000
163385.470930,-592.164754,-10732.986159,536.266849
163385.471250,2294.638420,-10362.883188,-76.609550
163385.471569,4663.297435,-9474.636058,1762.019645
163385.471888,3849.070898,-7179.997637,5515.887586
163385.472208,0.000000,-4811.338623,0.000000
163385.472527,-2146.597232,-7550.100608,-4060.306139
163385.472846,-2812.782580,-10510.924376,-4979.620737
163385.473166,-1554.432478,-12879.583391,-1915.238745
163385.473485,-74.020594,-10658.965565,-76.609550
163385.473804,-592.164754,-10288.862594,1532.190996
163385.474124,-888.247130,-9104.533087,-612.876398
163385.474443,2072.576638,-9474.636058,1149.143247
163385.474762,3627.009116,-8216.285956,4443.353888
163385.475082,2960.823768,-8142.265362,5822.325785
163385.475401,-1184.329507,-6587.832884,612.876398
163385.475720,-1258.350101,-9474.636058,-3294.210641
163385.476040,-2442.679609,-10362.883188,-4366.744339
163385.476359,-3256.906145,-11325.150913,0.000000
163385.476679,-3034.844362,-9770.718434,-1608.800546
163385.476998,-2368.659014,-10658.965565,-919.314598
163385.477317,0.000000,-10362.883188,-383.047749
163385.477637,1850.514855,-9918.759623,2068.457845
163385.477956,3182.885551,-8586.388927,3600.648841
163385.478275,-74.020594,-5773.606348,689.485948
163385.478595,-2960.823768,-5995.668130,-3370.820191
163385.478914,-2220.617826,-10732.986159,-3677.258390
163385.479233,-74.020594,-13027.624579,-76.609550
163385.479553,-3552.988522,-8660.409521,0.000000
163385.479872,-2294.638420,-8808.450710,-689.485948
163385.480191,-888.247130,-9252.574275,-1225.752797
163385.480511,1776.494261,-9844.739029,536.266849
163385.480830,4293.194464,-9252.574275,3294.210641
163385.481149,2738.761985,-6809.894666,2374.896044
163385.481469,-592.164754,-7328.038826,-995.924147
163385.481788,-1924.535449,-7772.162391,-6128.763984
163385.482107,-2368.659014,-10140.821405,-2451.505594
163385.482427,148.041188,-11621.233289,1149.143247
163385.482746,0.000000,-9548.656652,1225.752797
163385.483065,-74.020594,-9474.636058,229.828649
163385.483385,1406.391290,-10436.903782,383.047749
163385.483704,2812.782580,-10140.821405,2911.162892
163385.484023,1998.556043,-7179.997637,1072.533697
163385.484343,-962.267725,-5551.544565,-2374.896044
163385.484662,-3552.988522,-7254.018232,-5592.497135
163385.484981,-4737.318029,-9548.656652,-6128.763984
163385.485301,-2220.617826,-13027.624579,-2221.676944
163385.485620,-1110.308913,-13027.624579,-76.609550
163385.485939,-2072.576638,-10732.986159,612.876398
163385.486259,-814.226536,-9696.697840,-689.485948
163385.486578,2590.720797,-9844.739029,2298.286494
163385.486897,4367.215058,-7920.203579,4596.572988
163385.487217,1776.494261,-4219.173869,1608.800546
163385.487536,-1258.350101,-7105.977043,-76.609550
163385.487855,-3182.885551,-7179.997637,-4903.011187
163385.488175,-2960.823768,-10732.986159,-3064.381992
163385.488494,-3552.988522,-11029.068536,0.000000
163385.488813,-74.020594,-11843.295072,-76.609550
163385.489133,-2368.659014,-10140.821405,0.000000
163385.489452,592.164754,-9918.759623,995.924147
163385.489771,2442.679609,-9326.594869,3524.039291
163385.490091,2368.659014,-6439.791695,4136.915689
163385.490410,-74.020594,-4219.173869,536.266849
