#time,accel_x,accel_y,accel_z
59321.609685,-2368.659014,-7772.162391,0.000000
59321.609995,-74.020594,-10658.965565,1762.019645
59321.610305,-1258.350101,-6809.894666,-1608.800546
59321.610615,-74.020594,-9474.636058,1762.019645
59321.610925,-518.144159,-9178.553681,459.657299
59321.611235,-518.144159,-9178.553681,383.047749
59321.611545,-148.041188,-9252.574275,842.705048
59321.611855,-2368.659014,-7179.997637,1225.752797
59321.612165,0.000000,-9548.656652,1838.629195
59321.612475,1110.308913,-11843.295072,2374.896044
59321.612785,-2960.823768,-6587.832884,0.000000
59321.613095,962.267725,-10362.883188,2068.457845
59321.613405,-74.020594,-9474.636058,-76.609550
59321.613714,222.061783,-9474.636058,1762.019645
59321.614024,-74.020594,-9178.553681,536.266849
59321.614334,-518.144159,-9030.512492,612.876398
59321.614644,-666.185348,-9178.553681,612.876398
59321.614954,-2368.659014,-7179.997637,0.000000
59321.615264,-1776.494261,-7772.162391,612.876398
59321.615574,0.000000,-9844.739029,2451.505594
59321.615884,-74.020594,-9474.636058,-76.609550
59321.616194,-2072.576638,-8364.327145,306.438199
59321.616504,2294.638420,-11251.130318,2374.896044
59321.616814,0.000000,-9104.533087,1072.533697
59321.617124,-2368.659014,-7179.997637,0.000000
59321.617434,0.000000,-9326.594869,995.924147
59321.617744,-370.102971,-9326.594869,689.485948
59321.618054,-1258.350101,-7476.080014,0.000000
59321.618364,-1480.411884,-8068.244768,0.000000
59321.618674,0.000000,-8364.327145,1838.629195
59321.618984,-74.020594,-9474.636058,-76.609550
59321.619294,-1776.494261,-7772.162391,0.000000
59321.619604,2294.638420,-11843.295072,2987.772442
59321.619914,-1628.453072,-8512.368333,0.000000
59321.620224,-296.082377,-9474.636058,689.485948
59321.620534,-444.123565,-8882.471304,1072.533697
59321.620844,-518.144159,-9030.512492,766.095498
59321.621154,-74.020594,-9474.636058,-689.485948
59321.621464,-888.247130,-8364.327145,229.828649
59321.621774,-2368.659014,-7179.997637,0.000000
59321.622084,1998.556043,-10658.965565,1762.019645
59321.622394,-1776.494261,-7772.162391,0.000000
59321.622704,-74.020594,-8882.471304,0.000000
59321.623014,-74.020594,-9474.636058,842.705048
59321.623324,-592.164754,-9030.512492,383.047749
59321.623634,-444.123565,-9104.533087,459.657299
59321.623944,-148.041188,-9400.615463,842.705048
59321.624254,0.000000,-9548.656652,1838.629195
59321.624563,444.123565,-9474.636058,1225.752797
59321.624873,-74.020594,-9474.636058,-76.609550
59321.625183,0.000000,-8364.327145,0.000000
59321.625493,-74.020594,-9474.636058,1149.143247
59321.625803,0.000000,-9474.636058,1149.143247
59321.626113,-592.164754,-8956.491898,612.876398
59321.626423,-370.102971,-9400.615463,919.314598
59321.626733,-148.041188,-9104.533087,919.314598
59321.627043,-148.041188,-9252.574275,995.924147
59321.627353,-74.020594,-9178.553681,536.266849
59321.627663,-74.020594,-9474.636058,-76.609550
59321.627973,0.000000,-7179.997637,0.000000
59321.628283,-74.020594,-9474.636058,1149.143247
59321.628593,0.000000,-9548.656652,1149.143247
59321.628903,-1480.411884,-7550.100608,153.219100
59321.629213,-74.020594,-9474.636058,1455.581446
59321.629523,-296.082377,-8882.471304,689.485948
59321.629833,-666.185348,-9178.553681,766.095498
59321.630143,-222.061783,-9030.512492,842.705048
59321.630453,0.000000,-8660.409521,612.876398
59321.630763,0.000000,-8364.327145,1225.752797
59321.631073,-74.020594,-9474.636058,-76.609550
59321.631383,-2072.576638,-7772.162391,0.000000
59321.631693,-74.020594,-8290.306550,-383.047749
59321.632003,518.144159,-9252.574275,1762.019645
59321.632313,-814.226536,-8882.471304,459.657299
59321.632623,-592.164754,-9326.594869,383.047749
59321.632933,-74.020594,-9474.636058,842.705048
59321.633243,-74.020594,-9252.574275,612.876398
59321.633553,-74.020594,-9474.636058,1149.143247
59321.633863,-74.020594,-8882.471304,-76.609550
59321.634173,0.000000,-8364.327145,612.876398
59321.634483,1110.308913,-9178.553681,1149.143247
59321.634793,1554.432478,-10436.903782,4519.963438
59321.635102,0.000000,-7179.997637,612.876398
59321.635412,1110.308913,-9104.533087,1149.143247
59321.635722,1184.329507,-9030.512492,919.314598
59321.636032,1628.453072,-8808.450710,766.095498
59321.636342,2294.638420,-9474.636058,1149.143247
59321.636652,1776.494261,-8512.368333,0.000000
59321.636962,3552.988522,-10140.821405,2451.505594
59321.637272,2886.803174,-8586.388927,-76.609550
59321.637582,2368.659014,-8956.491898,1838.629195
59321.637892,4071.132681,-8290.306550,-1302.362347
59321.638202,4663.297435,-9474.636058,1762.019645
59321.638512,3404.947333,-8808.450710,459.657299
59321.638822,4219.173869,-9104.533087,1072.533697
59321.639132,5033.400406,-8808.450710,1302.362347
59321.639442,4737.318029,-7476.080014,1225.752797
59321.639752,6735.874072,-9474.636058,2374.896044
59321.640062,7031.956449,-9474.636058,1762.019645
59321.640372,4145.153275,-7476.080014,306.438199
59321.640682,6439.791695,-9474.636058,-76.609550
59321.640992,5033.400406,-8364.327145,1225.752797
59321.641302,4737.318029,-7772.162391,0.000000
59321.641612,6439.791695,-9474.636058,459.657299
59321.641922,6365.771101,-10288.862594,306.438199
59321.642232,5181.441594,-10140.821405,-306.438199
59321.642542,5255.462188,-13619.789333,-76.609550
59321.642852,1184.329507,-11029.068536,-1762.019645
59321.643162,1184.329507,-11029.068536,0.000000
59321.643472,3478.967927,-10658.965565,-76.609550
59321.643782,2368.659014,-7772.162391,2451.505594
59321.644092,4663.297435,-4145.153275,-76.609550
59321.644402,7031.956449,-4737.318029,2374.896044
59321.644712,7476.080014,-3701.029710,2911.162892
59321.645022,8734.430116,-4441.235652,2528.115143
59321.645332,9622.677246,-5773.606348,2374.896044
59321.645642,5329.482782,-9548.656652,1225.752797
59321.645951,3923.091493,-15100.201217,-76.609550
59321.646261,-74.020594,-17764.942608,-2528.115143
59321.646571,-4737.318029,-16654.633695,-6741.640382
59321.646881,-2442.679609,-16580.613101,-1302.362347
59321.647191,-3627.009116,-10140.821405,-2298.286494
59321.647501,-2960.823768,-5699.585753,-1838.629195
59321.647811,2220.617826,-5995.668130,2451.505594
59321.648121,4441.235652,-5921.647536,5132.839837
59321.648431,4589.276840,-5033.400406,5286.058936
59321.648741,4663.297435,-7105.977043,6052.154434
59321.649051,592.164754,-3108.864956,3064.381992
59321.649361,592.164754,-3034.844362,2451.505594
59321.649671,4663.297435,-4737.318029,-76.609550
59321.649981,0.000000,-3627.009116,0.000000
59321.650291,148.041188,-10732.986159,-2451.505594
59321.650601,-2442.679609,-17172.777854,-2681.334243
59321.650911,-7179.997637,-21614.013506,-4213.525239
59321.651221,-7476.080014,-19097.313304,-4443.353888
59321.651531,-5921.647536,-13545.768739,-3983.696590
59321.651841,-4145.153275,-5995.668130,-1838.629195
59321.652151,2294.638420,-6365.771101,2681.334243
59321.652461,4367.215058,-4737.318029,5439.278036
59321.652771,2368.659014,-3627.009116,6128.763984
59321.653081,5847.626942,-6513.812290,6052.154434
59321.653391,4737.318029,-4811.338623,6281.983084
59321.653701,4737.318029,-3034.844362,4903.011187
59321.654011,4219.173869,-3775.050304,4060.306139
59321.654321,-888.247130,-8068.244768,689.485948
59321.654631,-6957.935855,-13471.748144,-3370.820191
59321.654941,-7772.162391,-18653.189738,-5286.058936
59321.655251,-9474.636058,-17098.757260,-6894.859482
59321.655561,-8364.327145,-14730.098246,-4979.620737
59321.655871,-7254.018232,-11029.068536,-3217.601092
59321.656181,-4293.194464,-8808.450710,536.266849
59321.656491,0.000000,-6291.750507,4290.134789
59321.656800,888.247130,-4811.338623,4903.011187
59321.657110,7031.956449,-4737.318029,7277.907231
59321.657420,7105.977043,-666.185348,7660.954980
59321.657730,11769.274478,-2368.659014,8503.660028
59321.658040,9400.615463,-4737.318029,6971.469032
59321.658350,1702.473667,-7920.203579,2068.457845
59321.658660,-5329.482782,-11917.315666,-5209.449386
59321.658970,-7105.977043,-18431.127956,-3983.696590
59321.659280,-7772.162391,-18653.189738,-6818.249932
59321.659590,-9548.656652,-13619.789333,-8656.879127
59321.659900,-8290.306550,-13989.892304,-4290.134789
59321.660210,-5033.400406,-11399.171507,-1685.410096
59321.660520,-1776.494261,-9622.677246,995.924147
59321.660830,1480.411884,-6513.812290,4903.011187
59321.661140,5921.647536,-74.020594,7354.516781
59321.661450,12953.603985,1998.556043,9729.412825
59321.661760,13027.624579,1924.535449,8963.317327
59321.662070,8734.430116,-2442.679609,5745.716235
59321.662380,1332.370696,-9696.697840,1455.581446
59321.662690,-2442.679609,-16580.613101,-2528.115143
59321.663000,-8216.285956,-18061.024985,-8656.879127
59321.663310,-13027.624579,-17838.963202,-9193.145976
59321.663620,-9548.656652,-18949.272115,-7431.126331
59321.663930,-10288.862594,-16654.633695,-5822.325785
59321.664240,-6513.812290,-12657.521608,-2451.505594
59321.664550,-74.020594,-11399.171507,2757.943793
59321.664860,4071.132681,-6291.750507,6894.859482
59321.665170,11325.150913,814.226536,10495.508323
59321.665480,15914.427753,3627.009116,13406.671215
59321.665790,16210.510130,2368.659014,11568.042020
59321.666100,8660.409521,-2960.823768,6052.154434
59321.666410,-2368.659014,-9548.656652,0.000000
59321.666720,-3775.050304,-18357.107362,-3140.991542
59321.667030,-11621.233289,-19393.395680,-10035.851024
59321.667340,-14434.015869,-17764.942608,-12870.404366
59321.667649,-13841.851115,-19319.375086,-9806.022374
59321.667959,-10066.800811,-17024.736666,-5592.497135
59321.668269,-5329.482782,-14285.974681,-689.485948
59321.668579,2516.700203,-7920.203579,4826.401637
59321.668889,8882.471304,-3478.967927,11338.213370
59321.669199,15396.283594,1998.556043,15934.786358
59321.669509,18875.251521,4737.318029,14019.547613
59321.669819,12435.459826,5551.544565,7660.954980
59321.670129,4145.153275,-3182.885551,3677.258390
59321.670439,-1850.514855,-12139.377449,-3140.991542
59321.670749,-9400.615463,-16136.489536,-7201.297681
59321.671059,-13915.871710,-18949.272115,-10725.336972
59321.671369,-16062.468941,-18505.148550,-12104.308868
59321.671679,-16210.510130,-23390.507767,-7890.783629
59321.671989,-12435.459826,-17838.963202,-2451.505594
59321.672299,-4737.318029,-10732.986159,0.000000
59321.672609,6735.874072,-8882.471304,9116.536426
59321.672919,11473.192101,592.164754,10955.165621
59321.673229,17172.777854,5847.626942,15628.348159
59321.673539,21539.992912,7105.977043,14019.547613
59321.673849,12213.398043,2960.823768,7124.688131
59321.674159,1184.329507,-6957.935855,1302.362347
59321.674469,-5995.668130,-12805.562797,-4673.182538
59321.674779,-11251.130318,-20059.581028,-8580.269578
59321.675089,-16580.613101,-19023.292709,-13176.842566
59321.675399,-20725.766376,-20799.786970,-13483.280765
59321.675709,-15322.262999,-23686.590144,-5822.325785
59321.676019,-5403.503377,-14211.954086,-3753.867940
59321.676329,296.082377,-10732.986159,3983.696590
59321.676639,10658.965565,-3552.988522,12793.794817
59321.676949,16358.551318,2664.741391,14632.424012
59321.677259,20651.745782,8290.306550,16011.395908
59321.677569,19837.519246,7402.059420,11184.994271
59321.677879,8882.471304,-1850.514855,3830.477490
59321.678189,-4737.318029,-7179.997637,-4290.134789
59321.678498,-14063.912898,-13101.645173,-9806.022374
59321.678808,-14211.954086,-19911.539840,-9806.022374
59321.679118,-17246.798449,-21910.095883,-13559.890315
59321.679428,-20725.766376,-25241.022622,-9576.193725
59321.679738,-11547.212695,-19689.478057,-4290.134789
59321.680048,-962.267725,-14211.954086,1915.238745
59321.680357,6809.894666,-4737.318029,8886.707777
59321.680667,12361.439231,740.205942,13100.233016
59321.680977,20429.683999,4071.132681,15858.176809
59321.681286,23316.487173,11251.130318,13253.452115
59321.681596,12435.459826,7031.956449,6435.202183
59321.681906,592.164754,-5403.503377,919.314598
59321.682216,-7179.997637,-11843.295072,-7431.126331
59321.682525,-16284.530724,-17320.819043,-11414.822920
59321.682835,-18061.024985,-20207.622217,-13483.280765
59321.683145,-20799.786970,-28127.825796,-12334.137518
59321.683454,-17024.736666,-23760.610738,-8120.612279
59321.683764,-5107.421000,-18061.024985,-995.924147
59321.684074,3775.050304,-10066.800811,5745.716235
59321.684384,11473.192101,0.000000,10648.727422
59321.684693,17690.922014,4737.318029,16471.053207
59321.685003,22502.260637,13545.768739,14709.033562
59321.685313,22502.260637,8734.430116,14709.033562
59321.685622,8956.491898,296.082377,6511.811733
59321.685932,-5033.400406,-5403.503377,-4903.011187
59321.686242,-16210.510130,-16728.654289,-12104.308868
59321.686552,-18431.127956,-19615.457463,-15551.738609
59321.686861,-20873.807564,-25611.125593,-14555.814462
59321.687171,-22724.322419,-28423.908173,-8044.002729
59321.687481,-8364.327145,-22502.260637,-2528.115143
59321.687790,2294.638420,-15396.283594,4519.963438
59321.688100,7402.059420,-74.020594,8580.269578
59321.688410,14508.036463,0.000000,18845.949251
59321.688720,21243.910535,8290.306550,18386.291952
59321.689029,23094.425390,14137.933492,13483.280765
59321.689339,15840.407159,4811.338623,10265.679673
59321.689649,962.267725,-3404.947333,229.828649
59321.689958,-10362.883188,-9844.739029,-6665.030833
59321.690268,-16654.633695,-15988.448347,-13866.328514
59321.690578,-20355.663405,-23612.569550,-15858.176809
59321.690888,-20207.622217,-30200.402434,-9882.631924
59321.691197,-16062.468941,-25759.166782,-8656.879127
59321.691507,-5329.482782,-15470.304188,-3677.258390
59321.691817,5255.462188,-22354.219448,12257.527968
59321.692126,13249.686362,-3849.070898,12180.918418
59321.692436,18949.272115,1998.556043,17007.320056
59321.692746,26943.496289,5551.544565,19612.044749
59321.693056,23390.507767,4811.338623,14709.033562
59321.693365,9770.718434,-3330.926739,6741.640382
59321.693675,-3552.988522,-7476.080014,-7431.126331
59321.693985,-20799.786970,-9178.553681,-14785.643111
59321.694294,-13101.645173,-19911.539840,-13789.718964
59321.694604,-18653.189738,-27313.599260,-14709.033562
59321.694914,-21095.869347,-30866.587781,-11338.213370
59321.695224,-8364.327145,-25463.084405,-1915.238745
59321.695533,9844.739029,-7772.162391,-2451.505594
59321.695843,9474.636058,-12879.583391,11261.603821
59321.696153,11843.295072,-296.082377,16011.395908
59321.696462,24870.919651,5847.626942,19612.044749
59321.696772,24426.796086,9252.574275,16317.834107
59321.697082,15396.283594,7031.956449,8580.269578
59321.697392,10584.944971,-20725.766376,23212.693589
59321.697701,-12879.583391,-3627.009116,-13483.280765
59321.698011,-22132.157666,-2516.700203,-15398.519510
59321.698321,-11917.315666,-14804.118840,-15398.519510
59321.698630,-16654.633695,-25907.207970,-8427.050478
59321.698940,-15396.283594,-17987.004391,-6665.030833
59321.699250,-2960.823768,-3330.926739,-3983.696590
59321.699560,1480.411884,-3034.844362,5056.230287
59321.699869,12139.377449,7105.977043,12793.794817
59321.700179,12139.377449,11769.274478,12257.527968
59321.700489,22502.260637,13841.851115,14402.595362
59321.700799,20651.745782,5921.647536,9729.412825
59321.701108,-4515.256246,20133.601622,-2528.115143
59321.701418,-740.205942,-4515.256246,-1302.362347
59321.701728,-10881.027347,-13471.748144,-10955.165621
59321.702037,-17024.736666,-18135.045579,-14709.033562
59321.702347,-19911.539840,-30718.546593,-7737.564530
59321.702657,-17764.942608,-19615.457463,-10418.898773
59321.702967,-8660.409521,-6217.729913,-8350.440928
59321.703276,2886.803174,592.164754,4060.306139
59321.703586,11843.295072,4071.132681,8886.707777
59321.703896,15322.262999,1776.494261,18922.558801
59321.704205,17690.922014,9474.636058,15858.176809
59321.704515,20133.601622,12213.398043,12257.527968
59321.704825,9252.574275,3552.988522,3447.429741
59321.705135,-5403.503377,-592.164754,-4213.525239
59321.705444,-13619.789333,-6883.915261,-12104.308868
59321.705754,-13101.645173,-10066.800811,-12334.137518
59321.706064,-16062.468941,-20577.725188,-10572.117872
59321.706373,-15470.304188,-24278.754898,-8044.002729
59321.706683,-9474.636058,-19023.292709,-4903.011187
59321.706993,296.082377,-13101.645173,4903.011187
59321.707303,10584.944971,-8734.430116,12180.918418
59321.707612,21317.931130,5255.462188,11338.213370
59321.707922,16802.674883,4219.173869,14709.033562
59321.708232,15174.221811,8808.450710,18079.853753
59321.708541,15396.283594,11473.192101,6818.249932
59321.708851,-74.020594,0.000000,-1302.362347
59321.709161,-9548.656652,-5921.647536,-8656.879127
59321.709471,-14285.974681,-11843.295072,-12640.575717
59321.709780,-17468.860231,-17246.798449,-12104.308868
59321.710090,-16654.633695,-19319.375086,-8733.488677
59321.710400,-11251.130318,-19763.498651,-4136.915689
59321.710709,-2368.659014,-10140.821405,0.000000
59321.711019,4441.235652,-8290.306550,5975.544884
59321.711329,11917.315666,-1776.494261,11568.042020
59321.711639,17838.963202,-592.164754,13866.328514
59321.711948,18875.251521,296.082377,14632.424012
59321.712258,13027.624579,666.185348,7660.954980
59321.712568,3478.967927,-9474.636058,1149.143247
59321.712877,-11029.068536,-8660.409521,-7737.564530
59321.713187,-11843.295072,-17542.880825,-8120.612279
59321.713497,-13915.871710,-17246.798449,-10725.336972
59321.713807,-14878.139434,-21169.889941,-9806.022374
59321.714116,-13027.624579,-20059.581028,-5209.449386
59321.714426,-5107.421000,-15914.427753,-1378.971896
59321.714736,2590.720797,-11177.109724,4673.182538
59321.715045,12583.501014,-10955.047942,12947.013916
59321.715355,15396.283594,-4811.338623,14709.033562
59321.715665,18875.251521,1184.329507,14632.424012
59321.715975,15396.283594,3478.967927,7967.393179
59321.716284,8882.471304,-8364.327145,5515.887586
59321.716594,-6439.791695,-9548.656652,-7048.078582
59321.716904,-13397.727550,-14211.954086,-10495.508323
59321.717213,-14137.933492,-17912.983796,-10648.727422
59321.717523,-13619.789333,-22280.198854,-8580.269578
59321.717833,-14804.118840,-23464.528361,-5745.716235
59321.718143,-7105.977043,-17246.798449,-2451.505594
59321.718452,0.000000,-13693.809927,3140.991542
59321.718762,9474.636058,-5699.585753,9193.145976
59321.719072,14137.933492,-1776.494261,13713.109414
59321.719381,16506.592507,6513.812290,12793.794817
59321.719691,15396.283594,6439.791695,10189.070123
59321.720001,9400.615463,-2368.659014,6052.154434
59321.720311,-4663.297435,-7179.997637,-2987.772442
59321.720620,-11843.295072,-13101.645173,-9806.022374
59321.720930,-15988.448347,-17394.839637,-9882.631924
59321.721240,-15396.283594,-19023.292709,-11031.775171
59321.721549,-13397.727550,-21021.848753,-7814.174080
59321.721859,-13027.624579,-21539.992912,-3064.381992
59321.722169,-222.061783,-14804.118840,3600.648841
59321.722479,5255.462188,-7994.224174,6971.469032
59321.722788,12879.583391,-4737.318029,11568.042020
59321.723098,16506.592507,2368.659014,13406.671215
59321.723408,17394.839637,5921.647536,12487.356617
59321.723717,12287.418637,-3108.864956,9346.365076
59321.724027,0.000000,-7476.080014,-1532.190996
59321.724337,-13027.624579,-14582.057057,-7354.516781
59321.724647,-13989.892304,-16950.716072,-11721.261119
59321.724956,-15396.283594,-21391.951724,-9806.022374
59321.725266,-15766.386565,-26055.249158,-8044.002729
59321.725576,-16580.613101,-21391.951724,-7354.516781
59321.725885,-3923.091493,-21317.931130,-76.609550
59321.726195,4293.194464,-14211.954086,6511.811733
59321.726505,8660.409521,-4737.318029,9346.365076
59321.726815,14804.118840,1110.308913,13713.109414
59321.727124,18283.086767,3923.091493,14785.643111
59321.727434,14952.160028,5699.585753,9729.412825
59321.727744,6217.729913,-2886.803174,2298.286494
59321.728053,-9030.512492,-8882.471304,-5898.935335
59321.728363,-13323.706956,-14285.974681,-7967.393179
59321.728673,-11917.315666,-18949.272115,-9882.631924
59321.728983,-13101.645173,-18949.272115,-8656.879127
59321.729292,-14211.954086,-20799.786970,-5362.668486
59321.729602,-6365.771101,-17024.736666,-2068.457845
59321.729912,814.226536,-16136.489536,4290.134789
59321.730221,7105.977043,-9770.718434,9269.755526
59321.730531,13545.768739,1184.329507,10955.165621
59321.730841,17320.819043,5625.565159,14096.157163
59321.731151,16728.654289,7402.059420,9806.022374
59321.731460,8734.430116,74.020594,6128.763984
59321.731770,-74.020594,-9474.636058,-2528.115143
59321.732080,-8364.327145,-13915.871710,-8656.879127
59321.732389,-14211.954086,-15174.221811,-10725.336972
59321.732699,-11917.315666,-20207.622217,-8503.660028
59321.733009,-13101.645173,-26203.290347,-7201.297681
59321.733319,-9770.718434,-23686.590144,-1915.238745
59321.733628,-1258.350101,-20133.601622,2528.115143
59321.733938,5773.606348,-10288.862594,5209.449386
59321.734248,12361.439231,-4737.318029,9729.412825
59321.734557,14211.954086,2294.638420,12257.527968
59321.734867,19689.478057,3849.070898,15781.567259
59321.735177,12879.583391,1406.391290,9346.365076
59321.735487,-2368.659014,-3330.926739,-1838.629195
59321.735796,-10955.047942,-11325.150913,-6741.640382
59321.736106,-11991.336260,-16358.551318,-8963.317327
59321.736416,-12583.501014,-15840.407159,-10035.851024
59321.736725,-16062.468941,-17172.777854,-8273.831378
59321.737035,-11547.212695,-13989.892304,-7277.907231
59321.737345,-1850.514855,-17172.777854,2374.896044
59321.737655,3478.967927,-10510.924376,3294.210641
59321.737964,5329.482782,-2738.761985,8580.269578
59321.738274,12435.459826,2886.803174,12257.527968
59321.738584,16802.674883,7550.100608,11261.603821
59321.738893,16136.489536,3849.070898,9652.803275
59321.739203,7105.977043,-1184.329507,1302.362347
59321.739513,-5477.523971,-8438.347739,-4213.525239
59321.739823,-9252.574275,-13989.892304,-7814.174080
59321.740132,-11843.295072,-16876.695478,-9959.241474
59321.740442,-11917.315666,-20725.766376,-7737.564530
59321.740752,-16062.468941,-26055.249158,-6205.373534
59321.741062,-10658.965565,-19023.292709,-2451.505594
59321.741371,-2368.659014,-13101.645173,3677.258390
59321.741681,6735.874072,-1628.453072,5745.716235
59321.741991,11325.150913,518.144159,11568.042020
59321.742300,15322.262999,3478.967927,13789.718964
59321.742610,15618.345376,7328.038826,10265.679673
59321.742920,6809.894666,814.226536,5209.449386
59321.743230,-3701.029710,-4219.173869,-4136.915689
59321.743539,-14211.954086,-11917.315666,-7967.393179
59321.743849,-10140.821405,-16580.613101,-7431.126331
59321.744159,-13915.871710,-16062.468941,-9806.022374
59321.744468,-15692.365970,-19023.292709,-9193.145976
59321.744778,-9548.656652,-18949.272115,-3907.087040
59321.745088,-2146.597232,-15322.262999,1455.581446
59321.745398,5847.626942,-9252.574275,7507.735880
59321.745707,11325.150913,518.144159,9729.412825
59321.746017,13027.624579,5107.421000,12257.527968
59321.746327,16802.674883,7698.141797,10035.851024
59321.746636,11843.295072,3182.885551,6281.983084
59321.746946,3478.967927,-7105.977043,-76.609550
59321.747256,-8364.327145,-9474.636058,-7431.126331
59321.747566,-11325.150913,-13471.748144,-11108.384721
59321.747875,-9548.656652,-18357.107362,-8810.098227
59321.748185,-13989.892304,-22946.384202,-7737.564530
59321.748495,-12583.501014,-22354.219448,-4290.134789
59321.748804,-4811.338623,-17987.004391,229.828649
59321.749114,2368.659014,-12657.521608,5132.839837
59321.749424,8512.368333,-3256.906145,8427.050478
59321.749734,12435.459826,814.226536,12257.527968
59321.750043,18875.251521,1184.329507,15858.176809
59321.750353,14137.933492,5921.647536,7277.907231
59321.750663,5255.462188,-3552.988522,2374.896044
59321.750972,-5033.400406,-8512.368333,-4060.306139
59321.751282,-12731.542202,-15396.283594,-7431.126331
59321.751592,-12139.377449,-16580.613101,-9499.584175
59321.751902,-12879.583391,-16876.695478,-8963.317327
59321.752211,-12805.562797,-19985.560434,-4979.620737
59321.752521,-7698.141797,-18357.107362,-1915.238745
59321.752831,-666.185348,-14359.995275,3524.039291
59321.753140,7105.977043,-7179.997637,9806.022374
59321.753450,14063.912898,-2368.659014,12180.918418
59321.753760,18283.086767,4737.318029,12180.918418
59321.754070,15100.201217,4663.297435,9499.584175
59321.754379,8956.491898,0.000000,3907.087040
59321.754689,-2960.823768,-7698.141797,-2757.943793
59321.754999,-9622.677246,-13323.706956,-6894.859482
59321.755308,-10288.862594,-16580.613101,-8886.707777
59321.755618,-13027.624579,-20799.786970,-8350.440928
59321.755928,-13693.809927,-22132.157666,-7354.516781
59321.756238,-8586.388927,-24204.734303,1072.533697
59321.756547,-74.020594,-16580.613101,2987.772442
59321.756857,7402.059420,-9474.636058,7277.907231
59321.757167,9474.636058,-3034.844362,10725.336972
59321.757476,14952.160028,4071.132681,11951.089769
59321.757786,15618.345376,6217.729913,10878.556072
59321.758096,10732.986159,2220.617826,6665.030833
59321.758406,-74.020594,-4959.379811,0.000000
59321.758715,-10510.924376,-10881.027347,-5669.106685
59321.759025,-10732.986159,-14211.954086,-8963.317327
59321.759335,-12435.459826,-18135.045579,-7354.516781
59321.759644,-11917.315666,-18949.272115,-7431.126331
59321.759954,-13619.789333,-22576.281231,-3600.648841
59321.760264,-6513.812290,-15470.304188,0.000000
59321.760574,3330.926739,-12879.583391,6128.763984
59321.760883,9400.615463,-4219.173869,8733.488677
59321.761193,12731.542202,2590.720797,11031.775171
59321.761503,16210.510130,7328.038826,9806.022374
59321.761812,14211.954086,5255.462188,8044.002729
59321.762122,5847.626942,-3552.988522,1915.238745
59321.762432,-9474.636058,-5995.668130,-6128.763984
59321.762742,-9178.553681,-13989.892304,-7277.907231
59321.763051,-11843.295072,-16950.716072,-9193.145976
59321.763361,-14804.118840,-19911.539840,-9346.365076
59321.763671,-14137.933492,-20947.828159,-7124.688131
59321.763980,-7254.018232,-17394.839637,-2068.457845
59321.764290,1332.370696,-11103.089130,2987.772442
59321.764600,8216.285956,-5107.421000,6665.030833
59321.764910,12435.459826,962.267725,11951.089769
59321.765219,16506.592507,4737.318029,13406.671215
59321.765529,13027.624579,9400.615463,7967.393179
59321.765839,9474.636058,-666.185348,6741.640382
59321.766148,-4737.318029,-3627.009116,-3677.258390
59321.766458,-10436.903782,-11843.295072,-6818.249932
59321.766768,-10955.047942,-15100.201217,-8350.440928
59321.767078,-13397.727550,-17987.004391,-9576.193725
59321.767387,-14656.077652,-19615.457463,-8273.831378
59321.767697,-11251.130318,-18801.230927,-4366.744339
59321.768007,-5329.482782,-18135.045579,2451.505594
59321.768316,7105.977043,-11103.089130,8733.488677
59321.768626,9400.615463,-4737.318029,9422.974625
59321.768936,11843.295072,5255.462188,9806.022374
59321.769246,14508.036463,9104.533087,10112.460574
59321.769555,13249.686362,1776.494261,7584.345430
59321.769865,1332.370696,-4663.297435,-1378.971896
59321.770175,-8660.409521,-10510.924376,-6281.983084
59321.770484,-11103.089130,-15322.262999,-9193.145976
59321.770794,-12213.398043,-19541.436869,-9882.631924
59321.771104,-16284.530724,-21391.951724,-9806.022374
59321.771414,-13323.706956,-23390.507767,-4290.134789
59321.771723,-2442.679609,-21317.931130,-76.609550
59321.772033,1258.350101,-14285.974681,5056.230287
59321.772343,7772.162391,-3256.906145,6818.249932
59321.772652,14137.933492,592.164754,12180.918418
59321.772962,15840.407159,5329.482782,12640.575717
59321.773272,14952.160028,5773.606348,9422.974625
59321.773582,5255.462188,-1776.494261,3064.381992
59321.773891,-6143.709319,-7994.224174,-5132.839837
59321.774201,-12805.562797,-13619.789333,-7737.564530
59321.774511,-12731.542202,-16802.674883,-11644.651570
59321.774820,-12139.377449,-22428.240043,-7201.297681
59321.775130,-14285.974681,-28423.908173,-4366.744339
59321.775440,-7179.997637,-23538.548956,-2834.553343
59321.775750,296.082377,-19763.498651,3140.991542
59321.776059,5107.421000,-15396.283594,10035.851024
59321.776369,11621.233289,-3478.967927,10342.289223
59321.776679,15322.262999,1702.473667,12334.137518
59321.776988,17542.880825,4737.318029,12793.794817
59321.777298,11473.192101,1184.329507,4519.963438
59321.777608,0.000000,-5995.668130,-3677.258390
59321.777918,-7179.997637,-15396.283594,-4979.620737
59321.778227,-10732.986159,-17172.777854,-9882.631924
59321.778537,-11325.150913,-22502.260637,-9882.631924
59321.778847,-15988.448347,-24796.899057,-7660.954980
59321.779156,-12583.501014,-23020.404796,-4136.915689
59321.779466,-3108.864956,-17468.860231,2068.457845
59321.779776,4885.359217,-10510.924376,5056.230287
59321.780086,10584.944971,-5181.441594,11491.432470
59321.780395,15914.427753,2368.659014,12793.794817
59321.780705,16876.695478,8290.306550,10955.165621
59321.781015,11843.295072,4663.297435,7967.393179
59321.781325,4441.235652,-3182.885551,2987.772442
59321.781634,-5107.421000,-10658.965565,-4979.620737
59321.781944,-14063.912898,-14582.057057,-8580.269578
59321.782254,-13841.851115,-18579.169144,-10189.070123
59321.782564,-15396.283594,-20947.828159,-9959.241474
59321.782874,-15470.304188,-23464.528361,-5898.935335
59321.783184,-7846.182985,-20207.622217,153.219100
59321.783494,2368.659014,-14656.077652,5362.668486
59321.783804,10584.944971,-8290.306550,9729.412825
59321.784113,9770.718434,3478.967927,9806.022374
59321.784423,17764.942608,6587.832884,13483.280765
59321.784733,18949.272115,2590.720797,12257.527968
59321.785043,8808.450710,-1776.494261,4213.525239
59321.785353,-3330.926739,-8882.471304,-1378.971896
59321.785663,-10732.986159,-12213.398043,-9346.365076
59321.785973,-14063.912898,-16506.592507,-12257.527968
59321.786283,-14063.912898,-21984.116477,-10725.336972
59321.786593,-15470.304188,-26055.249158,-6818.249932
59321.786902,-11103.089130,-20133.601622,-3753.867940
59321.787212,-2368.659014,-17838.963202,2451.505594
59321.787522,7328.038826,-7994.224174,8503.660028
59321.787832,14137.933492,740.205942,12180.918418
59321.788142,15396.283594,5773.606348,15015.471761
59321.788452,19097.313304,10288.862594,12717.185267
59321.788762,13397.727550,4737.318029,8197.221829
59321.789072,814.226536,-1110.308913,-842.705048
59321.789381,-11251.130318,-8364.327145,-7354.516781
59321.789691,-12509.480420,-16580.613101,-8656.879127
59321.790001,-14285.974681,-16580.613101,-12334.137518
59321.790311,-22502.260637,-20207.622217,-12257.527968
59321.790621,-16580.613101,-20799.786970,-5822.325785
59321.790931,-4441.235652,-18357.107362,536.266849
59321.791241,3552.988522,-11473.192101,6435.202183
59321.791551,10510.924376,-3701.029710,11108.384721
59321.791861,14211.954086,2960.823768,13253.452115
59321.792170,19097.313304,9400.615463,12870.404366
59321.792480,17764.942608,6439.791695,9806.022374
59321.792790,7031.956449,-3552.988522,4060.306139
59321.793100,-6735.874072,-7105.977043,-7431.126331
59321.793410,-14211.954086,-11917.315666,-9806.022374
59321.793720,-11917.315666,-18949.272115,-11108.384721
59321.794030,-15618.345376,-22502.260637,-11414.822920
59321.794340,-19393.395680,-23538.548956,-7354.516781
59321.794649,-9178.553681,-19023.292709,-1991.848295
59321.794959,3923.091493,-14878.139434,4366.744339
59321.795269,10510.924376,-3182.885551,9729.412825
59321.795579,15396.283594,4071.132681,12870.404366
59321.795889,22428.240043,4145.153275,15858.176809
59321.796199,21243.910535,5921.647536,14632.424012
59321.796509,7105.977043,-74.020594,7354.516781
59321.796819,1480.411884,-6291.750507,-2298.286494
59321.797129,-13915.871710,-11621.233289,-7967.393179
59321.797438,-15766.386565,-14434.015869,-11644.651570
59321.797748,-14063.912898,-17320.819043,-12947.013916
59321.798058,-19763.498651,-21465.972318,-10801.946522
59321.798368,-14656.077652,-19911.539840,-6205.373534
59321.798678,-3552.988522,-17987.004391,2604.724693
59321.798988,4145.153275,-7402.059420,6128.763984
59321.799298,11769.274478,-4663.297435,18003.244203
59321.799608,16506.592507,7698.141797,10955.165621
59321.799917,18949.272115,15914.427753,9806.022374
59321.800227,18949.272115,5847.626942,9806.022374
59321.800537,4663.297435,0.000000,-1455.581446
59321.800847,-18653.189738,-6143.709319,-13176.842566
59321.801157,-10066.800811,-16284.530724,-13176.842566
59321.801467,-11399.171507,-21021.848753,-13253.452115
59321.801777,-22206.178260,-22280.198854,-12410.747068
59321.802087,-20577.725188,-22576.281231,-8120.612279
59321.802397,-6217.729913,-18431.127956,0.000000
59321.802706,4663.297435,-18653.189738,3600.648841
59321.803016,5255.462188,-10658.965565,8503.660028
59321.803326,14211.954086,-4811.338623,14709.033562
59321.803636,21169.889941,-370.102971,16471.053207
59321.803946,18949.272115,592.164754,14632.424012
59321.804256,-1554.432478,-11251.130318,9806.022374
59321.804566,6217.729913,-9770.718434,-6818.249932
59321.804876,-18653.189738,-15470.304188,-11491.432470
59321.805185,-19023.292709,-15692.365970,-11721.261119
59321.805495,-6291.750507,-20725.766376,-15398.519510
59321.805805,-29682.258274,-24870.919651,-10189.070123
59321.806115,-15248.242405,-27165.558071,-4673.182538
59321.806425,0.000000,-20207.622217,3064.381992
59321.806735,3478.967927,-13915.871710,10342.289223
59321.807045,13027.624579,-1850.514855,11568.042020
59321.807355,18727.210333,2960.823768,16241.224558
59321.807665,22502.260637,6661.853478,14632.424012
59321.807974,16580.613101,1702.473667,9729.412825
59321.808284,-2072.576638,3478.967927,-1838.629195
59321.808594,-10584.944971,-15026.180623,-5592.497135
59321.808904,-11917.315666,-19319.375086,-12640.575717
59321.809214,-17764.942608,-23760.610738,-12257.527968
59321.809524,-24870.919651,-21391.951724,-13789.718964
59321.809834,-14582.057057,-31680.814318,-4366.744339
59321.810144,-6957.935855,-21095.869347,-4903.011187
59321.810453,814.226536,-10140.821405,1838.629195
59321.810763,11991.336260,-3627.009116,12870.404366
59321.811073,18949.272115,2072.576638,16777.491406
59321.811383,21317.931130,9400.615463,15934.786358
59321.811693,21021.848753,9030.512492,14709.033562
59321.812003,5847.626942,0.000000,-76.609550
59321.812313,-4589.276840,-5995.668130,-5975.544884
59321.812623,-14878.139434,-15248.242405,-12257.527968
59321.812933,-19763.498651,-18801.230927,-12487.356617
59321.813242,-19985.560434,-20799.786970,-15934.786358
59321.813552,-22650.301825,-26647.413912,-10801.946522
59321.813862,-7550.100608,-20281.642811,-995.924147
59321.814172,-4811.338623,-10658.965565,2374.896044
59321.814482,7328.038826,1628.453072,10801.946522
59321.814792,16580.613101,3478.967927,12257.527968
59321.815102,24204.734303,3108.864956,21680.502593
59321.815412,24796.899057,17024.736666,11261.603821
59321.815722,15914.427753,5033.400406,7890.783629
59321.816031,11251.130318,-7031.956449,4903.011187
59321.816341,-14952.160028,-9474.636058,-10801.946522
59321.816651,-17024.736666,-13249.686362,-12334.137518
59321.816961,-15766.386565,-22354.219448,-14938.862211
59321.817271,-22872.363608,-30792.567187,-12334.137518
59321.817581,-17320.819043,-25315.043216,-4060.306139
59321.817891,-1628.453072,-11325.150913,-4826.401637
59321.818201,2368.659014,-14285.974681,9806.022374
59321.818510,15914.427753,1184.329507,12180.918418
59321.818820,18875.251521,2516.700203,17083.929605
59321.819130,26055.249158,4663.297435,30337.381721
59321.819440,21317.931130,11547.212695,11108.384721
59321.819750,3849.070898,10066.800811,-2374.896044
59321.820060,-12139.377449,-2072.576638,-13100.233016
59321.820370,-16654.633695,-16580.613101,-10189.070123
59321.820680,-14582.057057,-20281.642811,-12104.308868
59321.820990,-21984.116477,-20207.622217,-18386.291952
59321.821299,-25463.084405,-21688.034101,-10725.336972
59321.821609,-13101.645173,-21317.931130,-3753.867940
59321.821919,4663.297435,-11843.295072,4213.525239
59321.822229,9474.636058,-7179.997637,8886.707777
59321.822539,8882.471304,-3034.844362,14785.643111
59321.822849,22650.301825,6513.812290,15858.176809
59321.823159,25315.043216,5403.503377,16164.615008
59321.823469,12287.418637,-2294.638420,10112.460574
59321.823778,-4219.173869,-5921.647536,-12334.137518
59321.824088,-22576.281231,-9178.553681,-15398.519510
59321.824398,-14211.954086,-20207.622217,-13483.280765
59321.824708,-17838.963202,-29608.237680,-14479.204912
59321.825018,-33235.246796,-43820.191766,-7431.126331
59321.825328,-14211.954086,-27313.599260,-4903.011187
59321.825638,-1110.308913,-16580.613101,-1302.362347
59321.825948,7254.018232,-11621.233289,8427.050478
59321.826258,16580.613101,-4293.194464,16088.005458
59321.826567,23612.569550,3997.112087,23212.693589
59321.826877,28349.887579,12435.459826,17696.806004
59321.827187,20133.601622,2146.597232,10418.898773
59321.827497,7402.059420,-7476.080014,2757.943793
59321.827807,-10732.986159,-13027.624579,-6205.373534
59321.828117,-15544.324782,-18949.272115,-9882.631924
59321.828427,-16580.613101,-22132.157666,-14019.547613
59321.828737,-21614.013506,-28868.031738,-14402.595362
59321.829046,-20947.828159,-29830.299463,-8963.317327
59321.829356,-9474.636058,-23908.651927,-2145.067394
59321.829666,5033.400406,-15174.221811,7354.516781
59321.829976,12361.439231,-7994.224174,14785.643111
59321.830286,17542.880825,740.205942,16471.053207
59321.830596,22502.260637,7031.956449,18386.291952
59321.830906,25833.187376,2368.659014,15475.129060
59321.831216,12287.418637,-8882.471304,8810.098227
59321.831526,-7402.059420,-12509.480420,-3524.039291
59321.831835,-14656.077652,-13101.645173,-11338.213370
59321.832145,-20947.828159,-19393.395680,-16088.005458
59321.832455,-21539.992912,-20873.807564,-18999.168350
59321.832765,-27831.743419,-28497.928767,-11644.651570
59321.833075,-15100.201217,-17394.839637,-8044.002729
59321.833385,-74.020594,-13619.789333,2374.896044
59321.833695,8216.285956,-1480.411884,8197.221829
59321.834005,15396.283594,2294.638420,14709.033562
59321.834314,21317.931130,3849.070898,21757.112143
59321.834624,26721.434506,11843.295072,16241.224558
59321.834934,17246.798449,5255.462188,10955.165621
59321.835244,-148.041188,-1850.514855,1149.143247
59321.835554,-11991.336260,-9252.574275,-9116.536426
59321.835864,-21910.095883,-17246.798449,-14709.033562
59321.836174,-20725.766376,-21391.951724,-15934.786358
59321.836484,-23834.631332,-24648.857869,-13023.623466
59321.836794,-20207.622217,-23094.425390,-8656.879127
59321.837103,-5995.668130,-12361.439231,-4596.572988
59321.837413,4737.318029,-11325.150913,7967.393179
59321.837723,11769.274478,-3552.988522,15704.957709
59321.838033,19393.395680,4589.276840,18616.120601
59321.838343,26277.310941,8068.244768,17620.196454
59321.838653,23094.425390,7920.203579,12640.575717
59321.838963,6735.874072,-1480.411884,76.609550
59321.839273,-9474.636058,-9696.697840,-6128.763984
59321.839582,-16136.489536,-17838.963202,-10418.898773
59321.839892,-17246.798449,-20725.766376,-16624.272307
59321.840202,-23686.590144,-23168.445985,-18386.291952
59321.840512,-24870.919651,-28794.011144,-9806.022374
59321.840822,-10140.821405,-20725.766376,-4673.182538
59321.841132,-1776.494261,-17172.777854,6358.592633
59321.841442,13693.809927,-3330.926739,13330.061665
59321.841752,19541.436869,2738.761985,15321.909960
59321.842062,24204.734303,5921.647536,19535.435199
59321.842371,27239.578666,12953.603985,15934.786358
59321.842681,15544.324782,814.226536,11797.870669
59321.842991,-5995.668130,-11547.212695,6052.154434
59321.843301,-7105.977043,-3627.009116,-14709.033562
59321.843611,-23242.466579,-11917.315666,-14096.157163
59321.843921,-19615.457463,-19985.560434,-16011.395908
59321.844231,-22576.281231,-22206.178260,-14479.204912
59321.844541,-17987.004391,-18431.127956,-7277.907231
59321.844850,-2886.803174,-12657.521608,-5745.716235
59321.845160,6439.791695,-4737.318029,10955.165621
59321.845470,16506.592507,2368.659014,15245.300410
59321.845780,18949.272115,9400.615463,19612.044749
59321.846090,27831.743419,7994.224174,20224.921147
59321.846400,20059.581028,16580.613101,14325.985813
59321.846710,7254.018232,-1998.556043,-4290.134789
59321.847020,-14656.077652,-4663.297435,-16547.662757
59321.847330,-19763.498651,-10658.965565,-14325.985813
59321.847639,-17172.777854,-15100.201217,-17466.977354
59321.847949,-22724.322419,-21836.075289,-18003.244203
59321.848259,-21391.951724,-25759.166782,-9882.631924
59321.848569,-5107.421000,-12879.583391,-4366.744339
59321.848879,9400.615463,-2664.741391,5439.278036
59321.849189,11843.295072,4663.297435,13483.280765
59321.849499,18875.251521,8586.388927,18616.120601
59321.849809,28349.887579,13027.624579,15628.348159
59321.850118,25315.043216,9622.677246,14938.862211
59321.850428,12805.562797,3256.906145,7584.345430
59321.850738,-2516.700203,-4515.256246,-2221.676944
59321.851048,-12657.521608,-10066.800811,-11108.384721
59321.851358,-19911.539840,-16580.613101,-11184.994271
59321.851668,-19615.457463,-19837.519246,-17237.148705
59321.851978,-22576.281231,-21762.054695,-14172.766713
59321.852288,-14211.954086,-9548.656652,-7967.393179
59321.852598,2590.720797,-5329.482782,-76.609550
59321.852907,11177.109724,1258.350101,9729.412825
59321.853217,13027.624579,-3627.009116,17773.415554
59321.853527,24204.734303,2516.700203,21067.626195
59321.853837,25241.022622,7624.121203,16011.395908
59321.854147,17987.004391,-1702.473667,14709.033562
59321.854457,2960.823768,-5699.585753,-1532.190996
59321.854767,-13693.809927,-12731.542202,-7431.126331
59321.855077,-15470.304188,-16580.613101,-13559.890315
59321.855387,-20133.601622,-19023.292709,-16547.662757
59321.855696,-23094.425390,-28349.887579,-13176.842566
59321.856006,-20873.807564,-25463.084405,-7431.126331
59321.856316,-5773.606348,-17912.983796,-2528.115143
59321.856626,3256.906145,-9104.533087,7814.174080
59321.856936,14137.933492,1998.556043,13406.671215
59321.857246,21243.910535,1850.514855,17160.539155
59321.857556,22798.343014,8808.450710,17773.415554
59321.857866,22650.301825,4441.235652,14096.157163
59321.858175,8216.285956,-4737.318029,6052.154434
59321.858485,-8660.409521,-5699.585753,-7737.564530
59321.858795,-18209.066173,-16358.551318,-9806.022374
59321.859105,-19985.560434,-20725.766376,-10495.508323
59321.859415,-19615.457463,-19837.519246,-15551.738609
59321.859725,-20873.807564,-26721.434506,-9729.412825
59321.860035,-11621.233289,-14211.954086,-6128.763984
59321.860345,2146.597232,-8216.285956,612.876398
59321.860655,8290.306550,-3627.009116,11031.775171
59321.860964,17172.777854,-962.267725,19612.044749
59321.861274,23612.569550,5921.647536,18309.682402
59321.861584,21317.931130,11769.274478,12257.527968
59321.861894,15396.283594,4663.297435,6588.421283
59321.862204,-3552.988522,-7105.977043,-1915.238745
59321.862514,-12509.480420,-6809.894666,-13406.671215
59321.862824,-16802.674883,-14434.015869,-14938.862211
59321.863134,-16950.716072,-18135.045579,-15781.567259
59321.863443,-19985.560434,-24352.775492,-13713.109414
59321.863753,-15692.365970,-19171.333898,-9499.584175
59321.864063,-2960.823768,-9770.718434,-2221.676944
59321.864373,5921.647536,-6587.832884,8580.269578
59321.864683,17690.922014,592.164754,14632.424012
59321.864993,19541.436869,7624.121203,17696.806004
59321.865303,26055.249158,4071.132681,19612.044749
59321.865613,17987.004391,4737.318029,11414.822920
59321.865923,2812.782580,-2960.823768,1608.800546
59321.866232,-7994.224174,-10584.944971,-7507.735880
59321.866542,-18061.024985,-16432.571912,-12947.013916
59321.866852,-19615.457463,-21169.889941,-14172.766713
59321.867162,-21910.095883,-23316.487173,-14785.643111
59321.867472,-22502.260637,-19023.292709,-9806.022374
59321.867782,-11103.089130,-17394.839637,-3064.381992
59321.868092,4663.297435,-13915.871710,7277.907231
59321.868402,9474.636058,-7179.997637,14709.033562
59321.868711,16580.613101,-2590.720797,18233.072852
59321.869021,21539.992912,5255.462188,17466.977354
59321.869331,21910.095883,6661.853478,11951.089769
59321.869641,7031.956449,-3552.988522,4213.525239
59321.869951,-5995.668130,-10658.965565,-5592.497135
59321.870261,-18357.107362,-14211.954086,-13559.890315
59321.870571,-18357.107362,-19615.457463,-14096.157163
59321.870881,-16654.633695,-25463.084405,-14172.766713
59321.871191,-21984.116477,-28868.031738,-9499.584175
59321.871500,-14804.118840,-19023.292709,-6741.640382
59321.871810,-1036.288319,-14434.015869,3217.601092
59321.872120,2294.638420,-12213.398043,6128.763984
59321.872430,13545.768739,6661.853478,14785.643111
59321.872740,22428.240043,2368.659014,17083.929605
59321.873050,28349.887579,9474.636058,15858.176809
59321.873360,11473.192101,-888.247130,9729.412825
59321.873670,2368.659014,-3923.091493,6128.763984
59321.873979,-14878.139434,-10658.965565,-11108.384721
59321.874289,-18579.169144,-16580.613101,-11031.775171
59321.874599,-12953.603985,-10732.986159,-24515.055936
59321.874909,-26647.413912,-30718.546593,-9346.365076
59321.875219,-13101.645173,-22872.363608,-6894.859482
59321.875529,-3478.967927,-17468.860231,-1991.848295
59321.875839,2146.597232,-21021.848753,13330.061665
59321.876149,17024.736666,-9474.636058,19535.435199
59321.876459,20651.745782,-3552.988522,19535.435199
59321.876768,19245.354492,3478.967927,13789.718964
59321.877078,16580.613101,-1850.514855,9806.022374
59321.877388,2294.638420,-11473.192101,0.000000
59321.877698,-11917.315666,-17172.777854,-10189.070123
59321.878008,-21465.972318,-16654.633695,-12257.527968
59321.878318,-13397.727550,-20725.766376,-11568.042020
59321.878628,-16358.551318,-28497.928767,-11261.603821
59321.878938,-18357.107362,-29090.093521,-4903.011187
59321.879247,-7105.977043,-20355.663405,1532.190996
59321.879557,16284.530724,-13471.748144,4213.525239
59321.879867,7031.956449,-1776.494261,12180.918418
59321.880177,15692.365970,4663.297435,14709.033562
59321.880487,23834.631332,7031.956449,16011.395908
59321.880797,21243.910535,5921.647536,11874.480219
59321.881107,5329.482782,222.061783,1915.238745
59321.881416,-5921.647536,-7698.141797,-4903.011187
59321.881726,-12213.398043,-23686.590144,-1915.238745
59321.882036,-16580.613101,-14878.139434,-14096.157163
59321.882346,-21317.931130,-19615.457463,-13483.280765
59321.882656,-18949.272115,-21391.951724,-7967.393179
59321.882965,-7179.997637,-17764.942608,-3753.867940
59321.883275,6439.791695,-15470.304188,4366.744339
59321.883585,2368.659014,-2368.659014,12334.137518
59321.883895,17690.922014,2368.659014,17696.806004
59321.884205,23316.487173,4293.194464,17696.806004
59321.884514,22058.137072,7920.203579,12793.794817
59321.884824,11769.274478,-1776.494261,7201.297681
59321.885134,-4737.318029,-5995.668130,-4903.011187
59321.885444,-12731.542202,-10732.986159,-11031.775171
59321.885754,-14878.139434,-16580.613101,-10495.508323
59321.886063,-16654.633695,-18357.107362,-15704.957709
59321.886373,-18949.272115,-24944.940245,-9806.022374
59321.886683,-11917.315666,-23686.590144,-4979.620737
59321.886993,-1258.350101,-18357.107362,1762.019645
59321.887303,7254.018232,-10288.862594,9346.365076
59321.887612,17098.757260,222.061783,13483.280765
59321.887922,23242.466579,74.020594,28345.533426
59321.888232,21317.931130,1702.473667,15321.909960
59321.888542,16580.613101,4663.297435,7660.954980
59321.888852,-4737.318029,-5403.503377,0.000000
59321.889161,-4811.338623,-16580.613101,-6818.249932
59321.889471,-16210.510130,-21910.095883,-9882.631924
59321.889781,-17764.942608,-21021.848753,-12027.699319
59321.890091,-15988.448347,-24278.754898,-10495.508323
59321.890401,-17394.839637,-24722.878463,-6205.373534
59321.890710,-8586.388927,-17098.757260,-2528.115143
59321.891020,2738.761985,-12953.603985,6205.373534
59321.891330,8364.327145,-5995.668130,11338.213370
59321.891640,14211.954086,6439.791695,14709.033562
59321.891950,20429.683999,13545.768739,12870.404366
59321.892259,21021.848753,2738.761985,14632.424012
59321.892569,7624.121203,-2960.823768,2068.457845
59321.892879,-8660.409521,-10658.965565,-5592.497135
59321.893189,-14211.954086,-14582.057057,-9499.584175
59321.893499,-15692.365970,-18949.272115,-11644.651570
59321.893808,-20725.766376,-23020.404796,-12947.013916
59321.894118,-13619.789333,-27091.537477,-8886.707777
59321.894428,-11621.233289,-19541.436869,-4979.620737
59321.894738,-962.267725,-9696.697840,-842.705048
59321.895048,8660.409521,-1850.514855,7814.174080
59321.895357,15396.283594,4663.297435,14709.033562
59321.895667,22132.157666,4811.338623,18309.682402
59321.895977,23316.487173,8882.471304,15245.300410
59321.896287,10066.800811,3478.967927,5209.449386
59321.896597,-1850.514855,-5255.462188,-1608.800546
59321.896906,-11769.274478,-10584.944971,-9729.412825
59321.897216,-16876.695478,-17468.860231,-10878.556072
59321.897526,-14285.974681,-20133.601622,-11721.261119
59321.897836,-16654.633695,-22502.260637,-9882.631924
59321.898146,-13397.727550,-16580.613101,-8044.002729
59321.898455,-4737.318029,-16654.633695,0.000000
59321.898765,5551.544565,-13027.624579,9729.412825
59321.899075,12139.377449,-2442.679609,14709.033562
59321.899385,16580.613101,4663.297435,15015.471761
59321.899695,22280.198854,9474.636058,14709.033562
59321.900005,16358.551318,5921.647536,8503.660028
59321.900314,1554.432478,-4293.194464,-383.047749
59321.900624,-9548.656652,-11843.295072,-4979.620737
59321.900934,-16654.633695,-15396.283594,-12334.137518
59321.901244,-13101.645173,-20725.766376,-13559.890315
59321.901554,-16580.613101,-22576.281231,-12257.527968
59321.901863,-16802.674883,-24870.919651,-3753.867940
59321.902173,-7550.100608,-16062.468941,-2451.505594
59321.902483,4441.235652,-7846.182985,3907.087040
59321.902793,13619.789333,-2294.638420,9499.584175
59321.903103,18135.045579,4071.132681,16088.005458
59321.903412,22502.260637,12583.501014,14709.033562
59321.903722,22798.343014,7402.059420,13713.109414
59321.904032,9400.615463,0.000000,4749.792088
59321.904342,-2442.679609,-5921.647536,-3753.867940
59321.904652,-14211.954086,-9548.656652,-9806.022374
59321.904961,-12361.439231,-16062.468941,-10112.460574
59321.905271,-15988.448347,-19023.292709,-12257.527968
59321.905581,-16950.716072,-20725.766376,-9269.755526
59321.905891,-9030.512492,-16506.592507,-5822.325785
59321.906201,-2368.659014,-16876.695478,2374.896044
59321.906510,6809.894666,-8882.471304,8044.002729
59321.906820,15396.283594,-2738.761985,17160.539155
59321.907130,20725.766376,5107.421000,14709.033562
59321.907440,22428.240043,7105.977043,12180.918418
59321.907750,9770.718434,-5995.668130,7354.516781
59321.908059,-4145.153275,-12509.480420,0.000000
59321.908369,-11917.315666,-16432.571912,-6818.249932
59321.908679,-11917.315666,-23390.507767,-9882.631924
59321.908989,-13619.789333,-23168.445985,-10801.946522
59321.909299,-15100.201217,-29386.175897,-5515.887586
59321.909608,-11399.171507,-23612.569550,-4903.011187
59321.909918,-5921.647536,-16654.633695,0.000000
59321.910228,4737.318029,-10140.821405,5515.887586
59321.910538,12583.501014,-5255.462188,14632.424012
59321.910848,17690.922014,2664.741391,13406.671215
59321.911157,18949.272115,3478.967927,15934.786358
59321.911467,16210.510130,296.082377,9116.536426
59321.911777,2886.803174,-7698.141797,1072.533697
59321.912087,-8808.450710,-13841.851115,-5592.497135
59321.912397,-13323.706956,-17246.798449,-8580.269578
59321.912706,-13693.809927,-19467.416275,-9652.803275
59321.913016,-16580.613101,-21391.951724,-9806.022374
59321.913326,-15988.448347,-19023.292709,-7967.393179
59321.913636,-9474.636058,-19023.292709,-2451.505594
59321.913946,1184.329507,-16950.716072,6894.859482
59321.914255,8808.450710,-6217.729913,9116.536426
59321.914565,14730.098246,0.000000,14632.424012
59321.914875,19467.416275,5477.523971,15245.300410
59321.915185,16654.633695,5773.606348,9269.755526
59321.915495,4811.338623,-2886.803174,1378.971896
59321.915804,-8364.327145,-8290.306550,-5286.058936
59321.916114,-14730.098246,-12361.439231,-9729.412825
59321.916424,-16136.489536,-15174.221811,-11108.384721
59321.916734,-16580.613101,-19615.457463,-9806.022374
59321.917044,-13693.809927,-24722.878463,-4060.306139
59321.917353,-9844.739029,-16654.633695,-6435.202183
59321.917663,-74.020594,-17764.942608,6052.154434
59321.917973,7698.141797,-9252.574275,7967.393179
59321.918283,13767.830521,1480.411884,10189.070123
59321.918593,17616.901420,3256.906145,13942.938064
59321.918902,17838.963202,5477.523971,10572.117872
59321.919212,7624.121203,-148.041188,2987.772442
59321.919522,-2442.679609,-8290.306550,-2528.115143
59321.919832,-10436.903782,-12139.377449,-8197.221829
59321.920142,-11843.295072,-16654.633695,-8580.269578
59321.920451,-11917.315666,-22502.260637,-7431.126331
59321.920761,-12139.377449,-21688.034101,-7124.688131
59321.921071,-12731.542202,-19023.292709,-3677.258390
59321.921381,-3849.070898,-15322.262999,229.828649
59321.921691,4071.132681,-9992.780217,6052.154434
59321.922000,9474.636058,-2738.761985,11108.384721
59321.922310,17098.757260,4737.318029,12180.918418
59321.922620,18283.086767,7105.977043,12180.918418
59321.922930,9474.636058,4663.297435,4903.011187
59321.923240,296.082377,-6291.750507,-919.314598
59321.923549,-9548.656652,-10066.800811,-7431.126331
59321.923859,-13619.789333,-15470.304188,-7354.516781
59321.924169,-14211.954086,-17542.880825,-9806.022374
59321.924479,-13693.809927,-22058.137072,-7814.174080
59321.924789,-11325.150913,-20133.601622,-4673.182538
59321.925098,-6883.915261,-19689.478057,1455.581446
59321.925408,6439.791695,-13027.624579,5745.716235
59321.925718,12953.603985,-9474.636058,12180.918418
59321.926028,14137.933492,2368.659014,11261.603821
59321.926338,16580.613101,7920.203579,11338.213370
59321.926647,16210.510130,0.000000,12180.918418
59321.926957,2368.659014,-666.185348,1225.752797
59321.927267,-6439.791695,-10140.821405,-3140.991542
59321.927577,-12287.418637,-15766.386565,-7507.735880
59321.927887,-12953.603985,-15766.386565,-10648.727422
59321.928196,-14211.954086,-17320.819043,-9729.412825
59321.928506,-12805.562797,-18949.272115,-6128.763984
59321.928816,-7105.977043,-15470.304188,-1225.752797
59321.929126,-74.020594,-14211.954086,4826.401637
59321.929436,6217.729913,-4219.173869,7507.735880
59321.929745,11843.295072,-74.020594,12870.404366
59321.930055,15470.304188,8216.285956,12257.527968
59321.930365,18283.086767,4737.318029,11874.480219
59321.930675,7994.224174,-3997.112087,5132.839837
59321.930985,-3997.112087,-10807.006753,-4060.306139
59321.931294,-11621.233289,-16950.716072,-5669.106685
59321.931604,-12435.459826,-19319.375086,-8273.831378
59321.931914,-14211.954086,-21391.951724,-9193.145976
59321.932224,-13101.645173,-25315.043216,-4979.620737
59321.932534,-7772.162391,-19985.560434,-3140.991542
59321.932843,-4737.318029,-19023.292709,2451.505594
59321.933153,5255.462188,-9696.697840,3907.087040
59321.933463,10140.821405,-7105.977043,11568.042020
59321.933773,14211.954086,1480.411884,11797.870669
59321.934083,17764.942608,6143.709319,12180.918418
59321.934392,11917.315666,666.185348,7354.516781
59321.934702,2368.659014,-2442.679609,0.000000
59321.935012,-9474.636058,-9548.656652,-4903.011187
59321.935322,-8882.471304,-15766.386565,-4903.011187
59321.935632,-9548.656652,-18357.107362,-7431.126331
59321.935941,-15470.304188,-19837.519246,-8656.879127
59321.936251,-13101.645173,-20577.725188,-6205.373534
59321.936561,-5995.668130,-18949.272115,-1608.800546
59321.936871,-888.247130,-16432.571912,3524.039291
59321.937181,6735.874072,-7846.182985,7814.174080
59321.937490,11695.253884,-1184.329507,11108.384721
59321.937800,15396.283594,8216.285956,10418.898773
59321.938110,14359.995275,8216.285956,7660.954980
59321.938420,2664.741391,-1258.350101,1838.629195
59321.938730,-4811.338623,-8290.306550,-2528.115143
59321.939039,-14211.954086,-11325.150913,-8273.831378
59321.939349,-9548.656652,-18653.189738,-6205.373534
59321.939659,-11029.068536,-20725.766376,-7431.126331
59321.939969,-12583.501014,-22280.198854,-4673.182538
59321.940279,-6883.915261,-18949.272115,-1762.019645
59321.940588,666.185348,-13175.665768,2834.553343
59321.940898,3997.112087,-5551.544565,5745.716235
59321.941208,10584.944971,3552.988522,9116.536426
59321.941518,15396.283594,7920.203579,11031.775171
59321.941828,18875.251521,7105.977043,9729.412825
59321.942137,7624.121203,2960.823768,2374.896044
59321.942447,1110.308913,-4737.318029,-2528.115143
59321.942757,-9326.594869,-10436.903782,-6435.202183
59321.943067,-9844.739029,-12953.603985,-8273.831378
59321.943377,-10066.800811,-16284.530724,-8273.831378
59321.943686,-13249.686362,-19171.333898,-6665.030833
59321.943996,-11325.150913,-20577.725188,-1455.581446
59321.944306,-2442.679609,-17172.777854,-76.609550
59321.944616,1184.329507,-8364.327145,3677.258390
59321.944926,7105.977043,-3627.009116,10418.898773
59321.945236,17690.922014,2368.659014,10955.165621
59321.945545,17838.963202,7254.018232,11874.480219
59321.945855,10658.965565,4071.132681,6741.640382
59321.946165,0.000000,-4145.153275,-1149.143247
59321.946475,-10140.821405,-9622.677246,-6052.154434
59321.946785,-12065.356855,-15174.221811,-8350.440928
59321.947094,-10732.986159,-20725.766376,-8810.098227
59321.947404,-12509.480420,-22502.260637,-6205.373534
59321.947714,-12213.398043,-21317.931130,-4979.620737
59321.948024,-5921.647536,-17838.963202,0.000000
59321.948334,5847.626942,-14211.954086,6971.469032
59321.948643,8290.306550,-11769.274478,11797.870669
59321.948953,12435.459826,-1850.514855,11414.822920
59321.949263,15988.448347,148.041188,10878.556072
59321.949573,14211.954086,-1184.329507,9346.365076
59321.949883,7179.997637,-5847.626942,5209.449386
59321.950192,-4219.173869,-11843.295072,-3753.867940
59321.950502,-7179.997637,-16580.613101,-4979.620737
59321.950812,-8660.409521,-16802.674883,-8656.879127
59321.951122,-13027.624579,-20799.786970,-6741.640382
59321.951432,-9548.656652,-23686.590144,-4979.620737
59321.951741,-10658.965565,-19615.457463,0.000000
59321.952051,-666.185348,-17542.880825,4213.525239
59321.952361,3849.070898,-8882.471304,6894.859482
59321.952671,10436.903782,74.020594,9806.022374
59321.952981,15026.180623,6957.935855,12334.137518
59321.953290,16136.489536,11621.233289,7967.393179
59321.953600,8586.388927,4071.132681,5822.325785
59321.953910,-74.020594,-2368.659014,-3447.429741
59321.954220,-11843.295072,-7179.997637,-9806.022374
59321.954530,-10658.965565,-14878.139434,-7048.078582
59321.954839,-10658.965565,-13693.809927,-9806.022374
59321.955149,-14582.057057,-19467.416275,-7737.564530
59321.955459,-8586.388927,-19097.313304,-3217.601092
59321.955769,-1258.350101,-18727.210333,2757.943793
59321.956079,3997.112087,-11843.295072,6128.763984
59321.956388,9474.636058,-1258.350101,8886.707777
59321.956698,13027.624579,1998.556043,11644.651570
59321.957008,18875.251521,4811.338623,12180.918418
59321.957318,12953.603985,1776.494261,7277.907231
59321.957628,0.000000,-1850.514855,0.000000
59321.957937,-8290.306550,-7772.162391,-6741.640382
59321.958247,-8956.491898,-16284.530724,-6205.373534
59321.958557,-10807.006753,-17912.983796,-9039.926876
59321.958867,-12731.542202,-19393.395680,-9269.755526
59321.959177,-15914.427753,-21095.869347,-5898.935335
59321.959486,-9178.553681,-16654.633695,-1685.410096
59321.959796,0.000000,-12509.480420,3677.258390
59321.960106,7254.018232,-6735.874072,9806.022374
59321.960416,12657.521608,0.000000,11568.042020
59321.960726,14211.954086,9400.615463,10112.460574
59321.961035,16506.592507,8586.388927,8427.050478
59321.961345,7031.956449,0.000000,2987.772442
59321.961655,-5477.523971,-6069.688724,-3447.429741
59321.961965,-10807.006753,-13397.727550,-6741.640382
59321.962275,-11029.068536,-17542.880825,-8427.050478
59321.962584,-14211.954086,-19911.539840,-9576.193725
59321.962894,-16580.613101,-19023.292709,-9499.584175
59321.963204,-10658.965565,-20799.786970,-2451.505594
59321.963514,-74.020594,-18949.272115,4826.401637
59321.963824,3849.070898,-6587.832884,4903.011187
59321.964133,12361.439231,-2368.659014,10342.289223
59321.964443,14211.954086,4293.194464,11031.775171
59321.964753,17024.736666,2886.803174,12870.404366
59321.965063,11177.109724,222.061783,6205.373534
59321.965373,740.205942,-6217.729913,-2374.896044
59321.965682,-8364.327145,-14211.954086,-3907.087040
59321.965992,-8364.327145,-15914.427753,-7124.688131
59321.966302,-11843.295072,-19023.292709,-8886.707777
59321.966612,-13101.645173,-23686.590144,-4979.620737
59321.966922,-12657.521608,-19023.292709,-5898.935335
59321.967231,-2442.679609,-21317.931130,2987.772442
59321.967541,1776.494261,-13989.892304,5515.887586
59321.967851,8068.244768,-7846.182985,10189.070123
59321.968161,13249.686362,2220.617826,10495.508323
59321.968471,16802.674883,9844.739029,11874.480219
59321.968780,16210.510130,8290.306550,9576.193725
59321.969090,4663.297435,0.000000,-689.485948
59321.969400,-8956.491898,-5403.503377,-6358.592633
59321.969710,-13027.624579,-13101.645173,-6128.763984
59321.970020,-10732.986159,-17764.942608,-9882.631924
59321.970329,-14063.912898,-21021.848753,-8656.879127
59321.970639,-14211.954086,-19615.457463,-7048.078582
59321.970949,-4959.379811,-17394.839637,-995.924147
59321.971259,2072.576638,-12583.501014,4673.182538
59321.971569,9104.533087,-4589.276840,8197.221829
59321.971878,15026.180623,592.164754,12870.404366
59321.972188,18875.251521,4737.318029,13406.671215
59321.972498,16210.510130,8290.306550,9116.536426
59321.972808,7105.977043,-74.020594,4903.011187
59321.973118,-74.020594,-8290.306550,-1915.238745
59321.973427,-9474.636058,-13545.768739,-5822.325785
59321.973737,-10732.986159,-17024.736666,-9576.193725
59321.974047,-13175.665768,-19467.416275,-10495.508323
59321.974357,-14952.160028,-22428.240043,-7507.735880
59321.974667,-11325.150913,-22798.343014,-3447.429741
59321.974976,-2960.823768,-17246.798449,2451.505594
59321.975286,7031.956449,-11843.295072,8197.221829
59321.975596,11177.109724,-4145.153275,11874.480219
59321.975906,11843.295072,9400.615463,9806.022374
59321.976216,20133.601622,8364.327145,14096.157163
59321.976525,9474.636058,4663.297435,6435.202183
59321.976835,814.226536,-1702.473667,-2528.115143
59321.977145,-8882.471304,-11621.233289,-4749.792088
59321.977455,-12805.562797,-16210.510130,-8656.879127
59321.977765,-13989.892304,-20059.581028,-10725.336972
59321.978074,-17764.942608,-21391.951724,-9806.022374
59321.978384,-14211.954086,-21688.034101,-5515.887586
59321.978694,-4811.338623,-17172.777854,-76.609550
59321.979004,962.267725,-12879.583391,5439.278036
59321.979314,4737.318029,-74.020594,6128.763984
59321.979623,10955.047942,2886.803174,14096.157163
59321.979933,18283.086767,7254.018232,10648.727422
59321.980243,15692.365970,6439.791695,8503.660028
59321.980553,6439.791695,-3775.050304,5822.325785
59321.980863,-4145.153275,-7179.997637,-5822.325785
59321.981172,-10214.842000,-8364.327145,-9346.365076
59321.981482,-16580.613101,-16654.633695,-10725.336972
59321.981792,-11991.336260,-23094.425390,-9806.022374
59321.982102,-12213.398043,-22502.260637,-8656.879127
59321.982412,-17172.777854,-19023.292709,-5515.887586
59321.982721,-3552.988522,-10732.986159,766.095498
59321.983031,6883.915261,-16654.633695,12027.699319
59321.983341,15100.201217,-296.082377,12793.794817
59321.983651,17172.777854,5773.606348,13789.718964
59321.983960,17024.736666,5477.523971,14019.547613
59321.984270,9992.780217,1480.411884,6971.469032
59321.984580,-3552.988522,-5403.503377,-3677.258390
59321.984890,-13619.789333,-13101.645173,-6741.640382
59321.985199,-7179.997637,-15988.448347,-8656.879127
59321.985509,-19171.333898,-19837.519246,-13253.452115
59321.985819,-18949.272115,-20207.622217,-11951.089769
59321.986129,-10140.821405,-24870.919651,-3753.867940
59321.986438,-4219.173869,-19467.416275,-229.828649
59321.986748,4737.318029,-10807.006753,6128.763984
59321.987058,8956.491898,-5329.482782,10955.165621
59321.987368,16802.674883,-2368.659014,17083.929605
59321.987677,21243.910535,5255.462188,13023.623466
59321.987987,15988.448347,2294.638420,9806.022374
59321.988297,8438.347739,-5329.482782,4136.915689
59321.988607,-5403.503377,-11251.130318,-5592.497135
59321.988916,-10732.986159,-16506.592507,-9806.022374
59321.989226,-12731.542202,-17838.963202,-10495.508323
59321.989536,-18135.045579,-20503.704593,-11721.261119
59321.989845,-16654.633695,-20873.807564,-7890.783629
59321.990155,-9252.574275,-17468.860231,-2528.115143
59321.990465,-74.020594,-16580.613101,5745.716235
59321.990775,8216.285956,-6513.812290,7890.783629
59321.991084,12435.459826,2294.638420,12257.527968
59321.991394,23612.569550,10658.965565,14632.424012
59321.991704,14878.139434,18283.086767,9806.022374
59321.992014,11769.274478,13619.789333,-1302.362347
59321.992323,-6809.894666,6291.750507,-5362.668486
59321.992633,-13175.665768,-5403.503377,-8580.269578
59321.992943,-13027.624579,-13693.809927,-12947.013916
59321.993253,-16876.695478,-19837.519246,-13483.280765
59321.993562,-19023.292709,-23686.590144,-9346.365076
59321.993872,-13397.727550,-18357.107362,-7431.126331
59321.994182,-1554.432478,-11695.253884,-2834.553343
59321.994492,3552.988522,-11917.315666,11031.775171
59321.994801,14137.933492,1776.494261,9729.412825
59321.995111,18283.086767,2812.782580,17083.929605
59321.995421,20281.642811,9696.697840,11414.822920
59321.995731,15914.427753,3627.009116,9652.803275
59321.996040,2886.803174,-3627.009116,612.876398
59321.996350,-7846.182985,-15026.180623,0.000000
59321.996660,-8882.471304,-11029.068536,-13176.842566
59321.996970,-16654.633695,-18949.272115,-12334.137518
59321.997279,-16654.633695,-21317.931130,-12334.137518
59321.997589,-18949.272115,-20799.786970,-8580.269578
59321.997899,-5995.668130,-30792.567187,2911.162892
59321.998208,7105.977043,-14211.954086,6971.469032
59321.998518,12657.521608,-3330.926739,11338.213370
59321.998828,16802.674883,2738.761985,16854.100956
59321.999138,24648.857869,8142.265362,15934.786358
59321.999447,22354.219448,7254.018232,12257.527968
59321.999757,8290.306550,1110.308913,6128.763984
59322.000067,-3701.029710,-6513.812290,-2834.553343
59322.000377,-12509.480420,-14211.954086,-11108.384721
59322.000686,-17764.942608,-14285.974681,-13483.280765
59322.000996,-12509.480420,-18949.272115,-12947.013916
59322.001306,-18949.272115,-24870.919651,-7277.907231
59322.001616,-12213.398043,-16580.613101,-6205.373534
59322.001925,-444.123565,-12731.542202,842.705048
59322.002235,8216.285956,-7772.162391,10342.289223
59322.002545,10140.821405,6143.709319,11797.870669
59322.002855,18949.272115,11177.109724,14709.033562
59322.003164,26647.413912,3478.967927,15934.786358
59322.003474,17690.922014,-11103.089130,13406.671215
59322.003784,-2442.679609,-13249.686362,229.828649
59322.004094,-14211.954086,-16654.633695,-6741.640382
59322.004403,-16580.613101,-21095.869347,-11644.651570
59322.004713,-16654.633695,-24426.796086,-14172.766713
59322.005023,-21317.931130,-29090.093521,-12180.918418
59322.005332,-18505.148550,-24796.899057,-6818.249932
59322.005642,-7179.997637,-18431.127956,-3140.991542
59322.005952,3775.050304,-10881.027347,4903.011187
59322.006262,11843.295072,-1850.514855,13483.280765
59322.006571,18875.251521,2368.659014,19535.435199
59322.006881,22428.240043,11843.295072,14632.424012
59322.007191,18949.272115,10584.944971,13483.280765
59322.007501,7105.977043,-74.020594,4903.011187
59322.007810,-8068.244768,-5847.626942,-7124.688131
59322.008120,-15396.283594,-15470.304188,-10265.679673
59322.008430,-18209.066173,-20873.807564,-13942.938064
59322.008740,-17838.963202,-22502.260637,-14785.643111
59322.009049,-21984.116477,-24574.837274,-11108.384721
59322.009359,-13027.624579,-13397.727550,-6128.763984
59322.009669,0.000000,-11325.150913,3064.381992
59322.009979,12953.603985,-6513.812290,13406.671215
59322.010288,14285.974681,3997.112087,14709.033562
59322.010598,20133.601622,9400.615463,16547.662757
59322.010908,23982.672521,11325.150913,13253.452115
59322.011218,12287.418637,-1850.514855,8350.440928
59322.011527,-1258.350101,-5551.544565,-1072.533697
59322.011837,-12213.398043,-13027.624579,-9882.631924
59322.012147,-17246.798449,-20725.766376,-11108.384721
59322.012457,-17690.922014,-21169.889941,-17543.586904
59322.012766,-23686.590144,-26129.269753,-14709.033562
59322.013076,-17764.942608,-23760.610738,-6128.763984
59322.013386,-2442.679609,-12435.459826,-3983.696590
59322.013695,4219.173869,-8734.430116,8044.002729
59322.014005,15914.427753,740.205942,14249.376263
59322.014315,19393.395680,2072.576638,18692.730151
59322.014625,22798.343014,7105.977043,16700.881856
59322.014934,20947.828159,4737.318029,14019.547613
59322.015244,5847.626942,-4737.318029,4826.401637
59322.015554,-9548.656652,-7550.100608,-7431.126331
59322.015864,-18949.272115,-15470.304188,-12257.527968
59322.016173,-17468.860231,-22280.198854,-12793.794817
59322.016483,-19911.539840,-24870.919651,-16164.615008
59322.016793,-21391.951724,-23686.590144,-12640.575717
59322.017103,-9104.533087,-17987.004391,-5975.544884
59322.017412,4367.215058,-16284.530724,5745.716235
59322.017722,10214.842000,-5403.503377,12334.137518
59322.018032,17468.860231,1406.391290,18386.291952
59322.018342,24426.796086,3330.926739,21833.721693
59322.018651,24204.734303,7105.977043,14632.424012
59322.018961,9548.656652,-74.020594,4213.525239
59322.019271,-1184.329507,-8660.409521,0.000000
59322.019581,-11917.315666,-10510.924376,-9882.631924
59322.019890,-16062.468941,-17764.942608,-11414.822920
59322.020200,-18357.107362,-19615.457463,-15015.471761
59322.020510,-21614.013506,-26647.413912,-11721.261119
59322.020820,-16802.674883,-22946.384202,-5669.106685
59322.021129,-3552.988522,-8364.327145,-3677.258390
59322.021439,8882.471304,-3923.091493,10418.898773
59322.021749,17690.922014,0.000000,15858.176809
59322.022058,21243.910535,5921.647536,17083.929605
59322.022368,21317.931130,11769.274478,13483.280765
59322.022678,16580.613101,2368.659014,13100.233016
59322.022988,7624.121203,-3552.988522,2987.772442
59322.023297,-10066.800811,-7550.100608,-6741.640382
59322.023607,-16210.510130,-14878.139434,-9576.193725
59322.023917,-16950.716072,-20947.828159,-13330.061665
59322.024227,-20725.766376,-20207.622217,-15934.786358
59322.024536,-20725.766376,-19023.292709,-9806.022374
59322.024846,-6883.915261,-18949.272115,-919.314598
59322.025156,7031.956449,-15988.448347,7277.907231
59322.025466,9474.636058,-5995.668130,12257.527968
59322.025775,19911.539840,-2368.659014,17696.806004
59322.026085,23908.651927,1480.411884,18922.558801
59322.026395,19541.436869,4589.276840,11874.480219
59322.026705,10584.944971,0.000000,3140.991542
59322.027014,-3627.009116,-7179.997637,-4673.182538
59322.027324,-14508.036463,-9548.656652,-10342.289223
59322.027634,-18949.272115,-16654.633695,-14096.157163
59322.027944,-18949.272115,-22576.281231,-14709.033562
59322.028253,-19023.292709,-28423.908173,-8963.317327
59322.028563,-15618.345376,-22206.178260,-5898.935335
59322.028873,-2368.659014,-11843.295072,1608.800546
59322.029182,10066.800811,-5107.421000,11644.651570
59322.029492,18357.107362,592.164754,15858.176809
59322.029802,20947.828159,5995.668130,16930.710506
59322.030112,21391.951724,6513.812290,14938.862211
59322.030421,13841.851115,3552.988522,6971.469032
59322.030731,-2220.617826,-3627.009116,-2298.286494
59322.031041,-13915.871710,-10140.821405,-8580.269578
59322.031351,-13101.645173,-18949.272115,-9882.631924
59322.031660,-18875.251521,-19763.498651,-14709.033562
59322.031970,-19245.354492,-22576.281231,-11951.089769
59322.032280,-18949.272115,-19319.375086,-8886.707777
59322.032590,-5107.421000,-15766.386565,-1915.238745
59322.032899,6439.791695,-8660.409521,7048.078582
59322.033209,12805.562797,-2812.782580,14479.204912
59322.033519,21243.910535,2368.659014,16471.053207
59322.033829,21243.910535,8290.306550,14632.424012
59322.034138,16728.654289,2516.700203,12180.918418
59322.034448,9474.636058,-2442.679609,2451.505594
59322.034758,-7179.997637,-9474.636058,-6205.373534
59322.035068,-15988.448347,-10732.986159,-9806.022374
59322.035377,-18949.272115,-17246.798449,-14096.157163
59322.035687,-17690.922014,-23760.610738,-14096.157163
59322.035997,-19245.354492,-22798.343014,-8733.488677
59322.036307,-10066.800811,-17838.963202,-4903.011187
59322.036616,3478.967927,-13619.789333,5439.278036
59322.036926,15914.427753,0.000000,12180.918418
59322.037236,17542.880825,3108.864956,15858.176809
59322.037545,21317.931130,9400.615463,15934.786358
59322.037855,20651.745782,2368.659014,15858.176809
59322.038165,7105.977043,3478.967927,2451.505594
59322.038475,-3849.070898,-6291.750507,-4366.744339
59322.038784,-13619.789333,-13989.892304,-11874.480219
59322.039094,-20059.581028,-19541.436869,-12104.308868
59322.039404,-16506.592507,-20873.807564,-11261.603821
59322.039714,-16802.674883,-27239.578666,-8733.488677
59322.040023,-14878.139434,-23686.590144,-6818.249932
59322.040333,-1850.514855,-12435.459826,-76.609550
59322.040643,4737.318029,-9548.656652,9806.022374
59322.040953,16506.592507,-3404.947333,17083.929605
59322.041262,18949.272115,4663.297435,14709.033562
59322.041572,21539.992912,5921.647536,14325.985813
59322.041882,16432.571912,222.061783,9806.022374
59322.042192,3256.906145,-8364.327145,1302.362347
59322.042501,-12361.439231,-11325.150913,-10801.946522
59322.042811,-18949.272115,-14285.974681,-11951.089769
59322.043121,-16432.571912,-23686.590144,-11721.261119
59322.043431,-17246.798449,-28127.825796,-10189.070123
59322.043740,-19023.292709,-26055.249158,-8044.002729
59322.044050,-9474.636058,-16950.716072,-3677.258390
59322.044360,8068.244768,-8956.491898,8733.488677
59322.044669,11177.109724,-2368.659014,14325.985813
59322.044979,18949.272115,8068.244768,15398.519510
59322.045289,24204.734303,5181.441594,15704.957709
59322.045599,18875.251521,222.061783,13789.718964
59322.045908,5921.647536,-3034.844362,4903.011187
59322.046218,-7698.141797,-11325.150913,-3064.381992
59322.046528,-10732.986159,-27239.578666,4826.401637
59322.046838,-15470.304188,-16654.633695,-16241.224558
59322.047147,-23686.590144,-17838.963202,-15321.909960
59322.047457,-17838.963202,-18949.272115,-11108.384721
59322.047767,-7179.997637,-17764.942608,-4366.744339
59322.048077,6143.709319,-7550.100608,1685.410096
59322.048386,14804.118840,-2516.700203,14709.033562
59322.048696,13027.624579,-4293.194464,20378.140247
59322.049006,20133.601622,12953.603985,15934.786358
59322.049316,21317.931130,8216.285956,12870.404366
59322.049625,13027.624579,-1258.350101,6128.763984
59322.049935,7624.121203,-17764.942608,16471.053207
59322.050245,-10658.965565,-5995.668130,-13176.842566
59322.050555,-22576.281231,-14211.954086,-12334.137518
59322.050864,-18653.189738,-25759.166782,-9269.755526
59322.051174,-15840.407159,-21762.054695,-12334.137518
59322.051484,-18949.272115,-13323.706956,-9039.926876
59322.051794,-5255.462188,-6809.894666,-2604.724693
59322.052103,9770.718434,2294.638420,4903.011187
59322.052413,10066.800811,8216.285956,12257.527968
59322.052723,18949.272115,15914.427753,18386.291952
59322.053032,28349.887579,13027.624579,13406.671215
59322.053342,15100.201217,10584.944971,7967.393179
59322.053652,4663.297435,-15396.283594,19535.435199
59322.053962,0.000000,814.226536,-9806.022374
59322.054271,-23612.569550,-9474.636058,-12180.918418
59322.054581,-16580.613101,-10955.047942,-16471.053207
59322.054891,-3997.112087,-20429.683999,-16011.395908
59322.055201,-27313.599260,-13619.789333,-10801.946522
59322.055510,-9992.780217,-8068.244768,-4903.011187
59322.055820,4737.318029,-3627.009116,4903.011187
59322.056130,12361.439231,-2960.823768,14249.376263
59322.056440,15322.262999,3256.906145,14019.547613
59322.056749,21910.095883,5551.544565,17390.367805
59322.057059,16876.695478,5847.626942,11031.775171
59322.057369,7920.203579,-2738.761985,-459.657299
59322.057679,-15396.283594,-4515.256246,-7967.393179
59322.057988,-13397.727550,-13545.768739,-9346.365076
59322.058298,-16062.468941,-26055.249158,-12640.575717
59322.058608,-18431.127956,-26647.413912,-15398.519510
59322.058918,-23686.590144,-27461.640448,-7354.516781
59322.059227,-7105.977043,-19023.292709,-1838.629195
59322.059537,-4219.173869,-17764.942608,-76.609550
59322.059847,7105.977043,-7179.997637,8580.269578
59322.060156,14211.954086,-4811.338623,16241.224558
59322.060466,20133.601622,-592.164754,17160.539155
59322.060776,19911.539840,1480.411884,15168.690860
59322.061086,4959.379811,-10658.965565,13559.890315
59322.061395,3478.967927,-13027.624579,-2528.115143
59322.061705,-14285.974681,-18357.107362,-7431.126331
59322.062015,-19615.457463,-18949.272115,-13559.890315
59322.062325,-18949.272115,-23760.610738,-13483.280765
59322.062634,-17394.839637,-28423.908173,-8656.879127
59322.062944,-17468.860231,-33827.411549,-3064.381992
59322.063254,-2368.659014,-19245.354492,1149.143247
59322.063564,5107.421000,-9918.759623,6052.154434
59322.063873,12139.377449,-2442.679609,15015.471761
59322.064183,21910.095883,370.102971,15858.176809
59322.064493,23612.569550,0.000000,18922.558801
59322.064803,18875.251521,0.000000,12180.918418
59322.065112,2294.638420,-9474.636058,-2528.115143
59322.065422,-11843.295072,-13101.645173,-9806.022374
59322.065732,-14952.160028,-21910.095883,-6205.373534
59322.066042,-20725.766376,-16654.633695,-14096.157163
59322.066351,-19023.292709,-22502.260637,-13559.890315
59322.066661,-16580.613101,-24500.816680,-6665.030833
59322.066971,-7328.038826,-16580.613101,-3294.210641
59322.067281,2294.638420,1406.391290,-4903.011187
59322.067590,12139.377449,-4737.318029,14862.252661
59322.067900,25389.063811,0.000000,18386.291952
59322.068210,23020.404796,2368.659014,17083.929605
59322.068519,15692.365970,10288.862594,9806.022374
59322.068829,9178.553681,-1258.350101,6665.030833
59322.069139,-8660.409521,-7105.977043,-7967.393179
59322.069449,-11621.233289,-13027.624579,-8656.879127
59322.069758,-16358.551318,-19615.457463,-11338.213370
59322.070068,-15840.407159,-21095.869347,-12104.308868
59322.070378,-15692.365970,-21317.931130,-8273.831378
59322.070688,-10658.965565,-13693.809927,-3064.381992
59322.070997,1776.494261,-13101.645173,3677.258390
59322.071307,11769.274478,-7105.977043,9729.412825
59322.071617,9474.636058,-3775.050304,15092.081311
59322.071927,21317.931130,4663.297435,15321.909960
59322.072236,20947.828159,7698.141797,10648.727422
59322.072546,10584.944971,-1776.494261,6665.030833
59322.072856,148.041188,-6439.791695,-2528.115143
59322.073166,-13027.624579,-12805.562797,-7507.735880
59322.073475,-18061.024985,-15248.242405,-16164.615008
59322.073785,-20725.766376,-17838.963202,-14709.033562
59322.074095,-16580.613101,-25537.104999,-9806.022374
59322.074405,-11251.130318,-20799.786970,-3064.381992
59322.074714,-2442.679609,-14211.954086,-76.609550
59322.075024,6143.709319,-5995.668130,4903.011187
59322.075334,14137.933492,-1776.494261,12793.794817
59322.075643,20059.581028,4145.153275,12793.794817
59322.075953,17987.004391,6809.894666,12257.527968
59322.076263,15100.201217,1184.329507,8197.221829
59322.076573,3627.009116,-6513.812290,995.924147
59322.076882,-10658.965565,-7772.162391,-6741.640382
59322.077192,-15396.283594,-10732.986159,-14709.033562
59322.077502,-16580.613101,-17246.798449,-11031.775171
59322.077812,-14285.974681,-16580.613101,-11721.261119
59322.078121,-13545.768739,-9548.656652,-11721.261119
59322.078431,-3627.009116,-8882.471304,-1302.362347
59322.078741,4737.318029,-1702.473667,4290.134789
59322.079051,12065.356855,3256.906145,10342.289223
59322.079360,16654.633695,7179.997637,15015.471761
59322.079670,20651.745782,12953.603985,13100.233016
59322.079980,15914.427753,11473.192101,7584.345430
59322.080290,6365.771101,3552.988522,1762.019645
59322.080599,-7994.224174,-1850.514855,-8580.269578
59322.080909,-10732.986159,-9326.594869,-7431.126331
59322.081219,-17246.798449,-15100.201217,-14785.643111
59322.081529,-15840.407159,-22502.260637,-9882.631924
59322.081838,-14656.077652,-22724.322419,-8120.612279
59322.082148,-8512.368333,-23316.487173,-995.924147
59322.082458,0.000000,-15618.345376,3983.696590
59322.082767,9326.594869,-12657.521608,10801.946522
59322.083077,15322.262999,-2812.782580,12793.794817
59322.083387,18283.086767,2664.741391,14019.547613
59322.083697,16654.633695,4071.132681,11951.089769
59322.084006,9474.636058,-3923.091493,5515.887586
59322.084316,-1850.514855,-14211.954086,-76.609550
59322.084626,-10658.965565,-15470.304188,-6741.640382
59322.084936,-16432.571912,-21539.992912,-10418.898773
59322.085245,-13249.686362,-25167.002028,-9116.536426
59322.085555,-16062.468941,-26647.413912,-6435.202183
59322.085865,-9622.677246,-20577.725188,-4366.744339
59322.086175,-74.020594,-18357.107362,3600.648841
59322.086484,6439.791695,-12435.459826,8503.660028
59322.086794,12953.603985,-7698.141797,14555.814462
59322.087104,14730.098246,-1480.411884,13406.671215
59322.087413,16876.695478,5255.462188,9806.022374
59322.087723,10362.883188,-1258.350101,8580.269578
59322.088033,2368.659014,-8068.244768,1225.752797
59322.088343,-9992.780217,-12287.418637,-7431.126331
59322.088652,-16728.654289,-17987.004391,-9652.803275
59322.088962,-18505.148550,-20355.663405,-12027.699319
59322.089272,-12805.562797,-23686.590144,-8044.002729
59322.089582,-10732.986159,-18949.272115,-2528.115143
59322.089891,-4811.338623,-11843.295072,-689.485948
59322.090201,3552.988522,-5995.668130,5209.449386
59322.090511,11769.274478,-3849.070898,14019.547613
59322.090821,14508.036463,4663.297435,12870.404366
59322.091130,17912.983796,5847.626942,12640.575717
59322.091440,15396.283594,4145.153275,6588.421283
59322.091750,5329.482782,-4293.194464,3677.258390
59322.092059,-6291.750507,-10066.800811,-4213.525239
59322.092369,-10436.903782,-18949.272115,-6818.249932
59322.092679,-14285.974681,-22502.260637,-8656.879127
59322.092989,-14285.974681,-21317.931130,-11108.384721
59322.093298,-15396.283594,-21391.951724,-7354.516781
59322.093608,-6587.832884,-16580.613101,-689.485948
59322.093918,-2072.576638,-7179.997637,1225.752797
59322.094228,7772.162391,-2442.679609,6818.249932
59322.094537,12879.583391,222.061783,13483.280765
59322.094847,18505.148550,7105.977043,12793.794817
59322.095157,17246.798449,9770.718434,10648.727422
59322.095467,10881.027347,2368.659014,6052.154434
59322.095776,-74.020594,-4737.318029,-76.609550
59322.096086,-10732.986159,-6809.894666,-8963.317327
59322.096396,-17764.942608,-13101.645173,-11031.775171
59322.096705,-14582.057057,-20133.601622,-9882.631924
59322.097015,-17172.777854,-19023.292709,-9806.022374
59322.097325,-11251.130318,-18135.045579,-3370.820191
59322.097635,-1850.514855,-11325.150913,0.000000
59322.097944,6439.791695,-6217.729913,6741.640382
59322.098254,12731.542202,-222.061783,11491.432470
59322.098564,16580.613101,4663.297435,12870.404366
59322.098874,18949.272115,5255.462188,14096.157163
59322.099183,15914.427753,-2368.659014,9729.412825
59322.099493,1110.308913,-5329.482782,-1302.362347
59322.099803,-8290.306550,-10140.821405,-5822.325785
59322.100113,-11917.315666,-16580.613101,-9882.631924
59322.100422,-14285.974681,-21317.931130,-9422.974625
59322.100732,-14285.974681,-22206.178260,-8886.707777
59322.101042,-10436.903782,-21021.848753,-4673.182538
59322.101351,-3256.906145,-13989.892304,995.924147
59322.101661,2368.659014,-5995.668130,4903.011187
59322.101971,7698.141797,-3627.009116,9806.022374
59322.102281,15100.201217,-1850.514855,15628.348159
59322.102590,17690.922014,3552.988522,12180.918418
59322.102900,13027.624579,4663.297435,4903.011187
59322.103210,6439.791695,-5921.647536,2374.896044
59322.103520,-4071.132681,-11843.295072,-3064.381992
59322.103829,-13175.665768,-17320.819043,-5669.106685
59322.104139,-16950.716072,-18949.272115,-10955.165621
59322.104449,-15988.448347,-22132.157666,-10189.070123
59322.104759,-15026.180623,-20207.622217,-7354.516781
59322.105068,-8586.388927,-16358.551318,-1225.752797
59322.105378,0.000000,-9548.656652,4903.011187
59322.105688,8808.450710,-4737.318029,9729.412825
59322.105997,12657.521608,8882.471304,9729.412825
59322.106307,17098.757260,7105.977043,12640.575717
59322.106617,15988.448347,7920.203579,10418.898773
59322.106927,10288.862594,888.247130,3677.258390
59322.107236,-1776.494261,-5107.421000,-2451.505594
59322.107546,-10288.862594,-10066.800811,-7890.783629
59322.107856,-15174.221811,-16432.571912,-11721.261119
59322.108166,-16876.695478,-18135.045579,-11491.432470
59322.108475,-15988.448347,-19023.292709,-9193.145976
59322.108785,-10658.965565,-17838.963202,-2451.505594
59322.109095,-74.020594,-11843.295072,2374.896044
59322.109405,5403.503377,-6291.750507,6741.640382
59322.109714,9474.636058,-1258.350101,9806.022374
59322.110024,13915.871710,740.205942,12257.527968
59322.110334,14508.036463,4071.132681,11031.775171
59322.110643,10288.862594,1258.350101,5898.935335
59322.110953,3478.967927,-4441.235652,-689.485948
59322.111263,-8956.491898,-10066.800811,-6205.373534
59322.111573,-16580.613101,-12509.480420,-9806.022374
59322.111882,-13101.645173,-20133.601622,-8656.879127
59322.112192,-14285.974681,-21762.054695,-8963.317327
59322.112502,-11843.295072,-19023.292709,-3064.381992
59322.112812,-4737.318029,-16358.551318,0.000000
59322.113121,3997.112087,-12287.418637,7048.078582
59322.113431,10214.842000,-3627.009116,10189.070123
59322.113741,15174.221811,5921.647536,10648.727422
59322.114051,18875.251521,3552.988522,12180.918418
59322.114360,17690.922014,2960.823768,9116.536426
59322.114670,4663.297435,-5921.647536,1149.143247
59322.114980,-6513.812290,-7179.997637,-5822.325785
59322.115289,-10140.821405,-14582.057057,-6205.373534
59322.115599,-15396.283594,-17838.963202,-9806.022374
59322.115909,-13915.871710,-20059.581028,-9806.022374
59322.116219,-11547.212695,-20207.622217,-4749.792088
59322.116528,-5551.544565,-16284.530724,0.000000
59322.116838,3775.050304,-7624.121203,2911.162892
59322.117148,10288.862594,-4145.153275,9422.974625
59322.117458,12953.603985,0.000000,12180.918418
59322.117767,16210.510130,6513.812290,9729.412825
59322.118077,11843.295072,7031.956449,7967.393179
59322.118387,7624.121203,-1184.329507,4826.401637
59322.118697,-5921.647536,-4811.338623,-4290.134789
59322.119006,-11325.150913,-10807.006753,-7354.516781
59322.119316,-14730.098246,-18357.107362,-8503.660028
59322.119626,-13915.871710,-21021.848753,-9269.755526
59322.119935,-13175.665768,-21836.075289,-6741.640382
59322.120245,-7179.997637,-22502.260637,-76.609550
59322.120555,2294.638420,-15396.283594,4826.401637
59322.120865,7031.956449,-11843.295072,7890.783629
59322.121174,9474.636058,-3034.844362,8580.269578
59322.121484,13767.830521,-2146.597232,14325.985813
59322.121794,13989.892304,4367.215058,7354.516781
59322.122104,11177.109724,-3849.070898,5132.839837
59322.122413,296.082377,-9770.718434,0.000000
59322.122723,-7254.018232,-12731.542202,-5592.497135
59322.123033,-12287.418637,-19541.436869,-8273.831378
59322.123343,-13915.871710,-21984.116477,-7354.516781
59322.123652,-12435.459826,-24574.837274,-4903.011187
59322.123962,-7179.997637,-23686.590144,-1302.362347
59322.124272,-3552.988522,-13101.645173,612.876398
59322.124581,5403.503377,-9178.553681,7277.907231
59322.124891,8216.285956,592.164754,5439.278036
59322.125201,11473.192101,0.000000,11568.042020
59322.125511,13397.727550,5255.462188,9576.193725
59322.125820,11547.212695,2664.741391,6741.640382
59322.126130,3849.070898,-3330.926739,229.828649
59322.126440,-8290.306550,-9548.656652,-4290.134789
59322.126750,-14211.954086,-15174.221811,-9193.145976
59322.127059,-11029.068536,-21317.931130,-8044.002729
59322.127369,-15618.345376,-20133.601622,-10035.851024
59322.127679,-13027.624579,-22576.281231,-3677.258390
59322.127989,-2442.679609,-20133.601622,1762.019645
59322.128298,4663.297435,-11769.274478,6665.030833
59322.128608,7402.059420,-4737.318029,9729.412825
59322.128918,11177.109724,4441.235652,8810.098227
59322.129227,14211.954086,5551.544565,10189.070123
59322.129537,10955.047942,5847.626942,7354.516781
59322.129847,3552.988522,-74.020594,0.000000
59322.130157,-3552.988522,-8956.491898,-2451.505594
59322.130466,-9548.656652,-14804.118840,-8044.002729
59322.130776,-16580.613101,-16654.633695,-12257.527968
59322.131086,-9844.739029,-23094.425390,-8044.002729
59322.131396,-11843.295072,-21391.951724,-5209.449386
59322.131705,-6217.729913,-17468.860231,-153.219100
59322.132015,3552.988522,-9474.636058,4366.744339
59322.132325,9252.574275,-4515.256246,7354.516781
59322.132635,8586.388927,2294.638420,8656.879127
59322.132944,11251.130318,7031.956449,9729.412825
59322.133254,11843.295072,6735.874072,9806.022374
59322.133564,10584.944971,0.000000,4826.401637
59322.133873,-2368.659014,-3923.091493,-4903.011187
59322.134183,-9548.656652,-13915.871710,-5132.839837
59322.134493,-14211.954086,-15766.386565,-10418.898773
59322.134803,-14878.139434,-19837.519246,-10572.117872
59322.135112,-16654.633695,-24574.837274,-7660.954980
59322.135422,-10732.986159,-21762.054695,-2298.286494
59322.135732,-666.185348,-16876.695478,3600.648841
59322.136042,6587.832884,-9474.636058,7277.907231
59322.136351,7698.141797,-74.020594,8580.269578
59322.136661,14137.933492,3552.988522,10648.727422
59322.136971,14211.954086,8216.285956,9806.022374
59322.137281,13619.789333,296.082377,9116.536426
59322.137590,1776.494261,-3108.864956,-919.314598
59322.137900,-7105.977043,-9474.636058,-5745.716235
59322.138210,-12287.418637,-16728.654289,-8733.488677
59322.138520,-13101.645173,-18431.127956,-10112.460574
59322.138829,-13101.645173,-23390.507767,-7431.126331
59322.139139,-9548.656652,-25463.084405,-2528.115143
59322.139449,-3552.988522,-14285.974681,383.047749
59322.139758,5329.482782,-9548.656652,6741.640382
59322.140068,12953.603985,0.000000,8503.660028
59322.140378,9474.636058,1110.308913,12257.527968
59322.140688,13027.624579,8660.409521,8963.317327
59322.140997,13027.624579,3923.091493,11951.089769
59322.141307,5699.585753,222.061783,2451.505594
59322.141617,-2886.803174,-4589.276840,-4596.572988
59322.141927,-9548.656652,-14211.954086,-5286.058936
59322.142236,-10732.986159,-18949.272115,-8656.879127
59322.142546,-16062.468941,-19245.354492,-11721.261119
59322.142856,-16580.613101,-21391.951724,-7048.078582
59322.143166,-5403.503377,-18949.272115,-76.609550
59322.143475,-2368.659014,-14285.974681,4903.011187
59322.143785,9918.759623,-7105.977043,8503.660028
59322.144095,11695.253884,-370.102971,10725.336972
59322.144404,13841.851115,4589.276840,11108.384721
59322.144714,15544.324782,5995.668130,8963.317327
59322.145024,10807.006753,-3330.926739,5822.325785
59322.145334,888.247130,-7772.162391,612.876398
59322.145643,-5995.668130,-14211.954086,-6205.373534
59322.145953,-14211.954086,-16654.633695,-11644.651570
59322.146263,-12139.377449,-21243.910535,-7890.783629
59322.146573,-16580.613101,-24056.693115,-8427.050478
59322.146882,-8364.327145,-23686.590144,-1302.362347
59322.147192,-666.185348,-17468.860231,3447.429741
59322.147502,7254.018232,-11251.130318,7431.126331
59322.147812,10658.965565,-2960.823768,9422.974625
59322.148121,12435.459826,2294.638420,11644.651570
59322.148431,14211.954086,5847.626942,12870.404366
59322.148741,14137.933492,2516.700203,8350.440928
59322.149050,4071.132681,-1776.494261,229.828649
59322.149360,-7698.141797,-9548.656652,-3677.258390
59322.149670,-12213.398043,-13471.748144,-9806.022374
59322.149980,-14359.995275,-18505.148550,-10265.679673
59322.150289,-17394.839637,-20429.683999,-10265.679673
59322.150599,-14359.995275,-22280.198854,-4903.011187
59322.150909,-5921.647536,-19615.457463,1685.410096
59322.151219,2368.659014,-10140.821405,6128.763984
59322.151528,7105.977043,-666.185348,7660.954980
59322.151838,14952.160028,2368.659014,12257.527968
59322.152148,13841.851115,7105.977043,9729.412825
59322.152458,9474.636058,8216.285956,7354.516781
59322.152767,7031.956449,-1480.411884,-76.609550
59322.153077,-3701.029710,-8512.368333,-2911.162892
59322.153387,-10732.986159,-12509.480420,-9193.145976
59322.153696,-13249.686362,-14878.139434,-11951.089769
59322.154006,-13545.768739,-18875.251521,-9959.241474
59322.154316,-15396.283594,-17394.839637,-7354.516781
59322.154626,-7476.080014,-16358.551318,-1685.410096
59322.154935,2368.659014,-10732.986159,4903.011187
59322.155245,11769.274478,-8290.306550,9729.412825
59322.155555,10288.862594,2960.823768,8197.221829
59322.155865,15322.262999,1184.329507,12180.918418
59322.156174,14211.954086,5847.626942,9806.022374
59322.156484,9770.718434,444.123565,4979.620737
59322.156794,0.000000,-5255.462188,-1915.238745
59322.157104,-9622.677246,-10288.862594,-6511.811733
59322.157413,-14285.974681,-16876.695478,-11108.384721
59322.157723,-15470.304188,-17172.777854,-12947.013916
59322.158033,-18801.230927,-20355.663405,-10725.336972
59322.158342,-12435.459826,-21391.951724,-2451.505594
59322.158652,-666.185348,-18949.272115,3600.648841
59322.158962,7624.121203,-10658.965565,9422.974625
59322.159272,11251.130318,-1258.350101,10418.898773
59322.159581,14063.912898,4219.173869,11797.870669
59322.159891,16358.551318,8068.244768,10648.727422
59322.160201,12287.418637,2738.761985,7048.078582
59322.160511,4663.297435,-4441.235652,-76.609550
59322.160820,-4811.338623,-7105.977043,-7431.126331
59322.161130,-11843.295072,-14285.974681,-8580.269578
59322.161440,-12509.480420,-18949.272115,-8656.879127
59322.161750,-11917.315666,-18949.272115,-10495.508323
59322.162059,-11251.130318,-23612.569550,-2604.724693
59322.162369,-3330.926739,-17172.777854,1149.143247
59322.162679,4515.256246,-9770.718434,5439.278036
59322.162988,10881.027347,-2368.659014,8580.269578
59322.163298,11843.295072,-518.144159,11644.651570
59322.163608,17394.839637,1184.329507,14172.766713
59322.163918,14137.933492,2368.659014,9729.412825
59322.164227,5847.626942,0.000000,1762.019645
59322.164537,-2072.576638,-9548.656652,1532.190996
59322.164847,-10140.821405,-15100.201217,-7431.126331
59322.165157,-14211.954086,-17838.963202,-11031.775171
59322.165466,-16210.510130,-19393.395680,-11874.480219
59322.165776,-17098.757260,-23834.631332,-7737.564530
59322.166086,-9622.677246,-19615.457463,-2681.334243
59322.166396,-1184.329507,-17542.880825,5286.058936
59322.166705,9400.615463,-8364.327145,9806.022374
59322.167015,14952.160028,-2368.659014,13942.938064
59322.167325,15322.262999,5921.647536,10648.727422
59322.167634,14804.118840,9104.533087,10418.898773
59322.167944,12953.603985,0.000000,6052.154434
59322.168254,0.000000,-3627.009116,-1838.629195
59322.168564,-8364.327145,-11399.171507,-6894.859482
59322.168873,-13841.851115,-17616.901420,-10648.727422
59322.169183,-14211.954086,-19319.375086,-11568.042020
59322.169493,-15470.304188,-23464.528361,-7890.783629
59322.169803,-10066.800811,-21688.034101,-2451.505594
59322.170112,-1184.329507,-16654.633695,3064.381992
59322.170422,7031.956449,-13027.624579,8197.221829
59322.170732,9622.677246,-1258.350101,6128.763984
59322.171042,13027.624579,814.226536,12563.966167
59322.171351,14582.057057,4959.379811,12027.699319
59322.171661,12361.439231,2368.659014,8503.660028
59322.171971,5403.503377,-2516.700203,1608.800546
59322.172280,-5847.626942,-10584.944971,-3830.477490
59322.172590,-12435.459826,-14582.057057,-7660.954980
59322.172900,-15396.283594,-17838.963202,-11951.089769
59322.173210,-18949.272115,-20799.786970,-11031.775171
59322.173519,-14434.015869,-25315.043216,-5592.497135
59322.173829,-9844.739029,-19245.354492,-2834.553343
59322.174139,0.000000,-14285.974681,6741.640382
59322.174449,9844.739029,-5181.441594,9806.022374
59322.174758,15100.201217,2590.720797,12717.185267
59322.175068,16728.654289,8660.409521,12104.308868
59322.175378,14434.015869,4885.359217,10495.508323
59322.175688,9326.594869,-2590.720797,3753.867940
59322.175997,-4145.153275,-9548.656652,-1991.848295
59322.176307,-13027.624579,-14285.974681,-9806.022374
59322.176617,-15322.262999,-21984.116477,-11031.775171
59322.176926,-14285.974681,-22502.260637,-11108.384721
59322.177236,-18949.272115,-22576.281231,-9806.022374
59322.177546,-8956.491898,-18949.272115,-6128.763984
59322.177856,0.000000,-15174.221811,3753.867940
59322.178165,8216.285956,-4959.379811,6894.859482
59322.178475,11325.150913,814.226536,11874.480219
59322.178785,15914.427753,7920.203579,12793.794817
59322.179095,15322.262999,9474.636058,12180.918418
59322.179404,11917.315666,7550.100608,6052.154434
59322.179714,3552.988522,-370.102971,766.095498
59322.180024,-7179.997637,-11843.295072,-6205.373534
59322.180334,-16580.613101,-13101.645173,-12257.527968
59322.180643,-14582.057057,-18209.066173,-14785.643111
59322.180953,-18653.189738,-20577.725188,-12257.527968
59322.181263,-15396.283594,-21614.013506,-6358.592633
59322.181572,-6957.935855,-17468.860231,-536.266849
59322.181882,4145.153275,-14137.933492,9346.365076
59322.182192,12953.603985,-2368.659014,11568.042020
59322.182502,15322.262999,5921.647536,12180.918418
59322.182811,15988.448347,10584.944971,12257.527968
59322.183121,18357.107362,5847.626942,12257.527968
59322.183431,7031.956449,-2220.617826,2068.457845
59322.183741,-2812.782580,-8882.471304,-2528.115143
59322.184050,-12361.439231,-14730.098246,-9193.145976
59322.184360,-15840.407159,-18727.210333,-13176.842566
59322.184670,-14804.118840,-18949.272115,-12334.137518
59322.184980,-15988.448347,-25241.022622,-6741.640382
59322.185289,-6587.832884,-20725.766376,-459.657299
59322.185599,2294.638420,-13619.789333,2987.772442
59322.185909,9474.636058,-3627.009116,7660.954980
59322.186219,14804.118840,222.061783,15015.471761
59322.186528,16506.592507,4737.318029,13406.671215
59322.186838,17616.901420,9474.636058,11568.042020
59322.187148,9474.636058,4663.297435,6128.763984
59322.187458,1776.494261,-74.020594,-459.657299
59322.187767,-10584.944971,-9770.718434,-7354.516781
59322.188077,-16654.633695,-14359.995275,-11184.994271
59322.188387,-17838.963202,-15100.201217,-15858.176809
59322.188697,-20503.704593,-19393.395680,-13789.718964
59322.189006,-17764.942608,-21688.034101,-6741.640382
59322.189316,-4811.338623,-17764.942608,-76.609550
59322.189626,2368.659014,-4811.338623,3983.696590
59322.189936,15914.427753,0.000000,12793.794817
59322.190245,15692.365970,8808.450710,13176.842566
59322.190555,18061.024985,11769.274478,12257.527968
59322.190865,17468.860231,7105.977043,9193.145976
59322.191175,7328.038826,-1702.473667,3217.601092
59322.191484,-2442.679609,-7698.141797,-2528.115143
59322.191794,-9548.656652,-13027.624579,-8656.879127
59322.192104,-18357.107362,-14285.974681,-13483.280765
59322.192414,-15766.386565,-19837.519246,-11108.384721
59322.192723,-16654.633695,-24870.919651,-8656.879127
59322.193033,-8586.388927,-20133.601622,-76.609550
59322.193343,2516.700203,-9992.780217,1762.019645
59322.193653,11251.130318,74.020594,6358.592633
59322.193962,14434.015869,5995.668130,10648.727422
59322.194272,17838.963202,10436.903782,12947.013916
59322.194582,20059.581028,8290.306550,12180.918418
59322.194892,13545.768739,592.164754,6052.154434
59322.195201,592.164754,-2442.679609,0.000000
59322.195511,-7179.997637,-9474.636058,-5286.058936
59322.195821,-17616.901420,-13397.727550,-11031.775171
59322.196131,-16580.613101,-15174.221811,-11031.775171
59322.196440,-18727.210333,-19837.519246,-11568.042020
59322.196750,-13027.624579,-18727.210333,-6588.421283
59322.197060,-6587.832884,-13175.665768,-306.438199
59322.197370,6143.709319,-1332.370696,6665.030833
59322.197679,16062.468941,3182.885551,12257.527968
59322.197989,20651.745782,5329.482782,14632.424012
59322.198299,18283.086767,11843.295072,10801.946522
59322.198609,14508.036463,7031.956449,4903.011187
59322.198918,9400.615463,-5921.647536,4213.525239
59322.199228,-6809.894666,-7772.162391,-6128.763984
59322.199538,-13545.768739,-16950.716072,-7431.126331
59322.199848,-14730.098246,-14359.995275,-14632.424012
59322.200157,-17024.736666,-19911.539840,-11568.042020
59322.200467,-15618.345376,-23168.445985,-7048.078582
59322.200777,-6513.812290,-18135.045579,0.000000
59322.201087,3849.070898,-13693.809927,6665.030833
59322.201396,15914.427753,4737.318029,3600.648841
59322.201706,11251.130318,2294.638420,11031.775171
59322.202016,23242.466579,4737.318029,16471.053207
59322.202326,17764.942608,8216.285956,9806.022374
59322.202635,10140.821405,0.000000,5822.325785
59322.202945,74.020594,-6069.688724,-2068.457845
59322.203255,-12805.562797,-12731.542202,-7277.907231
59322.203565,-15988.448347,-15100.201217,-11644.651570
59322.203874,-18653.189738,-16654.633695,-13483.280765
59322.204184,-20133.601622,-20207.622217,-11644.651570
59322.204494,-13397.727550,-23094.425390,-3753.867940
59322.204804,-4219.173869,-15988.448347,-76.609550
59322.205113,7105.977043,-7179.997637,10112.460574
59322.205423,15618.345376,-74.020594,13483.280765
59322.205733,18505.148550,6883.915261,15168.690860
59322.206043,18653.189738,10658.965565,12180.918418
59322.206352,14878.139434,222.061783,7814.174080
59322.206662,2516.700203,-8660.409521,3600.648841
59322.206972,-8290.306550,-10732.986159,-6741.640382
59322.207282,-18949.272115,-16654.633695,-11031.775171
59322.207591,-16728.654289,-18135.045579,-13023.623466
59322.207901,-16654.633695,-23094.425390,-12334.137518
59322.208211,-18357.107362,-24352.775492,-7354.516781
59322.208521,-6883.915261,-17468.860231,-2374.896044
59322.208830,4367.215058,-10436.903782,6281.983084
59322.209140,14434.015869,0.000000,11261.603821
59322.209450,17394.839637,3404.947333,14019.547613
59322.209760,21391.951724,9326.594869,14325.985813
59322.210069,14211.954086,6513.812290,10955.165621
59322.210379,7105.977043,-666.185348,5209.449386
59322.210689,-74.020594,-11547.212695,-76.609550
59322.210999,-14582.057057,-13915.871710,-9882.631924
59322.211308,-18949.272115,-19023.292709,-11031.775171
59322.211618,-15470.304188,-20725.766376,-14172.766713
59322.211928,-20429.683999,-23316.487173,-12487.356617
59322.212238,-15100.201217,-21465.972318,-4903.011187
59322.212547,-3182.885551,-14063.912898,2451.505594
59322.212857,10955.047942,-2960.823768,11261.603821
59322.213167,17690.922014,1480.411884,15551.738609
59322.213477,18875.251521,10955.047942,13406.671215
59322.213786,17764.942608,12953.603985,11644.651570
59322.214096,17098.757260,0.000000,9116.536426
59322.214406,3478.967927,-5921.647536,-1608.800546
59322.214716,-8438.347739,-14508.036463,-6205.373534
59322.215025,-16580.613101,-17098.757260,-13406.671215
59322.215335,-17987.004391,-18653.189738,-16471.053207
59322.215645,-19541.436869,-25907.207970,-12487.356617
59322.215955,-17987.004391,-25981.228564,-7354.516781
59322.216264,-3627.009116,-16506.592507,-76.609550
59322.216574,8216.285956,-11843.295072,7890.783629
59322.216884,15692.365970,4071.132681,12870.404366
59322.217194,19541.436869,6439.791695,19612.044749
59322.217503,23612.569550,9474.636058,18309.682402
59322.217813,19467.416275,9474.636058,12180.918418
59322.218123,9474.636058,-1628.453072,4749.792088
59322.218433,-8438.347739,-13323.706956,-2068.457845
59322.218742,-14730.098246,-18283.086767,-12180.918418
59322.219052,-20281.642811,-21762.054695,-15934.786358
59322.219362,-21539.992912,-21614.013506,-15934.786358
59322.219672,-23168.445985,-27239.578666,-11414.822920
59322.219981,-8364.327145,-17320.819043,-4060.306139
59322.220291,-4737.318029,-9548.656652,2451.505594
59322.220601,16506.592507,0.000000,14632.424012
59322.220911,19837.519246,-1628.453072,21067.626195
59322.221220,21539.992912,10066.800811,15245.300410
59322.221530,18209.066173,12065.356855,13176.842566
59322.221840,15470.304188,2072.576638,6052.154434
59322.222150,1184.329507,-8068.244768,-1532.190996
59322.222459,-9474.636058,-11029.068536,-4903.011187
59322.222769,-20207.622217,-19763.498651,-15704.957709
59322.223079,-19023.292709,-18949.272115,-17390.367805
59322.223389,-22650.301825,-24944.940245,-15781.567259
59322.223698,-20133.601622,-29090.093521,-4519.963438
59322.224008,-4737.318029,-17838.963202,612.876398
59322.224318,13545.768739,-15692.365970,11108.384721
59322.224628,17098.757260,-2146.597232,13023.623466
59322.224937,18061.024985,6513.812290,15475.129060
59322.225247,21762.054695,11769.274478,15704.957709
59322.225557,21317.931130,2294.638420,17160.539155
59322.225867,5921.647536,-3923.091493,3064.381992
59322.226176,-8364.327145,-12435.459826,-1302.362347
59322.226486,-19615.457463,-14878.139434,-14325.985813
59322.226796,-23094.425390,-21984.116477,-13176.842566
59322.227106,-21762.054695,-19023.292709,-16547.662757
59322.227415,-23168.445985,-26425.352129,-10189.070123
59322.227725,-19319.375086,-20725.766376,-6205.373534
59322.228035,3627.009116,-8438.347739,4213.525239
59322.228345,14434.015869,-1776.494261,12180.918418
59322.228654,20133.601622,7920.203579,15551.738609
59322.228964,19541.436869,10584.944971,19612.044749
59322.229274,15692.365970,15322.262999,14709.033562
59322.229584,14137.933492,3552.988522,4826.401637
59322.229893,0.000000,-13693.809927,-2451.505594
59322.230203,-14211.954086,-21391.951724,-7354.516781
59322.230513,-17912.983796,-22798.343014,-10035.851024
59322.230823,-18209.066173,-18061.024985,-16471.053207
59322.231132,-24130.713709,-27609.681637,-13713.109414
59322.231442,-14285.974681,-23686.590144,-4366.744339
59322.231752,592.164754,-13471.748144,-76.609550
59322.232062,9918.759623,-10436.903782,11184.994271
59322.232371,21317.931130,-148.041188,18386.291952
59322.232681,27165.558071,7105.977043,16471.053207
59322.232991,18949.272115,10584.944971,15321.909960
59322.233301,18357.107362,11769.274478,7507.735880
59322.233610,7846.182985,-3923.091493,2451.505594
59322.233920,-9474.636058,-15174.221811,-3447.429741
59322.234230,-20873.807564,-20947.828159,-11108.384721
59322.234540,-13397.727550,-23686.590144,-13866.328514
59322.234849,-22576.281231,-27239.578666,-12947.013916
59322.235159,-25537.104999,-23464.528361,-12947.013916
59322.235469,-11251.130318,-19023.292709,-4903.011187
59322.235779,8216.285956,-18949.272115,11874.480219
59322.236088,16506.592507,-3552.988522,13100.233016
59322.236398,21243.910535,7105.977043,17083.929605
59322.236708,22206.178260,13841.851115,15781.567259
59322.237018,20577.725188,9104.533087,12104.308868
59322.237327,12953.603985,-3923.091493,5515.887586
59322.237637,-3849.070898,-12657.521608,0.000000
59322.237947,-13101.645173,-18357.107362,-8656.879127
59322.238257,-19023.292709,-18949.272115,-16011.395908
59322.238566,-19541.436869,-19023.292709,-19612.044749
59322.238876,-20133.601622,-26129.269753,-9806.022374
59322.239186,-11917.315666,-23686.590144,-3217.601092
59322.239496,2294.638420,-12435.459826,1149.143247
59322.239805,13027.624579,-4811.338623,11874.480219
59322.240115,20873.807564,1184.329507,17007.320056
59322.240425,23686.590144,8142.265362,17313.758255
59322.240735,21317.931130,8216.285956,15934.786358
59322.241044,17690.922014,2294.638420,9882.631924
59322.241354,6439.791695,-7994.224174,2374.896044
59322.241664,-13027.624579,-14285.974681,-8886.707777
59322.241974,-21317.931130,-17246.798449,-11951.089769
59322.242283,-19023.292709,-17172.777854,-16011.395908
59322.242593,-19023.292709,-23686.590144,-13253.452115
59322.242903,-20207.622217,-23834.631332,-9806.022374
59322.243213,-6513.812290,-16062.468941,-842.705048
59322.243522,6439.791695,-11251.130318,8656.879127
59322.243832,14211.954086,-12509.480420,17466.977354
59322.244142,22798.343014,-8956.491898,22676.426741
59322.244452,23020.404796,2368.659014,16777.491406
59322.244761,16506.592507,0.000000,9729.412825
59322.245071,8290.306550,-10732.986159,4903.011187
59322.245381,-3627.009116,-21317.931130,-689.485948
59322.245691,-15914.427753,-24204.734303,-8197.221829
59322.246000,-22872.363608,-23094.425390,-20301.530697
59322.246310,-19319.375086,-29312.155303,-15934.786358
59322.246620,-19837.519246,-34493.596897,-8963.317327
59322.246930,-13915.871710,-25537.104999,-3677.258390
59322.247239,-3552.988522,-14285.974681,2451.505594
59322.247549,18283.086767,-7105.977043,15092.081311
59322.247859,24796.899057,1184.329507,18309.682402
59322.248169,15988.448347,7031.956449,17773.415554
59322.248478,23612.569550,9474.636058,14632.424012
59322.248788,11843.295072,-2738.761985,8580.269578
59322.249098,-814.226536,-7105.977043,-995.924147
59322.249408,-14508.036463,-16580.613101,-4826.401637
59322.249717,-27387.619854,-21021.848753,-14402.595362
59322.250027,-15174.221811,-21317.931130,-19688.654299
59322.250337,-29608.237680,-24944.940245,-17160.539155
59322.250647,-23094.425390,-25241.022622,-7354.516781
59322.250956,-1258.350101,-16580.613101,-76.609550
59322.251266,6143.709319,-7254.018232,7124.688131
59322.251576,12731.542202,1702.473667,17160.539155
59322.251886,21910.095883,14730.098246,15934.786358
59322.252195,19837.519246,16284.530724,13406.671215
59322.252505,18061.024985,11843.295072,7967.393179
59322.252815,5699.585753,-1628.453072,2834.553343
59322.253125,-7476.080014,-5921.647536,-4979.620737
59322.253434,-17838.963202,-10140.821405,-14249.376263
59322.253744,-20133.601622,-13693.809927,-17160.539155
59322.254054,-16062.468941,-21317.931130,-13559.890315
59322.254364,-19615.457463,-24574.837274,-10189.070123
59322.254673,-9474.636058,-16654.633695,-2451.505594
59322.254983,4145.153275,-7772.162391,2451.505594
59322.255293,14656.077652,-1702.473667,12104.308868
59322.255603,20281.642811,8808.450710,14555.814462
59322.255912,20799.786970,9474.636058,15934.786358
59322.256222,20059.581028,4737.318029,14019.547613
59322.256532,10584.944971,1184.329507,6052.154434
59322.256842,-4145.153275,-7772.162391,-1838.629195
59322.257151,-12731.542202,-13767.830521,-5515.887586
59322.257461,-16654.633695,-17764.942608,-11721.261119
59322.257771,-18949.272115,-19023.292709,-12257.527968
59322.258081,-22206.178260,-19615.457463,-13483.280765
59322.258390,-15100.201217,-20577.725188,-5362.668486
59322.258700,-1036.288319,-15026.180623,919.314598
59322.259010,7624.121203,-7105.977043,7737.564530
59322.259320,17098.757260,-2960.823768,19535.435199
59322.259629,22428.240043,4737.318029,14632.424012
59322.259939,16506.592507,7994.224174,11568.042020
59322.260249,12435.459826,-666.185348,9806.022374
59322.260559,3478.967927,-8290.306550,1149.143247
59322.260868,-13619.789333,-9548.656652,-9806.022374
59322.261178,-18135.045579,-13471.748144,-15245.300410
59322.261488,-16580.613101,-17394.839637,-15168.690860
59322.261798,-14656.077652,-26129.269753,-8810.098227
59322.262107,-14285.974681,-25833.187376,-5286.058936
59322.262417,-2960.823768,-16062.468941,-919.314598
59322.262727,8216.285956,-13915.871710,9116.536426
59322.263037,17098.757260,1184.329507,11874.480219
59322.263346,18949.272115,8216.285956,14709.033562
59322.263656,24796.899057,5329.482782,17543.586904
59322.263966,15914.427753,5329.482782,7890.783629
59322.264276,8808.450710,-2368.659014,3907.087040
59322.264585,-6217.729913,-10732.986159,-4290.134789
59322.264895,-16580.613101,-15322.262999,-8886.707777
59322.265205,-16876.695478,-18579.169144,-12410.747068
59322.265515,-18653.189738,-17246.798449,-14709.033562
59322.265824,-19023.292709,-21243.910535,-9576.193725
59322.266134,-9548.656652,-15100.201217,-3753.867940
59322.266444,0.000000,-9548.656652,1838.629195
59322.266754,13027.624579,-3923.091493,13789.718964
59322.267063,20651.745782,3552.988522,15858.176809
59322.267373,20059.581028,7105.977043,14632.424012
59322.267683,15766.386565,8438.347739,10342.289223
59322.267993,10140.821405,-370.102971,3677.258390
59322.268302,-3923.091493,-9622.677246,-1149.143247
59322.268612,-13027.624579,-7476.080014,-9806.022374
59322.268922,-16580.613101,-13101.645173,-13789.718964
59322.269232,-14285.974681,-16580.613101,-11721.261119
59322.269541,-16062.468941,-21614.013506,-11108.384721
59322.269851,-14211.954086,-21391.951724,-4903.011187
59322.270161,-74.020594,-14211.954086,-76.609550
59322.270471,8956.491898,-9770.718434,10418.898773
59322.270780,17246.798449,2516.700203,12793.794817
59322.271090,19319.375086,4885.359217,14938.862211
59322.271400,20799.786970,7994.224174,14479.204912
59322.271710,12139.377449,4663.297435,6435.202183
59322.272019,2960.823768,-4811.338623,1838.629195
59322.272329,-7550.100608,-10510.924376,-4443.353888
59322.272639,-14285.974681,-16580.613101,-9882.631924
59322.272949,-20133.601622,-19023.292709,-13330.061665
59322.273258,-17690.922014,-22502.260637,-11721.261119
59322.273568,-18505.148550,-21243.910535,-7967.393179
59322.273878,-6809.894666,-15026.180623,-3753.867940
59322.274188,3034.844362,-12213.398043,6128.763984
59322.274497,12213.398043,-7254.018232,15321.909960
59322.274807,22428.240043,4367.215058,13483.280765
59322.275117,16580.613101,8808.450710,12257.527968
59322.275427,14211.954086,5551.544565,9806.022374
59322.275736,7031.956449,-4145.153275,-1302.362347
59322.276046,-9474.636058,-6587.832884,-3677.258390
59322.276356,-7179.997637,-17172.777854,-4979.620737
59322.276666,-14211.954086,-15470.304188,-11644.651570
59322.276975,-18135.045579,-18579.169144,-12410.747068
59322.277285,-17320.819043,-19023.292709,-9499.584175
59322.277595,-10732.986159,-18357.107362,-4979.620737
59322.277905,1702.473667,-11251.130318,-76.609550
59322.278214,6957.935855,-4367.215058,9269.755526
59322.278524,17172.777854,6735.874072,9806.022374
59322.278834,21836.075289,1184.329507,19535.435199
59322.279144,17098.757260,11251.130318,8503.660028
59322.279453,9474.636058,2886.803174,5515.887586
59322.279763,0.000000,4071.132681,-10725.336972
59322.280073,-7994.224174,-11991.336260,-6665.030833
59322.280383,-11251.130318,-18949.272115,-7277.907231
59322.280692,-16210.510130,-13989.892304,-12104.308868
59322.281002,-20799.786970,-20725.766376,-11108.384721
59322.281312,-9548.656652,-18357.107362,-6511.811733
59322.281622,-2294.638420,-16950.716072,-3677.258390
59322.281931,4737.318029,-14878.139434,10418.898773
59322.282241,14137.933492,0.000000,11874.480219
59322.282551,17172.777854,9400.615463,12257.527968
59322.282861,17764.942608,12361.439231,11721.261119
59322.283170,12731.542202,5181.441594,6435.202183
59322.283480,3182.885551,-3552.988522,2374.896044
59322.283790,-7476.080014,-7179.997637,-5056.230287
59322.284100,-10732.986159,-11251.130318,-8044.002729
59322.284409,-14285.974681,-14211.954086,-11721.261119
59322.284719,-16580.613101,-17468.860231,-12334.137518
59322.285029,-16580.613101,-21391.951724,-8273.831378
59322.285339,-3034.844362,-13619.789333,-6205.373534
59322.285649,-2368.659014,-9548.656652,1838.629195
59322.285958,11473.192101,-2960.823768,9269.755526
59322.286268,17098.757260,2368.659014,14096.157163
59322.286578,19097.313304,5921.647536,13406.671215
59322.286888,15692.365970,5551.544565,9806.022374
59322.287198,8882.471304,-3849.070898,7584.345430
59322.287507,-74.020594,-8290.306550,-76.609550
59322.287817,-11325.150913,-9178.553681,-8044.002729
59322.288127,-13027.624579,-12509.480420,-9499.584175
59322.288437,-14285.974681,-17764.942608,-8656.879127
59322.288746,-15026.180623,-17394.839637,-11951.089769
59322.289056,-10436.903782,-15396.283594,-6281.983084
59322.289366,-4367.215058,-11769.274478,229.828649
59322.289676,6957.935855,-4293.194464,7507.735880
59322.289986,15544.324782,2368.659014,12104.308868
59322.290295,15396.283594,370.102971,14709.033562
59322.290605,16506.592507,3627.009116,10342.289223
59322.290915,9400.615463,-3552.988522,4826.401637
59322.291225,-4737.318029,-7179.997637,0.000000
59322.291535,-7179.997637,-11251.130318,-4213.525239
59322.291844,-12509.480420,-9992.780217,-10495.508323
59322.292154,-9622.677246,-16136.489536,-7431.126331
59322.292464,-12065.356855,-18875.251521,-7124.688131
59322.292774,-10955.047942,-20207.622217,-4290.134789
59322.293084,-3330.926739,-11547.212695,-1225.752797
59322.293393,3552.988522,-3627.009116,3983.696590
59322.293703,12435.459826,2590.720797,9193.145976
59322.294013,16506.592507,2368.659014,12793.794817
59322.294323,15396.283594,10288.862594,7660.954980
59322.294632,13101.645173,1332.370696,8273.831378
59322.294942,4663.297435,-2072.576638,-76.609550
59322.295252,-3701.029710,-8586.388927,-3140.991542
59322.295562,-10288.862594,-11547.212695,-6358.592633
59322.295872,-11325.150913,-13323.706956,-8350.440928
59322.296181,-12657.521608,-16802.674883,-8197.221829
59322.296491,-14211.954086,-15470.304188,-7354.516781
59322.296801,-8290.306550,-17246.798449,-2145.067394
59322.297111,3478.967927,-13619.789333,7277.907231
59322.297421,8216.285956,-2072.576638,7431.126331
59322.297730,13027.624579,1110.308913,11644.651570
59322.298040,18875.251521,3552.988522,9729.412825
59322.298350,11251.130318,-7624.121203,9499.584175
59322.298660,1850.514855,-12805.562797,4213.525239
59322.298969,-6513.812290,-15544.324782,-2298.286494
59322.299279,-10214.842000,-19097.313304,-5745.716235
59322.299589,-12435.459826,-16654.633695,-9193.145976
59322.299899,-13619.789333,-20503.704593,-6741.640382
59322.300209,-11843.295072,-19615.457463,-4903.011187
59322.300518,-4811.338623,-22502.260637,-76.609550
59322.300828,-1258.350101,-13693.809927,536.266849
59322.301138,6587.832884,-10658.965565,9422.974625
59322.301448,11251.130318,-2442.679609,10418.898773
59322.301758,15174.221811,1406.391290,11338.213370
59322.302067,14359.995275,0.000000,9193.145976
59322.302377,7031.956449,-4737.318029,3600.648841
59322.302687,-370.102971,-10066.800811,-2681.334243
59322.302997,-8882.471304,-14285.974681,-4749.792088
59322.303307,-11843.295072,-15470.304188,-6741.640382
59322.303616,-11325.150913,-18949.272115,-6818.249932
59322.303926,-14804.118840,-17246.798449,-8197.221829
59322.304236,-11843.295072,-17838.963202,-4903.011187
59322.304546,-2442.679609,-17172.777854,1149.143247
59322.304855,3404.947333,-11769.274478,6971.469032
59322.305165,11029.068536,-4219.173869,10035.851024
59322.305475,14359.995275,962.267725,11951.089769
59322.305785,15840.407159,1776.494261,11721.261119
59322.306095,9252.574275,-4145.153275,6665.030833
59322.306404,-4145.153275,-7772.162391,-2451.505594
59322.306714,-6735.874072,-15026.180623,-3064.381992
59322.307024,-10732.986159,-15396.283594,-7431.126331
59322.307334,-10881.027347,-16580.613101,-6894.859482
59322.307644,-11843.295072,-17320.819043,-6128.763984
59322.307953,-9622.677246,-18949.272115,-4136.915689
59322.308263,-3404.947333,-14804.118840,0.000000
59322.308573,2368.659014,-10955.047942,4519.963438
59322.308883,6365.771101,-74.020594,6435.202183
59322.309192,13101.645173,4663.297435,7890.783629
59322.309502,15988.448347,4663.297435,12257.527968
59322.309812,15322.262999,1184.329507,8197.221829
59322.310122,3552.988522,-2442.679609,-1762.019645
59322.310432,-4737.318029,-9548.656652,-2451.505594
59322.310741,-9548.656652,-14211.954086,-6205.373534
59322.311051,-11695.253884,-17468.860231,-6818.249932
59322.311361,-13915.871710,-19245.354492,-8656.879127
59322.311671,-14137.933492,-26795.455100,-4979.620737
59322.311981,-8068.244768,-24278.754898,-229.828649
59322.312290,-74.020594,-17764.942608,6665.030833
59322.312600,4219.173869,-4441.235652,5745.716235
59322.312910,11843.295072,1110.308913,11338.213370
59322.313220,16506.592507,4737.318029,12180.918418
59322.313530,14137.933492,4737.318029,7277.907231
59322.313839,4737.318029,-2294.638420,2451.505594
59322.314149,-5477.523971,-10362.883188,-2221.676944
59322.314459,-9770.718434,-12361.439231,-6894.859482
59322.314769,-11251.130318,-16802.674883,-6511.811733
59322.315078,-13323.706956,-17024.736666,-8350.440928
59322.315388,-15988.448347,-19023.292709,-8580.269578
59322.315698,-6883.915261,-22206.178260,-995.924147
59322.316008,-1850.514855,-16580.613101,1455.581446
59322.316318,2368.659014,-7179.997637,6128.763984
59322.316627,10066.800811,-1850.514855,11031.775171
59322.316937,15618.345376,2664.741391,11568.042020
59322.317247,14211.954086,7031.956449,9806.022374
59322.317557,11769.274478,1480.411884,6358.592633
59322.317867,2960.823768,-4811.338623,-689.485948
59322.318176,-4515.256246,-12731.542202,-2757.943793
59322.318486,-7476.080014,-18357.107362,-5592.497135
59322.318796,-13545.768739,-17987.004391,-9576.193725
59322.319106,-15100.201217,-20799.786970,-8580.269578
59322.319415,-10140.821405,-26055.249158,-4060.306139
59322.319725,-4959.379811,-16284.530724,-2221.676944
59322.320035,1924.535449,-11917.315666,4979.620737
59322.320345,8882.471304,-3775.050304,9039.926876
59322.320655,13175.665768,3256.906145,10878.556072
59322.320964,17098.757260,4737.318029,12487.356617
59322.321274,10658.965565,3923.091493,6665.030833
59322.321584,0.000000,-2442.679609,612.876398
59322.321894,-4811.338623,-12435.459826,-1608.800546
59322.322204,-10732.986159,-13027.624579,-8044.002729
59322.322513,-13619.789333,-15470.304188,-7814.174080
59322.322823,-13027.624579,-19615.457463,-6358.592633
59322.323133,-11325.150913,-19911.539840,-5592.497135
59322.323443,-6661.853478,-20207.622217,-1149.143247
59322.323753,740.205942,-10436.903782,1685.410096
59322.324062,4145.153275,-2590.720797,4290.134789
59322.324372,14137.933492,3478.967927,11031.775171
59322.324682,18579.169144,3552.988522,12180.918418
59322.324992,15618.345376,7994.224174,7890.783629
59322.325301,9770.718434,-370.102971,5515.887586
