#time,accel_x,accel_y,accel_z
59553.059283,-74.020594,-9474.636058,2374.896044
59553.059593,-666.185348,-8290.306550,0.000000
59553.059903,0.000000,-8956.491898,2451.505594
59553.060213,-74.020594,-8290.306550,-689.485948
59553.060523,0.000000,-9548.656652,0.000000
59553.060833,-74.020594,-9178.553681,-76.609550
59553.061143,-592.164754,-8734.430116,536.266849
59553.061453,0.000000,-9548.656652,919.314598
59553.061762,-666.185348,-9252.574275,689.485948
59553.062072,-74.020594,-9696.697840,2451.505594
59553.062382,-74.020594,-11251.130318,2374.896044
59553.062692,-74.020594,-9474.636058,1149.143247
59553.063002,-1628.453072,-7772.162391,0.000000
59553.063312,-74.020594,-9474.636058,-76.609550
59553.063622,0.000000,-7179.997637,0.000000
59553.063932,1110.308913,-9474.636058,1149.143247
59553.064242,-740.205942,-8956.491898,536.266849
59553.064552,-444.123565,-9030.512492,689.485948
59553.064862,-592.164754,-8956.491898,612.876398
59553.065172,0.000000,-8364.327145,1225.752797
59553.065482,-74.020594,-10288.862594,2757.943793
59553.065792,-74.020594,-10362.883188,1762.019645
59553.066102,-1480.411884,-7179.997637,-2451.505594
59553.066412,1332.370696,-11103.089130,2681.334243
59553.066722,-962.267725,-7402.059420,-383.047749
59553.067032,1110.308913,-9474.636058,1149.143247
59553.067341,-666.185348,-8734.430116,383.047749
59553.067651,-444.123565,-9030.512492,995.924147
59553.067961,-370.102971,-9104.533087,995.924147
59553.068271,-1776.494261,-7179.997637,0.000000
59553.068581,296.082377,-8956.491898,2451.505594
59553.068891,962.267725,-10214.842000,2068.457845
59553.069201,-370.102971,-7328.038826,-1532.190996
59553.069511,0.000000,-10140.821405,2451.505594
59553.069821,-74.020594,-9474.636058,-76.609550
59553.070131,962.267725,-10436.903782,1762.019645
59553.070441,-74.020594,-9178.553681,842.705048
59553.070751,-370.102971,-9030.512492,919.314598
59553.071061,-74.020594,-9474.636058,1149.143247
59553.071371,-1776.494261,-7476.080014,0.000000
59553.071681,0.000000,-7772.162391,306.438199
59553.071991,0.000000,-9844.739029,1915.238745
59553.072301,-74.020594,-7994.224174,-383.047749
59553.072611,0.000000,-8364.327145,1225.752797
59553.072920,-74.020594,-11843.295072,2374.896044
59553.073230,0.000000,-9548.656652,1225.752797
59553.073540,-222.061783,-9400.615463,919.314598
59553.073850,-592.164754,-8734.430116,766.095498
59553.074160,-518.144159,-9104.533087,383.047749
59553.074470,-1258.350101,-7402.059420,0.000000
59553.074780,-2368.659014,-7179.997637,0.000000
59553.075090,0.000000,-8660.409521,1225.752797
59553.075400,-74.020594,-8290.306550,-689.485948
59553.075710,0.000000,-9548.656652,1225.752797
59553.076020,-74.020594,-11843.295072,2987.772442
59553.076330,0.000000,-8364.327145,306.438199
59553.076640,-74.020594,-9178.553681,842.705048
59553.076950,-296.082377,-9178.553681,842.705048
59553.077260,-370.102971,-9252.574275,536.266849
59553.077570,-74.020594,-8882.471304,-76.609550
59553.077880,-1554.432478,-7476.080014,0.000000
59553.078190,-1776.494261,-7772.162391,0.000000
59553.078500,-74.020594,-10658.965565,-76.609550
59553.078809,-2368.659014,-8364.327145,612.876398
59553.079119,-74.020594,-9474.636058,2681.334243
59553.079429,-1776.494261,-7772.162391,306.438199
59553.079739,-222.061783,-9326.594869,612.876398
59553.080049,-296.082377,-8956.491898,842.705048
59553.080359,-370.102971,-9326.594869,689.485948
59553.080669,-74.020594,-10658.965565,-76.609550
59553.080979,-74.020594,-8586.388927,-76.609550
59553.081289,-1776.494261,-8068.244768,0.000000
59553.081599,1998.556043,-11843.295072,3600.648841
59553.081909,-2368.659014,-6587.832884,-1225.752797
59553.082219,0.000000,-8956.491898,2451.505594
59553.082529,-1776.494261,-7550.100608,0.000000
59553.082839,0.000000,-8956.491898,919.314598
59553.083149,0.000000,-8808.450710,689.485948
59553.083459,370.102971,-8364.327145,919.314598
59553.083769,2294.638420,-10658.965565,2374.896044
59553.084079,2294.638420,-8882.471304,-76.609550
59553.084388,666.185348,-7920.203579,0.000000
59553.084698,2960.823768,-10584.944971,3524.039291
59553.085008,962.267725,-7550.100608,-383.047749
59553.085318,0.000000,-7179.997637,0.000000
59553.085628,2294.638420,-8290.306550,229.828649
59553.085938,2812.782580,-9252.574275,1072.533697
59553.086248,2812.782580,-9474.636058,383.047749
59553.086558,2664.741391,-9474.636058,229.828649
59553.086868,4589.276840,-11103.089130,2374.896044
59553.087178,5847.626942,-11251.130318,2068.457845
59553.087488,4071.132681,-8882.471304,536.266849
59553.087798,5181.441594,-10140.821405,3677.258390
59553.088108,4663.297435,-7994.224174,229.828649
59553.088418,2368.659014,-5995.668130,0.000000
59553.088728,6735.874072,-8882.471304,1149.143247
59553.089038,5255.462188,-8512.368333,1149.143247
59553.089348,5847.626942,-8512.368333,1072.533697
59553.089658,5847.626942,-8660.409521,306.438199
59553.089967,5921.647536,-8660.409521,1225.752797
59553.090277,7624.121203,-10658.965565,1991.848295
59553.090587,7031.956449,-10658.965565,-76.609550
59553.090897,2368.659014,-9548.656652,0.000000
59553.091207,6439.791695,-13915.871710,-76.609550
59553.091517,1258.350101,-10732.986159,-2068.457845
59553.091827,3478.967927,-13915.871710,1149.143247
59553.092137,1702.473667,-10510.924376,383.047749
59553.092447,1628.453072,-8660.409521,229.828649
59553.092757,2960.823768,-6365.771101,1225.752797
59553.093067,3552.988522,-3034.844362,2451.505594
59553.093377,6217.729913,-3923.091493,3064.381992
59553.093687,9030.512492,-4737.318029,4826.401637
59553.093997,7772.162391,-3330.926739,1149.143247
59553.094307,8882.471304,-8364.327145,3064.381992
59553.094617,5847.626942,-11843.295072,-76.609550
59553.094927,-148.041188,-15692.365970,-2451.505594
59553.095237,-2146.597232,-17172.777854,-3753.867940
59553.095546,-3034.844362,-16580.613101,-2834.553343
59553.095856,-3775.050304,-12435.459826,-2911.162892
59553.096166,-5329.482782,-7179.997637,-3064.381992
59553.096476,0.000000,-5403.503377,306.438199
59553.096786,3552.988522,-6291.750507,5439.278036
59553.097096,4663.297435,-4145.153275,3600.648841
59553.097406,3552.988522,-4811.338623,5515.887586
59553.097716,4663.297435,-7105.977043,4826.401637
59553.098026,2294.638420,-5403.503377,4290.134789
59553.098336,3997.112087,-3775.050304,2911.162892
59553.098646,3701.029710,-4663.297435,1378.971896
59553.098956,2072.576638,-7698.141797,-306.438199
59553.099266,-2442.679609,-11917.315666,-4903.011187
59553.099576,-8290.306550,-16654.633695,-4903.011187
59553.099886,-5625.565159,-20207.622217,-2451.505594
59553.100196,-5403.503377,-18061.024985,-3140.991542
59553.100506,-4737.318029,-8364.327145,-2451.505594
59553.100816,3478.967927,-9178.553681,2987.772442
59553.101125,1776.494261,-3627.009116,3140.991542
59553.101435,5255.462188,-4293.194464,5439.278036
59553.101745,5477.523971,-5255.462188,5898.935335
59553.102055,7476.080014,-4219.173869,5745.716235
59553.102365,9400.615463,-4737.318029,4826.401637
59553.102675,7031.956449,-3552.988522,3907.087040
59553.102985,3034.844362,-7328.038826,1225.752797
59553.103295,-74.020594,-14211.954086,-76.609550
59553.103605,-4663.297435,-13841.851115,-4903.011187
59553.103915,-2368.659014,-16654.633695,-3677.258390
59553.104225,-4737.318029,-14285.974681,-4290.134789
59553.104535,-4737.318029,-13693.809927,-3524.039291
59553.104845,-3256.906145,-11843.295072,-2681.334243
59553.105155,2294.638420,-9178.553681,766.095498
59553.105465,9400.615463,-4737.318029,4826.401637
59553.105775,12657.521608,-740.205942,6052.154434
59553.106085,12139.377449,-1258.350101,4903.011187
59553.106395,15026.180623,-7994.224174,9576.193725
59553.106704,7698.141797,-6587.832884,3370.820191
59553.107014,5921.647536,-9548.656652,3677.258390
59553.107324,0.000000,-11029.068536,-2451.505594
59553.107634,-3034.844362,-14211.954086,-4443.353888
59553.107944,-3108.864956,-15766.386565,-4903.011187
59553.108254,1184.329507,-14878.139434,-3217.601092
59553.108564,4663.297435,-11843.295072,-1302.362347
59553.108874,1702.473667,-9474.636058,-1915.238745
59553.109184,0.000000,-9548.656652,-2451.505594
59553.109494,8216.285956,-9178.553681,3600.648841
59553.109804,7698.141797,-2442.679609,3907.087040
59553.110114,8290.306550,-2442.679609,6128.763984
59553.110424,3404.947333,-3256.906145,1072.533697
59553.110734,6513.812290,-5551.544565,1991.848295
59553.111044,7624.121203,-8512.368333,3064.381992
59553.111354,3108.864956,-10288.862594,1762.019645
59553.111664,-1258.350101,-13027.624579,-2528.115143
59553.111974,-3997.112087,-14285.974681,-5056.230287
59553.112283,-2664.741391,-11917.315666,-6128.763984
59553.112593,-1184.329507,-13841.851115,1225.752797
59553.112903,1110.308913,-7698.141797,-383.047749
59553.113213,4737.318029,-5403.503377,3677.258390
59553.113523,7179.997637,-4219.173869,3064.381992
59553.113833,5921.647536,-6365.771101,3753.867940
59553.114143,2886.803174,-7105.977043,3600.648841
59553.114453,2812.782580,-6217.729913,1915.238745
59553.114763,5847.626942,-8882.471304,2374.896044
59553.115073,2294.638420,-8882.471304,-76.609550
59553.115383,222.061783,-8882.471304,-1608.800546
59553.115693,0.000000,-11029.068536,0.000000
59553.116003,-666.185348,-14804.118840,-2528.115143
59553.116313,-4737.318029,-13101.645173,-2451.505594
59553.116623,-3997.112087,-11325.150913,-1532.190996
59553.116933,592.164754,-9696.697840,1225.752797
59553.117243,5255.462188,-7328.038826,3294.210641
59553.117553,6291.750507,-6513.812290,4979.620737
59553.117863,9400.615463,-8290.306550,7277.907231
59553.118172,5551.544565,-7698.141797,4213.525239
59553.118482,2294.638420,-6513.812290,-76.609550
59553.118792,2368.659014,-9548.656652,2451.505594
59553.119102,3182.885551,-10658.965565,1149.143247
59553.119412,-3552.988522,-7179.997637,0.000000
59553.119722,-1850.514855,-10658.965565,-2221.676944
59553.120032,-2294.638420,-11917.315666,-2451.505594
59553.120342,0.000000,-11843.295072,-1072.533697
59553.120652,2220.617826,-9548.656652,536.266849
59553.120962,5329.482782,-9474.636058,4290.134789
59553.121272,7031.956449,-9474.636058,4519.963438
59553.121582,5847.626942,-8290.306550,2374.896044
59553.121892,2368.659014,-7179.997637,2451.505594
59553.122202,4367.215058,-9474.636058,1762.019645
59553.122512,1184.329507,-5107.421000,0.000000
59553.122822,5255.462188,-10658.965565,2221.676944
59553.123132,1998.556043,-10362.883188,1149.143247
59553.123442,-1258.350101,-9844.739029,-689.485948
59553.123751,-1110.308913,-9918.759623,-1455.581446
59553.124061,1776.494261,-8364.327145,1838.629195
59553.124371,4441.235652,-8586.388927,2068.457845
59553.124681,3478.967927,-8882.471304,-76.609550
59553.124991,4737.318029,-8364.327145,1685.410096
59553.125301,3775.050304,-8512.368333,0.000000
59553.125611,6291.750507,-7772.162391,536.266849
59553.125921,7031.956449,-9474.636058,1762.019645
59553.126231,2960.823768,-9622.677246,383.047749
59553.126541,2368.659014,-10881.027347,-919.314598
59553.126850,2368.659014,-11843.295072,76.609550
59553.127160,2368.659014,-9548.656652,612.876398
59553.127469,2368.659014,-10140.821405,1532.190996
59553.127779,4663.297435,-11843.295072,3370.820191
59553.128088,1110.308913,-7254.018232,-1378.971896
59553.128398,3552.988522,-8956.491898,1685.410096
59553.128707,7031.956449,-7105.977043,2374.896044
59553.129017,4293.194464,-6587.832884,1915.238745
59553.129326,5255.462188,-7772.162391,0.000000
59553.129636,1332.370696,-8660.409521,76.609550
59553.129946,2960.823768,-9696.697840,0.000000
59553.130255,2368.659014,-9548.656652,1225.752797
59553.130565,2368.659014,-11029.068536,1378.971896
59553.130874,2294.638420,-11695.253884,-1302.362347
59553.131184,0.000000,-10140.821405,0.000000
59553.131493,7031.956449,-11251.130318,2374.896044
59553.131803,3478.967927,-9474.636058,-76.609550
59553.132112,3478.967927,-8734.430116,1149.143247
59553.132422,740.205942,-9178.553681,-612.876398
59553.132731,4589.276840,-8734.430116,1991.848295
59553.133041,6587.832884,-6735.874072,2604.724693
59553.133351,1184.329507,-5995.668130,2451.505594
59553.133660,2960.823768,-7772.162391,1225.752797
59553.133970,3775.050304,-12435.459826,2374.896044
59553.134279,592.164754,-9548.656652,0.000000
59553.134589,2886.803174,-12435.459826,3600.648841
59553.134898,-2442.679609,-9474.636058,-689.485948
59553.135208,-222.061783,-12213.398043,919.314598
59553.135517,2590.720797,-6957.935855,1225.752797
59553.135827,2442.679609,-8438.347739,2834.553343
59553.136136,2442.679609,-4071.132681,1225.752797
59553.136446,0.000000,-5995.668130,0.000000
59553.136756,2960.823768,-5403.503377,0.000000
59553.137065,296.082377,-11769.274478,3600.648841
59553.137375,-3034.844362,-6809.894666,-3753.867940
59553.137684,-1406.391290,-13027.624579,-766.095498
59553.137994,2294.638420,-11251.130318,-76.609550
59553.138303,2664.741391,-12213.398043,1225.752797
59553.138613,3775.050304,-9474.636058,2528.115143
59553.138922,5847.626942,-9918.759623,3524.039291
59553.139232,6661.853478,-8734.430116,3830.477490
59553.139541,3182.885551,-6291.750507,612.876398
59553.139851,-2368.659014,-7772.162391,612.876398
59553.140161,592.164754,-7772.162391,1991.848295
59553.140470,0.000000,-5995.668130,-1532.190996
59553.140780,3330.926739,-9400.615463,1608.800546
59553.141089,2294.638420,-11843.295072,-76.609550
59553.141399,-1480.411884,-10140.821405,0.000000
59553.141708,-740.205942,-10584.944971,-689.485948
59553.142018,-2812.782580,-12139.377449,-842.705048
59553.142327,-3108.864956,-11177.109724,-536.266849
59553.142637,-1258.350101,-8734.430116,-76.609550
59553.142946,0.000000,-8068.244768,766.095498
59553.143256,2368.659014,-6291.750507,2451.505594
59553.143565,7031.956449,-9474.636058,4826.401637
59553.143875,1184.329507,-4811.338623,1532.190996
59553.144185,1776.494261,-8660.409521,3524.039291
59553.144494,-5625.565159,-7772.162391,-2451.505594
59553.144804,-7105.977043,-11621.233289,-2757.943793
59553.145113,-5921.647536,-9474.636058,-2987.772442
59553.145423,-3849.070898,-10362.883188,-995.924147
59553.145732,-74.020594,-10658.965565,-76.609550
59553.146042,814.226536,-8734.430116,1149.143247
59553.146351,0.000000,-7179.997637,766.095498
59553.146661,592.164754,-9548.656652,5056.230287
59553.146970,-3034.844362,-7698.141797,1149.143247
59553.147280,-2368.659014,-7772.162391,3677.258390
59553.147590,-2368.659014,-5551.544565,0.000000
59553.147899,-1628.453072,-6365.771101,1149.143247
59553.148209,-1258.350101,-7698.141797,766.095498
59553.148518,-962.267725,-7994.224174,306.438199
59553.148828,-74.020594,-11843.295072,-76.609550
59553.149137,-4811.338623,-11843.295072,-2528.115143
59553.149447,-7105.977043,-10732.986159,-4903.011187
59553.149756,-2072.576638,-12435.459826,1685.410096
59553.150066,-2294.638420,-8734.430116,0.000000
59553.150375,0.000000,-8364.327145,2451.505594
59553.150685,814.226536,-9548.656652,3064.381992
59553.150995,3997.112087,-7846.182985,4749.792088
59553.151304,2812.782580,-7254.018232,4749.792088
59553.151614,0.000000,-7031.956449,2757.943793
59553.151923,-74.020594,-8290.306550,2987.772442
59553.152233,-74.020594,-8142.265362,1149.143247
59553.152542,-1554.432478,-6587.832884,-3064.381992
59553.152852,-74.020594,-11843.295072,-76.609550
59553.153161,0.000000,-8068.244768,-2374.896044
59553.153471,0.000000,-7772.162391,0.000000
59553.153780,-1406.391290,-10955.047942,-153.219100
59553.154090,-3478.967927,-12213.398043,-766.095498
59553.154400,-296.082377,-10436.903782,536.266849
59553.154709,3478.967927,-8142.265362,1991.848295
59553.155019,5477.523971,-9474.636058,5362.668486
59553.155328,5847.626942,-9474.636058,4519.963438
59553.155638,4959.379811,-5403.503377,306.438199
59553.155947,7031.956449,-9474.636058,4213.525239
59553.156257,-740.205942,-6143.709319,0.000000
59553.156566,-4737.318029,-7179.997637,-2451.505594
59553.156876,-370.102971,-9474.636058,-1915.238745
59553.157185,-888.247130,-10362.883188,-2145.067394
59553.157495,-222.061783,-11399.171507,-766.095498
59553.157805,2516.700203,-11917.315666,383.047749
59553.158114,4145.153275,-11325.150913,2757.943793
59553.158424,2886.803174,-12287.418637,2068.457845
59553.158733,-666.185348,-11843.295072,-76.609550
59553.159043,0.000000,-7179.997637,1225.752797
59553.159352,3478.967927,-7698.141797,2374.896044
59553.159662,0.000000,-4811.338623,0.000000
59553.159971,2294.638420,-8882.471304,2374.896044
59553.160281,1110.308913,-6513.812290,1149.143247
59553.160590,-518.144159,-8364.327145,306.438199
59553.160900,-3997.112087,-9252.574275,-1685.410096
59553.161210,-7105.977043,-10732.986159,-1838.629195
59553.161519,-4145.153275,-10732.986159,-1991.848295
59553.161829,-1554.432478,-13027.624579,-76.609550
59553.162138,-2368.659014,-7772.162391,-1762.019645
59553.162448,1184.329507,-12953.603985,3217.601092
59553.162757,3478.967927,-7105.977043,842.705048
59553.163067,1850.514855,-9474.636058,3370.820191
59553.163376,-888.247130,-7105.977043,2298.286494
59553.163686,-1924.535449,-7624.121203,1225.752797
59553.163995,-1480.411884,-6809.894666,995.924147
59553.164305,-3552.988522,-7179.997637,612.876398
59553.164614,-2072.576638,-8364.327145,1532.190996
59553.164924,1110.308913,-11843.295072,3600.648841
59553.165234,-2442.679609,-7179.997637,-1225.752797
59553.165543,-2960.823768,-10732.986159,306.438199
59553.165853,-2442.679609,-13027.624579,-76.609550
59553.166162,-2664.741391,-9474.636058,612.876398
59553.166472,-2146.597232,-10362.883188,842.705048
59553.166781,148.041188,-8216.285956,1838.629195
59553.167091,2072.576638,-8512.368333,3524.039291
59553.167400,2368.659014,-4811.338623,2757.943793
59553.167710,1184.329507,-7179.997637,3370.820191
59553.168019,-296.082377,-9548.656652,4290.134789
59553.168329,-3330.926739,-7698.141797,-1302.362347
59553.168639,-2368.659014,-8956.491898,0.000000
59553.168948,-74.020594,-11251.130318,-76.609550
59553.169258,-1184.329507,-11695.253884,306.438199
59553.169567,2294.638420,-9844.739029,1072.533697
59553.169877,2220.617826,-10140.821405,1685.410096
59553.170186,-962.267725,-9548.656652,995.924147
59553.170496,-5329.482782,-9548.656652,0.000000
59553.170805,-2368.659014,-7179.997637,0.000000
59553.171115,2294.638420,-10807.006753,3983.696590
59553.171424,-1110.308913,-5699.585753,0.000000
59553.171734,2368.659014,-8660.409521,2757.943793
59553.172044,7031.956449,-9474.636058,3600.648841
59553.172353,2368.659014,-7476.080014,1225.752797
59553.172663,-1998.556043,-8882.471304,-995.924147
59553.172972,-3849.070898,-10362.883188,-1072.533697
59553.173282,-1702.473667,-10510.924376,-1225.752797
59553.173591,-2146.597232,-9474.636058,-2145.067394
59553.173901,-1776.494261,-10732.986159,0.000000
59553.174210,2960.823768,-11325.150913,3370.820191
59553.174520,4663.297435,-8882.471304,1762.019645
59553.174829,1184.329507,-8068.244768,1838.629195
59553.175139,-2072.576638,-7772.162391,1225.752797
59553.175449,-1554.432478,-8142.265362,229.828649
59553.175758,-740.205942,-7994.224174,612.876398
59553.176068,-444.123565,-7772.162391,459.657299
59553.176377,814.226536,-8660.409521,536.266849
59553.176687,4737.318029,-9474.636058,2987.772442
59553.176996,2294.638420,-9474.636058,2374.896044
59553.177306,-1258.350101,-10658.965565,-1302.362347
59553.177615,-7105.977043,-9548.656652,-2451.505594
59553.177925,-2738.761985,-11399.171507,1149.143247
59553.178234,-74.020594,-10658.965565,-76.609550
59553.178544,296.082377,-8956.491898,1838.629195
59553.178854,3330.926739,-8364.327145,2681.334243
59553.179163,4515.256246,-6291.750507,2757.943793
59553.179473,1184.329507,-7476.080014,2298.286494
59553.179782,-2146.597232,-7772.162391,0.000000
59553.180092,-3108.864956,-7476.080014,0.000000
59553.180401,-74.020594,-10658.965565,-76.609550
59553.180711,-4737.318029,-8364.327145,0.000000
59553.181020,-74.020594,-10658.965565,-76.609550
59553.181330,592.164754,-7772.162391,612.876398
59553.181639,1998.556043,-9844.739029,1455.581446
59553.181949,-444.123565,-10288.862594,689.485948
59553.182258,-2738.761985,-11251.130318,229.828649
59553.182568,-1332.370696,-10140.821405,459.657299
59553.182878,-74.020594,-9474.636058,2374.896044
59553.183187,-74.020594,-11251.130318,3600.648841
59553.183497,0.000000,-6143.709319,0.000000
59553.183806,4145.153275,-7476.080014,3217.601092
59553.184116,1110.308913,-7402.059420,0.000000
59553.184425,-2738.761985,-9474.636058,0.000000
59553.184735,-3701.029710,-9548.656652,-459.657299
59553.185044,-3627.009116,-11251.130318,-1072.533697
59553.185354,-3552.988522,-9622.677246,-1072.533697
59553.185663,-2368.659014,-10510.924376,1149.143247
59553.185973,2368.659014,-7772.162391,2145.067394
59553.186283,2368.659014,-5403.503377,2451.505594
59553.186592,3478.967927,-9474.636058,4826.401637
59553.186902,-3256.906145,-7772.162391,612.876398
59553.187211,-666.185348,-11251.130318,2374.896044
59553.187521,-1554.432478,-10658.965565,2068.457845
59553.187830,-1998.556043,-9474.636058,0.000000
59553.188140,0.000000,-9400.615463,229.828649
59553.188449,1406.391290,-8660.409521,1149.143247
59553.188759,0.000000,-7772.162391,0.000000
59553.189068,-1554.432478,-9474.636058,-76.609550
59553.189378,-1850.514855,-10658.965565,-689.485948
59553.189688,-2368.659014,-9548.656652,1225.752797
59553.189997,-74.020594,-10658.965565,2374.896044
59553.190307,0.000000,-5995.668130,1225.752797
59553.190616,2368.659014,-8364.327145,2451.505594
59553.190926,6143.709319,-5329.482782,3524.039291
59553.191235,1998.556043,-8216.285956,2987.772442
59553.191545,-814.226536,-6957.935855,153.219100
59553.191854,-3330.926739,-10658.965565,-76.609550
59553.192164,-3552.988522,-9696.697840,-3064.381992
59553.192473,-4145.153275,-10732.986159,0.000000
59553.192783,-1258.350101,-11843.295072,-689.485948
59553.193093,888.247130,-8364.327145,0.000000
59553.193402,4663.297435,-8882.471304,-76.609550
59553.193712,4071.132681,-9474.636058,1149.143247
59553.194021,-518.144159,-9918.759623,1302.362347
59553.194331,-444.123565,-8290.306550,76.609550
59553.194640,-888.247130,-11251.130318,612.876398
59553.194950,0.000000,-7772.162391,1225.752797
59553.195259,1110.308913,-10658.965565,2374.896044
59553.195569,2294.638420,-6513.812290,995.924147
59553.195878,0.000000,-7179.997637,1225.752797
59553.196188,-74.020594,-9474.636058,-76.609550
59553.196498,-3552.988522,-9548.656652,0.000000
59553.196807,-4145.153275,-9548.656652,0.000000
59553.197117,-2738.761985,-10510.924376,-383.047749
59553.197426,-1480.411884,-10584.944971,-76.609550
59553.197736,1332.370696,-8956.491898,995.924147
59553.198045,4071.132681,-8290.306550,2374.896044
59553.198355,0.000000,-5995.668130,0.000000
59553.198664,-74.020594,-9844.739029,2145.067394
59553.198974,-1850.514855,-8734.430116,-689.485948
59553.199283,-2220.617826,-12139.377449,2145.067394
59553.199593,-4515.256246,-7179.997637,-2987.772442
59553.199903,-74.020594,-9474.636058,-76.609550
59553.200212,518.144159,-7846.182985,919.314598
59553.200522,444.123565,-8438.347739,1762.019645
59553.200831,370.102971,-8290.306550,2221.676944
59553.201141,592.164754,-7772.162391,4290.134789
59553.201450,1702.473667,-9178.553681,2374.896044
59553.201760,-1850.514855,-7402.059420,229.828649
59553.202069,-1184.329507,-9844.739029,2374.896044
59553.202379,-666.185348,-6661.853478,-995.924147
59553.202688,1184.329507,-9770.718434,2757.943793
59553.202998,-888.247130,-9104.533087,919.314598
59553.203307,-1850.514855,-9474.636058,0.000000
59553.203617,-2072.576638,-9474.636058,0.000000
59553.203927,-2072.576638,-9474.636058,76.609550
59553.204236,-3034.844362,-9178.553681,-1915.238745
59553.204546,0.000000,-9548.656652,306.438199
59553.204855,4071.132681,-9474.636058,2987.772442
59553.205165,1850.514855,-6735.874072,0.000000
59553.205474,4071.132681,-9474.636058,3600.648841
59553.205784,-2368.659014,-5995.668130,306.438199
59553.206093,-518.144159,-8512.368333,536.266849
59553.206403,-1628.453072,-9992.780217,306.438199
59553.206712,-1850.514855,-9696.697840,306.438199
59553.207022,-740.205942,-9326.594869,-229.828649
59553.207332,1332.370696,-10955.047942,1149.143247
59553.207641,-666.185348,-9178.553681,-1455.581446
59553.207951,-4737.318029,-8956.491898,-2068.457845
59553.208260,-74.020594,-13027.624579,2374.896044
59553.208570,0.000000,-6143.709319,0.000000
59553.208879,2886.803174,-11547.212695,3600.648841
59553.209189,2516.700203,-9178.553681,2374.896044
59553.209498,2368.659014,-7698.141797,1915.238745
59553.209808,2590.720797,-7254.018232,2145.067394
59553.210117,-222.061783,-8956.491898,689.485948
59553.210427,-4145.153275,-7476.080014,-2298.286494
59553.210737,-2664.741391,-11103.089130,-1225.752797
59553.211046,-1850.514855,-10658.965565,-1302.362347
59553.211356,-4737.318029,-9548.656652,0.000000
59553.211665,2294.638420,-11251.130318,-76.609550
59553.211975,0.000000,-7179.997637,919.314598
59553.212284,444.123565,-8364.327145,612.876398
59553.212594,888.247130,-8660.409521,1685.410096
59553.212903,1924.535449,-8512.368333,2298.286494
59553.213213,1406.391290,-8364.327145,1608.800546
59553.213522,-74.020594,-9474.636058,2374.896044
59553.213832,-888.247130,-9696.697840,383.047749
59553.214142,592.164754,-8068.244768,1225.752797
59553.214451,3478.967927,-10658.965565,2374.896044
59553.214761,-3997.112087,-7179.997637,0.000000
59553.215070,-666.185348,-9474.636058,-842.705048
59553.215380,814.226536,-9474.636058,842.705048
59553.215689,-1406.391290,-9030.512492,0.000000
59553.215999,-1554.432478,-8808.450710,229.828649
59553.216308,888.247130,-8882.471304,1455.581446
59553.216618,1184.329507,-8364.327145,1838.629195
59553.216927,2812.782580,-9030.512492,2987.772442
59553.217237,370.102971,-7920.203579,2298.286494
59553.217547,962.267725,-7994.224174,2068.457845
59553.217856,444.123565,-8734.430116,1455.581446
59553.218166,-666.185348,-9474.636058,-76.609550
59553.218475,-1850.514855,-10732.986159,0.000000
59553.218785,2294.638420,-11843.295072,-76.609550
59553.219094,-2368.659014,-7772.162391,0.000000
59553.219404,-1258.350101,-11843.295072,-76.609550
59553.219713,-4737.318029,-8364.327145,0.000000
59553.220023,-666.185348,-9474.636058,689.485948
59553.220332,-370.102971,-8660.409521,1685.410096
59553.220642,-1184.329507,-8882.471304,1532.190996
59553.220952,0.000000,-8808.450710,1608.800546
59553.221261,2886.803174,-7994.224174,2374.896044
59553.221571,740.205942,-7179.997637,229.828649
59553.221880,-74.020594,-9844.739029,3294.210641
59553.222190,-2664.741391,-7179.997637,-1072.533697
59553.222499,-1184.329507,-9252.574275,0.000000
59553.222809,-3034.844362,-9548.656652,-2145.067394
59553.223118,-3034.844362,-11695.253884,-842.705048
59553.223428,-1332.370696,-10140.821405,-612.876398
59553.223737,-592.164754,-8882.471304,-229.828649
59553.224047,-1184.329507,-8364.327145,153.219100
59553.224356,1702.473667,-8882.471304,2068.457845
59553.224666,2294.638420,-6439.791695,0.000000
59553.224976,4663.297435,-9474.636058,4673.182538
59553.225285,0.000000,-7476.080014,306.438199
59553.225595,592.164754,-10214.842000,2451.505594
59553.225904,0.000000,-6883.915261,919.314598
59553.226214,-74.020594,-10584.944971,1532.190996
59553.226523,-1554.432478,-9326.594869,0.000000
59553.226833,-1036.288319,-8956.491898,76.609550
59553.227142,148.041188,-8660.409521,306.438199
59553.227452,-74.020594,-9474.636058,-76.609550
59553.227761,-1702.473667,-9548.656652,-1302.362347
59553.228071,0.000000,-8364.327145,0.000000
59553.228380,2886.803174,-10658.965565,2068.457845
59553.228689,222.061783,-7031.956449,383.047749
59553.228999,-1776.494261,-5551.544565,0.000000
59553.229308,1628.453072,-8142.265362,919.314598
59553.229618,1332.370696,-9400.615463,1149.143247
59553.229927,-1258.350101,-7994.224174,-1302.362347
59553.230237,-1184.329507,-10732.986159,459.657299
59553.230546,148.041188,-10584.944971,-383.047749
59553.230856,-2368.659014,-9548.656652,0.000000
59553.231165,-1776.494261,-10584.944971,2145.067394
59553.231475,-1258.350101,-7105.977043,-689.485948
59553.231784,1480.411884,-7772.162391,2451.505594
59553.232094,148.041188,-5995.668130,2298.286494
59553.232403,-814.226536,-9474.636058,1762.019645
59553.232713,-666.185348,-9548.656652,1149.143247
59553.233022,-666.185348,-8882.471304,383.047749
59553.233332,-4145.153275,-7772.162391,-229.828649
59553.233641,-666.185348,-11843.295072,-76.609550
59553.233951,2294.638420,-3552.988522,-1302.362347
59553.234260,0.000000,-10732.986159,3064.381992
59553.234570,-74.020594,-8882.471304,-76.609550
59553.234879,-4737.318029,-11917.315666,0.000000
59553.235189,444.123565,-7328.038826,0.000000
59553.235498,-1480.411884,-10584.944971,1149.143247
59553.235808,-3034.844362,-8808.450710,0.000000
59553.236117,-1332.370696,-8068.244768,0.000000
59553.236427,2442.679609,-6809.894666,2528.115143
59553.236736,5551.544565,-8882.471304,4213.525239
59553.237046,-370.102971,-9326.594869,3600.648841
59553.237355,-2368.659014,-5995.668130,0.000000
59553.237665,2294.638420,-12731.542202,2374.896044
59553.237974,-666.185348,-7920.203579,76.609550
59553.238284,-2738.761985,-9474.636058,-2145.067394
59553.238593,-1184.329507,-8438.347739,0.000000
59553.238903,74.020594,-9696.697840,-536.266849
59553.239212,-1480.411884,-10288.862594,0.000000
59553.239522,-1924.535449,-11325.150913,1455.581446
59553.239831,666.185348,-9474.636058,3524.039291
59553.240141,1702.473667,-8290.306550,2068.457845
59553.240450,-2368.659014,-5995.668130,0.000000
59553.240759,-74.020594,-8734.430116,1762.019645
59553.241069,-666.185348,-7698.141797,76.609550
59553.241378,2886.803174,-7402.059420,0.000000
59553.241688,0.000000,-9548.656652,1072.533697
59553.241997,-444.123565,-10955.047942,612.876398
59553.242307,-2146.597232,-10214.842000,-995.924147
59553.242616,-3330.926739,-11547.212695,-76.609550
59553.242926,-2368.659014,-11103.089130,1225.752797
59553.243235,-74.020594,-11251.130318,2987.772442
59553.243545,0.000000,-5995.668130,0.000000
59553.243854,2220.617826,-8142.265362,3370.820191
59553.244164,2294.638420,-9474.636058,1762.019645
59553.244473,2294.638420,-9104.533087,842.705048
59553.244783,-1258.350101,-7328.038826,612.876398
59553.245092,-1776.494261,-9178.553681,76.609550
59553.245402,-2294.638420,-8882.471304,76.609550
59553.245711,-1258.350101,-9844.739029,1149.143247
59553.246021,-1184.329507,-9844.739029,919.314598
59553.246330,-74.020594,-11843.295072,3600.648841
59553.246640,-814.226536,-7624.121203,0.000000
59553.246949,0.000000,-8956.491898,1838.629195
59553.247259,-74.020594,-9474.636058,1149.143247
59553.247568,-1258.350101,-10362.883188,-76.609550
59553.247878,-1036.288319,-7772.162391,459.657299
59553.248187,1776.494261,-8364.327145,1225.752797
59553.248497,1036.288319,-8142.265362,2451.505594
59553.248806,444.123565,-8290.306550,1532.190996
59553.249116,0.000000,-8364.327145,1532.190996
59553.249425,1406.391290,-11843.295072,3600.648841
59553.249735,-3552.988522,-7476.080014,0.000000
59553.250044,-666.185348,-10955.047942,1532.190996
59553.250354,-666.185348,-9474.636058,-76.609550
59553.250663,814.226536,-9918.759623,-76.609550
59553.250973,0.000000,-8660.409521,459.657299
59553.251282,-518.144159,-9326.594869,1072.533697
59553.251592,592.164754,-8438.347739,1225.752797
59553.251901,-148.041188,-8660.409521,1225.752797
59553.252211,-1776.494261,-6587.832884,0.000000
59553.252520,0.000000,-8364.327145,1225.752797
59553.252830,3478.967927,-9474.636058,2068.457845
59553.253139,0.000000,-7772.162391,612.876398
59553.253448,1110.308913,-10658.965565,1149.143247
59553.253758,444.123565,-10658.965565,2374.896044
59553.254067,-1406.391290,-10807.006753,229.828649
59553.254377,-2516.700203,-11621.233289,76.609550
59553.254686,-2368.659014,-11399.171507,306.438199
59553.254996,-518.144159,-7254.018232,0.000000
59553.255305,0.000000,-6587.832884,153.219100
59553.255615,0.000000,-5995.668130,306.438199
59553.255924,2294.638420,-11251.130318,3294.210641
59553.256234,0.000000,-7179.997637,919.314598
59553.256543,-74.020594,-9474.636058,1455.581446
59553.256853,-2368.659014,-9474.636058,2145.067394
59553.257162,-1998.556043,-7846.182985,-383.047749
59553.257472,740.205942,-7846.182985,229.828649
59553.257781,962.267725,-9696.697840,919.314598
59553.258091,0.000000,-8956.491898,-1685.410096
59553.258400,-2886.803174,-10288.862594,-2451.505594
59553.258710,-2368.659014,-10140.821405,0.000000
59553.259019,1332.370696,-10658.965565,2374.896044
59553.259329,-1258.350101,-9474.636058,1072.533697
59553.259638,0.000000,-5403.503377,612.876398
59553.259948,0.000000,-8956.491898,3064.381992
59553.260257,2812.782580,-6661.853478,1915.238745
59553.260567,444.123565,-9474.636058,2604.724693
59553.260876,222.061783,-7402.059420,1149.143247
59553.261186,-2072.576638,-8660.409521,-1149.143247
59553.261495,-2442.679609,-7698.141797,-1838.629195
59553.261805,-4737.318029,-7772.162391,0.000000
59553.262114,-74.020594,-10658.965565,2374.896044
59553.262424,-666.185348,-8216.285956,-1149.143247
59553.262733,-1184.329507,-10732.986159,842.705048
59553.263043,-1110.308913,-11029.068536,1225.752797
59553.263352,-222.061783,-11251.130318,1149.143247
59553.263662,-962.267725,-9622.677246,766.095498
59553.263971,-1628.453072,-8808.450710,919.314598
59553.264281,148.041188,-6069.688724,536.266849
59553.264590,3182.885551,-6217.729913,1762.019645
59553.264900,0.000000,-3627.009116,612.876398
59553.265209,3182.885551,-10510.924376,3600.648841
59553.265518,-962.267725,-8956.491898,76.609550
59553.265828,-1776.494261,-11621.233289,1762.019645
59553.266137,-3404.947333,-11029.068536,0.000000
59553.266447,-2516.700203,-11325.150913,-153.219100
59553.266756,518.144159,-7920.203579,612.876398
59553.267066,1184.329507,-8364.327145,1838.629195
59553.267375,1036.288319,-8290.306550,2068.457845
59553.267685,1702.473667,-9474.636058,3600.648841
59553.267994,2294.638420,-8882.471304,-76.609550
59553.268304,-3552.988522,-7772.162391,0.000000
59553.268613,-1554.432478,-9474.636058,2374.896044
59553.268923,-2442.679609,-7994.224174,-76.609550
59553.269232,-1184.329507,-5995.668130,0.000000
59553.269542,-222.061783,-8734.430116,995.924147
59553.269851,222.061783,-9474.636058,1072.533697
59553.270161,518.144159,-9474.636058,1455.581446
59553.270470,-222.061783,-10658.965565,-76.609550
59553.270780,-666.185348,-11251.130318,-153.219100
59553.271089,-666.185348,-13027.624579,-76.609550
59553.271399,-1480.411884,-7179.997637,0.000000
59553.271708,2590.720797,-9474.636058,2987.772442
59553.272018,962.267725,-7179.997637,2451.505594
59553.272327,0.000000,-7179.997637,612.876398
59553.272637,2368.659014,-9030.512492,2451.505594
59553.272946,-666.185348,-10140.821405,1149.143247
59553.273256,-3256.906145,-9770.718434,-383.047749
59553.273565,-2738.761985,-10362.883188,-76.609550
59553.273875,1480.411884,-9474.636058,1762.019645
59553.274184,-74.020594,-8290.306550,-76.609550
59553.274494,0.000000,-9548.656652,1838.629195
59553.274803,1110.308913,-9474.636058,536.266849
59553.275113,0.000000,-8364.327145,0.000000
59553.275422,-2368.659014,-8660.409521,0.000000
59553.275732,-2368.659014,-9548.656652,306.438199
59553.276041,-1332.370696,-8512.368333,306.438199
59553.276351,-962.267725,-7994.224174,153.219100
59553.276660,-74.020594,-9474.636058,2374.896044
59553.276970,2960.823768,-11251.130318,3677.258390
59553.277279,4663.297435,-7698.141797,1762.019645
59553.277588,0.000000,-8364.327145,2451.505594
59553.277898,-1258.350101,-9474.636058,1762.019645
59553.278207,-4071.132681,-8586.388927,0.000000
59553.278517,-1258.350101,-7105.977043,-1302.362347
59553.278826,-1406.391290,-9548.656652,0.000000
59553.279136,-1110.308913,-10140.821405,-76.609550
59553.279445,814.226536,-10881.027347,842.705048
59553.279755,3478.967927,-10140.821405,1378.971896
59553.280064,592.164754,-11029.068536,1225.752797
59553.280374,-74.020594,-11251.130318,2374.896044
59553.280683,-2368.659014,-7179.997637,0.000000
59553.280993,-74.020594,-9474.636058,1455.581446
59553.281302,-2072.576638,-7772.162391,0.000000
59553.281612,-74.020594,-9474.636058,1762.019645
59553.281921,2960.823768,-7476.080014,2298.286494
59553.282231,1628.453072,-8808.450710,2221.676944
59553.282540,-1924.535449,-9030.512492,689.485948
59553.282850,-3552.988522,-9548.656652,0.000000
59553.283159,0.000000,-8364.327145,383.047749
59553.283469,0.000000,-8660.409521,1838.629195
59553.283778,-74.020594,-9474.636058,-76.609550
59553.284088,-1554.432478,-5995.668130,-2681.334243
59553.284397,1184.329507,-6587.832884,229.828649
59553.284707,1702.473667,-9474.636058,1149.143247
59553.285016,-3552.988522,-9252.574275,306.438199
59553.285326,-2664.741391,-8512.368333,153.219100
59553.285635,370.102971,-8512.368333,995.924147
59553.285945,0.000000,-6291.750507,612.876398
59553.286254,0.000000,-8364.327145,2068.457845
59553.286564,2368.659014,-9252.574275,2604.724693
59553.286873,2886.803174,-8882.471304,1149.143247
59553.287183,-1628.453072,-9548.656652,1838.629195
59553.287492,-3034.844362,-10658.965565,-76.609550
59553.287802,-370.102971,-10658.965565,-76.609550
59553.288111,-1184.329507,-8882.471304,-689.485948
59553.288421,-962.267725,-10066.800811,842.705048
59553.288730,962.267725,-8586.388927,1149.143247
59553.289040,0.000000,-7179.997637,0.000000
59553.289349,-1776.494261,-8882.471304,1991.848295
59553.289658,-4737.318029,-8660.409521,0.000000
59553.289968,-2442.679609,-9474.636058,-76.609550
59553.290277,-2368.659014,-7254.018232,0.000000
59553.290587,-74.020594,-8882.471304,-76.609550
59553.290896,1406.391290,-10658.965565,1838.629195
59553.291206,-74.020594,-7476.080014,919.314598
59553.291515,1480.411884,-10881.027347,1838.629195
59553.291825,1924.535449,-8512.368333,1762.019645
59553.292134,-3552.988522,-9844.739029,383.047749
59553.292444,-3552.988522,-7920.203579,-383.047749
59553.292753,-5625.565159,-8956.491898,-2145.067394
59553.293063,888.247130,-9104.533087,1532.190996
59553.293372,1110.308913,-9844.739029,0.000000
59553.293682,2664.741391,-9474.636058,2374.896044
59553.293991,2368.659014,-9918.759623,2451.505594
59553.294301,444.123565,-9030.512492,2068.457845
59553.294610,0.000000,-9326.594869,766.095498
59553.294920,-1702.473667,-8290.306550,995.924147
59553.295229,-2590.720797,-5181.441594,-383.047749
59553.295539,-1554.432478,-9474.636058,-76.609550
59553.295848,296.082377,-5995.668130,0.000000
59553.296158,3256.906145,-11695.253884,2451.505594
59553.296467,-666.185348,-7994.224174,-1302.362347
59553.296777,-2738.761985,-12805.562797,1455.581446
59553.297086,-1776.494261,-9844.739029,612.876398
59553.297396,518.144159,-9252.574275,995.924147
59553.297705,-74.020594,-9178.553681,1455.581446
59553.298015,740.205942,-7994.224174,1608.800546
59553.298324,3182.885551,-7105.977043,2374.896044
59553.298634,3478.967927,-9474.636058,3600.648841
59553.298943,0.000000,-5995.668130,612.876398
59553.299253,-74.020594,-10658.965565,2374.896044
59553.299562,-2368.659014,-7179.997637,-3524.039291
59553.299872,-1036.288319,-10955.047942,1225.752797
59553.300181,-3256.906145,-9548.656652,-1685.410096
59553.300491,-666.185348,-10732.986159,-153.219100
59553.300800,518.144159,-9844.739029,-153.219100
59553.301110,-148.041188,-10955.047942,612.876398
59553.301419,-74.020594,-9474.636058,1685.410096
59553.301728,1702.473667,-8660.409521,2451.505594
59553.302038,2294.638420,-9178.553681,2374.896044
59553.302347,0.000000,-7179.997637,612.876398
59553.302657,2294.638420,-9474.636058,4213.525239
59553.302966,1184.329507,-6883.915261,2451.505594
59553.303276,0.000000,-7179.997637,0.000000
59553.303585,-2368.659014,-9918.759623,76.609550
59553.303895,-2664.741391,-10362.883188,-383.047749
59553.304204,-1776.494261,-9770.718434,-383.047749
59553.304514,-1258.350101,-11251.130318,-76.609550
59553.304823,-2368.659014,-8364.327145,0.000000
59553.305133,-74.020594,-11547.212695,1149.143247
59553.305442,962.267725,-8586.388927,842.705048
59553.305752,2960.823768,-11621.233289,5209.449386
59553.306061,0.000000,-7920.203579,1838.629195
59553.306371,-2072.576638,-7179.997637,0.000000
59553.306680,-592.164754,-7179.997637,766.095498
59553.306990,-1110.308913,-8586.388927,919.314598
59553.307299,0.000000,-9030.512492,1455.581446
59553.307609,4071.132681,-9474.636058,2374.896044
59553.307918,3108.864956,-9548.656652,1838.629195
59553.308228,-1850.514855,-10658.965565,-383.047749
59553.308537,-5921.647536,-10140.821405,0.000000
59553.308847,-74.020594,-12953.603985,2987.772442
59553.309156,0.000000,-6587.832884,0.000000
59553.309466,-1258.350101,-6809.894666,612.876398
59553.309775,148.041188,-8068.244768,1225.752797
59553.310085,1850.514855,-7846.182985,2221.676944
59553.310394,1406.391290,-8364.327145,1762.019645
59553.310704,-74.020594,-8956.491898,1225.752797
59553.311013,-1776.494261,-8364.327145,612.876398
59553.311323,-74.020594,-9474.636058,-76.609550
59553.311632,-2960.823768,-9548.656652,0.000000
59553.311942,-74.020594,-9474.636058,-689.485948
59553.312251,0.000000,-7179.997637,0.000000
59553.312561,2294.638420,-9474.636058,842.705048
59553.312870,222.061783,-9178.553681,995.924147
59553.313180,-962.267725,-10436.903782,536.266849
59553.313489,0.000000,-10066.800811,1072.533697
59553.313799,0.000000,-9548.656652,1378.971896
59553.314108,0.000000,-8364.327145,1225.752797
59553.314417,3478.967927,-9474.636058,2068.457845
59553.314727,0.000000,-5107.421000,0.000000
59553.315036,-74.020594,-11843.295072,2374.896044
59553.315346,-4811.338623,-7624.121203,-2221.676944
59553.315655,-1258.350101,-11695.253884,-76.609550
59553.315965,0.000000,-10658.965565,1149.143247
59553.316274,-370.102971,-7772.162391,1149.143247
59553.316584,-2442.679609,-9400.615463,459.657299
59553.316893,0.000000,-7476.080014,0.000000
59553.317203,592.164754,-5995.668130,306.438199
59553.317512,3478.967927,-11251.130318,4213.525239
59553.317822,-2368.659014,-7179.997637,0.000000
59553.318131,-74.020594,-11843.295072,2374.896044
59553.318441,518.144159,-7105.977043,-76.609550
59553.318750,-1258.350101,-9474.636058,1762.019645
59553.319060,-2294.638420,-8808.450710,-919.314598
59553.319369,444.123565,-9992.780217,1378.971896
59553.319679,2368.659014,-8364.327145,766.095498
59553.319988,-1776.494261,-9548.656652,0.000000
59553.320298,-3552.988522,-6587.832884,0.000000
59553.320607,0.000000,-9548.656652,612.876398
59553.320917,-74.020594,-11251.130318,2068.457845
59553.321226,-2368.659014,-7179.997637,1225.752797
59553.321536,-74.020594,-9474.636058,2374.896044
59553.321845,2294.638420,-8586.388927,2374.896044
59553.322155,222.061783,-9178.553681,1608.800546
59553.322464,-1776.494261,-8882.471304,919.314598
59553.322774,-2294.638420,-9030.512492,383.047749
59553.323083,-2442.679609,-6661.853478,-383.047749
59553.323393,-1258.350101,-8068.244768,-229.828649
59553.323702,-2368.659014,-8660.409521,0.000000
59553.324012,1776.494261,-9992.780217,2374.896044
59553.324321,-3034.844362,-7179.997637,-1915.238745
59553.324631,-74.020594,-11547.212695,-76.609550
59553.324940,-444.123565,-11251.130318,1072.533697
59553.325250,-296.082377,-10362.883188,842.705048
59553.325559,-2072.576638,-9548.656652,0.000000
59553.325869,-3256.906145,-9770.718434,0.000000
59553.326178,-740.205942,-7994.224174,842.705048
59553.326487,2294.638420,-7698.141797,1762.019645
59553.326797,0.000000,-7179.997637,2451.505594
59553.327106,-74.020594,-7698.141797,842.705048
59553.327416,0.000000,-7179.997637,1225.752797
59553.327725,2886.803174,-11843.295072,2374.896044
59553.328035,-1184.329507,-9548.656652,1072.533697
59553.328344,-1258.350101,-9918.759623,0.000000
59553.328654,296.082377,-9104.533087,-153.219100
59553.328964,740.205942,-9104.533087,76.609550
59553.329273,-74.020594,-10510.924376,689.485948
59553.329583,-74.020594,-11251.130318,1762.019645
59553.329892,0.000000,-7254.018232,0.000000
59553.330202,0.000000,-7476.080014,0.000000
59553.330511,-74.020594,-11843.295072,2374.896044
59553.330821,-74.020594,-9474.636058,1762.019645
59553.331130,2886.803174,-8290.306550,1762.019645
59553.331440,0.000000,-4811.338623,0.000000
59553.331749,592.164754,-8956.491898,1608.800546
59553.332059,1850.514855,-9030.512492,1838.629195
59553.332368,666.185348,-7105.977043,1762.019645
59553.332678,-1258.350101,-10658.965565,1149.143247
59553.332987,-2368.659014,-10436.903782,0.000000
59553.333297,2294.638420,-10362.883188,2068.457845
59553.333606,0.000000,-7179.997637,0.000000
59553.333916,1702.473667,-10658.965565,2987.772442
59553.334225,0.000000,-10288.862594,1225.752797
59553.334535,1628.453072,-9104.533087,1838.629195
59553.334844,-814.226536,-8216.285956,766.095498
59553.335154,-1702.473667,-9178.553681,1149.143247
59553.335463,1110.308913,-7698.141797,1149.143247
59553.335773,2072.576638,-7772.162391,1991.848295
59553.336082,-1628.453072,-6883.915261,0.000000
59553.336392,-1850.514855,-10658.965565,842.705048
59553.336701,-4737.318029,-7179.997637,0.000000
59553.337011,2738.761985,-12731.542202,3907.087040
59553.337320,-1480.411884,-9548.656652,612.876398
59553.337630,-1480.411884,-9474.636058,459.657299
59553.337939,888.247130,-9030.512492,1608.800546
59553.338249,1776.494261,-8734.430116,1302.362347
59553.338558,-74.020594,-9474.636058,1762.019645
59553.338868,-1184.329507,-8660.409521,919.314598
59553.339177,1110.308913,-8290.306550,-76.609550
59553.339487,0.000000,-8364.327145,1225.752797
59553.339796,-666.185348,-11251.130318,-76.609550
59553.340106,-3849.070898,-11029.068536,995.924147
59553.340415,-2072.576638,-9844.739029,0.000000
59553.340725,74.020594,-8882.471304,842.705048
59553.341034,-2146.597232,-8586.388927,766.095498
59553.341344,-1998.556043,-8512.368333,536.266849
59553.341653,1702.473667,-10658.965565,2145.067394
59553.341963,2072.576638,-9030.512492,2757.943793
59553.342273,1702.473667,-9178.553681,2987.772442
59553.342582,-2368.659014,-7179.997637,1225.752797
59553.342892,2294.638420,-10658.965565,2374.896044
59553.343201,-1184.329507,-8364.327145,1532.190996
59553.343511,-3256.906145,-8068.244768,0.000000
59553.343820,-2072.576638,-9104.533087,0.000000
59553.344130,-740.205942,-9326.594869,-612.876398
59553.344439,-1554.432478,-10881.027347,0.000000
59553.344749,-370.102971,-11843.295072,842.705048
59553.345058,0.000000,-9548.656652,1532.190996
59553.345368,2886.803174,-9474.636058,2987.772442
59553.345677,0.000000,-7179.997637,0.000000
59553.345987,-74.020594,-8660.409521,3524.039291
59553.346296,-1776.494261,-7772.162391,2451.505594
59553.346606,1924.535449,-6513.812290,1762.019645
59553.346915,0.000000,-7994.224174,1532.190996
59553.347225,-370.102971,-9030.512492,459.657299
59553.347534,-1554.432478,-9104.533087,-689.485948
59553.347844,-1036.288319,-11029.068536,0.000000
59553.348153,-3256.906145,-10732.986159,-1225.752797
59553.348463,-2442.679609,-11843.295072,-689.485948
59553.348772,-2072.576638,-7179.997637,0.000000
59553.349082,1776.494261,-11843.295072,3447.429741
59553.349391,0.000000,-5995.668130,306.438199
59553.349701,814.226536,-9770.718434,2068.457845
59553.350010,2220.617826,-7254.018232,2451.505594
59553.350320,2368.659014,-8290.306550,2834.553343
59553.350629,1776.494261,-6217.729913,1838.629195
59553.350939,592.164754,-7179.997637,612.876398
59553.351248,0.000000,-9326.594869,0.000000
59553.351558,-74.020594,-11695.253884,995.924147
59553.351867,-2294.638420,-10732.986159,-3677.258390
59553.352177,-1184.329507,-10140.821405,306.438199
59553.352486,-3404.947333,-9548.656652,-2451.505594
59553.352796,-666.185348,-9326.594869,-76.609550
59553.353105,-518.144159,-9548.656652,1225.752797
59553.353415,592.164754,-7476.080014,1608.800546
59553.353724,296.082377,-8364.327145,1915.238745
59553.354034,592.164754,-7179.997637,2451.505594
59553.354343,1184.329507,-5995.668130,2451.505594
59553.354653,3182.885551,-9178.553681,3600.648841
59553.354963,-1110.308913,-6587.832884,-2451.505594
59553.355272,-74.020594,-9474.636058,-76.609550
59553.355582,-1850.514855,-7476.080014,-2987.772442
59553.355891,-1258.350101,-11547.212695,-383.047749
59553.356201,-3330.926739,-10881.027347,-1225.752797
59553.356510,-2368.659014,-11843.295072,-842.705048
59553.356820,-444.123565,-10955.047942,766.095498
59553.357129,-1776.494261,-8512.368333,1302.362347
59553.357439,-74.020594,-7476.080014,2298.286494
59553.357748,296.082377,-6587.832884,3217.601092
59553.358058,4071.132681,-6513.812290,2374.896044
59553.358367,2960.823768,-7772.162391,4903.011187
59553.358677,-74.020594,-8290.306550,842.705048
59553.358986,-74.020594,-9474.636058,1762.019645
59553.359296,-1184.329507,-9474.636058,-536.266849
59553.359605,-3182.885551,-10066.800811,-995.924147
59553.359915,-3701.029710,-10436.903782,-1608.800546
59553.360224,-3849.070898,-10214.842000,-306.438199
59553.360534,-814.226536,-10510.924376,-229.828649
59553.360843,-2960.823768,-9548.656652,0.000000
59553.361153,-74.020594,-12731.542202,4213.525239
59553.361462,-74.020594,-7105.977043,1149.143247
59553.361772,2294.638420,-7698.141797,2374.896044
59553.362081,2220.617826,-7624.121203,3217.601092
59553.362391,888.247130,-6661.853478,2374.896044
59553.362700,888.247130,-7550.100608,1455.581446
59553.363010,0.000000,-8882.471304,1149.143247
59553.363319,-1258.350101,-9178.553681,-76.609550
59553.363629,-1554.432478,-10066.800811,-689.485948
59553.363938,-2368.659014,-9696.697840,0.000000
59553.364248,-1554.432478,-14211.954086,-76.609550
59553.364557,-4737.318029,-9548.656652,-2451.505594
59553.364867,2294.638420,-10658.965565,2068.457845
59553.365176,1184.329507,-9474.636058,1991.848295
59553.365486,1110.308913,-7698.141797,2298.286494
59553.365795,1110.308913,-8068.244768,2604.724693
59553.366105,2590.720797,-7105.977043,2987.772442
59553.366414,2294.638420,-8290.306550,2987.772442
59553.366724,-1258.350101,-7994.224174,536.266849
59553.367033,-4589.276840,-7772.162391,-1225.752797
59553.367343,-74.020594,-9474.636058,-76.609550
59553.367653,0.000000,-7179.997637,0.000000
59553.367962,2294.638420,-11843.295072,2374.896044
59553.368272,0.000000,-10807.006753,0.000000
59553.368581,-444.123565,-11399.171507,-459.657299
59553.368891,-1258.350101,-11029.068536,76.609550
59553.369200,-1406.391290,-10436.903782,383.047749
59553.369510,1702.473667,-7698.141797,2604.724693
59553.369819,3108.864956,-7550.100608,2298.286494
59553.370129,2294.638420,-7179.997637,2068.457845
59553.370438,2664.741391,-9548.656652,5056.230287
59553.370748,-74.020594,-8290.306550,-76.609550
59553.371057,-1480.411884,-11029.068536,-76.609550
59553.371367,-4737.318029,-9548.656652,-1225.752797
59553.371676,-3701.029710,-11029.068536,-689.485948
59553.371986,-1850.514855,-8956.491898,-842.705048
59553.372295,-2664.741391,-9548.656652,-689.485948
59553.372605,-148.041188,-8882.471304,0.000000
59553.372914,4071.132681,-9178.553681,2681.334243
59553.373224,1406.391290,-8956.491898,2145.067394
59553.373533,-2368.659014,-7179.997637,0.000000
59553.373843,-148.041188,-11251.130318,2298.286494
59553.374152,1184.329507,-9548.656652,2451.505594
59553.374462,592.164754,-6587.832884,1225.752797
59553.374771,222.061783,-7550.100608,919.314598
59553.375081,-1554.432478,-9992.780217,-76.609550
59553.375390,-222.061783,-10066.800811,459.657299
59553.375700,-444.123565,-11769.274478,0.000000
59553.376009,-3256.906145,-10066.800811,919.314598
59553.376319,-1850.514855,-9474.636058,-229.828649
59553.376628,0.000000,-5995.668130,0.000000
59553.376938,4663.297435,-8290.306550,3294.210641
59553.377247,0.000000,-6587.832884,3677.258390
59553.377557,1258.350101,-7328.038826,612.876398
59553.377866,888.247130,-8808.450710,1225.752797
59553.378176,-1036.288319,-11621.233289,612.876398
59553.378485,-3478.967927,-10881.027347,-306.438199
59553.378795,-2590.720797,-9548.656652,-1838.629195
59553.379104,592.164754,-8660.409521,1225.752797
59553.379414,2294.638420,-8882.471304,1762.019645
59553.379723,592.164754,-7179.997637,2451.505594
59553.380033,4663.297435,-10066.800811,4519.963438
59553.380342,0.000000,-7179.997637,1225.752797
59553.380652,-3182.885551,-9548.656652,76.609550
59553.380962,-1924.535449,-9178.553681,306.438199
59553.381271,74.020594,-7846.182985,1149.143247
59553.381581,740.205942,-7031.956449,919.314598
59553.381890,-518.144159,-7179.997637,0.000000
59553.382200,-814.226536,-9622.677246,0.000000
59553.382509,-74.020594,-11251.130318,1149.143247
59553.382819,-4515.256246,-8512.368333,-2834.553343
59553.383128,-3552.988522,-10732.986159,0.000000
59553.383438,-2368.659014,-7179.997637,0.000000
59553.383747,1406.391290,-7994.224174,1149.143247
59553.384057,814.226536,-8142.265362,1838.629195
59553.384366,1406.391290,-8068.244768,1532.190996
59553.384676,2294.638420,-9696.697840,2221.676944
59553.384985,740.205942,-8734.430116,1149.143247
59553.385295,-3034.844362,-10288.862594,153.219100
59553.385604,-3034.844362,-10658.965565,-76.609550
59553.385914,-4441.235652,-6587.832884,-2451.505594
59553.386223,3478.967927,-10658.965565,2374.896044
59553.386533,-2146.597232,-5995.668130,0.000000
59553.386842,-74.020594,-10362.883188,1149.143247
59553.387152,592.164754,-9030.512492,612.876398
59553.387461,-1110.308913,-10066.800811,383.047749
59553.387771,-3775.050304,-10066.800811,0.000000
59553.388080,-3478.967927,-8882.471304,-76.609550
59553.388390,740.205942,-7402.059420,919.314598
59553.388699,2368.659014,-7772.162391,3753.867940
59553.389009,-370.102971,-5255.462188,383.047749
59553.389318,1776.494261,-9400.615463,3064.381992
59553.389628,518.144159,-7402.059420,0.000000
59553.389937,-74.020594,-10066.800811,1149.143247
59553.390247,-2812.782580,-10510.924376,306.438199
59553.390556,-1850.514855,-9104.533087,-536.266849
59553.390866,370.102971,-9474.636058,-383.047749
59553.391175,-444.123565,-8290.306550,1149.143247
59553.391485,-2368.659014,-8734.430116,0.000000
59553.391794,592.164754,-7476.080014,2451.505594
59553.392104,3478.967927,-9474.636058,2374.896044
59553.392413,-2368.659014,-7476.080014,76.609550
59553.392723,-666.185348,-8290.306550,459.657299
59553.393032,0.000000,-8068.244768,1991.848295
59553.393342,888.247130,-8142.265362,1072.533697
59553.393652,-666.185348,-8882.471304,536.266849
59553.393961,0.000000,-8734.430116,306.438199
59553.394271,2294.638420,-11843.295072,2374.896044
59553.394580,222.061783,-10362.883188,-536.266849
59553.394890,-2960.823768,-10140.821405,0.000000
59553.395199,-74.020594,-11547.212695,-76.609550
59553.395509,0.000000,-7179.997637,-1225.752797
59553.395818,2294.638420,-8290.306550,1149.143247
59553.396128,148.041188,-9548.656652,1838.629195
59553.396437,3182.885551,-9548.656652,2221.676944
59553.396747,2516.700203,-8734.430116,2298.286494
59553.397056,-1628.453072,-8586.388927,766.095498
59553.397366,-1702.473667,-9474.636058,1762.019645
59553.397675,-1850.514855,-8290.306550,-536.266849
59553.397985,-3997.112087,-8364.327145,0.000000
59553.398294,-74.020594,-11251.130318,-76.609550
59553.398604,-2960.823768,-8660.409521,0.000000
59553.398913,2294.638420,-9474.636058,-76.609550
59553.399223,-592.164754,-11029.068536,919.314598
59553.399532,-444.123565,-9030.512492,1378.971896
59553.399842,-444.123565,-8068.244768,1455.581446
59553.400151,740.205942,-6957.935855,1302.362347
59553.400461,296.082377,-8068.244768,0.000000
59553.400770,888.247130,-9400.615463,2604.724693
59553.401080,2294.638420,-8882.471304,1608.800546
59553.401389,0.000000,-7179.997637,2451.505594
59553.401699,-74.020594,-10658.965565,-76.609550
59553.402008,-4737.318029,-7772.162391,612.876398
59553.402318,-1406.391290,-8882.471304,-76.609550
59553.402627,-592.164754,-8882.471304,689.485948
59553.402937,-888.247130,-8956.491898,1225.752797
59553.403246,1184.329507,-8882.471304,689.485948
59553.403556,2368.659014,-8142.265362,1302.362347
59553.403865,0.000000,-8956.491898,0.000000
59553.404175,-1850.514855,-11843.295072,-76.609550
59553.404484,-4737.318029,-7179.997637,-2451.505594
59553.404794,1924.535449,-9474.636058,2374.896044
59553.405103,0.000000,-7179.997637,1225.752797
59553.405413,1110.308913,-8882.471304,1762.019645
59553.405722,2220.617826,-8512.368333,1685.410096
59553.406032,1184.329507,-9474.636058,1608.800546
59553.406341,-2886.803174,-10510.924376,459.657299
59553.406651,-3404.947333,-9252.574275,-229.828649
59553.406961,-2368.659014,-8068.244768,1225.752797
59553.407270,1332.370696,-9104.533087,3600.648841
59553.407580,-4145.153275,-5995.668130,0.000000
59553.407889,1110.308913,-10510.924376,2068.457845
59553.408199,0.000000,-6513.812290,0.000000
59553.408508,-74.020594,-10658.965565,689.485948
59553.408818,-3330.926739,-10584.944971,0.000000
59553.409127,-2738.761985,-9918.759623,-995.924147
59553.409437,-444.123565,-8734.430116,153.219100
59553.409746,148.041188,-9030.512492,1149.143247
59553.410056,-2368.659014,-7772.162391,612.876398
59553.410365,3182.885551,-9918.759623,3294.210641
59553.410675,296.082377,-5403.503377,0.000000
59553.410984,1480.411884,-9992.780217,3983.696590
59553.411294,-2442.679609,-7402.059420,0.000000
59553.411603,-74.020594,-8882.471304,842.705048
59553.411913,-814.226536,-7846.182985,0.000000
59553.412222,-1998.556043,-9548.656652,153.219100
59553.412532,-444.123565,-8882.471304,229.828649
59553.412841,1406.391290,-9474.636058,2221.676944
59553.413151,296.082377,-8364.327145,0.000000
59553.413460,-1776.494261,-9548.656652,1225.752797
59553.413770,-74.020594,-10658.965565,-76.609550
59553.414079,-1776.494261,-7772.162391,0.000000
59553.414389,-74.020594,-8216.285956,-383.047749
59553.414698,0.000000,-8734.430116,1838.629195
59553.415008,1702.473667,-8734.430116,1455.581446
59553.415317,2960.823768,-8290.306550,1991.848295
59553.415627,1036.288319,-9252.574275,1991.848295
59553.415936,-74.020594,-9474.636058,1762.019645
59553.416246,-370.102971,-9030.512492,-76.609550
59553.416555,-1776.494261,-7772.162391,0.000000
59553.416865,-74.020594,-10658.965565,-76.609550
59553.417174,-1776.494261,-10732.986159,612.876398
59553.417484,3478.967927,-9474.636058,1149.143247
59553.417793,1406.391290,-10362.883188,1915.238745
59553.418103,-1998.556043,-8290.306550,229.828649
59553.418412,-3034.844362,-9326.594869,153.219100
59553.418722,-1110.308913,-8068.244768,536.266849
59553.419031,-740.205942,-10584.944971,2145.067394
59553.419341,-1258.350101,-8290.306550,-76.609550
59553.419651,-1776.494261,-9548.656652,0.000000
59553.419960,4663.297435,-9474.636058,2374.896044
59553.420270,0.000000,-7476.080014,306.438199
59553.420579,-74.020594,-10362.883188,1608.800546
59553.420889,-1924.535449,-9548.656652,0.000000
59553.421198,0.000000,-9992.780217,306.438199
59553.421508,-1036.288319,-10140.821405,612.876398
59553.421817,-666.185348,-10436.903782,689.485948
59553.422127,2886.803174,-9400.615463,2604.724693
59553.422436,2886.803174,-8882.471304,1762.019645
59553.422746,-1776.494261,-7179.997637,0.000000
59553.423055,-74.020594,-10658.965565,2987.772442
59553.423365,-2442.679609,-7105.977043,0.000000
59553.423674,-370.102971,-10658.965565,1149.143247
59553.423984,-3552.988522,-8956.491898,0.000000
59553.424293,-1258.350101,-10066.800811,459.657299
59553.424603,1332.370696,-7772.162391,1225.752797
59553.424912,518.144159,-8882.471304,1455.581446
59553.425222,-888.247130,-8364.327145,2451.505594
59553.425531,-74.020594,-10362.883188,2068.457845
59553.425841,-666.185348,-9178.553681,-76.609550
59553.426150,-3552.988522,-8364.327145,0.000000
59553.426460,-74.020594,-10658.965565,1762.019645
59553.426769,2368.659014,-9474.636058,3294.210641
59553.427079,2220.617826,-5995.668130,1762.019645
59553.427389,1332.370696,-7846.182985,2374.896044
59553.427698,518.144159,-7920.203579,1532.190996
59553.428008,222.061783,-8734.430116,689.485948
59553.428318,0.000000,-9548.656652,612.876398
59553.428627,-1554.432478,-11843.295072,-76.609550
59553.428937,-2442.679609,-11251.130318,-689.485948
59553.429246,0.000000,-10732.986159,612.876398
59553.429556,-74.020594,-9474.636058,-76.609550
59553.429866,-888.247130,-10066.800811,2145.067394
59553.430175,370.102971,-8438.347739,1149.143247
59553.430485,666.185348,-8364.327145,1685.410096
59553.430795,-666.185348,-9474.636058,1072.533697
59553.431104,-1554.432478,-8956.491898,689.485948
59553.431414,0.000000,-7772.162391,0.000000
59553.431723,1480.411884,-8808.450710,1378.971896
59553.432033,1110.308913,-9474.636058,-76.609550
59553.432343,0.000000,-8956.491898,1225.752797
59553.432652,-74.020594,-9918.759623,-76.609550
59553.432962,-1184.329507,-10140.821405,612.876398
59553.433271,-3627.009116,-11103.089130,-689.485948
59553.433581,-2812.782580,-10436.903782,-689.485948
59553.433891,-444.123565,-9474.636058,76.609550
59553.434200,0.000000,-9030.512492,306.438199
59553.434510,-3552.988522,-6883.915261,0.000000
59553.434820,-3182.885551,-8660.409521,0.000000
59553.435129,-370.102971,-8882.471304,-76.609550
59553.435439,-4145.153275,-7179.997637,1225.752797
59553.435748,-1850.514855,-10658.965565,2681.334243
59553.436058,-4737.318029,-8660.409521,1838.629195
59553.436368,-1850.514855,-8586.388927,2374.896044
59553.436677,-2368.659014,-8290.306550,1762.019645
59553.436987,-3849.070898,-7328.038826,1455.581446
59553.437297,-4589.276840,-8512.368333,995.924147
59553.437606,-4589.276840,-6735.874072,-2451.505594
59553.437916,-5699.585753,-10436.903782,-919.314598
59553.438225,-7105.977043,-11325.150913,612.876398
59553.438535,-7179.997637,-10362.883188,-1915.238745
59553.438845,-5921.647536,-8364.327145,0.000000
59553.439154,-6809.894666,-9548.656652,306.438199
59553.439464,-5107.421000,-8142.265362,1149.143247
59553.439774,-5403.503377,-9696.697840,1838.629195
59553.440083,-3775.050304,-7105.977043,2068.457845
59553.440393,-5329.482782,-9770.718434,2681.334243
59553.440702,-5403.503377,-6809.894666,1149.143247
59553.441012,-7105.977043,-7772.162391,2451.505594
59553.441322,-370.102971,-9474.636058,4826.401637
59553.441631,-4515.256246,-4811.338623,612.876398
59553.441941,-3552.988522,-6291.750507,1532.190996
59553.442251,-6513.812290,-7772.162391,0.000000
59553.442560,-7476.080014,-12287.418637,-995.924147
59553.442870,-7624.121203,-10881.027347,-3753.867940
59553.443179,-11473.192101,-13693.809927,-2757.943793
59553.443489,-10066.800811,-11547.212695,-2681.334243
59553.443799,-5107.421000,-11843.295072,-76.609550
59553.444108,-3849.070898,-6291.750507,1838.629195
59553.444418,-74.020594,-10658.965565,8350.440928
59553.444728,-666.185348,-3256.906145,3907.087040
59553.445037,-1184.329507,-4811.338623,4290.134789
59553.445347,962.267725,-5255.462188,3677.258390
59553.445656,1332.370696,-7031.956449,3370.820191
59553.445966,-3256.906145,-9326.594869,766.095498
59553.446276,-6809.894666,-9474.636058,-3140.991542
59553.446585,-10140.821405,-12805.562797,-4060.306139
59553.446895,-4811.338623,-13323.706956,-2528.115143
59553.447205,-2886.803174,-11029.068536,-1225.752797
59553.447514,0.000000,-7179.997637,0.000000
59553.447824,1258.350101,-9474.636058,3064.381992
59553.448133,-74.020594,-8882.471304,1762.019645
59553.448443,1702.473667,-8586.388927,1225.752797
59553.448753,2368.659014,-7772.162391,4366.744339
59553.449062,444.123565,-6957.935855,2221.676944
59553.449372,-1628.453072,-8586.388927,1225.752797
59553.449682,-2368.659014,-9474.636058,689.485948
59553.449991,-74.020594,-11843.295072,2374.896044
59553.450301,-1554.432478,-8882.471304,-76.609550
59553.450610,-4145.153275,-8364.327145,0.000000
59553.450920,-1258.350101,-11843.295072,-76.609550
59553.451230,-5921.647536,-7920.203579,-2451.505594
59553.451539,-3923.091493,-10658.965565,-2298.286494
59553.451849,-2146.597232,-8956.491898,689.485948
59553.452159,518.144159,-7550.100608,1149.143247
59553.452468,-592.164754,-8586.388927,1608.800546
59553.452778,-3182.885551,-7476.080014,1149.143247
59553.453087,-3627.009116,-11843.295072,2374.896044
59553.453397,-2442.679609,-10658.965565,1149.143247
59553.453707,-3552.988522,-7179.997637,612.876398
59553.454016,-74.020594,-9474.636058,2374.896044
59553.454326,-4145.153275,-7179.997637,612.876398
59553.454636,-1850.514855,-9474.636058,-689.485948
59553.454945,-4737.318029,-11325.150913,-612.876398
59553.455255,-5921.647536,-10584.944971,-612.876398
59553.455564,-3552.988522,-8734.430116,-612.876398
59553.455874,-2960.823768,-10066.800811,2681.334243
59553.456184,-3256.906145,-10436.903782,3524.039291
59553.456493,-5403.503377,-10362.883188,2374.896044
59553.456803,-9104.533087,-7179.997637,0.000000
59553.457113,-5181.441594,-9104.533087,2757.943793
59553.457422,-3923.091493,-6809.894666,2068.457845
59553.457732,-1258.350101,-5921.647536,3600.648841
59553.458041,-3552.988522,-5699.585753,2451.505594
59553.458351,-4071.132681,-8216.285956,919.314598
59553.458661,-6143.709319,-10214.842000,-612.876398
59553.458970,-7772.162391,-9770.718434,-1685.410096
59553.459280,-6809.894666,-10140.821405,-1838.629195
59553.459590,-3182.885551,-10658.965565,-76.609550
59553.459899,-1258.350101,-9474.636058,-76.609550
59553.460209,-5921.647536,-9548.656652,0.000000
59553.460518,-5033.400406,-11991.336260,1532.190996
59553.460828,-4811.338623,-11843.295072,2374.896044
59553.461138,-3997.112087,-9918.759623,2911.162892
59553.461447,-2812.782580,-7476.080014,4290.134789
59553.461757,-1776.494261,-5995.668130,4596.572988
59553.462066,518.144159,-4885.359217,4903.011187
59553.462376,0.000000,-4811.338623,4903.011187
59553.462686,-2146.597232,-8290.306550,4136.915689
59553.462995,-5403.503377,-9474.636058,-2528.115143
59553.463305,-8290.306550,-8364.327145,-4596.572988
59553.463615,-7105.977043,-12213.398043,-2451.505594
59553.463924,-7179.997637,-11843.295072,-1915.238745
59553.464234,-6143.709319,-11103.089130,-2451.505594
59553.464543,-962.267725,-9104.533087,-383.047749
59553.464853,296.082377,-10362.883188,1608.800546
59553.465163,-2146.597232,-11325.150913,1225.752797
59553.465472,-3552.988522,-9548.656652,2451.505594
59553.465782,1332.370696,-8660.409521,4903.011187
59553.466092,4071.132681,-8290.306550,4826.401637
59553.466401,-3552.988522,-4811.338623,2451.505594
59553.466711,-1258.350101,-7698.141797,2374.896044
59553.467020,1480.411884,-8290.306550,3600.648841
59553.467330,3034.844362,-6661.853478,842.705048
59553.467640,-2072.576638,-8660.409521,612.876398
59553.467949,-6957.935855,-11621.233289,-2374.896044
59553.468259,-7920.203579,-12213.398043,-4903.011187
59553.468569,-8290.306550,-10732.986159,-4903.011187
59553.468878,-4737.318029,-12361.439231,0.000000
59553.469188,-2442.679609,-11843.295072,-76.609550
59553.469497,-6735.874072,-8364.327145,-1608.800546
59553.469807,-1184.329507,-7772.162391,3064.381992
59553.470117,4737.318029,-7105.977043,7584.345430
59553.470426,5995.668130,-3552.988522,6665.030833
59553.470736,2516.700203,-4293.194464,4290.134789
59553.471046,-2812.782580,-8808.450710,536.266849
59553.471355,-5181.441594,-11917.315666,-3140.991542
59553.471665,-7105.977043,-11621.233289,-4290.134789
59553.471974,-7105.977043,-11325.150913,-3677.258390
59553.472284,-7179.997637,-13027.624579,-3140.991542
59553.472594,-11843.295072,-11917.315666,-3677.258390
59553.472903,-5995.668130,-13915.871710,1762.019645
59553.473213,-3552.988522,-8956.491898,2757.943793
59553.473523,-74.020594,-4737.318029,4673.182538
59553.473832,1184.329507,-2516.700203,6128.763984
59553.474142,4885.359217,-1850.514855,7660.954980
59553.474451,3627.009116,-2812.782580,4673.182538
59553.474761,-2738.761985,-7254.018232,0.000000
59553.475071,-9474.636058,-11917.315666,-4290.134789
59553.475380,-7179.997637,-16580.613101,-2528.115143
59553.475690,-10658.965565,-11917.315666,-5515.887586
59553.476000,-8586.388927,-10288.862594,-2834.553343
59553.476309,-9252.574275,-11325.150913,-2451.505594
59553.476619,-6735.874072,-12953.603985,-1149.143247
59553.476928,-4737.318029,-13101.645173,1225.752797
59553.477238,-3627.009116,-10658.965565,4673.182538
59553.477548,-592.164754,-4441.235652,6052.154434
59553.477857,2886.803174,-888.247130,5439.278036
59553.478167,3997.112087,3478.967927,4903.011187
59553.478477,6069.688724,-1332.370696,7660.954980
59553.478786,1110.308913,-4737.318029,2987.772442
59553.479096,-4145.153275,-9548.656652,-306.438199
59553.479405,-9474.636058,-14582.057057,-6128.763984
59553.479715,-14878.139434,-21243.910535,-7431.126331
59553.480025,-16358.551318,-20133.601622,-8656.879127
59553.480334,-13397.727550,-17394.839637,-5209.449386
59553.480644,-6661.853478,-13027.624579,-1302.362347
59553.480954,-1258.350101,-7698.141797,-76.609550
59553.481263,814.226536,-3108.864956,4826.401637
59553.481573,4737.318029,-74.020594,9806.022374
59553.481882,9400.615463,-2368.659014,12180.918418
59553.482192,5847.626942,-888.247130,8886.707777
59553.482502,1776.494261,-1258.350101,4903.011187
59553.482811,-1554.432478,-8438.347739,2528.115143
59553.483121,-7105.977043,-12435.459826,-2757.943793
59553.483431,-12287.418637,-16358.551318,-6128.763984
59553.483740,-13767.830521,-20133.601622,-6511.811733
59553.484050,-11325.150913,-18949.272115,-6205.373534
59553.484359,-11029.068536,-14508.036463,-6511.811733
59553.484669,-8290.306550,-10732.986159,-2451.505594
59553.484979,-74.020594,-8882.471304,4826.401637
59553.485288,4663.297435,-3552.988522,5209.449386
59553.485598,5329.482782,2294.638420,5515.887586
59553.485908,7254.018232,296.082377,8427.050478
59553.486217,6069.688724,-1628.453072,6281.983084
59553.486527,3330.926739,-5033.400406,3830.477490
59553.486836,-666.185348,-11547.212695,1762.019645
59553.487146,-4811.338623,-14211.954086,-1302.362347
59553.487456,-9844.739029,-15396.283594,-7431.126331
59553.487765,-14211.954086,-17838.963202,-8580.269578
59553.488075,-9548.656652,-22502.260637,-5286.058936
59553.488385,-7179.997637,-18949.272115,-4903.011187
59553.488694,-4515.256246,-14211.954086,-1378.971896
59553.489004,-888.247130,-9326.594869,3983.696590
59553.489313,3404.947333,-3849.070898,7354.516781
59553.489623,5107.421000,-740.205942,10035.851024
59553.489933,7031.956449,0.000000,11874.480219
59553.490242,4663.297435,0.000000,10955.165621
59553.490552,2294.638420,-3552.988522,6052.154434
59553.490861,-4737.318029,-5107.421000,2451.505594
59553.491171,-4293.194464,-12879.583391,612.876398
59553.491481,-8364.327145,-13989.892304,-5439.278036
59553.491790,-10140.821405,-18801.230927,-5286.058936
59553.492100,-9844.739029,-16654.633695,-4903.011187
59553.492410,-7698.141797,-17987.004391,-1378.971896
59553.492719,-3552.988522,-13989.892304,919.314598
59553.493029,2072.576638,-7772.162391,6128.763984
59553.493338,7698.141797,-6513.812290,10648.727422
59553.493648,10584.944971,-4737.318029,13406.671215
59553.493958,7105.977043,2294.638420,9806.022374
59553.494267,9400.615463,-1776.494261,12717.185267
59553.494577,4959.379811,-1850.514855,5592.497135
59553.494887,2294.638420,-7105.977043,4213.525239
59553.495196,-4441.235652,-13101.645173,4366.744339
59553.495506,-6957.935855,-13397.727550,-459.657299
59553.495815,-7254.018232,-16580.613101,-2221.676944
59553.496125,-5329.482782,-20207.622217,0.000000
59553.496435,-4145.153275,-19023.292709,4290.134789
59553.496744,-518.144159,-17764.942608,7584.345430
59553.497054,2294.638420,-8882.471304,4826.401637
59553.497364,2960.823768,-5995.668130,8886.707777
59553.497673,7624.121203,-3552.988522,10955.165621
59553.497983,7920.203579,-2072.576638,12180.918418
59553.498292,5107.421000,-1258.350101,10725.336972
59553.498602,4663.297435,-1332.370696,9806.022374
59553.498912,3404.947333,-4737.318029,7048.078582
59553.499221,0.000000,-8660.409521,6128.763984
59553.499531,-3256.906145,-11325.150913,5515.887586
59553.499841,-4441.235652,-17838.963202,5515.887586
59553.500150,-4811.338623,-20133.601622,2987.772442
59553.500460,-11991.336260,-16062.468941,0.000000
59553.500769,-7105.977043,-11843.295072,4749.792088
59553.501079,1110.308913,-7698.141797,8810.098227
59553.501389,5699.585753,-814.226536,10955.165621
59553.501698,7402.059420,3701.029710,12334.137518
59553.502008,6661.853478,2294.638420,13406.671215
59553.502318,3552.988522,-1850.514855,12257.527968
59553.502627,592.164754,-3627.009116,7967.393179
59553.502937,-3552.988522,-4811.338623,4903.011187
59553.503246,-3627.009116,-9474.636058,3600.648841
59553.503556,-4737.318029,-8364.327145,1302.362347
59553.503866,-962.267725,-14211.954086,4213.525239
59553.504175,-2072.576638,-15248.242405,3524.039291
59553.504485,-4367.215058,-16580.613101,1915.238745
59553.504795,-7179.997637,-19097.313304,2987.772442
59553.505104,-3330.926739,-14508.036463,4136.915689
59553.505414,-1184.329507,-7179.997637,3677.258390
59553.505723,0.000000,-74.020594,6128.763984
59553.506033,1184.329507,4663.297435,7354.516781
59553.506343,7254.018232,0.000000,9806.022374
59553.506652,5699.585753,-1184.329507,6665.030833
59553.506962,1998.556043,-5329.482782,5439.278036
59553.507272,-1184.329507,-11325.150913,4290.134789
59553.507581,-3404.947333,-14582.057057,612.876398
59553.507891,-8216.285956,-17172.777854,-2451.505594
59553.508200,-11843.295072,-20725.766376,-3907.087040
59553.508510,-8956.491898,-16580.613101,-5286.058936
59553.508820,-5995.668130,-12509.480420,-3677.258390
59553.509129,-2368.659014,-7772.162391,0.000000
59553.509439,2368.659014,-6587.832884,4903.011187
59553.509749,6439.791695,-4441.235652,6052.154434
59553.510058,9252.574275,-2368.659014,8197.221829
59553.510368,7105.977043,-1554.432478,6128.763984
59553.510677,4441.235652,-6069.688724,4826.401637
59553.510987,666.185348,-9696.697840,2374.896044
59553.511297,-666.185348,-11695.253884,612.876398
59553.511606,-1258.350101,-11547.212695,-2528.115143
59553.511916,-4811.338623,-9474.636058,-4366.744339
59553.512226,-5995.668130,-12287.418637,-4366.744339
59553.512535,-4145.153275,-14285.974681,-1225.752797
59553.512845,-74.020594,-14804.118840,-689.485948
59553.513154,-666.185348,-13545.768739,0.000000
59553.513464,0.000000,-10140.821405,0.000000
59553.513774,2294.638420,-8438.347739,2757.943793
59553.514083,4885.359217,-3627.009116,4136.915689
59553.514393,5699.585753,-1036.288319,4673.182538
59553.514703,5255.462188,-2368.659014,4826.401637
59553.515012,3478.967927,-2368.659014,4213.525239
59553.515322,1702.473667,-4811.338623,76.609550
59553.515631,0.000000,-10140.821405,612.876398
59553.515941,-3034.844362,-15988.448347,-76.609550
59553.516251,-7698.141797,-17246.798449,0.000000
59553.516560,-5921.647536,-14285.974681,-3064.381992
59553.516870,-2072.576638,-13101.645173,153.219100
59553.517180,-1258.350101,-9474.636058,2451.505594
59553.517489,3404.947333,-6365.771101,3983.696590
59553.517799,6439.791695,-8882.471304,8197.221829
59553.518108,4663.297435,-8290.306550,7277.907231
59553.518418,-4441.235652,-7476.080014,2757.943793
59553.518728,-74.020594,-11843.295072,7431.126331
59553.519037,-1554.432478,-8142.265362,5132.839837
59553.519347,-3552.988522,-5995.668130,3677.258390
59553.519656,-2442.679609,-5477.523971,3140.991542
59553.519966,-592.164754,-7179.997637,5286.058936
59553.520276,296.082377,-8142.265362,4136.915689
59553.520585,-3034.844362,-11769.274478,3140.991542
59553.520895,-2516.700203,-13915.871710,4826.401637
59553.521205,-74.020594,-13619.789333,7890.783629
59553.521514,3478.967927,-7105.977043,4826.401637
59553.521824,0.000000,-5403.503377,6128.763984
59553.522133,-74.020594,-8882.471304,7277.907231
59553.522443,0.000000,-6587.832884,4903.011187
59553.522753,1702.473667,-9400.615463,7277.907231
59553.523062,-1998.556043,-8660.409521,6741.640382
59553.523372,-3627.009116,-9326.594869,5286.058936
59553.523682,-1480.411884,-8512.368333,5745.716235
59553.523991,-444.123565,-10732.986159,8427.050478
59553.524301,-74.020594,-10214.842000,7354.516781
59553.524610,-74.020594,-9474.636058,6052.154434
59553.524920,-2072.576638,-5995.668130,4290.134789
59553.525230,2368.659014,-5995.668130,7354.516781
59553.525539,518.144159,-6143.709319,3830.477490
59553.525849,-666.185348,-9178.553681,4826.401637
59553.526159,-1480.411884,-10584.944971,5056.230287
59553.526468,296.082377,-11177.109724,5132.839837
59553.526778,-592.164754,-11325.150913,5515.887586
59553.527087,-3256.906145,-10732.986159,6741.640382
59553.527397,-296.082377,-10140.821405,4903.011187
59553.527707,-74.020594,-11843.295072,6052.154434
59553.528016,-3478.967927,-5847.626942,2451.505594
59553.528326,0.000000,-7772.162391,4903.011187
59553.528636,1702.473667,-4737.318029,3907.087040
59553.528945,2886.803174,-7105.977043,4826.401637
59553.529255,444.123565,-5847.626942,3064.381992
59553.529564,-666.185348,-7402.059420,3140.991542
59553.529874,222.061783,-9844.739029,4136.915689
59553.530184,0.000000,-9548.656652,4903.011187
59553.530493,0.000000,-10732.986159,2451.505594
59553.530803,-3552.988522,-9548.656652,2451.505594
59553.531112,-74.020594,-10658.965565,4673.182538
59553.531422,1110.308913,-9474.636058,3600.648841
59553.531732,-2368.659014,-4811.338623,612.876398
59553.532041,-1480.411884,-8216.285956,1608.800546
59553.532351,0.000000,-7179.997637,536.266849
59553.532660,0.000000,-9844.739029,3370.820191
59553.532970,444.123565,-9030.512492,3064.381992
59553.533280,1184.329507,-7328.038826,3370.820191
59553.533589,-592.164754,-8956.491898,1225.752797
59553.533899,2294.638420,-9474.636058,4519.963438
59553.534208,-74.020594,-7698.141797,2374.896044
59553.534518,592.164754,-8956.491898,5592.497135
59553.534827,-74.020594,-7994.224174,2374.896044
59553.535137,1110.308913,-12435.459826,3600.648841
59553.535447,-296.082377,-10436.903782,2834.553343
59553.535756,-888.247130,-10584.944971,2911.162892
59553.536066,-296.082377,-8290.306550,2528.115143
59553.536375,-2960.823768,-9548.656652,2451.505594
59553.536685,0.000000,-7179.997637,1225.752797
59553.536995,-74.020594,-10658.965565,4213.525239
59553.537304,-814.226536,-3923.091493,459.657299
59553.537614,-740.205942,-7179.997637,3907.087040
59553.537923,-74.020594,-7105.977043,2068.457845
59553.538233,1406.391290,-10658.965565,3294.210641
59553.538543,148.041188,-12287.418637,3294.210641
59553.538852,-444.123565,-12065.356855,2528.115143
59553.539162,-2072.576638,-12509.480420,3983.696590
59553.539471,-3256.906145,-5995.668130,612.876398
59553.539781,0.000000,-6587.832884,689.485948
59553.540091,1184.329507,-4811.338623,3677.258390
59553.540400,2294.638420,-10658.965565,4826.401637
59553.540710,-1036.288319,-7179.997637,0.000000
59553.541019,-74.020594,-11843.295072,2374.896044
59553.541329,-666.185348,-10955.047942,3294.210641
59553.541639,-2664.741391,-10214.842000,1762.019645
59553.541948,-2368.659014,-7550.100608,1378.971896
59553.542258,-1110.308913,-7105.977043,1455.581446
59553.542567,-2220.617826,-5995.668130,612.876398
59553.542877,-2368.659014,-7179.997637,1762.019645
59553.543187,0.000000,-9548.656652,3064.381992
59553.543496,1184.329507,-12361.439231,4290.134789
59553.543806,-74.020594,-11251.130318,2987.772442
59553.544115,-666.185348,-14211.954086,6052.154434
59553.544425,592.164754,-10214.842000,5515.887586
59553.544735,962.267725,-5625.565159,3753.867940
59553.545044,1110.308913,-3478.967927,3217.601092
59553.545354,888.247130,-3997.112087,3753.867940
59553.545663,518.144159,-4811.338623,2681.334243
59553.545973,-1554.432478,-7105.977043,2068.457845
59553.546283,-3997.112087,-9992.780217,842.705048
59553.546592,-2368.659014,-12509.480420,3677.258390
59553.546902,-74.020594,-11547.212695,3600.648841
59553.547211,814.226536,-8882.471304,4673.182538
59553.547521,0.000000,-5403.503377,2451.505594
59553.547830,1258.350101,-5477.523971,3217.601092
59553.548140,2220.617826,-7994.224174,2834.553343
59553.548450,0.000000,-11029.068536,2528.115143
59553.548759,-1850.514855,-13619.789333,-76.609550
59553.549069,-3627.009116,-15396.283594,2374.896044
59553.549378,-3552.988522,-7772.162391,0.000000
59553.549688,296.082377,-6439.791695,3064.381992
59553.549998,1110.308913,-1776.494261,-76.609550
59553.550307,2368.659014,-4071.132681,2451.505594
59553.550617,1776.494261,-7179.997637,1838.629195
59553.550926,370.102971,-13693.809927,2068.457845
59553.551236,-3108.864956,-15988.448347,689.485948
59553.551546,-3849.070898,-14730.098246,153.219100
59553.551855,-666.185348,-10658.965565,-76.609550
59553.552165,1110.308913,-7105.977043,-76.609550
59553.552474,0.000000,-2442.679609,0.000000
59553.552784,2960.823768,-6735.874072,1072.533697
59553.553094,2294.638420,-9474.636058,-76.609550
59553.553403,-1776.494261,-13693.809927,306.438199
59553.553713,-4737.318029,-14285.974681,-2451.505594
59553.554022,-3330.926739,-11177.109724,-2451.505594
59553.554332,-2294.638420,-7254.018232,-2374.896044
59553.554642,0.000000,-3627.009116,-2221.676944
59553.554951,4663.297435,-5921.647536,-76.609550
59553.555261,5847.626942,-10658.965565,2374.896044
59553.555570,1110.308913,-11547.212695,-1915.238745
59553.555880,-3552.988522,-15470.304188,-1838.629195
59553.556190,-1258.350101,-16580.613101,-76.609550
59553.556499,-2960.823768,-9548.656652,-2451.505594
59553.556809,0.000000,-4293.194464,-3064.381992
59553.557118,888.247130,-4737.318029,-1685.410096
59553.557428,2294.638420,-5625.565159,-2451.505594
59553.557738,962.267725,-9770.718434,-2911.162892
59553.558047,-74.020594,-14211.954086,-1608.800546
59553.558357,-74.020594,-16432.571912,-76.609550
59553.558666,-1258.350101,-9474.636058,-4979.620737
59553.558976,-2072.576638,-5995.668130,-3677.258390
59553.559286,3478.967927,-9474.636058,-76.609550
59553.559595,1184.329507,-5403.503377,0.000000
59553.559905,2664.741391,-10214.842000,0.000000
59553.560214,2072.576638,-11769.274478,383.047749
59553.560524,-1184.329507,-13619.789333,-842.705048
59553.560833,-1480.411884,-10362.883188,-1072.533697
59553.561143,1036.288319,-8734.430116,-76.609550
59553.561453,2072.576638,-7179.997637,1225.752797
59553.561762,2294.638420,-7105.977043,-383.047749
59553.562072,0.000000,-5995.668130,-1838.629195
59553.562381,2664.741391,-12509.480420,2374.896044
59553.562691,-4071.132681,-9844.739029,-1838.629195
59553.563001,-3627.009116,-13027.624579,-689.485948
59553.563310,-2072.576638,-11177.109724,842.705048
59553.563620,0.000000,-8364.327145,2145.067394
59553.563929,370.102971,-6661.853478,2221.676944
59553.564239,1480.411884,-6587.832884,4903.011187
59553.564549,2368.659014,-7179.997637,4903.011187
59553.564858,4663.297435,-10658.965565,6052.154434
59553.565168,-962.267725,-10658.965565,2528.115143
59553.565477,-1850.514855,-12361.439231,4903.011187
59553.565787,-3182.885551,-7772.162391,153.219100
59553.566097,-666.185348,-7994.224174,2834.553343
59553.566406,-1406.391290,-6587.832884,2298.286494
59553.566716,-962.267725,-6365.771101,3064.381992
59553.567025,592.164754,-8586.388927,3753.867940
59553.567335,-1776.494261,-10140.821405,3677.258390
59553.567645,-4737.318029,-10140.821405,2451.505594
59553.567954,-3552.988522,-11325.150913,4903.011187
59553.568264,-1258.350101,-9474.636058,4519.963438
59553.568573,-1184.329507,-5403.503377,4903.011187
59553.568883,-370.102971,-3849.070898,2374.896044
59553.569193,2812.782580,-4441.235652,4213.525239
59553.569502,1258.350101,-6883.915261,3983.696590
59553.569812,-148.041188,-10066.800811,3600.648841
59553.570121,-1850.514855,-12435.459826,2298.286494
59553.570431,-3552.988522,-10140.821405,1225.752797
59553.570741,-4145.153275,-7772.162391,612.876398
59553.571050,1184.329507,-9252.574275,4290.134789
59553.571360,2294.638420,-6513.812290,3294.210641
59553.571669,0.000000,-4811.338623,2451.505594
59553.571979,4071.132681,-9474.636058,3600.648841
59553.572289,-74.020594,-12435.459826,3907.087040
59553.572598,-1850.514855,-11399.171507,2528.115143
59553.572908,-2368.659014,-10584.944971,2298.286494
59553.573217,-1850.514855,-6513.812290,995.924147
59553.573527,-3552.988522,-4219.173869,0.000000
59553.573837,-962.267725,-4071.132681,0.000000
59553.574146,0.000000,-6291.750507,1225.752797
59553.574456,-74.020594,-10658.965565,1149.143247
59553.574765,-5921.647536,-9548.656652,-2451.505594
59553.575075,-1258.350101,-12435.459826,-76.609550
59553.575384,-1258.350101,-11769.274478,612.876398
59553.575694,-74.020594,-10362.883188,919.314598
59553.576004,1628.453072,-7698.141797,1225.752797
59553.576313,3478.967927,-7476.080014,1608.800546
59553.576623,1702.473667,-5107.421000,-995.924147
59553.576932,518.144159,-7402.059420,-842.705048
59553.577242,-2368.659014,-8364.327145,0.000000
59553.577552,148.041188,-11325.150913,2068.457845
59553.577861,-2442.679609,-8882.471304,-2528.115143
59553.578171,-74.020594,-10658.965565,-383.047749
59553.578480,-592.164754,-8512.368333,-1225.752797
59553.578790,740.205942,-7476.080014,-1915.238745
59553.579100,-518.144159,-8660.409521,-2298.286494
59553.579409,-1998.556043,-10436.903782,-2604.724693
59553.579719,-2442.679609,-12657.521608,-2528.115143
59553.580028,-74.020594,-11843.295072,-2528.115143
59553.580338,-2960.823768,-7772.162391,-2451.505594
59553.580648,370.102971,-8142.265362,1762.019645
59553.580957,1110.308913,-5625.565159,-2528.115143
59553.581267,3775.050304,-10362.883188,2068.457845
59553.581576,296.082377,-10140.821405,0.000000
59553.581886,-370.102971,-11251.130318,-383.047749
59553.582196,0.000000,-9326.594869,-1225.752797
59553.582505,148.041188,-8882.471304,-995.924147
59553.582815,-74.020594,-9474.636058,-689.485948
59553.583124,2294.638420,-10955.047942,-76.609550
59553.583434,1110.308913,-9030.512492,-842.705048
59553.583744,0.000000,-10732.986159,612.876398
59553.584053,-74.020594,-11843.295072,-76.609550
59553.584363,-74.020594,-9474.636058,1685.410096
59553.584672,-1480.411884,-5699.585753,0.000000
59553.584982,-518.144159,-6513.812290,383.047749
59553.585292,-222.061783,-6957.935855,383.047749
59553.585601,962.267725,-9326.594869,229.828649
59553.585911,2294.638420,-11843.295072,1532.190996
59553.586220,-74.020594,-14211.954086,-76.609550
59553.586530,-3182.885551,-8808.450710,-1532.190996
59553.586840,-888.247130,-9474.636058,1149.143247
59553.587149,-2442.679609,-5403.503377,-1608.800546
59553.587459,0.000000,-10140.821405,3064.381992
59553.587768,296.082377,-8364.327145,1838.629195
59553.588078,2368.659014,-10066.800811,2451.505594
59553.588387,1036.288319,-9696.697840,2681.334243
59553.588697,-1036.288319,-9844.739029,2298.286494
59553.589007,1110.308913,-9474.636058,2757.943793
59553.589316,2294.638420,-10658.965565,3600.648841
59553.589626,-1850.514855,-6957.935855,229.828649
59553.589935,-2368.659014,-8956.491898,2451.505594
59553.590245,-74.020594,-9474.636058,-76.609550
59553.590555,0.000000,-9548.656652,2451.505594
59553.590864,-2812.782580,-11177.109724,1225.752797
59553.591174,-3256.906145,-11177.109724,1532.190996
59553.591483,-2368.659014,-9992.780217,995.924147
59553.591793,-1184.329507,-7402.059420,1915.238745
59553.592103,-74.020594,-8142.265362,3830.477490
59553.592412,2294.638420,-7031.956449,5132.839837
59553.592722,1702.473667,-5403.503377,2374.896044
59553.593031,1184.329507,-7179.997637,4290.134789
59553.593341,-74.020594,-10658.965565,2374.896044
59553.593651,-2368.659014,-7772.162391,612.876398
59553.593960,-1702.473667,-9770.718434,1378.971896
59553.594270,-1776.494261,-9104.533087,919.314598
59553.594579,-888.247130,-8068.244768,766.095498
59553.594889,74.020594,-8660.409521,1532.190996
59553.595199,1332.370696,-8364.327145,2451.505594
59553.595508,888.247130,-10732.986159,3064.381992
59553.595818,1702.473667,-12435.459826,2987.772442
59553.596127,0.000000,-8364.327145,0.000000
59553.596437,296.082377,-9548.656652,3064.381992
59553.596747,-1184.329507,-5995.668130,0.000000
59553.597056,1110.308913,-6365.771101,1149.143247
59553.597366,2368.659014,-7179.997637,1608.800546
59553.597675,2220.617826,-8438.347739,1378.971896
59553.597985,-814.226536,-10584.944971,306.438199
59553.598295,-2368.659014,-10140.821405,0.000000
59553.598604,-4145.153275,-10140.821405,-1838.629195
59553.598914,-1998.556043,-12657.521608,766.095498
59553.599223,-2442.679609,-9548.656652,-2451.505594
59553.599533,2294.638420,-11547.212695,3294.210641
59553.599843,814.226536,-6883.915261,612.876398
59553.600152,2886.803174,-8882.471304,2834.553343
59553.600462,666.185348,-9030.512492,2604.724693
59553.600771,222.061783,-7698.141797,1762.019645
59553.601081,-518.144159,-7994.224174,1225.752797
59553.601390,-3552.988522,-7179.997637,0.000000
59553.601700,-4145.153275,-7179.997637,0.000000
59553.602010,1110.308913,-10214.842000,1455.581446
59553.602319,-666.185348,-7772.162391,-2911.162892
59553.602629,-2960.823768,-9548.656652,0.000000
59553.602938,-1850.514855,-10658.965565,-689.485948
59553.603248,-1184.329507,-10732.986159,919.314598
59553.603558,-1850.514855,-10066.800811,536.266849
59553.603867,-1628.453072,-8808.450710,842.705048
59553.604177,444.123565,-6291.750507,612.876398
59553.604486,0.000000,-5477.523971,1532.190996
59553.604796,0.000000,-4811.338623,0.000000
59553.605106,-888.247130,-9992.780217,1225.752797
59553.605415,-74.020594,-10140.821405,-2374.896044
59553.605725,592.164754,-11325.150913,1838.629195
59553.606034,-74.020594,-9474.636058,-1608.800546
59553.606344,-962.267725,-9696.697840,-76.609550
59553.606654,1702.473667,-8068.244768,0.000000
59553.606963,2294.638420,-8734.430116,612.876398
59553.607273,1036.288319,-9992.780217,536.266849
59553.607582,-1702.473667,-10955.047942,842.705048
59553.607892,-2368.659014,-9548.656652,0.000000
59553.608202,0.000000,-9548.656652,1225.752797
59553.608511,-74.020594,-8290.306550,-76.609550
59553.608821,0.000000,-3034.844362,0.000000
59553.609130,4663.297435,-7105.977043,-76.609550
59553.609440,1480.411884,-7328.038826,153.219100
59553.609750,-666.185348,-11695.253884,-383.047749
59553.610059,-1776.494261,-13767.830521,-612.876398
59553.610369,-1998.556043,-12139.377449,-842.705048
59553.610678,-1258.350101,-11251.130318,-76.609550
59553.610988,-2442.679609,-6513.812290,-2221.676944
59553.611298,296.082377,-6587.832884,0.000000
59553.611607,4071.132681,-7105.977043,-76.609550
59553.611917,0.000000,-8364.327145,0.000000
59553.612226,2294.638420,-12435.459826,2068.457845
59553.612536,-1480.411884,-10732.986159,153.219100
59553.612846,-1702.473667,-9844.739029,-383.047749
59553.613155,-2664.741391,-8438.347739,-1225.752797
59553.613465,-1850.514855,-7476.080014,-919.314598
59553.613774,2886.803174,-9474.636058,-76.609550
59553.614084,2294.638420,-9474.636058,-76.609550
59553.614393,-2368.659014,-9548.656652,-1225.752797
59553.614703,-2368.659014,-10732.986159,612.876398
59553.615013,-74.020594,-11843.295072,-76.609550
59553.615322,-666.185348,-11251.130318,2374.896044
59553.615632,-2960.823768,-7550.100608,0.000000
59553.615941,0.000000,-6957.935855,612.876398
59553.616251,1924.535449,-6513.812290,1455.581446
59553.616561,1776.494261,-7476.080014,2298.286494
59553.616870,1702.473667,-8882.471304,2374.896044
59553.617180,-74.020594,-10658.965565,2374.896044
59553.617489,-962.267725,-8734.430116,536.266849
59553.617799,-3552.988522,-7772.162391,1225.752797
59553.618109,-74.020594,-9474.636058,2374.896044
59553.618418,1480.411884,-9178.553681,4060.306139
59553.618728,1702.473667,-7920.203579,2145.067394
59553.619037,814.226536,-9400.615463,2451.505594
59553.619347,296.082377,-9548.656652,2528.115143
59553.619657,222.061783,-9474.636058,2374.896044
59553.619966,148.041188,-9844.739029,2451.505594
59553.620276,-74.020594,-9474.636058,2374.896044
59553.620585,-2368.659014,-7179.997637,612.876398
59553.620895,1110.308913,-9474.636058,3600.648841
59553.621205,-2368.659014,-6587.832884,0.000000
59553.621514,0.000000,-10140.821405,3677.258390
59553.621824,-74.020594,-9770.718434,2221.676944
59553.622133,-592.164754,-8956.491898,2298.286494
59553.622443,-1480.411884,-9548.656652,1685.410096
59553.622753,-1850.514855,-9326.594869,995.924147
59553.623062,0.000000,-9548.656652,612.876398
59553.623372,1184.329507,-10510.924376,3524.039291
59553.623681,-1258.350101,-8808.450710,842.705048
59553.623991,0.000000,-11843.295072,4213.525239
59553.624301,-2368.659014,-7179.997637,306.438199
59553.624610,-2368.659014,-8660.409521,2604.724693
59553.624920,-1554.432478,-10140.821405,1915.238745
59553.625229,-1332.370696,-8734.430116,1455.581446
59553.625539,-148.041188,-7328.038826,995.924147
59553.625849,-962.267725,-7031.956449,689.485948
59553.626158,-2368.659014,-6587.832884,0.000000
59553.626468,0.000000,-10288.862594,1838.629195
59553.626777,-74.020594,-12435.459826,2068.457845
59553.627087,-2368.659014,-9548.656652,1225.752797
59553.627396,-74.020594,-11843.295072,2374.896044
59553.627706,-1850.514855,-5403.503377,306.438199
59553.628016,1110.308913,-5921.647536,766.095498
59553.628325,148.041188,-7476.080014,612.876398
59553.628635,592.164754,-8660.409521,306.438199
59553.628945,222.061783,-10584.944971,383.047749
59553.629254,-1480.411884,-9548.656652,0.000000
59553.629564,-2368.659014,-9548.656652,306.438199
59553.629874,-74.020594,-9474.636058,2374.896044
59553.630183,-666.185348,-5625.565159,-2528.115143
59553.630493,592.164754,-8068.244768,153.219100
59553.630803,0.000000,-8068.244768,0.000000
59553.631112,1110.308913,-10214.842000,0.000000
59553.631422,592.164754,-9548.656652,-536.266849
59553.631732,0.000000,-11251.130318,0.000000
59553.632041,-740.205942,-10140.821405,-842.705048
59553.632351,0.000000,-8660.409521,-1608.800546
59553.632661,0.000000,-7772.162391,0.000000
59553.632970,-74.020594,-9474.636058,-76.609550
59553.633280,-2368.659014,-5995.668130,0.000000
59553.633590,2886.803174,-9474.636058,-76.609550
59553.633899,518.144159,-7254.018232,0.000000
59553.634209,-518.144159,-10510.924376,0.000000
59553.634519,-370.102971,-10881.027347,229.828649
59553.634828,0.000000,-11177.109724,536.266849
59553.635138,-74.020594,-9326.594869,536.266849
59553.635448,222.061783,-9474.636058,-76.609550
59553.635757,-2368.659014,-5995.668130,0.000000
59553.636067,740.205942,-8808.450710,2145.067394
59553.636377,-74.020594,-9474.636058,-1302.362347
59553.636686,-3552.988522,-11325.150913,612.876398
59553.636996,-1258.350101,-11251.130318,0.000000
59553.637306,-1258.350101,-11177.109724,1149.143247
59553.637615,-1850.514855,-9326.594869,842.705048
59553.637925,-1110.308913,-7698.141797,919.314598
59553.638234,740.205942,-6439.791695,2374.896044
59553.638544,2294.638420,-6513.812290,2374.896044
59553.638854,0.000000,-5551.544565,76.609550
59553.639163,-1184.329507,-8956.491898,2451.505594
59553.639473,-74.020594,-10658.965565,-76.609550
59553.639783,-3552.988522,-9844.739029,306.438199
59553.640092,-1850.514855,-9474.636058,-689.485948
59553.640402,-2220.617826,-7624.121203,0.000000
59553.640712,370.102971,-6661.853478,612.876398
59553.641021,444.123565,-6661.853478,1225.752797
59553.641331,-222.061783,-7476.080014,2374.896044
59553.641641,2294.638420,-10658.965565,2987.772442
59553.641950,1110.308913,-9326.594869,842.705048
59553.642260,-1776.494261,-10140.821405,0.000000
59553.642570,-74.020594,-11843.295072,2374.896044
59553.642879,0.000000,-7179.997637,612.876398
59553.643189,3478.967927,-6513.812290,2374.896044
59553.643499,1184.329507,-5107.421000,1532.190996
59553.643808,518.144159,-7550.100608,689.485948
59553.644118,740.205942,-10510.924376,459.657299
59553.644428,-370.102971,-12953.603985,1225.752797
59553.644737,-962.267725,-15988.448347,2145.067394
59553.645047,-1258.350101,-11843.295072,-76.609550
59553.645357,0.000000,-8364.327145,2451.505594
59553.645666,-74.020594,-4441.235652,-383.047749
59553.645976,0.000000,-6587.832884,1532.190996
59553.646286,2294.638420,-8586.388927,2987.772442
59553.646595,222.061783,-10955.047942,1072.533697
59553.646905,-1332.370696,-12953.603985,1378.971896
59553.647215,-2368.659014,-11917.315666,766.095498
59553.647524,-1554.432478,-7772.162391,0.000000
59553.647834,296.082377,-6587.832884,459.657299
59553.648144,-74.020594,-7698.141797,-76.609550
59553.648453,-1776.494261,-5995.668130,-3064.381992
59553.648763,1184.329507,-12213.398043,2757.943793
59553.649073,-666.185348,-11843.295072,-76.609550
59553.649382,-2590.720797,-11843.295072,2374.896044
59553.649692,-1850.514855,-9548.656652,842.705048
59553.650002,518.144159,-6143.709319,1378.971896
59553.650311,444.123565,-4737.318029,1378.971896
59553.650621,518.144159,-6661.853478,0.000000
59553.650931,1184.329507,-7476.080014,2451.505594
59553.651240,3330.926739,-11843.295072,2987.772442
59553.651550,-1554.432478,-9474.636058,-689.485948
59553.651859,-2960.823768,-11029.068536,1378.971896
59553.652169,-74.020594,-9178.553681,-76.609550
59553.652479,0.000000,-9474.636058,2374.896044
59553.652788,-222.061783,-7624.121203,536.266849
59553.653098,0.000000,-7772.162391,153.219100
59553.653408,1036.288319,-9252.574275,842.705048
59553.653717,814.226536,-10140.821405,0.000000
59553.654027,-2368.659014,-9548.656652,0.000000
59553.654337,-74.020594,-11843.295072,2451.505594
59553.654646,1702.473667,-9178.553681,-76.609550
59553.654956,1776.494261,-8660.409521,3677.258390
59553.655266,2294.638420,-8734.430116,2374.896044
59553.655575,0.000000,-7624.121203,1378.971896
59553.655885,1406.391290,-9326.594869,919.314598
59553.656195,0.000000,-10584.944971,612.876398
59553.656504,-2220.617826,-11621.233289,0.000000
59553.656814,-1628.453072,-9548.656652,-2068.457845
59553.657124,-2368.659014,-7772.162391,0.000000
59553.657433,-296.082377,-9252.574275,1302.362347
59553.657743,-74.020594,-5181.441594,-1915.238745
59553.658053,1480.411884,-8364.327145,1838.629195
59553.658362,1702.473667,-9474.636058,1762.019645
59553.658672,-1184.329507,-12213.398043,2451.505594
59553.658982,-1628.453072,-12361.439231,1608.800546
59553.659291,-1332.370696,-9770.718434,766.095498
59553.659601,-666.185348,-7105.977043,766.095498
59553.659911,0.000000,-5181.441594,-76.609550
59553.660220,0.000000,-3923.091493,-1762.019645
59553.660530,0.000000,-7476.080014,0.000000
59553.660840,-74.020594,-14211.954086,-76.609550
59553.661149,-5921.647536,-11917.315666,0.000000
59553.661459,-1258.350101,-13619.789333,2374.896044
59553.661769,-2220.617826,-7772.162391,0.000000
59553.662078,-666.185348,-6143.709319,-76.609550
59553.662388,444.123565,-6365.771101,689.485948
59553.662698,1924.535449,-6957.935855,995.924147
59553.663007,1258.350101,-9474.636058,1762.019645
59553.663317,-1258.350101,-10362.883188,-76.609550
59553.663627,-2368.659014,-9844.739029,0.000000
59553.663936,-74.020594,-10658.965565,-76.609550
59553.664246,-3552.988522,-4811.338623,0.000000
59553.664556,1110.308913,-7105.977043,-76.609550
59553.664865,0.000000,-4219.173869,0.000000
59553.665175,1924.535449,-7624.121203,0.000000
59553.665484,0.000000,-10732.986159,-229.828649
59553.665794,-2146.597232,-13397.727550,0.000000
59553.666104,-1258.350101,-14211.954086,1149.143247
59553.666413,-74.020594,-10658.965565,-76.609550
59553.666723,-2072.576638,-6587.832884,0.000000
59553.667033,2294.638420,-7105.977043,2374.896044
59553.667342,0.000000,-2738.761985,0.000000
59553.667652,3849.070898,-8068.244768,2451.505594
59553.667962,0.000000,-8364.327145,-1149.143247
59553.668271,-1924.535449,-13693.809927,766.095498
59553.668581,-1258.350101,-13323.706956,842.705048
59553.668891,-814.226536,-11399.171507,1072.533697
59553.669200,-666.185348,-10658.965565,2374.896044
59553.669510,1702.473667,-7105.977043,2374.896044
59553.669820,1036.288319,-4811.338623,229.828649
59553.670129,1480.411884,-9548.656652,3983.696590
59553.670439,-666.185348,-11843.295072,-76.609550
59553.670749,-3552.988522,-11325.150913,0.000000
59553.671058,-1258.350101,-11251.130318,536.266849
59553.671368,-1406.391290,-8956.491898,1532.190996
59553.671678,-1406.391290,-7698.141797,1608.800546
59553.671987,74.020594,-6291.750507,1608.800546
59553.672297,2294.638420,-8586.388927,4136.915689
59553.672607,1554.432478,-11843.295072,4519.963438
59553.672916,-1850.514855,-11251.130318,1455.581446
59553.673226,-4737.318029,-7476.080014,0.000000
59553.673536,-74.020594,-11547.212695,2987.772442
59553.673845,-3404.947333,-5995.668130,0.000000
59553.674155,-74.020594,-6217.729913,1149.143247
59553.674465,1184.329507,-5995.668130,2451.505594
59553.674774,518.144159,-8216.285956,1991.848295
59553.675084,-2664.741391,-10658.965565,612.876398
59553.675394,-2960.823768,-11621.233289,1532.190996
59553.675703,-666.185348,-11251.130318,3294.210641
59553.676013,-74.020594,-7994.224174,2068.457845
59553.676323,-2368.659014,-4811.338623,0.000000
59553.676632,2886.803174,-9474.636058,3294.210641
59553.676942,1702.473667,-7846.182985,-689.485948
59553.677252,1702.473667,-11251.130318,1762.019645
59553.677561,-1702.473667,-10881.027347,459.657299
59553.677871,-518.144159,-8068.244768,766.095498
59553.678181,814.226536,-5773.606348,612.876398
59553.678490,0.000000,-5995.668130,1225.752797
59553.678800,296.082377,-10140.821405,3064.381992
59553.679109,2294.638420,-12435.459826,1762.019645
59553.679419,-1258.350101,-10140.821405,-1915.238745
59553.679729,-1776.494261,-10732.986159,0.000000
59553.680038,-666.185348,-9474.636058,-76.609550
59553.680348,1702.473667,-8290.306550,-76.609550
59553.680658,888.247130,-7624.121203,383.047749
59553.680967,370.102971,-10362.883188,536.266849
59553.681277,666.185348,-10732.986159,459.657299
59553.681587,0.000000,-9548.656652,0.000000
59553.681896,0.000000,-9548.656652,1225.752797
59553.682206,-370.102971,-9474.636058,2145.067394
59553.682516,-1258.350101,-6957.935855,-2528.115143
59553.682825,0.000000,-9252.574275,612.876398
59553.683135,-74.020594,-9474.636058,-76.609550
59553.683445,-74.020594,-11843.295072,1149.143247
59553.683754,-666.185348,-10732.986159,842.705048
59553.684064,888.247130,-8438.347739,842.705048
59553.684374,-148.041188,-8364.327145,1149.143247
59553.684683,-2368.659014,-5995.668130,0.000000
59553.684993,-2368.659014,-4811.338623,0.000000
59553.685303,-296.082377,-8660.409521,2451.505594
59553.685612,-666.185348,-9178.553681,-1608.800546
59553.685922,-2368.659014,-9548.656652,0.000000
59553.686232,-74.020594,-12731.542202,-76.609550
59553.686541,592.164754,-10436.903782,1225.752797
59553.686851,-962.267725,-10658.965565,1072.533697
59553.687161,-1480.411884,-9844.739029,612.876398
59553.687470,-296.082377,-8364.327145,766.095498
59553.687780,-666.185348,-7179.997637,536.266849
59553.688090,-2368.659014,-4811.338623,0.000000
59553.688399,592.164754,-6587.832884,1225.752797
59553.688709,4663.297435,-9474.636058,2374.896044
59553.689019,592.164754,-8956.491898,2451.505594
59553.689328,-74.020594,-13027.624579,3600.648841
59553.689638,-1776.494261,-9548.656652,306.438199
59553.689948,-1554.432478,-9992.780217,76.609550
59553.690257,-2368.659014,-9178.553681,76.609550
59553.690567,-666.185348,-8438.347739,612.876398
59553.690877,2294.638420,-7550.100608,1149.143247
59553.691186,370.102971,-7179.997637,229.828649
59553.691496,-1776.494261,-9548.656652,0.000000
59553.691806,-74.020594,-14211.954086,4213.525239
59553.692115,-2368.659014,-7328.038826,0.000000
59553.692425,2220.617826,-9474.636058,3907.087040
59553.692734,-1776.494261,-5995.668130,0.000000
59553.693044,1406.391290,-7031.956449,1302.362347
59553.693354,2368.659014,-8512.368333,1762.019645
59553.693663,296.082377,-10807.006753,1762.019645
59553.693973,-1258.350101,-11843.295072,-76.609550
59553.694283,-2442.679609,-10362.883188,-689.485948
59553.694592,-3552.988522,-7179.997637,-3677.258390
59553.694902,-74.020594,-9474.636058,-76.609550
59553.695212,-2960.823768,-5995.668130,-1225.752797
59553.695521,1184.329507,-10732.986159,3983.696590
59553.695831,0.000000,-9622.677246,153.219100
59553.696141,-1406.391290,-11621.233289,1302.362347
59553.696450,-2442.679609,-10288.862594,1302.362347
59553.696760,-666.185348,-7476.080014,919.314598
59553.697070,1406.391290,-7105.977043,2374.896044
59553.697379,-74.020594,-7105.977043,-76.609550
59553.697689,-1184.329507,-4811.338623,-2221.676944
59553.697999,592.164754,-9548.656652,2451.505594
59553.698308,1998.556043,-11843.295072,1762.019645
59553.698618,-3552.988522,-9548.656652,0.000000
59553.698928,-2738.761985,-8734.430116,0.000000
59553.699237,0.000000,-7772.162391,689.485948
59553.699547,74.020594,-7254.018232,689.485948
59553.699857,518.144159,-6809.894666,1072.533697
59553.700166,3478.967927,-8882.471304,3600.648841
59553.700476,5847.626942,-9474.636058,1762.019645
59553.700786,962.267725,-9178.553681,-76.609550
59553.701095,-3552.988522,-9548.656652,0.000000
59553.701405,-74.020594,-13027.624579,1762.019645
59553.701715,-2368.659014,-8364.327145,0.000000
59553.702024,-3552.988522,-7179.997637,0.000000
59553.702334,-1332.370696,-6143.709319,-689.485948
59553.702644,1184.329507,-6661.853478,-383.047749
59553.702953,3034.844362,-8586.388927,1149.143247
59553.703263,2294.638420,-13027.624579,2987.772442
59553.703573,-74.020594,-14211.954086,-76.609550
59553.703882,-2442.679609,-11917.315666,0.000000
59553.704192,-74.020594,-13915.871710,2374.896044
59553.704502,-3256.906145,-6587.832884,0.000000
59553.704811,592.164754,-5995.668130,1225.752797
59553.705121,592.164754,-3627.009116,0.000000
59553.705431,1258.350101,-8808.450710,1455.581446
59553.705740,-1184.329507,-11547.212695,612.876398
59553.706050,-2368.659014,-13915.871710,383.047749
59553.706359,-1850.514855,-13619.789333,-76.609550
59553.706669,-1258.350101,-11251.130318,-689.485948
59553.706979,-1554.432478,-5477.523971,-689.485948
59553.707288,1184.329507,-5995.668130,2451.505594
59553.707598,2294.638420,-7105.977043,1762.019645
59553.707908,0.000000,-7179.997637,1838.629195
59553.708217,-2368.659014,-9548.656652,0.000000
59553.708527,-1776.494261,-10362.883188,995.924147
59553.708837,-2738.761985,-9178.553681,383.047749
59553.709146,-1924.535449,-8142.265362,-76.609550
59553.709456,1110.308913,-7105.977043,-76.609550
59553.709766,1110.308913,-5921.647536,-383.047749
59553.710075,-1776.494261,-7179.997637,0.000000
59553.710385,-74.020594,-11843.295072,2374.896044
59553.710695,-1258.350101,-9474.636058,-689.485948
59553.711004,-2368.659014,-9548.656652,1225.752797
59553.711314,-3256.906145,-9548.656652,0.000000
59553.711624,-370.102971,-8956.491898,1225.752797
59553.711933,1850.514855,-9548.656652,2068.457845
59553.712243,1850.514855,-8290.306550,1685.410096
59553.712553,1702.473667,-9474.636058,2374.896044
59553.712862,2294.638420,-7105.977043,-76.609550
59553.713172,0.000000,-4811.338623,-2068.457845
59553.713482,0.000000,-10140.821405,3064.381992
59553.713791,-74.020594,-11695.253884,-76.609550
59553.714101,0.000000,-9548.656652,0.000000
59553.714411,0.000000,-10288.862594,-766.095498
59553.714720,-444.123565,-9548.656652,383.047749
59553.715030,-888.247130,-9104.533087,229.828649
59553.715340,444.123565,-9252.574275,1072.533697
59553.715649,2146.597232,-11251.130318,4749.792088
59553.715959,-74.020594,-12731.542202,2374.896044
59553.716269,-1554.432478,-6661.853478,-1608.800546
59553.716578,2368.659014,-10436.903782,3753.867940
59553.716888,0.000000,-5403.503377,766.095498
59553.717198,0.000000,-5995.668130,0.000000
59553.717507,-518.144159,-6587.832884,-76.609550
59553.717817,-888.247130,-8512.368333,76.609550
59553.718127,-2368.659014,-11177.109724,153.219100
59553.718436,-4145.153275,-12287.418637,76.609550
59553.718746,-1850.514855,-12361.439231,1455.581446
59553.719056,1702.473667,-12435.459826,2374.896044
59553.719365,-370.102971,-8290.306550,-76.609550
59553.719675,0.000000,-5995.668130,1225.752797
59553.719984,2294.638420,-7698.141797,2374.896044
59553.720294,-1480.411884,-4811.338623,0.000000
59553.720604,-74.020594,-9474.636058,1608.800546
59553.720913,-2072.576638,-9770.718434,1455.581446
59553.721223,-592.164754,-10066.800811,1685.410096
59553.721533,518.144159,-9030.512492,1608.800546
59553.721842,0.000000,-7179.997637,3064.381992
59553.722152,1776.494261,-8586.388927,3907.087040
59553.722462,1998.556043,-7698.141797,-76.609550
59553.722771,-3552.988522,-7179.997637,0.000000
59553.723081,-592.164754,-11843.295072,2145.067394
59553.723391,-1258.350101,-9696.697840,-76.609550
59553.723700,1702.473667,-11843.295072,1762.019645
59553.724010,444.123565,-9178.553681,1225.752797
59553.724320,0.000000,-8438.347739,1302.362347
59553.724629,148.041188,-8068.244768,1072.533697
59553.724939,0.000000,-7179.997637,1838.629195
59553.725249,0.000000,-9844.739029,3064.381992
59553.725558,-74.020594,-11843.295072,3600.648841
59553.725868,-1776.494261,-7179.997637,0.000000
59553.726178,1924.535449,-11177.109724,1991.848295
59553.726487,-74.020594,-9030.512492,-689.485948
59553.726797,-74.020594,-11843.295072,1149.143247
59553.727107,-592.164754,-10066.800811,0.000000
59553.727416,-1480.411884,-9252.574275,0.000000
59553.727726,-2146.597232,-9474.636058,-153.219100
59553.728036,-2368.659014,-6291.750507,0.000000
59553.728345,0.000000,-8364.327145,612.876398
59553.728655,1998.556043,-9474.636058,2374.896044
59553.728965,-2960.823768,-9548.656652,0.000000
59553.729274,-74.020594,-11251.130318,1149.143247
59553.729584,-74.020594,-9178.553681,-76.609550
59553.729894,-74.020594,-9030.512492,1762.019645
59553.730203,-1850.514855,-7031.956449,-229.828649
59553.730513,-1110.308913,-7550.100608,-153.219100
59553.730823,74.020594,-8956.491898,0.000000
59553.731132,-3256.906145,-8364.327145,0.000000
59553.731442,-3552.988522,-10140.821405,612.876398
59553.731751,-666.185348,-9178.553681,-76.609550
59553.732061,592.164754,-9844.739029,3064.381992
59553.732371,-2516.700203,-6439.791695,0.000000
59553.732680,1702.473667,-8290.306550,1762.019645
59553.732990,1702.473667,-6069.688724,-1915.238745
59553.733300,0.000000,-7179.997637,612.876398
59553.733609,-74.020594,-10066.800811,995.924147
59553.733919,-222.061783,-10140.821405,0.000000
59553.734229,0.000000,-9548.656652,0.000000
59553.734538,0.000000,-10881.027347,1532.190996
59553.734848,-74.020594,-11843.295072,-76.609550
59553.735158,-3552.988522,-7179.997637,0.000000
59553.735467,2294.638420,-10955.047942,1762.019645
59553.735777,518.144159,-8290.306550,-689.485948
59553.736086,1702.473667,-10362.883188,2374.896044
59553.736396,1036.288319,-8586.388927,1762.019645
59553.736706,962.267725,-8290.306550,1762.019645
59553.737015,-296.082377,-8660.409521,1378.971896
59553.737325,-2368.659014,-7179.997637,1225.752797
59553.737635,296.082377,-9548.656652,2451.505594
59553.737944,2294.638420,-10658.965565,-76.609550
59553.738254,-3552.988522,-8364.327145,0.000000
59553.738564,1702.473667,-11251.130318,1762.019645
59553.738873,-74.020594,-8882.471304,-76.609550
59553.739183,-74.020594,-10955.047942,2374.896044
59553.739493,-2220.617826,-10362.883188,689.485948
59553.739802,-1850.514855,-10066.800811,842.705048
59553.740112,222.061783,-9696.697840,1685.410096
59553.740421,0.000000,-5403.503377,1225.752797
59553.740731,0.000000,-7179.997637,1532.190996
59553.741041,3404.947333,-9326.594869,4596.572988
59553.741350,-1702.473667,-5995.668130,0.000000
59553.741660,-666.185348,-10362.883188,1915.238745
59553.741970,-2146.597232,-10658.965565,-76.609550
59553.742279,-1628.453072,-11029.068536,612.876398
59553.742589,-1110.308913,-9622.677246,0.000000
59553.742899,-1776.494261,-9178.553681,153.219100
59553.743208,-814.226536,-9104.533087,1378.971896
59553.743518,-1776.494261,-6291.750507,0.000000
59553.743828,-2960.823768,-7179.997637,0.000000
59553.744137,-1184.329507,-10732.986159,3677.258390
59553.744447,-74.020594,-8290.306550,-76.609550
59553.744756,0.000000,-7920.203579,1225.752797
59553.745066,2294.638420,-9474.636058,2374.896044
59553.745376,0.000000,-8068.244768,1378.971896
59553.745685,666.185348,-8660.409521,1149.143247
59553.745995,370.102971,-9252.574275,995.924147
59553.746305,-888.247130,-10732.986159,766.095498
59553.746614,-1850.514855,-8438.347739,-1915.238745
59553.746924,-2368.659014,-7179.997637,0.000000
59553.747234,0.000000,-7179.997637,1225.752797
59553.747543,2294.638420,-9474.636058,2374.896044
59553.747853,0.000000,-9548.656652,1838.629195
59553.748163,4663.297435,-11843.295072,4826.401637
59553.748472,592.164754,-10732.986159,1838.629195
59553.748782,-148.041188,-9548.656652,1762.019645
59553.749091,0.000000,-8142.265362,842.705048
59553.749401,740.205942,-8734.430116,919.314598
59553.749711,-74.020594,-7994.224174,-76.609550
59553.750020,-2442.679609,-8142.265362,-1302.362347
59553.750330,-3552.988522,-9548.656652,0.000000
59553.750640,1998.556043,-11843.295072,2374.896044
59553.750949,-2368.659014,-8956.491898,0.000000
59553.751259,-592.164754,-10732.986159,2757.943793
59553.751569,-1776.494261,-7772.162391,229.828649
59553.751878,592.164754,-8660.409521,1532.190996
59553.752188,-518.144159,-8512.368333,1072.533697
59553.752498,-1184.329507,-8142.265362,1149.143247
59553.752807,-74.020594,-8882.471304,-76.609550
59553.753117,-74.020594,-7698.141797,-76.609550
59553.753426,-4737.318029,-7179.997637,0.000000
59553.753736,-74.020594,-11251.130318,2374.896044
59553.754046,-2368.659014,-8660.409521,0.000000
59553.754355,-1776.494261,-8660.409521,2451.505594
59553.754665,-2368.659014,-7920.203579,0.000000
59553.754975,-814.226536,-7402.059420,1455.581446
59553.755284,666.185348,-6957.935855,1072.533697
59553.755594,518.144159,-8438.347739,1991.848295
59553.755904,2294.638420,-11843.295072,3600.648841
59553.756213,2294.638420,-9474.636058,2374.896044
59553.756523,-2368.659014,-7179.997637,0.000000
59553.756833,1998.556043,-10658.965565,2374.896044
59553.757142,-2072.576638,-7179.997637,0.000000
59553.757452,0.000000,-6587.832884,2451.505594
59553.757761,0.000000,-6513.812290,0.000000
59553.758071,-518.144159,-9030.512492,459.657299
59553.758381,-666.185348,-11325.150913,536.266849
59553.758690,296.082377,-11399.171507,612.876398
59553.759000,2146.597232,-13619.789333,2987.772442
59553.759310,-74.020594,-11843.295072,3294.210641
59553.759619,-370.102971,-6217.729913,-689.485948
59553.759929,2368.659014,-7920.203579,2451.505594
59553.760239,666.185348,-6957.935855,-229.828649
59553.760548,-3552.988522,-7179.997637,0.000000
59553.760858,-296.082377,-11177.109724,306.438199
59553.761168,0.000000,-11325.150913,383.047749
59553.761477,-962.267725,-9918.759623,153.219100
59553.761787,-1332.370696,-9252.574275,0.000000
59553.762097,1480.411884,-9178.553681,1762.019645
59553.762406,3182.885551,-9474.636058,3600.648841
59553.762716,-74.020594,-9178.553681,-689.485948
59553.763025,-2368.659014,-10732.986159,0.000000
59553.763335,-74.020594,-13027.624579,1762.019645
59553.763645,-2368.659014,-7920.203579,0.000000
59553.763954,-1258.350101,-9178.553681,-76.609550
59553.764264,-1332.370696,-6365.771101,383.047749
59553.764574,518.144159,-5625.565159,306.438199
59553.764883,-74.020594,-7105.977043,842.705048
59553.765193,-1776.494261,-10214.842000,2451.505594
59553.765503,-74.020594,-12657.521608,2451.505594
59553.765812,-74.020594,-11843.295072,-76.609550
59553.766122,-2368.659014,-9548.656652,612.876398
59553.766432,-666.185348,-9474.636058,1149.143247
59553.766741,-2294.638420,-4219.173869,-2451.505594
59553.767051,962.267725,-6513.812290,1149.143247
59553.767360,-370.102971,-7254.018232,383.047749
59553.767670,-740.205942,-8660.409521,612.876398
59553.767980,-740.205942,-10881.027347,1149.143247
59553.768289,0.000000,-9844.739029,1225.752797
59553.768599,-2368.659014,-11325.150913,0.000000
59553.768909,-74.020594,-11251.130318,2068.457845
59553.769218,0.000000,-3627.009116,0.000000
59553.769528,2368.659014,-5921.647536,2987.772442
59553.769838,2294.638420,-5329.482782,-76.609550
59553.770147,2738.761985,-10658.965565,2987.772442
59553.770457,1998.556043,-12509.480420,2221.676944
59553.770767,0.000000,-13397.727550,1225.752797
59553.771076,-1850.514855,-13249.686362,1378.971896
59553.771386,0.000000,-7179.997637,0.000000
59553.771695,0.000000,-4811.338623,0.000000
59553.772005,3478.967927,-8290.306550,3600.648841
59553.772315,1110.308913,-7105.977043,-76.609550
59553.772624,888.247130,-9992.780217,2451.505594
59553.772934,2294.638420,-14211.954086,2374.896044
59553.773244,-1554.432478,-13545.768739,1915.238745
59553.773553,-2442.679609,-11547.212695,1149.143247
59553.773863,0.000000,-7254.018232,995.924147
59553.774173,814.226536,-4811.338623,1149.143247
59553.774482,-2368.659014,-3923.091493,0.000000
59553.774792,0.000000,-5403.503377,0.000000
59553.775102,0.000000,-11325.150913,2451.505594
59553.775411,-74.020594,-14211.954086,2068.457845
59553.775721,-3552.988522,-13989.892304,2757.943793
59553.776030,-74.020594,-13027.624579,2374.896044
59553.776340,148.041188,-7179.997637,1838.629195
59553.776650,370.102971,-4515.256246,1455.581446
59553.776959,-370.102971,-4145.153275,1149.143247
59553.777269,666.185348,-6439.791695,1455.581446
59553.777579,0.000000,-7328.038826,0.000000
59553.777888,-3849.070898,-9548.656652,-1302.362347
59553.778198,-4145.153275,-12509.480420,1225.752797
59553.778508,-1850.514855,-10658.965565,-76.609550
59553.778817,-2368.659014,-7772.162391,1608.800546
59553.779127,-74.020594,-8882.471304,-76.609550
59553.779437,-888.247130,-5995.668130,612.876398
59553.779746,1406.391290,-8882.471304,1455.581446
59553.780056,1036.288319,-10732.986159,2145.067394
59553.780365,-592.164754,-12583.501014,2068.457845
59553.780675,-1850.514855,-10658.965565,842.705048
59553.780985,-1110.308913,-6217.729913,-689.485948
59553.781294,0.000000,-4811.338623,612.876398
59553.781604,2886.803174,-4737.318029,1762.019645
59553.781914,1184.329507,-3627.009116,0.000000
59553.782223,3849.070898,-11621.233289,2987.772442
59553.782533,-1184.329507,-13397.727550,459.657299
59553.782843,-2146.597232,-16358.551318,383.047749
59553.783152,-1258.350101,-14063.912898,153.219100
59553.783462,-74.020594,-8512.368333,0.000000
59553.783772,1110.308913,-4737.318029,-76.609550
59553.784081,1702.473667,-4737.318029,-76.609550
59553.784391,592.164754,-6587.832884,612.876398
59553.784700,3182.885551,-13027.624579,2374.896044
59553.785010,-2146.597232,-11917.315666,-2374.896044
59553.785320,-1184.329507,-13101.645173,2757.943793
59553.785629,-1184.329507,-8364.327145,612.876398
59553.785939,-592.164754,-5995.668130,0.000000
59553.786249,-1554.432478,-4737.318029,-1532.190996
59553.786558,-518.144159,-6735.874072,-842.705048
59553.786868,2294.638420,-9474.636058,-76.609550
59553.787178,-74.020594,-14211.954086,-76.609550
59553.787487,-4663.297435,-11917.315666,-1685.410096
59553.787797,-1480.411884,-12065.356855,919.314598
59553.788107,-814.226536,-8364.327145,-2374.896044
59553.788416,-1776.494261,-7476.080014,2451.505594
59553.788726,-592.164754,-4811.338623,0.000000
59553.789035,1480.411884,-7550.100608,1378.971896
59553.789345,1554.432478,-8882.471304,1762.019645
59553.789655,-888.247130,-10955.047942,1455.581446
59553.789964,-74.020594,-14211.954086,2374.896044
59553.790274,-74.020594,-13619.789333,2374.896044
59553.790584,-3552.988522,-4811.338623,0.000000
59553.790893,-444.123565,-8586.388927,2374.896044
59553.791203,-518.144159,-3552.988522,-689.485948
59553.791513,0.000000,-5403.503377,1532.190996
59553.791822,518.144159,-8882.471304,1762.019645
59553.792132,-1480.411884,-10955.047942,1532.190996
59553.792442,-1110.308913,-11621.233289,1608.800546
59553.792751,-222.061783,-9622.677246,1302.362347
59553.793061,2294.638420,-11251.130318,2681.334243
59553.793371,2294.638420,-11843.295072,4826.401637
59553.793680,0.000000,-5403.503377,0.000000
59553.793990,2960.823768,-8512.368333,2451.505594
59553.794299,814.226536,-8660.409521,0.000000
59553.794609,-3552.988522,-8364.327145,1225.752797
59553.794919,-518.144159,-10658.965565,1149.143247
59553.795228,-296.082377,-10288.862594,1072.533697
59553.795538,-592.164754,-8660.409521,1225.752797
59553.795848,-666.185348,-7105.977043,995.924147
59553.796157,2738.761985,-8956.491898,2298.286494
59553.796467,2664.741391,-9844.739029,3217.601092
59553.796777,-74.020594,-11843.295072,1762.019645
59553.797086,-2960.823768,-9844.739029,0.000000
59553.797396,-74.020594,-14211.954086,3600.648841
59553.797706,-3552.988522,-7772.162391,0.000000
59553.798015,-666.185348,-8882.471304,536.266849
59553.798325,592.164754,-6883.915261,1455.581446
59553.798634,2294.638420,-6883.915261,1685.410096
59553.798944,222.061783,-7698.141797,842.705048
59553.799254,-1776.494261,-9844.739029,612.876398
59553.799563,-888.247130,-12509.480420,3677.258390
59553.799873,-74.020594,-10658.965565,-76.609550
59553.800183,-3256.906145,-9548.656652,0.000000
59553.800492,-74.020594,-9474.636058,2374.896044
59553.800802,-666.185348,-4293.194464,-2145.067394
59553.801112,2294.638420,-7994.224174,536.266849
59553.801421,-1480.411884,-9474.636058,0.000000
59553.801731,-2960.823768,-11547.212695,-689.485948
59553.802041,-2368.659014,-12509.480420,0.000000
59553.802350,-2368.659014,-10140.821405,612.876398
59553.802660,0.000000,-7179.997637,2451.505594
59553.802969,2886.803174,-7698.141797,2374.896044
59553.803279,296.082377,-3330.926739,0.000000
59553.803589,2294.638420,-9474.636058,2374.896044
59553.803898,-1258.350101,-9178.553681,-1608.800546
59553.804208,-1332.370696,-11843.295072,-306.438199
59553.804518,-1924.535449,-11917.315666,0.000000
59553.804827,-1184.329507,-10584.944971,153.219100
59553.805137,-444.123565,-7772.162391,0.000000
59553.805447,0.000000,-4811.338623,0.000000
59553.805756,0.000000,-3627.009116,0.000000
59553.806066,4071.132681,-9474.636058,2987.772442
59553.806376,-962.267725,-9622.677246,0.000000
59553.806685,814.226536,-14211.954086,2987.772442
59553.806995,-74.020594,-11251.130318,-76.609550
