#time,accel_x,accel_y,accel_z
163250.086788,296.082377,-10436.903782,1225.752797
163250.087107,-74.020594,-9474.636058,-2528.115143
163250.087426,1110.308913,-10362.883188,-76.609550
163250.087744,296.082377,-8438.347739,153.219100
163250.088063,0.000000,-9326.594869,153.219100
163250.088381,0.000000,-8956.491898,612.876398
163250.088700,0.000000,-9548.656652,1838.629195
163250.089018,-592.164754,-8364.327145,-153.219100
163250.089337,-222.061783,-9252.574275,76.609550
163250.089655,-296.082377,-9400.615463,0.000000
163250.089974,-740.205942,-8956.491898,0.000000
163250.090292,-2368.659014,-7179.997637,0.000000
163250.090611,-74.020594,-9474.636058,-689.485948
163250.090929,-2072.576638,-8660.409521,-1225.752797
163250.091248,-518.144159,-10362.883188,306.438199
163250.091567,-962.267725,-8882.471304,-1302.362347
163250.091885,-74.020594,-11843.295072,-76.609550
163250.092204,-1036.288319,-9548.656652,-1149.143247
163250.092522,-666.185348,-9696.697840,-612.876398
163250.092841,-370.102971,-9474.636058,-76.609550
163250.093159,0.000000,-9548.656652,-1072.533697
163250.093478,888.247130,-10658.965565,-76.609550
163250.093796,0.000000,-9548.656652,0.000000
163250.094115,-74.020594,-10066.800811,-76.609550
163250.094433,-74.020594,-7994.224174,-1915.238745
163250.094752,-962.267725,-7328.038826,-2298.286494
163250.095070,1702.473667,-9474.636058,-76.609550
163250.095389,148.041188,-9030.512492,0.000000
163250.095708,0.000000,-9252.574275,153.219100
163250.096026,0.000000,-9252.574275,0.000000
163250.096345,296.082377,-9474.636058,1762.019645
163250.096663,-74.020594,-9178.553681,229.828649
163250.096982,-1036.288319,-7105.977043,-1608.800546
163250.097300,-2368.659014,-8364.327145,0.000000
163250.097619,222.061783,-10066.800811,1149.143247
163250.097937,-2368.659014,-7179.997637,0.000000
163250.098256,-370.102971,-8734.430116,76.609550
163250.098574,-666.185348,-9178.553681,-612.876398
163250.098893,-666.185348,-8882.471304,-229.828649
163250.099211,-888.247130,-8364.327145,-2451.505594
163250.099530,-370.102971,-8586.388927,-2834.553343
163250.099848,-74.020594,-11251.130318,-76.609550
163250.100167,-2368.659014,-8364.327145,0.000000
163250.100486,-74.020594,-10658.965565,-76.609550
163250.100804,-1110.308913,-9474.636058,-76.609550
163250.101123,0.000000,-9844.739029,306.438199
163250.101441,0.000000,-9770.718434,-689.485948
163250.101760,-148.041188,-9844.739029,-995.924147
163250.102078,0.000000,-9474.636058,-229.828649
163250.102397,-2368.659014,-7772.162391,-2145.067394
163250.102715,-74.020594,-10362.883188,1149.143247
163250.103034,-370.102971,-7994.224174,-1225.752797
163250.103352,0.000000,-8068.244768,0.000000
163250.103671,0.000000,-9548.656652,1225.752797
163250.103989,1702.473667,-9474.636058,-76.609550
163250.104308,296.082377,-9474.636058,919.314598
163250.104627,-370.102971,-8882.471304,383.047749
163250.104945,-666.185348,-8808.450710,306.438199
163250.105264,-740.205942,-8882.471304,153.219100
163250.105582,-2072.576638,-8142.265362,459.657299
163250.105901,-74.020594,-9326.594869,383.047749
163250.106219,-888.247130,-9030.512492,-612.876398
163250.106538,-3404.947333,-7772.162391,0.000000
163250.106856,-2368.659014,-8364.327145,0.000000
163250.107175,-1850.514855,-7254.018232,-2987.772442
163250.107493,-296.082377,-9844.739029,-383.047749
163250.107812,-814.226536,-9696.697840,-1072.533697
163250.108130,-740.205942,-9844.739029,-536.266849
163250.108449,-666.185348,-9474.636058,-383.047749
163250.108768,-74.020594,-10066.800811,-76.609550
163250.109086,-74.020594,-9770.718434,-229.828649
163250.109405,-1998.556043,-7476.080014,-2221.676944
163250.109723,0.000000,-9844.739029,459.657299
163250.110042,1998.556043,-10658.965565,1225.752797
163250.110360,0.000000,-7772.162391,0.000000
163250.110679,888.247130,-9622.677246,383.047749
163250.110997,1184.329507,-9030.512492,383.047749
163250.111316,2146.597232,-9104.533087,536.266849
163250.111634,2294.638420,-7550.100608,-1302.362347
163250.111953,2590.720797,-8882.471304,-76.609550
163250.112271,3478.967927,-10658.965565,-76.609550
163250.112590,1850.514855,-8660.409521,-995.924147
163250.112909,1332.370696,-7476.080014,-2221.676944
163250.113227,4663.297435,-12731.542202,2374.896044
163250.113546,2368.659014,-8660.409521,0.000000
163250.113864,3775.050304,-8808.450710,919.314598
163250.114183,4737.318029,-8734.430116,459.657299
163250.114501,5329.482782,-8808.450710,1225.752797
163250.114820,4071.132681,-7624.121203,-76.609550
163250.115138,6513.812290,-9844.739029,1915.238745
163250.115457,5255.462188,-9474.636058,-842.705048
163250.115775,4737.318029,-7476.080014,-3064.381992
163250.116094,2664.741391,-9548.656652,0.000000
163250.116412,7031.956449,-9474.636058,-1302.362347
163250.116731,5477.523971,-9770.718434,-1838.629195
163250.117050,7105.977043,-10140.821405,-995.924147
163250.117368,7328.038826,-9548.656652,-842.705048
163250.117687,8216.285956,-11399.171507,1762.019645
163250.118005,6735.874072,-12213.398043,-76.609550
163250.118324,5699.585753,-13027.624579,536.266849
163250.118642,1406.391290,-11547.212695,-1915.238745
163250.118961,0.000000,-10140.821405,0.000000
163250.119279,592.164754,-10732.986159,0.000000
163250.119598,2294.638420,-7994.224174,383.047749
163250.119916,1850.514855,-6661.853478,1225.752797
163250.120235,1406.391290,-5181.441594,536.266849
163250.120553,1184.329507,-5255.462188,-612.876398
163250.120872,2886.803174,-7105.977043,-76.609550
163250.121191,-74.020594,-7994.224174,-1915.238745
163250.121509,-74.020594,-11843.295072,-76.609550
163250.121828,-1258.350101,-13027.624579,-1608.800546
163250.122146,-4071.132681,-13841.851115,-1915.238745
163250.122465,-6513.812290,-14285.974681,306.438199
163250.122783,-5995.668130,-13101.645173,1072.533697
163250.123102,-3627.009116,-10436.903782,2911.162892
163250.123420,-1924.535449,-6513.812290,3370.820191
163250.123739,-1702.473667,-3775.050304,3140.991542
163250.124057,-1850.514855,-1184.329507,1149.143247
163250.124376,-3997.112087,-2442.679609,0.000000
163250.124694,-3627.009116,-5921.647536,-3753.867940
163250.125013,-5847.626942,-7179.997637,-4903.011187
163250.125332,-7846.182985,-8438.347739,-4979.620737
163250.125650,-8290.306550,-10732.986159,-3677.258390
163250.125969,-6291.750507,-15544.324782,-2374.896044
163250.126287,-6513.812290,-16580.613101,306.438199
163250.126606,-4737.318029,-15248.242405,3217.601092
163250.126924,-2590.720797,-9548.656652,3600.648841
163250.127243,0.000000,-6365.771101,4903.011187
163250.127561,0.000000,-2442.679609,4903.011187
163250.127880,962.267725,-2146.597232,2451.505594
163250.128198,1110.308913,-4663.297435,1455.581446
163250.128517,-4145.153275,-4811.338623,-4290.134789
163250.128835,-5551.544565,-7772.162391,-6971.469032
163250.129154,-5107.421000,-12509.480420,-6511.811733
163250.129473,-4737.318029,-14656.077652,-5362.668486
163250.129791,-3997.112087,-16580.613101,-4060.306139
163250.130110,-1258.350101,-16580.613101,-1302.362347
163250.130428,-888.247130,-14063.912898,3064.381992
163250.130747,2442.679609,-10510.924376,5898.935335
163250.131065,4959.379811,-6291.750507,6665.030833
163250.131384,6365.771101,-2812.782580,6435.202183
163250.131702,6513.812290,-2886.803174,5209.449386
163250.132021,592.164754,-74.020594,0.000000
163250.132339,2294.638420,-7105.977043,-4060.306139
163250.132658,-1628.453072,-8142.265362,-7584.345430
163250.132976,-1184.329507,-12657.521608,-7048.078582
163250.133295,0.000000,-13101.645173,-7507.735880
163250.133614,2960.823768,-15248.242405,-3370.820191
163250.133932,3108.864956,-15174.221811,-919.314598
163250.134251,3256.906145,-13989.892304,2068.457845
163250.134569,5847.626942,-12879.583391,5439.278036
163250.134888,5847.626942,-8734.430116,5898.935335
163250.135206,5921.647536,-5107.421000,7354.516781
163250.135525,6365.771101,-2516.700203,4903.011187
163250.135843,5477.523971,-3330.926739,3217.601092
163250.136162,2072.576638,-4811.338623,-1072.533697
163250.136480,-2368.659014,-5403.503377,-5822.325785
163250.136799,-2812.782580,-9474.636058,-6052.154434
163250.137117,-2442.679609,-11917.315666,-6205.373534
163250.137436,-1184.329507,-14137.933492,-5286.058936
163250.137755,-962.267725,-14730.098246,-4596.572988
163250.138073,-1776.494261,-14211.954086,-919.314598
163250.138392,-296.082377,-13693.809927,612.876398
163250.138710,0.000000,-10732.986159,5515.887586
163250.139029,2664.741391,-7698.141797,6052.154434
163250.139347,4367.215058,-7105.977043,6052.154434
163250.139666,962.267725,-1924.535449,2451.505594
163250.139984,-74.020594,-4663.297435,-1149.143247
163250.140303,-2812.782580,-7105.977043,-3753.867940
163250.140621,-4663.297435,-8882.471304,-4749.792088
163250.140940,-5329.482782,-10140.821405,-4903.011187
163250.141258,-3849.070898,-10140.821405,-7201.297681
163250.141577,-4145.153275,-12509.480420,-2451.505594
163250.141896,-2442.679609,-14211.954086,-76.609550
163250.142214,-2442.679609,-12065.356855,1225.752797
163250.142533,-74.020594,-11843.295072,4826.401637
163250.142851,0.000000,-7476.080014,5669.106685
163250.143170,518.144159,-5033.400406,5056.230287
163250.143488,0.000000,-3849.070898,3217.601092
163250.143807,-888.247130,-5847.626942,2374.896044
163250.144125,-3552.988522,-7105.977043,-2221.676944
163250.144444,-7105.977043,-7772.162391,-4903.011187
163250.144762,-2812.782580,-12657.521608,-3907.087040
163250.145081,-1258.350101,-13471.748144,-1915.238745
163250.145399,-5329.482782,-11917.315666,-4903.011187
163250.145718,-2886.803174,-13323.706956,-1302.362347
163250.146037,-1850.514855,-11843.295072,842.705048
163250.146355,740.205942,-10510.924376,4519.963438
163250.146674,2072.576638,-7402.059420,4749.792088
163250.146992,4071.132681,-7031.956449,4826.401637
163250.147311,1110.308913,-4145.153275,1532.190996
163250.147629,296.082377,-5551.544565,-842.705048
163250.147948,-74.020594,-10658.965565,-2068.457845
163250.148266,-3034.844362,-9474.636058,-6205.373534
163250.148585,-3552.988522,-12509.480420,-3677.258390
163250.148903,-1554.432478,-13027.624579,-4290.134789
163250.149222,740.205942,-13693.809927,-3140.991542
163250.149540,1480.411884,-12657.521608,0.000000
163250.149859,2294.638420,-11029.068536,1225.752797
163250.150178,2516.700203,-8512.368333,3064.381992
163250.150496,3849.070898,-6587.832884,4903.011187
163250.150815,2368.659014,-3034.844362,4903.011187
163250.151133,5255.462188,-4737.318029,4443.353888
163250.151452,3182.885551,-4737.318029,1149.143247
163250.151770,962.267725,-9474.636058,-1302.362347
163250.152089,-2368.659014,-9104.533087,-5898.935335
163250.152407,-3256.906145,-12361.439231,-6052.154434
163250.152726,-2516.700203,-13397.727550,-5286.058936
163250.153044,-1776.494261,-13101.645173,-3064.381992
163250.153363,0.000000,-13101.645173,0.000000
163250.153681,518.144159,-9548.656652,459.657299
163250.154000,2368.659014,-9548.656652,5669.106685
163250.154319,4589.276840,-7698.141797,8503.660028
163250.154637,4071.132681,-2812.782580,3140.991542
163250.154956,4367.215058,-4145.153275,2987.772442
163250.155274,1258.350101,-3997.112087,0.000000
163250.155593,-1406.391290,-7920.203579,-3677.258390
163250.155911,-3256.906145,-10436.903782,-5822.325785
163250.156230,-4145.153275,-12509.480420,-6435.202183
163250.156548,-6291.750507,-12805.562797,-7967.393179
163250.156867,-4441.235652,-14582.057057,-4903.011187
163250.157185,-1850.514855,-14878.139434,0.000000
163250.157504,1998.556043,-14211.954086,4826.401637
163250.157822,0.000000,-6587.832884,4903.011187
163250.158141,4663.297435,-5921.647536,8656.879127
163250.158459,6439.791695,-3256.906145,7890.783629
163250.158778,3552.988522,-1258.350101,5132.839837
163250.159096,1184.329507,-2442.679609,1072.533697
163250.159415,-2368.659014,-6587.832884,-2528.115143
163250.159733,-6957.935855,-8956.491898,-7814.174080
163250.160052,-7994.224174,-11917.315666,-9806.022374
163250.160370,-9474.636058,-15470.304188,-7354.516781
163250.160689,-4811.338623,-18949.272115,-3753.867940
163250.161007,-4737.318029,-15174.221811,-2451.505594
163250.161326,-2442.679609,-12657.521608,1532.190996
163250.161644,1258.350101,-9178.553681,5822.325785
163250.161963,4737.318029,-5551.544565,8886.707777
163250.162281,4737.318029,-74.020594,5515.887586
163250.162600,3627.009116,592.164754,5209.449386
163250.162918,1332.370696,-1850.514855,0.000000
163250.163237,-74.020594,-7698.141797,-1915.238745
163250.163555,-3775.050304,-10362.883188,-7431.126331
163250.163874,-5403.503377,-14211.954086,-8656.879127
163250.164192,-7402.059420,-16950.716072,-8427.050478
163250.164511,-5551.544565,-17394.839637,-8044.002729
163250.164829,-3034.844362,-17246.798449,-3753.867940
163250.165148,-1110.308913,-14508.036463,1302.362347
163250.165466,0.000000,-9548.656652,4903.011187
163250.165785,5773.606348,-4811.338623,6052.154434
163250.166103,7698.141797,-1554.432478,10418.898773
163250.166422,7624.121203,888.247130,7277.907231
163250.166740,4145.153275,-74.020594,4213.525239
163250.167059,3182.885551,-5921.647536,2374.896044
163250.167377,-2294.638420,-8364.327145,-4903.011187
163250.167696,-5181.441594,-12287.418637,-7967.393179
163250.168014,-6883.915261,-15618.345376,-8886.707777
163250.168333,-4737.318029,-17542.880825,-6281.983084
163250.168651,-4737.318029,-17764.942608,-4979.620737
163250.168970,-1258.350101,-15988.448347,-689.485948
163250.169288,74.020594,-11843.295072,3524.039291
163250.169607,2368.659014,-4811.338623,6128.763984
163250.169925,7846.182985,-3256.906145,9576.193725
163250.170244,7402.059420,-666.185348,9193.145976
163250.170562,4737.318029,-74.020594,3600.648841
163250.170881,1850.514855,-3552.988522,-383.047749
163250.171199,-888.247130,-8808.450710,-4749.792088
163250.171518,-4737.318029,-10732.986159,-6741.640382
163250.171836,-5477.523971,-15100.201217,-8350.440928
163250.172155,-4219.173869,-17098.757260,-7354.516781
163250.172473,-2442.679609,-18949.272115,-4979.620737
163250.172792,-2146.597232,-15692.365970,-1991.848295
163250.173110,3182.885551,-15988.448347,7277.907231
163250.173429,3478.967927,-7624.121203,7354.516781
163250.173747,6217.729913,-3552.988522,8886.707777
163250.174066,6735.874072,0.000000,7507.735880
163250.174384,4885.359217,0.000000,6971.469032
163250.174703,0.000000,-1258.350101,0.000000
163250.175021,-1258.350101,-7846.182985,-3064.381992
163250.175340,-4811.338623,-10955.047942,-6435.202183
163250.175658,-6587.832884,-14137.933492,-7048.078582
163250.175977,-6587.832884,-14804.118840,-8044.002729
163250.176295,-5551.544565,-16062.468941,-6128.763984
163250.176614,-2442.679609,-16580.613101,-995.924147
163250.176932,-1258.350101,-11843.295072,2068.457845
163250.177251,2886.803174,-7994.224174,6052.154434
163250.177569,7031.956449,-5921.647536,9729.412825
163250.177888,4737.318029,-74.020594,7354.516781
163250.178206,3330.926739,-370.102971,3600.648841
163250.178525,296.082377,-3923.091493,-383.047749
163250.178843,-2590.720797,-8216.285956,-4136.915689
163250.179162,-4737.318029,-10881.027347,-6128.763984
163250.179480,-6809.894666,-14285.974681,-7737.564530
163250.179799,-5995.668130,-15544.324782,-7124.688131
163250.180117,-4811.338623,-15988.448347,-6818.249932
163250.180436,-3849.070898,-13693.809927,-2451.505594
163250.180755,-74.020594,-13027.624579,2374.896044
163250.181073,1702.473667,-8660.409521,6511.811733
163250.181392,4071.132681,-4515.256246,6358.592633
163250.181710,4885.359217,-1184.329507,6971.469032
163250.182029,3997.112087,-592.164754,4979.620737
163250.182347,2442.679609,-5477.523971,3064.381992
163250.182666,-888.247130,-7698.141797,-1915.238745
163250.182984,-3627.009116,-9178.553681,-6971.469032
163250.183303,-6957.935855,-12139.377449,-7277.907231
163250.183621,-5329.482782,-14878.139434,-6128.763984
163250.183940,-4663.297435,-14730.098246,-6818.249932
163250.184258,-1628.453072,-15470.304188,-995.924147
163250.184577,-814.226536,-12065.356855,2681.334243
163250.184895,1850.514855,-9474.636058,5669.106685
163250.185214,5847.626942,-5921.647536,7277.907231
163250.185532,7031.956449,-2368.659014,7124.688131
163250.185851,5255.462188,-2368.659014,4519.963438
163250.186169,1110.308913,-2886.803174,-1302.362347
163250.186488,-1998.556043,-4959.379811,-5592.497135
163250.186806,-2368.659014,-11325.150913,-4596.572988
163250.187125,-5773.606348,-13101.645173,-7354.516781
163250.187443,-3256.906145,-15766.386565,-5822.325785
163250.187762,-2072.576638,-15914.427753,-4366.744339
163250.188080,-814.226536,-14508.036463,-612.876398
163250.188399,1702.473667,-12287.418637,2681.334243
163250.188717,4663.297435,-10288.862594,8120.612279
163250.189036,6735.874072,-6513.812290,8656.879127
163250.189354,7031.956449,-4737.318029,8503.660028
163250.189673,5107.421000,-592.164754,3907.087040
163250.189991,4367.215058,-5921.647536,2374.896044
163250.190310,-2072.576638,-6883.915261,-3677.258390
163250.190628,-4219.173869,-10584.944971,-6741.640382
163250.190947,-5921.647536,-13989.892304,-7584.345430
163250.191265,-4885.359217,-15470.304188,-4979.620737
163250.191584,-2812.782580,-15766.386565,-3600.648841
163250.191902,-1258.350101,-15840.407159,-536.266849
163250.192221,-222.061783,-12805.562797,4596.572988
163250.192539,4071.132681,-9474.636058,6665.030833
163250.192858,5847.626942,-3627.009116,5669.106685
163250.193176,5847.626942,-148.041188,5745.716235
163250.193495,3701.029710,-1036.288319,4519.963438
163250.193813,296.082377,-4293.194464,0.000000
163250.194132,-2590.720797,-7402.059420,-4749.792088
163250.194450,-3627.009116,-13027.624579,-7431.126331
163250.194769,-4811.338623,-15988.448347,-7737.564530
163250.195087,-4811.338623,-17616.901420,-6205.373534
163250.195406,-3627.009116,-17172.777854,-6205.373534
163250.195724,-3256.906145,-14582.057057,-2298.286494
163250.196043,0.000000,-11917.315666,3064.381992
163250.196361,592.164754,-7772.162391,4903.011187
163250.196680,4811.338623,-4515.256246,7584.345430
163250.196998,5477.523971,-1110.308913,7890.783629
163250.197317,5107.421000,-518.144159,5975.544884
163250.197635,3478.967927,-2368.659014,2374.896044
163250.197954,-518.144159,-8364.327145,-612.876398
163250.198272,-4811.338623,-10066.800811,-6818.249932
163250.198591,-8586.388927,-12805.562797,-9576.193725
163250.198909,-9178.553681,-14285.974681,-9193.145976
163250.199228,-2516.700203,-18949.272115,-4979.620737
163250.199546,-3923.091493,-15544.324782,-2451.505594
163250.199865,-1702.473667,-13249.686362,2145.067394
163250.200183,1850.514855,-9400.615463,6435.202183
163250.200502,5107.421000,-5107.421000,9193.145976
163250.200820,7031.956449,-666.185348,7277.907231
163250.201139,6439.791695,0.000000,6052.154434
163250.201457,1628.453072,-1850.514855,1149.143247
163250.201776,-3478.967927,-4811.338623,-4903.011187
163250.202094,-3552.988522,-9548.656652,-7354.516781
163250.202413,-3627.009116,-13915.871710,-8044.002729
163250.202731,-6809.894666,-15618.345376,-7967.393179
163250.203050,-4515.256246,-17024.736666,-6894.859482
163250.203368,-2368.659014,-15988.448347,-1838.629195
163250.203687,1702.473667,-14804.118840,3600.648841
163250.204005,3404.947333,-10807.006753,7507.735880
163250.204324,6439.791695,-6439.791695,9729.412825
163250.204642,8216.285956,-1776.494261,7890.783629
163250.204961,4737.318029,-74.020594,6281.983084
163250.205279,2368.659014,-370.102971,3064.381992
163250.205598,518.144159,-5847.626942,-2145.067394
163250.205916,-2960.823768,-10140.821405,-5132.839837
163250.206235,-5921.647536,-13693.809927,-8197.221829
163250.206553,-5995.668130,-17024.736666,-7431.126331
163250.206872,-2442.679609,-18357.107362,-5286.058936
163250.207190,-3034.844362,-16210.510130,-1685.410096
163250.207509,-74.020594,-14211.954086,-76.609550
163250.207827,1406.391290,-9622.677246,5286.058936
163250.208146,5477.523971,-4811.338623,5898.935335
163250.208464,5921.647536,-74.020594,7354.516781
163250.208783,5847.626942,148.041188,5745.716235
163250.209101,1702.473667,-2368.659014,1455.581446
163250.209420,-1850.514855,-6809.894666,-3524.039291
163250.209738,-4071.132681,-8364.327145,-7124.688131
163250.210057,-5181.441594,-15026.180623,-8580.269578
163250.210375,-7105.977043,-16062.468941,-8580.269578
163250.210694,-4515.256246,-17912.983796,-6511.811733
163250.211012,-2442.679609,-18949.272115,-2528.115143
163250.211331,-1776.494261,-13175.665768,0.000000
163250.211650,814.226536,-9770.718434,4596.572988
163250.211968,4811.338623,-5699.585753,8120.612279
163250.212287,6513.812290,-1702.473667,8427.050478
163250.212605,5625.565159,370.102971,6205.373534
163250.212924,4663.297435,-2368.659014,4826.401637
163250.213242,-518.144159,-5699.585753,-1608.800546
163250.213561,-4145.153275,-8438.347739,-6052.154434
163250.213879,-8882.471304,-10140.821405,-9499.584175
163250.214198,-6513.812290,-15470.304188,-7048.078582
163250.214516,-6957.935855,-14878.139434,-8580.269578
163250.214835,-3034.844362,-16580.613101,-4366.744339
163250.215153,-2442.679609,-13471.748144,229.828649
163250.215472,0.000000,-11103.089130,4596.572988
163250.215790,3701.029710,-6661.853478,7201.297681
163250.216109,7031.956449,-4737.318029,9729.412825
163250.216427,4737.318029,-74.020594,6128.763984
163250.216746,2368.659014,-1110.308913,2374.896044
163250.217064,-518.144159,-5329.482782,-1225.752797
163250.217383,-2072.576638,-9548.656652,-3370.820191
163250.217701,-5329.482782,-11917.315666,-5822.325785
163250.218020,-7105.977043,-14285.974681,-7354.516781
163250.218338,-3923.091493,-17320.819043,-6205.373534
163250.218657,-1850.514855,-18283.086767,-1838.629195
163250.218975,-2812.782580,-12509.480420,-2298.286494
163250.219294,2294.638420,-11843.295072,4213.525239
163250.219612,4367.215058,-6883.915261,7890.783629
163250.219931,6365.771101,-2960.823768,8044.002729
163250.220249,6143.709319,-888.247130,7354.516781
163250.220568,4737.318029,-1332.370696,4213.525239
163250.220886,2590.720797,-5477.523971,-76.609550
163250.221205,-2368.659014,-8956.491898,-3677.258390
163250.221523,-3034.844362,-14211.954086,-4979.620737
163250.221842,-4811.338623,-16284.530724,-7431.126331
163250.222160,-5921.647536,-15470.304188,-6128.763984
163250.222479,-3330.926739,-15396.283594,-4213.525239
163250.222797,-1184.329507,-13175.665768,612.876398
163250.223116,1110.308913,-10510.924376,4596.572988
163250.223434,5033.400406,-7624.121203,7814.174080
163250.223753,6439.791695,-2590.720797,5745.716235
163250.224071,5329.482782,296.082377,6435.202183
163250.224390,592.164754,-74.020594,1225.752797
163250.224708,-74.020594,-7105.977043,-1302.362347
163250.225027,-2590.720797,-9474.636058,-6052.154434
163250.225345,-4737.318029,-13471.748144,-6511.811733
163250.225664,-6291.750507,-15100.201217,-9116.536426
163250.225982,-4959.379811,-16802.674883,-7660.954980
163250.226301,-3256.906145,-17246.798449,-4749.792088
163250.226619,-2368.659014,-13397.727550,0.000000
163250.226938,0.000000,-9548.656652,3677.258390
163250.227256,2442.679609,-5995.668130,5822.325785
163250.227575,5477.523971,-3330.926739,8580.269578
163250.227893,7031.956449,0.000000,7354.516781
163250.228212,3775.050304,-148.041188,3600.648841
163250.228530,3478.967927,-6809.894666,1149.143247
163250.228849,-2664.741391,-8364.327145,-4826.401637
163250.229167,-5773.606348,-11251.130318,-7201.297681
163250.229486,-7179.997637,-14063.912898,-8350.440928
163250.229804,-5329.482782,-15470.304188,-7048.078582
163250.230123,-5181.441594,-15174.221811,-5975.544884
163250.230441,-2960.823768,-13693.809927,0.000000
163250.230760,-518.144159,-11621.233289,2451.505594
163250.231078,4145.153275,-9178.553681,8503.660028
163250.231397,2368.659014,-1850.514855,6128.763984
163250.231715,6439.791695,-888.247130,6894.859482
163250.232034,3997.112087,-1258.350101,4213.525239
163250.232352,740.205942,-4515.256246,-76.609550
163250.232671,-2738.761985,-8290.306550,-4213.525239
163250.232989,-4441.235652,-11251.130318,-7277.907231
163250.233308,-7105.977043,-14285.974681,-8273.831378
163250.233626,-5033.400406,-16358.551318,-7354.516781
163250.233945,-1776.494261,-18357.107362,-3140.991542
163250.234263,-1258.350101,-15840.407159,-536.266849
163250.234582,0.000000,-11621.233289,5515.887586
163250.234900,2960.823768,-7920.203579,6894.859482
163250.235219,5477.523971,-3997.112087,8044.002729
163250.235537,6439.791695,-1258.350101,7431.126331
163250.235856,3552.988522,-74.020594,4903.011187
163250.236174,592.164754,-2442.679609,0.000000
163250.236493,-1776.494261,-6883.915261,-4136.915689
163250.236811,-6513.812290,-10732.986159,-6741.640382
163250.237130,-5773.606348,-14211.954086,-7201.297681
163250.237448,-4219.173869,-16284.530724,-6205.373534
163250.237767,-2442.679609,-18209.066173,-3753.867940
163250.238085,-2146.597232,-14285.974681,-1072.533697
163250.238404,-74.020594,-10955.047942,3140.991542
163250.238722,3182.885551,-8216.285956,6588.421283
163250.239041,4737.318029,-3034.844362,7967.393179
163250.239359,4737.318029,-74.020594,4903.011187
163250.239678,2368.659014,-74.020594,4903.011187
163250.239996,1702.473667,-4737.318029,-76.609550
163250.240315,-2886.803174,-9474.636058,-3753.867940
163250.240633,-5847.626942,-9548.656652,-9806.022374
163250.240952,-5773.606348,-15100.201217,-8044.002729
163250.241270,-5995.668130,-17246.798449,-8350.440928
163250.241589,-4441.235652,-17838.963202,-6358.592633
163250.241908,-3108.864956,-15100.201217,-1991.848295
163250.242226,0.000000,-11029.068536,2604.724693
163250.242545,1998.556043,-7179.997637,5515.887586
163250.242863,5921.647536,-3923.091493,7967.393179
163250.243182,8512.368333,-3034.844362,10955.165621
163250.243500,5255.462188,0.000000,6052.154434
163250.243819,0.000000,-1258.350101,612.876398
163250.244137,-1110.308913,-8290.306550,-3140.991542
163250.244456,-4293.194464,-10732.986159,-6894.859482
163250.244774,-6365.771101,-14730.098246,-7814.174080
163250.245093,-6587.832884,-14285.974681,-8427.050478
163250.245411,-3627.009116,-16432.571912,-6205.373534
163250.245730,-1702.473667,-16210.510130,-1302.362347
163250.246048,-4145.153275,-10732.986159,1225.752797
163250.246367,2664.741391,-10510.924376,6818.249932
163250.246685,7031.956449,-7105.977043,8503.660028
163250.247004,8216.285956,-2368.659014,7277.907231
163250.247322,4737.318029,444.123565,5362.668486
163250.247641,2146.597232,-3034.844362,1149.143247
163250.247959,-1258.350101,-7254.018232,-3064.381992
163250.248278,-4145.153275,-10732.986159,-4903.011187
163250.248596,-6513.812290,-13693.809927,-7967.393179
163250.248915,-7994.224174,-14285.974681,-8580.269578
163250.249233,-4441.235652,-16802.674883,-5822.325785
163250.249552,-1850.514855,-16580.613101,-3677.258390
163250.249870,-2590.720797,-10436.903782,0.000000
163250.250189,2516.700203,-10066.800811,6052.154434
163250.250507,5107.421000,-5625.565159,7660.954980
163250.250826,6661.853478,-2072.576638,7814.174080
163250.251144,5921.647536,-296.082377,6588.421283
163250.251463,5181.441594,-3997.112087,3677.258390
163250.251781,0.000000,-6587.832884,-1225.752797
163250.252100,-1998.556043,-11547.212695,-4519.963438
163250.252418,-5107.421000,-14211.954086,-6205.373534
163250.252737,-4811.338623,-15100.201217,-7967.393179
163250.253055,-6291.750507,-14656.077652,-7277.907231
163250.253374,-3552.988522,-15914.427753,-2298.286494
163250.253692,-1332.370696,-12509.480420,1149.143247
163250.254010,1628.453072,-9770.718434,5822.325785
163250.254328,6439.791695,-8290.306550,8503.660028
163250.254647,6439.791695,-1628.453072,8120.612279
163250.254965,3701.029710,-74.020594,5209.449386
163250.255284,3182.885551,-3182.885551,3677.258390
163250.255602,-74.020594,-8290.306550,-2528.115143
163250.255921,-5477.523971,-7476.080014,-9499.584175
163250.256239,-4811.338623,-14211.954086,-8350.440928
163250.256558,-6957.935855,-15544.324782,-8656.879127
163250.256876,-5625.565159,-17542.880825,-7737.564530
163250.257195,-4071.132681,-16432.571912,-3370.820191
163250.257513,-74.020594,-16284.530724,2374.896044
163250.257832,296.082377,-9844.739029,4596.572988
163250.258150,4219.173869,-5699.585753,7201.297681
163250.258469,6217.729913,-1850.514855,7890.783629
163250.258787,7031.956449,0.000000,8503.660028
163250.259106,2812.782580,-666.185348,3370.820191
163250.259424,222.061783,-8290.306550,-76.609550
163250.259743,-3478.967927,-8068.244768,-6665.030833
163250.260061,-6809.894666,-12509.480420,-7967.393179
163250.260380,-6513.812290,-14285.974681,-7354.516781
163250.260698,-3627.009116,-17764.942608,-7431.126331
163250.261017,-3997.112087,-17246.798449,-3370.820191
163250.261335,-1850.514855,-13841.851115,76.609550
163250.261654,444.123565,-10214.842000,4749.792088
163250.261972,5255.462188,-7402.059420,8273.831378
163250.262291,6735.874072,-2960.823768,7584.345430
163250.262609,5329.482782,-74.020594,6818.249932
163250.262928,4663.297435,-1554.432478,4290.134789
163250.263246,2294.638420,-7105.977043,-76.609550
163250.263565,-3552.988522,-7328.038826,-4290.134789
163250.263883,-5403.503377,-11695.253884,-8503.660028
163250.264202,-6217.729913,-14804.118840,-7967.393179
163250.264520,-5403.503377,-17246.798449,-7431.126331
163250.264839,-3997.112087,-17542.880825,-4136.915689
163250.265157,-1554.432478,-14137.933492,-1608.800546
163250.265476,1184.329507,-12139.377449,5132.839837
163250.265794,4959.379811,-7105.977043,7354.516781
163250.266113,9400.615463,-4737.318029,9729.412825
163250.266431,7920.203579,0.000000,7277.907231
163250.266750,6809.894666,-3034.844362,7277.907231
163250.267068,2072.576638,-4811.338623,0.000000
163250.267387,-962.267725,-8364.327145,-3753.867940
163250.267705,-4293.194464,-12065.356855,-6588.421283
163250.268024,-6069.688724,-15174.221811,-7048.078582
163250.268342,-6365.771101,-16062.468941,-6741.640382
163250.268661,-4293.194464,-17246.798449,-7048.078582
163250.268979,-3552.988522,-14878.139434,306.438199
163250.269298,-74.020594,-11547.212695,4826.401637
163250.269616,3997.112087,-5995.668130,5132.839837
163250.269935,9400.615463,-4737.318029,9116.536426
163250.270253,5921.647536,592.164754,6128.763984
163250.270572,4071.132681,0.000000,4060.306139
163250.270890,444.123565,-4515.256246,-995.924147
163250.271209,-1776.494261,-9622.677246,-3524.039291
163250.271527,-5921.647536,-12509.480420,-9193.145976
163250.271846,-6217.729913,-16580.613101,-7584.345430
163250.272164,-5107.421000,-18357.107362,-7890.783629
163250.272483,-3034.844362,-19319.375086,-3677.258390
163250.272801,-5921.647536,-13101.645173,-3677.258390
163250.273120,-370.102971,-11547.212695,2528.115143
163250.273438,2960.823768,-7624.121203,6281.983084
163250.273757,5551.544565,-3034.844362,7584.345430
163250.274075,6069.688724,444.123565,6971.469032
163250.274394,5107.421000,0.000000,5745.716235
163250.274712,592.164754,-3627.009116,1225.752797
163250.275031,-666.185348,-8290.306550,-2834.553343
163250.275349,-4663.297435,-13027.624579,-5592.497135
163250.275668,-6291.750507,-14211.954086,-8656.879127
163250.275986,-6809.894666,-16654.633695,-6741.640382
163250.276305,-4219.173869,-17468.860231,-5745.716235
163250.276623,-2664.741391,-15174.221811,-2451.505594
163250.276942,-1406.391290,-12287.418637,2604.724693
163250.277260,2442.679609,-7772.162391,4903.011187
163250.277579,4293.194464,-3627.009116,5515.887586
163250.277897,6069.688724,-296.082377,7354.516781
163250.278216,4737.318029,-74.020594,5515.887586
163250.278534,4071.132681,-4737.318029,2068.457845
163250.278853,-666.185348,-6217.729913,-3907.087040
163250.279171,-1850.514855,-12731.542202,-4519.963438
163250.279490,-5921.647536,-14285.974681,-7967.393179
163250.279808,-5625.565159,-15470.304188,-7660.954980
163250.280127,-3997.112087,-17098.757260,-5822.325785
163250.280445,-2368.659014,-15470.304188,0.000000
163250.280764,0.000000,-13693.809927,3370.820191
163250.281082,2960.823768,-9548.656652,7354.516781
163250.281401,6439.791695,-5329.482782,7584.345430
163250.281719,7624.121203,-740.205942,7277.907231
163250.282038,3552.988522,-74.020594,4903.011187
163250.282356,4071.132681,-3849.070898,1762.019645
163250.282675,-666.185348,-7994.224174,-1149.143247
163250.282993,-3552.988522,-10955.047942,-5669.106685
163250.283312,-5403.503377,-14063.912898,-6894.859482
163250.283630,-2442.679609,-17764.942608,-4979.620737
163250.283949,-2664.741391,-17542.880825,-2451.505594
163250.284267,-1258.350101,-16580.613101,-76.609550
163250.284586,-74.020594,-12287.418637,3600.648841
163250.284904,4071.132681,-8142.265362,6052.154434
163250.285222,4737.318029,-4811.338623,9806.022374
163250.285541,5107.421000,-370.102971,6665.030833
163250.285859,3627.009116,-740.205942,4290.134789
163250.286178,740.205942,-3627.009116,0.000000
163250.286496,-3108.864956,-8068.244768,-6128.763984
163250.286815,-4811.338623,-12139.377449,-8580.269578
163250.287133,-6809.894666,-16506.592507,-7507.735880
163250.287452,-5995.668130,-17024.736666,-6971.469032
163250.287770,-3034.844362,-18653.189738,-6205.373534
163250.288089,-3923.091493,-14285.974681,-2528.115143
163250.288407,1998.556043,-14211.954086,4213.525239
163250.288726,2368.659014,-7994.224174,6741.640382
163250.289044,5625.565159,-3701.029710,7814.174080
163250.289363,6143.709319,-370.102971,7277.907231
163250.289681,4737.318029,-74.020594,5515.887586
163250.290000,1184.329507,-2442.679609,612.876398
163250.290318,-1258.350101,-8586.388927,-2757.943793
163250.290637,-3034.844362,-11843.295072,-7431.126331
163250.290955,-7624.121203,-14285.974681,-9499.584175
163250.291274,-7105.977043,-14878.139434,-9806.022374
163250.291592,-3034.844362,-18061.024985,-5286.058936
163250.291911,-2812.782580,-15026.180623,-1838.629195
163250.292229,-666.185348,-11843.295072,2911.162892
163250.292548,2812.782580,-8290.306550,6741.640382
163250.292866,8216.285956,-6809.894666,9729.412825
163250.293185,6957.935855,-1036.288319,8733.488677
163250.293503,7031.956449,0.000000,4826.401637
163250.293822,592.164754,-1258.350101,0.000000
163250.294140,-666.185348,-7698.141797,-3064.381992
163250.294459,-4811.338623,-9400.615463,-9806.022374
163250.294777,-6587.832884,-14359.995275,-8656.879127
163250.295096,-5921.647536,-16358.551318,-8120.612279
163250.295414,-3701.029710,-17394.839637,-6511.811733
163250.295733,-2368.659014,-15692.365970,-1915.238745
163250.296051,0.000000,-13101.645173,2451.505594
163250.296370,592.164754,-9548.656652,6128.763984
163250.296688,6883.915261,-5921.647536,8503.660028
163250.297007,7920.203579,-2072.576638,7277.907231
163250.297325,2960.823768,2294.638420,3677.258390
163250.297644,4367.215058,-2368.659014,1762.019645
163250.297962,296.082377,-6513.812290,-1915.238745
163250.298281,-2664.741391,-10288.862594,-5592.497135
163250.298599,-5329.482782,-14285.974681,-7431.126331
163250.298918,-3627.009116,-18357.107362,-4979.620737
163250.299236,-3627.009116,-17098.757260,-5669.106685
163250.299555,-3034.844362,-15470.304188,-2068.457845
163250.299873,-2960.823768,-11029.068536,919.314598
163250.300192,2368.659014,-9252.574275,7354.516781
163250.300510,5255.462188,-3330.926739,6588.421283
163250.300829,7328.038826,-1776.494261,8350.440928
163250.301147,4959.379811,444.123565,5745.716235
163250.301466,1924.535449,-2442.679609,1685.410096
163250.301784,-1776.494261,-6809.894666,-3140.991542
163250.302103,-3849.070898,-13027.624579,-4366.744339
163250.302421,-7402.059420,-13989.892304,-8656.879127
163250.302740,-7105.977043,-15914.427753,-9116.536426
163250.303058,-5995.668130,-16728.654289,-7354.516781
163250.303377,-4145.153275,-15766.386565,-3524.039291
163250.303695,-3552.988522,-13545.768739,2374.896044
163250.304014,0.000000,-8364.327145,4290.134789
163250.304332,4885.359217,-5995.668130,8656.879127
163250.304651,7402.059420,-2146.597232,9806.022374
163250.304969,4663.297435,2294.638420,5439.278036
163250.305288,4663.297435,-3256.906145,2987.772442
163250.305606,-888.247130,-5995.668130,-2374.896044
163250.305925,-3775.050304,-10584.944971,-6205.373534
163250.306243,-6439.791695,-13693.809927,-8044.002729
163250.306562,-6513.812290,-16358.551318,-7431.126331
163250.306880,-3701.029710,-17764.942608,-5898.935335
163250.307199,-4145.153275,-15174.221811,-3830.477490
163250.307517,-4145.153275,-11325.150913,0.000000
163250.307836,1184.329507,-10140.821405,5975.544884
163250.308154,2368.659014,-3627.009116,7354.516781
163250.308473,6439.791695,-2368.659014,6971.469032
163250.308791,4959.379811,-148.041188,6588.421283
163250.309110,2294.638420,-1480.411884,2145.067394
163250.309428,-296.082377,-5847.626942,-2145.067394
163250.309747,-2442.679609,-9400.615463,-6894.859482
163250.310065,-6809.894666,-12509.480420,-8350.440928
163250.310384,-9474.636058,-14285.974681,-9499.584175
163250.310702,-4737.318029,-16876.695478,-6588.421283
163250.311021,-2442.679609,-17468.860231,-2834.553343
163250.311339,-1184.329507,-15026.180623,2145.067394
163250.311658,888.247130,-10214.842000,4749.792088
163250.311976,4145.153275,-6439.791695,6894.859482
163250.312295,6513.812290,-3182.885551,7584.345430
163250.312613,5033.400406,-74.020594,4903.011187
163250.312932,2368.659014,-74.020594,2451.505594
163250.313250,0.000000,-4811.338623,-2145.067394
163250.313569,-1628.453072,-9548.656652,-3524.039291
163250.313887,-4219.173869,-13027.624579,-6818.249932
163250.314206,-4811.338623,-15396.283594,-7431.126331
163250.314524,-3034.844362,-18209.066173,-4979.620737
163250.314843,-3330.926739,-15692.365970,-2757.943793
163250.315161,-1110.308913,-12583.501014,1378.971896
163250.315480,1850.514855,-9918.759623,5822.325785
163250.315798,4737.318029,-4811.338623,7967.393179
163250.316117,5477.523971,-74.020594,7354.516781
163250.316435,4737.318029,-74.020594,6435.202183
163250.316754,2812.782580,-2072.576638,3064.381992
163250.317072,-74.020594,-7105.977043,-2528.115143
163250.317391,-5921.647536,-8364.327145,-9193.145976
163250.317709,-6587.832884,-13619.789333,-8656.879127
163250.318028,-8438.347739,-15988.448347,-9116.536426
163250.318346,-6735.874072,-17098.757260,-7967.393179
163250.318665,-4441.235652,-16136.489536,-4366.744339
163250.318983,-1924.535449,-13915.871710,1149.143247
163250.319302,0.000000,-9918.759623,4903.011187
163250.319620,3997.112087,-3627.009116,5439.278036
163250.319939,5921.647536,-1850.514855,8886.707777
163250.320257,7624.121203,296.082377,7277.907231
163250.320576,2368.659014,-74.020594,4903.011187
163250.320894,444.123565,-6217.729913,-1378.971896
163250.321213,-3552.988522,-9252.574275,-5592.497135
163250.321531,-6143.709319,-12583.501014,-8427.050478
163250.321850,-8290.306550,-14285.974681,-9652.803275
163250.322168,-6883.915261,-15692.365970,-9116.536426
163250.322486,-3552.988522,-15248.242405,-4979.620737
163250.322805,-2368.659014,-12509.480420,0.000000
163250.323123,1184.329507,-10436.903782,4903.011187
163250.323442,5847.626942,-7698.141797,8503.660028
163250.323760,7105.977043,-2146.597232,9806.022374
163250.324079,6661.853478,666.185348,6894.859482
163250.324397,4071.132681,-888.247130,3983.696590
163250.324716,0.000000,-4959.379811,-1072.533697
163250.325034,-4737.318029,-7179.997637,-7354.516781
163250.325353,-7105.977043,-10732.986159,-9269.755526
163250.325671,-9178.553681,-14285.974681,-9806.022374
163250.325990,-5921.647536,-16654.633695,-8120.612279
163250.326308,-2664.741391,-17542.880825,-2451.505594
163250.326627,-370.102971,-13471.748144,-1608.800546
163250.326945,1184.329507,-11917.315666,4903.011187
163250.327264,3478.967927,-6439.791695,7354.516781
163250.327582,6143.709319,-3330.926739,7890.783629
163250.327901,7105.977043,0.000000,7584.345430
163250.328219,3849.070898,-296.082377,4903.011187
163250.328538,1332.370696,-3849.070898,-995.924147
163250.328856,-2072.576638,-9252.574275,-3217.601092
163250.329175,-3923.091493,-14211.954086,-5592.497135
163250.329493,-6587.832884,-15100.201217,-8044.002729
163250.329812,-8882.471304,-14285.974681,-9193.145976
163250.330130,-3552.988522,-17838.963202,-3830.477490
163250.330449,-1776.494261,-14063.912898,76.609550
163250.330767,962.267725,-10584.944971,5056.230287
163250.331086,5551.544565,-5921.647536,8503.660028
163250.331404,8216.285956,-2368.659014,9729.412825
163250.331723,6513.812290,1110.308913,7967.393179
163250.332041,2368.659014,-74.020594,4903.011187
163250.332360,1110.308913,-6217.729913,-76.609550
163250.332678,-2442.679609,-11547.212695,-4060.306139
163250.332997,-7994.224174,-12065.356855,-8580.269578
163250.333315,-8068.244768,-16580.613101,-9806.022374
163250.333634,-7031.956449,-17764.942608,-8580.269578
163250.333952,-4737.318029,-17172.777854,-5822.325785
163250.334271,-4737.318029,-11917.315666,-3677.258390
163250.334589,0.000000,-11251.130318,3370.820191
163250.334908,1184.329507,-5107.421000,5515.887586
163250.335226,6069.688724,-3627.009116,9806.022374
163250.335545,7920.203579,148.041188,8503.660028
163250.335863,4737.318029,-370.102971,6435.202183
163250.336182,1110.308913,-4367.215058,0.000000
163250.336500,-2442.679609,-8438.347739,-4826.401637
163250.336819,-5995.668130,-11769.274478,-7737.564530
163250.337137,-7476.080014,-16210.510130,-9806.022374
163250.337456,-5107.421000,-17764.942608,-7431.126331
163250.337774,-1850.514855,-18949.272115,-4979.620737
163250.338093,-2368.659014,-13397.727550,-1838.629195
163250.338411,444.123565,-11029.068536,1225.752797
163250.338730,4145.153275,-9104.533087,9116.536426
163250.339048,5329.482782,-3627.009116,8580.269578
163250.339367,6883.915261,444.123565,7890.783629
163250.339685,4441.235652,148.041188,4903.011187
163250.340004,1702.473667,-3108.864956,612.876398
163250.340322,-3404.947333,-5995.668130,-6741.640382
163250.340641,-5329.482782,-11325.150913,-7354.516781
163250.340959,-6661.853478,-14878.139434,-8427.050478
163250.341278,-4959.379811,-17987.004391,-5898.935335
163250.341596,-3627.009116,-16580.613101,-6205.373534
163250.341915,-2960.823768,-14434.015869,612.876398
163250.342233,-1480.411884,-11917.315666,1991.848295
163250.342552,2960.823768,-8882.471304,6741.640382
163250.342870,5477.523971,-3997.112087,7584.345430
163250.343189,6217.729913,-1036.288319,7431.126331
163250.343507,5847.626942,296.082377,3140.991542
163250.343826,3478.967927,-4589.276840,1762.019645
163250.344144,-814.226536,-8364.327145,-2528.115143
163250.344463,-3997.112087,-11843.295072,-6052.154434
163250.344781,-6291.750507,-15396.283594,-7431.126331
163250.345100,-3627.009116,-18357.107362,-6588.421283
163250.345418,-2960.823768,-18135.045579,-3753.867940
163250.345737,-1850.514855,-15840.407159,-689.485948
163250.346055,-962.267725,-11251.130318,3600.648841
163250.346374,3701.029710,-8364.327145,9806.022374
163250.346692,3552.988522,-1850.514855,7967.393179
163250.347011,6661.853478,-518.144159,8503.660028
163250.347329,4441.235652,-296.082377,5362.668486
163250.347648,518.144159,-3775.050304,306.438199
163250.347966,-3034.844362,-8586.388927,-5286.058936
163250.348285,-4811.338623,-13619.789333,-6818.249932
163250.348603,-7772.162391,-15988.448347,-9882.631924
163250.348922,-8216.285956,-17468.860231,-8963.317327
163250.349240,-6957.935855,-16876.695478,-7354.516781
163250.349559,-2146.597232,-17468.860231,-689.485948
163250.349877,-1776.494261,-11325.150913,2604.724693
163250.350196,2886.803174,-7994.224174,7124.688131
163250.350514,6291.750507,-3404.947333,8733.488677
163250.350833,7105.977043,-148.041188,8503.660028
163250.351151,5033.400406,1702.473667,6741.640382
163250.351470,2886.803174,-2960.823768,1149.143247
163250.351788,-1332.370696,-8290.306550,-3140.991542
163250.352107,-7105.977043,-9548.656652,-8580.269578
163250.352425,-7698.141797,-14730.098246,-8503.660028
163250.352744,-4811.338623,-18061.024985,-9882.631924
163250.353062,-4145.153275,-18431.127956,-6358.592633
163250.353381,-2812.782580,-15914.427753,-2298.286494
163250.353699,-814.226536,-12435.459826,2451.505594
163250.354018,2886.803174,-9474.636058,7277.907231
163250.354336,7846.182985,-6513.812290,9729.412825
163250.354655,7698.141797,-1258.350101,10112.460574
163250.354973,7920.203579,0.000000,7277.907231
163250.355292,1702.473667,-1702.473667,1149.143247
163250.355610,-2368.659014,-5995.668130,-2451.505594
163250.355929,-4959.379811,-9622.677246,-7814.174080
163250.356247,-7179.997637,-14137.933492,-9269.755526
163250.356565,-7476.080014,-16358.551318,-9576.193725
163250.356884,-4737.318029,-17690.922014,-7737.564530
163250.357202,-666.185348,-17764.942608,-3140.991542
163250.357521,1110.308913,-14359.995275,3217.601092
163250.357839,3923.091493,-11251.130318,6665.030833
163250.358158,5255.462188,-5107.421000,7277.907231
163250.358476,5551.544565,-74.020594,6665.030833
163250.358795,7254.018232,-1258.350101,9652.803275
163250.359113,3552.988522,-1554.432478,2911.162892
163250.359431,1258.350101,-7031.956449,-995.924147
163250.359750,-2664.741391,-10362.883188,-5056.230287
163250.360068,-3923.091493,-14211.954086,-7431.126331
163250.360387,-5995.668130,-15174.221811,-9576.193725
163250.360705,-3182.885551,-18949.272115,-4979.620737
163250.361024,-2738.761985,-15396.283594,-3600.648841
163250.361342,-2368.659014,-12509.480420,1838.629195
163250.361661,1184.329507,-8660.409521,6741.640382
163250.361979,6883.915261,-5921.647536,10955.165621
163250.362298,7105.977043,-1258.350101,8503.660028
163250.362616,6217.729913,592.164754,7124.688131
163250.362934,2442.679609,-1998.556043,2681.334243
163250.363253,-592.164754,-7328.038826,-459.657299
163250.363571,-4145.153275,-10436.903782,-5362.668486
163250.363890,-6587.832884,-14211.954086,-8580.269578
163250.364208,-6883.915261,-17764.942608,-8120.612279
163250.364527,-6587.832884,-17616.901420,-8656.879127
163250.364845,-7105.977043,-15470.304188,-6741.640382
163250.365164,-666.185348,-14211.954086,-76.609550
163250.365482,222.061783,-9770.718434,5209.449386
163250.365800,4219.173869,-5625.565159,7507.735880
163250.366119,6143.709319,-1998.556043,7890.783629
163250.366437,7624.121203,0.000000,9116.536426
163250.366756,4441.235652,-1998.556043,3677.258390
163250.367074,1702.473667,-7994.224174,-383.047749
163250.367393,-2590.720797,-9178.553681,-6052.154434
163250.367711,-5995.668130,-13027.624579,-7431.126331
163250.368030,-8290.306550,-14878.139434,-7967.393179
163250.368348,-5107.421000,-17172.777854,-8044.002729
163250.368667,-2812.782580,-17172.777854,-3370.820191
163250.368985,-1480.411884,-13989.892304,306.438199
163250.369303,888.247130,-10214.842000,5132.839837
163250.369622,6439.791695,-7105.977043,7277.907231
163250.369940,8290.306550,-3330.926739,10418.898773
163250.370259,7624.121203,296.082377,6665.030833
163250.370577,3182.885551,-1184.329507,2987.772442
163250.370896,-1258.350101,-4811.338623,-2068.457845
163250.371214,-2960.823768,-10658.965565,-3753.867940
163250.371533,-5995.668130,-11843.295072,-8350.440928
163250.371851,-6809.894666,-15470.304188,-8580.269578
163250.372169,-5403.503377,-16802.674883,-7890.783629
163250.372488,-4737.318029,-16654.633695,-5822.325785
163250.372806,-2368.659014,-13101.645173,0.000000
163250.373125,1406.391290,-11843.295072,4826.401637
163250.373443,5551.544565,-8882.471304,8503.660028
163250.373762,5847.626942,-2072.576638,6205.373534
163250.374080,5329.482782,1110.308913,4903.011187
163250.374399,7031.956449,-2368.659014,4826.401637
163250.374717,2368.659014,-5107.421000,229.828649
163250.375036,-1332.370696,-8882.471304,-3753.867940
163250.375354,-4663.297435,-11917.315666,-7048.078582
163250.375672,-5329.482782,-15914.427753,-5362.668486
163250.375991,-4145.153275,-17394.839637,-5975.544884
163250.376309,-1776.494261,-17246.798449,-1838.629195
163250.376628,-74.020594,-15100.201217,-76.609550
163250.376946,222.061783,-9992.780217,4826.401637
163250.377265,2368.659014,-4811.338623,6741.640382
163250.377583,7624.121203,-3256.906145,8810.098227
163250.377902,6439.791695,-370.102971,7507.735880
163250.378220,3701.029710,-592.164754,4060.306139
163250.378539,0.000000,-4737.318029,-995.924147
163250.378857,-1258.350101,-11251.130318,-4060.306139
163250.379175,-6217.729913,-12509.480420,-7048.078582
163250.379494,-6587.832884,-16580.613101,-8656.879127
163250.379812,-6735.874072,-16728.654289,-8656.879127
163250.380131,-4219.173869,-16432.571912,-5822.325785
163250.380449,-4293.194464,-11621.233289,-2987.772442
163250.380768,74.020594,-11103.089130,4443.353888
163250.381086,4071.132681,-7402.059420,7354.516781
163250.381405,6513.812290,-3478.967927,8427.050478
163250.381723,6735.874072,0.000000,7277.907231
163250.382041,2812.782580,-74.020594,3983.696590
163250.382360,0.000000,-3627.009116,0.000000
163250.382678,-2146.597232,-9844.739029,-4903.011187
163250.382997,-4811.338623,-13471.748144,-6358.592633
163250.383315,-8734.430116,-14285.974681,-9806.022374
163250.383634,-4811.338623,-17616.901420,-7737.564530
163250.383952,-2960.823768,-17172.777854,-4903.011187
163250.384271,-2294.638420,-14137.933492,-766.095498
163250.384589,0.000000,-11177.109724,3983.696590
163250.384908,5847.626942,-8882.471304,8503.660028
163250.385226,6217.729913,-3108.864956,8580.269578
163250.385544,6957.935855,370.102971,7584.345430
163250.385863,4219.173869,370.102971,4826.401637
163250.386181,666.185348,-3923.091493,1149.143247
163250.386500,-3552.988522,-8364.327145,-3370.820191
163250.386818,-7105.977043,-9548.656652,-7354.516781
163250.387137,-5995.668130,-15988.448347,-8197.221829
163250.387455,-6883.915261,-15692.365970,-8350.440928
163250.387774,-4737.318029,-16062.468941,-7354.516781
163250.388092,-1258.350101,-14211.954086,-2221.676944
163250.388410,0.000000,-11843.295072,3983.696590
163250.388729,3256.906145,-8290.306550,6588.421283
163250.389047,5403.503377,-4589.276840,7354.516781
163250.389366,7031.956449,-1998.556043,7277.907231
163250.389684,3849.070898,-74.020594,4903.011187
163250.390003,2960.823768,-4219.173869,1838.629195
163250.390321,-74.020594,-9030.512492,-2528.115143
163250.390640,-2442.679609,-11843.295072,-7431.126331
163250.390958,-7105.977043,-14285.974681,-7354.516781
163250.391277,-5477.523971,-15470.304188,-7354.516781
163250.391595,-2812.782580,-16950.716072,-4826.401637
163250.391913,-1480.411884,-14730.098246,-383.047749
163250.392232,518.144159,-11843.295072,4060.306139
163250.392550,4515.256246,-7105.977043,6128.763984
163250.392869,8808.450710,-5921.647536,9729.412825
163250.393187,8068.244768,-962.267725,9499.584175
163250.393506,7031.956449,0.000000,4826.401637
163250.393824,0.000000,-2738.761985,0.000000
163250.394143,-1480.411884,-10658.965565,-2528.115143
163250.394461,-7031.956449,-12065.356855,-8273.831378
163250.394779,-8808.450710,-15618.345376,-9576.193725
163250.395098,-7920.203579,-16580.613101,-8580.269578
163250.395416,-5847.626942,-17024.736666,-6128.763984
163250.395735,-3552.988522,-14285.974681,-1225.752797
163250.396053,-222.061783,-11695.253884,2451.505594
163250.396372,3997.112087,-8956.491898,9039.926876
163250.396690,7624.121203,-3552.988522,8810.098227
163250.397009,5921.647536,1110.308913,6128.763984
163250.397327,7031.956449,0.000000,6052.154434
163250.397646,1184.329507,-3627.009116,536.266849
163250.397964,-2220.617826,-8216.285956,-4519.963438
163250.398282,-5995.668130,-12361.439231,-7967.393179
163250.398601,-7402.059420,-15544.324782,-7584.345430
163250.398919,-6809.894666,-16950.716072,-9806.022374
163250.399238,-3997.112087,-18579.169144,-4903.011187
163250.399556,-1258.350101,-16580.613101,-995.924147
163250.399875,-1184.329507,-10732.986159,1608.800546
163250.400193,592.164754,-5995.668130,6128.763984
163250.400512,6439.791695,-3108.864956,8197.221829
163250.400830,7846.182985,-666.185348,9729.412825
163250.401148,5403.503377,518.144159,5898.935335
163250.401467,1924.535449,-2442.679609,1608.800546
163250.401785,-1332.370696,-8808.450710,-3447.429741
163250.402104,-6513.812290,-11621.233289,-7048.078582
163250.402422,-7476.080014,-14804.118840,-9882.631924
163250.402741,-5995.668130,-18949.272115,-7431.126331
163250.403059,-4811.338623,-17468.860231,-8656.879127
163250.403378,-3552.988522,-16062.468941,-1072.533697
163250.403696,-1406.391290,-12435.459826,1532.190996
163250.404015,2368.659014,-8734.430116,6435.202183
163250.404333,5921.647536,-5033.400406,8273.831378
163250.404651,7698.141797,-2146.597232,7507.735880
163250.404970,6217.729913,962.267725,6128.763984
163250.405288,3997.112087,-3034.844362,3600.648841
163250.405607,1776.494261,-8660.409521,-76.609550
163250.405925,-2442.679609,-11103.089130,-6511.811733
163250.406244,-6069.688724,-12065.356855,-9882.631924
163250.406562,-3627.009116,-18949.272115,-7431.126331
163250.406881,-3923.091493,-17098.757260,-6281.983084
163250.407199,-1554.432478,-16136.489536,-2068.457845
163250.407518,0.000000,-12139.377449,2604.724693
163250.407836,2664.741391,-9548.656652,7354.516781
163250.408154,6513.812290,-4219.173869,9193.145976
163250.408473,7105.977043,-666.185348,9806.022374
163250.408791,8808.450710,0.000000,8503.660028
163250.409110,2886.803174,-1702.473667,2374.896044
163250.409428,-2812.782580,-3923.091493,-4903.011187
163250.409747,-3775.050304,-11547.212695,-6971.469032
163250.410065,-7698.141797,-14804.118840,-9039.926876
163250.410384,-8438.347739,-16950.716072,-9729.412825
163250.410702,-6957.935855,-17320.819043,-8197.221829
163250.411020,-2442.679609,-17764.942608,-2911.162892
163250.411339,-3552.988522,-11325.150913,0.000000
163250.411657,1332.370696,-9548.656652,6511.811733
163250.411976,5847.626942,-5699.585753,10725.336972
163250.412294,8808.450710,-2368.659014,8503.660028
163250.412613,3552.988522,2294.638420,7354.516781
163250.412931,2442.679609,-2072.576638,2451.505594
163250.413250,-1036.288319,-6735.874072,-2528.115143
163250.413568,-3923.091493,-9918.759623,-6588.421283
163250.413887,-6661.853478,-13693.809927,-9499.584175
163250.414205,-6587.832884,-16654.633695,-9806.022374
163250.414523,-5921.647536,-17246.798449,-6435.202183
163250.414842,-2220.617826,-17542.880825,-3524.039291
163250.415160,-74.020594,-14804.118840,2374.896044
163250.415479,2294.638420,-10658.965565,4826.401637
163250.415797,7105.977043,-6439.791695,10342.289223
163250.416116,7772.162391,-1110.308913,9116.536426
163250.416434,7105.977043,1702.473667,7277.907231
163250.416753,3775.050304,-1406.391290,3753.867940
163250.417071,-2368.659014,-3627.009116,0.000000
163250.417389,-5625.565159,-9548.656652,-6741.640382
163250.417708,-6735.874072,-13397.727550,-9806.022374
163250.418026,-7105.977043,-17172.777854,-8044.002729
163250.418345,-5551.544565,-17468.860231,-8656.879127
163250.418663,-4219.173869,-15100.201217,-6358.592633
163250.418982,-74.020594,-14730.098246,1149.143247
163250.419300,814.226536,-10140.821405,4213.525239
163250.419619,4663.297435,-6143.709319,6894.859482
163250.419937,6735.874072,-2590.720797,7354.516781
163250.420256,8290.306550,-1850.514855,9116.536426
163250.420574,5329.482782,-2146.597232,3064.381992
163250.420892,4071.132681,-7994.224174,-76.609550
163250.421211,-2886.803174,-8068.244768,-5362.668486
163250.421529,-5551.544565,-11917.315666,-9729.412825
163250.421848,-4811.338623,-15396.283594,-9269.755526
163250.422166,-4737.318029,-17024.736666,-6665.030833
163250.422485,-2516.700203,-16728.654289,-3294.210641
163250.422803,-444.123565,-14137.933492,842.705048
163250.423122,1702.473667,-11251.130318,6052.154434
163250.423440,4737.318029,-5107.421000,8810.098227
163250.423758,6513.812290,-666.185348,7967.393179
163250.424077,7698.141797,0.000000,8580.269578
163250.424395,7031.956449,-3552.988522,6665.030833
163250.424714,1110.308913,-5329.482782,-1302.362347
163250.425032,-1850.514855,-10658.965565,-4366.744339
163250.425351,-6957.935855,-12879.583391,-8350.440928
163250.425669,-8808.450710,-15766.386565,-9116.536426
163250.425988,-8142.265362,-17987.004391,-8810.098227
163250.426306,-5181.441594,-17246.798449,-3370.820191
163250.426625,-2812.782580,-13619.789333,-459.657299
163250.426943,-74.020594,-10658.965565,6052.154434
163250.427261,5847.626942,-6513.812290,7277.907231
163250.427580,5329.482782,-1406.391290,8580.269578
163250.427898,7920.203579,0.000000,7277.907231
163250.428217,3701.029710,-666.185348,4443.353888
163250.428535,296.082377,-4811.338623,-612.876398
163250.428854,-2886.803174,-9104.533087,-5286.058936
163250.429172,-5699.585753,-13027.624579,-7737.564530
163250.429491,-8142.265362,-17246.798449,-7354.516781
163250.429809,-5995.668130,-18283.086767,-7814.174080
163250.430127,-4071.132681,-17320.819043,-4903.011187
163250.430446,-2516.700203,-14804.118840,-536.266849
163250.430764,0.000000,-9548.656652,3677.258390
163250.431083,2738.761985,-5921.647536,7277.907231
163250.431401,7920.203579,-1776.494261,8810.098227
163250.431720,6217.729913,2294.638420,7660.954980
163250.432038,2368.659014,2294.638420,4903.011187
163250.432357,1702.473667,-3256.906145,-76.609550
163250.432675,-1776.494261,-9326.594869,-3447.429741
163250.432994,-6661.853478,-12213.398043,-8427.050478
163250.433312,-8438.347739,-15692.365970,-9499.584175
163250.433630,-6587.832884,-16654.633695,-9576.193725
163250.433949,-5403.503377,-16950.716072,-5592.497135
163250.434267,-2960.823768,-15914.427753,-1302.362347
163250.434586,-1480.411884,-12065.356855,2068.457845
163250.434904,518.144159,-5699.585753,4903.011187
163250.435223,6661.853478,-4219.173869,8810.098227
163250.435541,6143.709319,1998.556043,5209.449386
163250.435860,7328.038826,0.000000,6511.811733
163250.436178,3775.050304,-4071.132681,1685.410096
163250.436497,74.020594,-7846.182985,-3447.429741
163250.436815,-3701.029710,-11547.212695,-6894.859482
163250.437133,-5107.421000,-15396.283594,-8044.002729
163250.437452,-5403.503377,-16802.674883,-7431.126331
163250.437770,-3034.844362,-17172.777854,-6205.373534
163250.438089,-3552.988522,-14878.139434,-1225.752797
163250.438407,0.000000,-12213.398043,4826.401637
163250.438726,2368.659014,-5403.503377,7354.516781
163250.439044,6883.915261,-3256.906145,9116.536426
163250.439363,7698.141797,-74.020594,8886.707777
163250.439681,6143.709319,370.102971,6588.421283
163250.439999,1406.391290,-1850.514855,0.000000
163250.440318,-2442.679609,-6513.812290,-3753.867940
163250.440636,-4811.338623,-11843.295072,-7737.564530
163250.440955,-9474.636058,-14582.057057,-9806.022374
163250.441273,-8734.430116,-16062.468941,-11031.775171
163250.441592,-5107.421000,-20133.601622,-6205.373534
163250.441910,-4737.318029,-16654.633695,-1838.629195
163250.442229,-1850.514855,-12139.377449,2451.505594
163250.442547,2294.638420,-7846.182985,6741.640382
163250.442866,6069.688724,-3182.885551,8350.440928
163250.443184,5033.400406,1554.432478,6665.030833
163250.443502,5847.626942,592.164754,4826.401637
163250.443821,740.205942,-1850.514855,459.657299
163250.444139,-2072.576638,-7920.203579,-3677.258390
163250.444458,-3627.009116,-12731.542202,-6818.249932
163250.444776,-7179.997637,-15396.283594,-9882.631924
163250.445095,-6809.894666,-18209.066173,-8580.269578
163250.445413,-4959.379811,-18801.230927,-6588.421283
163250.445732,-3182.885551,-15322.262999,-2068.457845
163250.446050,-592.164754,-12583.501014,2987.772442
163250.446368,2590.720797,-8882.471304,6971.469032
163250.446687,7031.956449,-3256.906145,8427.050478
163250.447005,7105.977043,888.247130,8197.221829
163250.447324,4737.318029,1702.473667,7354.516781
163250.447642,3775.050304,-2960.823768,3600.648841
163250.447961,-4145.153275,-3627.009116,-4903.011187
163250.448279,-4959.379811,-9992.780217,-6665.030833
163250.448598,-7772.162391,-14211.954086,-9806.022374
163250.448916,-7402.059420,-16876.695478,-9193.145976
163250.449235,-4811.338623,-17764.942608,-7737.564530
163250.449553,-1850.514855,-16580.613101,-3753.867940
163250.449871,-2442.679609,-13619.789333,-76.609550
163250.450190,740.205942,-8364.327145,4060.306139
163250.450508,4737.318029,-3923.091493,6435.202183
163250.450827,8734.430116,-3256.906145,10648.727422
163250.451145,5921.647536,-74.020594,7354.516781
163250.451464,4737.318029,-2146.597232,3677.258390
163250.451782,1184.329507,-6069.688724,-1072.533697
163250.452101,-2368.659014,-9770.718434,-5362.668486
163250.452419,-5995.668130,-11917.315666,-8350.440928
163250.452737,-4811.338623,-18357.107362,-6511.811733
163250.453056,-3627.009116,-16580.613101,-7124.688131
163250.453374,-2368.659014,-15470.304188,-2145.067394
163250.453693,296.082377,-13693.809927,3677.258390
163250.454011,4663.297435,-11547.212695,6665.030833
163250.454330,5329.482782,-4811.338623,7737.564530
163250.454648,7772.162391,-1628.453072,8810.098227
163250.454967,6513.812290,296.082377,7048.078582
163250.455285,3849.070898,-2072.576638,4213.525239
163250.455604,-1850.514855,-5847.626942,-1685.410096
163250.455922,-3627.009116,-9918.759623,-6052.154434
163250.456240,-7994.224174,-13397.727550,-8580.269578
163250.456559,-7994.224174,-16654.633695,-7354.516781
163250.456877,-5847.626942,-17987.004391,-7354.516781
163250.457196,-5107.421000,-14804.118840,-4826.401637
163250.457514,-2368.659014,-13397.727550,1455.581446
163250.457833,518.144159,-9178.553681,5132.839837
163250.458151,3997.112087,-5033.400406,7660.954980
163250.458470,7624.121203,-3552.988522,7277.907231
163250.458788,6735.874072,0.000000,6971.469032
163250.459107,2516.700203,-1406.391290,2068.457845
163250.459425,-2738.761985,-4885.359217,-3677.258390
163250.459744,-4737.318029,-9548.656652,-6435.202183
163250.460063,-6513.812290,-14285.974681,-7354.516781
163250.460381,-7994.224174,-15544.324782,-9499.584175
163250.460700,-3923.091493,-18949.272115,-4979.620737
163250.461018,-3552.988522,-15766.386565,-3370.820191
163250.461337,-444.123565,-13397.727550,1378.971896
163250.461655,2294.638420,-9178.553681,4213.525239
163250.461974,5033.400406,-4441.235652,8044.002729
163250.462292,6439.791695,296.082377,7584.345430
163250.462611,5329.482782,1110.308913,7354.516781
163250.462929,4367.215058,-1998.556043,4136.915689
163250.463248,-2368.659014,-3923.091493,0.000000
163250.463566,-3775.050304,-9178.553681,-5745.716235
163250.463885,-6439.791695,-13397.727550,-8350.440928
163250.464204,-7105.977043,-16506.592507,-8733.488677
163250.464522,-5699.585753,-16654.633695,-9346.365076
163250.464841,-2442.679609,-18357.107362,-4749.792088
163250.465159,-592.164754,-15248.242405,1608.800546
163250.465478,1702.473667,-10955.047942,4826.401637
163250.465796,4293.194464,-5921.647536,6665.030833
163250.466115,6587.832884,-1850.514855,7660.954980
163250.466433,4737.318029,1702.473667,4903.011187
163250.466752,4959.379811,-2220.617826,3600.648841
163250.467070,1554.432478,-5995.668130,-689.485948
163250.467389,-1998.556043,-9252.574275,-5132.839837
163250.467707,-4219.173869,-11843.295072,-8656.879127
163250.468026,-5625.565159,-15248.242405,-8733.488677
163250.468345,-4737.318029,-17394.839637,-5822.325785
163250.468663,-2368.659014,-16654.633695,-1685.410096
163250.468982,1406.391290,-14211.954086,2374.896044
163250.469300,1184.329507,-9548.656652,5209.449386
163250.469619,5847.626942,-5033.400406,7890.783629
163250.469937,7476.080014,-2368.659014,8886.707777
163250.470256,7105.977043,518.144159,6358.592633
163250.470574,5033.400406,-1480.411884,3830.477490
163250.470893,2294.638420,-5921.647536,-689.485948
163250.471211,-3923.091493,-9178.553681,-5975.544884
163250.471530,-6957.935855,-12731.542202,-7967.393179
163250.471848,-8290.306550,-15692.365970,-9499.584175
163250.472167,-5995.668130,-18875.251521,-6818.249932
163250.472486,-4145.153275,-17542.880825,-4749.792088
163250.472804,-3552.988522,-13101.645173,306.438199
163250.473123,518.144159,-10658.965565,5745.716235
163250.473441,4663.297435,-8290.306550,9729.412825
163250.473760,4737.318029,-74.020594,7354.516781
163250.474078,5255.462188,2220.617826,6052.154434
163250.474397,3330.926739,-1184.329507,3983.696590
163250.474715,-370.102971,-5477.523971,-1225.752797
163250.475034,-3552.988522,-9770.718434,-5515.887586
163250.475352,-5699.585753,-13397.727550,-8810.098227
163250.475671,-7476.080014,-16580.613101,-9576.193725
163250.475989,-6513.812290,-19023.292709,-7354.516781
163250.476308,-3552.988522,-18135.045579,-3064.381992
163250.476627,-370.102971,-15100.201217,842.705048
163250.476945,1480.411884,-11029.068536,7967.393179
163250.477264,4441.235652,-5403.503377,7814.174080
163250.477582,7846.182985,-1702.473667,9576.193725
163250.477901,7328.038826,1776.494261,8886.707777
163250.478219,4515.256246,888.247130,4903.011187
163250.478538,0.000000,-2738.761985,0.000000
163250.478856,-3552.988522,-9252.574275,-5132.839837
163250.479175,-5107.421000,-14211.954086,-6281.983084
163250.479493,-8364.327145,-15988.448347,-10801.946522
163250.479812,-8290.306550,-17246.798449,-10112.460574
163250.480130,-2738.761985,-18949.272115,-4979.620737
163250.480449,-3108.864956,-14285.974681,-1455.581446
163250.480768,0.000000,-11769.274478,3447.429741
163250.481086,3701.029710,-7179.997637,6665.030833
163250.481405,7105.977043,-3627.009116,9806.022374
163250.481723,7698.141797,-74.020594,9806.022374
163250.482042,4737.318029,-74.020594,4903.011187
163250.482360,4663.297435,-5921.647536,2374.896044
163250.482679,-1850.514855,-7920.203579,-4903.011187
163250.482997,-6217.729913,-11325.150913,-9193.145976
163250.483316,-5107.421000,-16284.530724,-9882.631924
163250.483634,-5255.462188,-16876.695478,-7507.735880
163250.483953,-2960.823768,-17468.860231,-4290.134789
163250.484271,-888.247130,-14730.098246,76.609550
163250.484590,2886.803174,-12657.521608,6052.154434
163250.484909,2960.823768,-5995.668130,7354.516781
163250.485227,8216.285956,-3849.070898,10035.851024
163250.485546,8068.244768,0.000000,9116.536426
163250.485864,3775.050304,1702.473667,4290.134789
163250.486183,1184.329507,-3034.844362,1838.629195
163250.486501,-2738.761985,-7994.224174,-4826.401637
163250.486820,-6513.812290,-12583.501014,-7584.345430
163250.487138,-8808.450710,-15470.304188,-9729.412825
163250.487457,-8290.306550,-16950.716072,-9422.974625
163250.487775,-5551.544565,-17320.819043,-6741.640382
163250.488094,-4145.153275,-14582.057057,-1072.533697
163250.488412,222.061783,-11473.192101,3677.258390
163250.488731,3849.070898,-7476.080014,9193.145976
163250.489050,7624.121203,-2368.659014,9422.974625
163250.489368,7105.977043,0.000000,11414.822920
163250.489687,4737.318029,-370.102971,4826.401637
163250.490005,1036.288319,-5107.421000,76.609550
163250.490324,-3552.988522,-9252.574275,-5592.497135
163250.490642,-8290.306550,-11917.315666,-9806.022374
163250.490961,-9474.636058,-14285.974681,-9806.022374
163250.491279,-7698.141797,-18135.045579,-11644.651570
163250.491598,-4737.318029,-18727.210333,-4903.011187
163250.491916,-1258.350101,-15692.365970,-76.609550
163250.492235,814.226536,-9622.677246,3294.210641
163250.492553,6439.791695,-7698.141797,9576.193725
163250.492872,8808.450710,-3552.988522,12027.699319
163250.493191,8364.327145,1110.308913,10112.460574
163250.493509,6143.709319,1776.494261,6894.859482
163250.493828,1480.411884,-3627.009116,3064.381992
163250.494146,-3552.988522,-7179.997637,-6128.763984
163250.494465,-7105.977043,-11917.315666,-7967.393179
163250.494783,-8956.491898,-15988.448347,-11108.384721
163250.495102,-9474.636058,-16654.633695,-12870.404366
163250.495420,-7698.141797,-17246.798449,-9806.022374
163250.495739,-3034.844362,-16580.613101,-2834.553343
163250.496057,-1184.329507,-12435.459826,2757.943793
163250.496376,2886.803174,-7105.977043,6665.030833
163250.496694,7105.977043,-3108.864956,8427.050478
163250.497013,9400.615463,-666.185348,9652.803275
163250.497332,5921.647536,2294.638420,6128.763984
163250.497650,4885.359217,-3478.967927,3830.477490
163250.497969,1110.308913,-9474.636058,-1302.362347
163250.498287,-4219.173869,-11769.274478,-7737.564530
163250.498606,-8586.388927,-14878.139434,-9806.022374
163250.498924,-7179.997637,-17468.860231,-9882.631924
163250.499243,-4219.173869,-18653.189738,-6588.421283
163250.499561,-1998.556043,-15914.427753,-2298.286494
163250.499880,0.000000,-10732.986159,1838.629195
163250.500198,2442.679609,-7179.997637,5515.887586
163250.500517,8290.306550,-3627.009116,10418.898773
163250.500835,10955.047942,-2886.803174,12487.356617
163250.501154,7624.121203,2368.659014,6894.859482
163250.501473,5255.462188,-2368.659014,2987.772442
163250.501791,740.205942,-8808.450710,-459.657299
163250.502110,-5551.544565,-10955.047942,-7354.516781
163250.502428,-9252.574275,-15396.283594,-9576.193725
163250.502747,-9474.636058,-17616.901420,-10035.851024
163250.503065,-8882.471304,-17838.963202,-7354.516781
163250.503384,-5921.647536,-15766.386565,-3217.601092
163250.503702,-4737.318029,-10732.986159,1225.752797
163250.504021,3478.967927,-9474.636058,7737.564530
163250.504339,6143.709319,-3182.885551,9729.412825
163250.504658,7031.956449,2072.576638,6511.811733
163250.504976,7031.956449,666.185348,7814.174080
163250.505295,3034.844362,-2220.617826,2451.505594
163250.505614,-888.247130,-7920.203579,-2681.334243
163250.505932,-5033.400406,-11177.109724,-8350.440928
163250.506251,-7994.224174,-15766.386565,-9806.022374
163250.506569,-11251.130318,-16654.633695,-11644.651570
163250.506888,-4219.173869,-21317.931130,-6205.373534
163250.507206,-3923.091493,-16728.654289,-3217.601092
163250.507525,-666.185348,-10955.047942,0.000000
163250.507843,3478.967927,-8290.306550,6665.030833
163250.508162,7846.182985,-3108.864956,9729.412825
163250.508480,9400.615463,1184.329507,10495.508323
163250.508799,7179.997637,2664.741391,8197.221829
163250.509118,5847.626942,-2960.823768,6052.154434
163250.509436,-370.102971,-5847.626942,-2681.334243
163250.509755,-5699.585753,-9918.759623,-8120.612279
163250.510073,-9326.594869,-15470.304188,-8580.269578
163250.510392,-7772.162391,-18653.189738,-10495.508323
163250.510710,-7179.997637,-17690.922014,-11108.384721
163250.511029,-4811.338623,-16580.613101,-5898.935335
163250.511347,-2960.823768,-13101.645173,919.314598
163250.511666,962.267725,-9030.512492,5056.230287
163250.511984,5921.647536,-4515.256246,8044.002729
163250.512303,11177.109724,-2368.659014,10955.165621
163250.512621,7846.182985,1702.473667,7660.954980
163250.512940,5847.626942,-1036.288319,4673.182538
163250.513259,1036.288319,-5921.647536,-919.314598
163250.513577,-3627.009116,-9918.759623,-4979.620737
163250.513896,-7105.977043,-13101.645173,-8580.269578
163250.514214,-9474.636058,-14878.139434,-11644.651570
163250.514533,-5329.482782,-19171.333898,-7048.078582
163250.514851,-1554.432478,-18209.066173,-1991.848295
163250.515170,-370.102971,-12805.562797,1225.752797
163250.515488,3478.967927,-8882.471304,4826.401637
163250.515807,6365.771101,-4663.297435,8886.707777
163250.516125,8660.409521,-740.205942,9346.365076
163250.516444,7624.121203,1332.370696,8580.269578
163250.516762,7031.956449,-1998.556043,6052.154434
163250.517081,2294.638420,-6809.894666,-76.609550
163250.517400,-4145.153275,-10140.821405,-5822.325785
163250.517718,-7179.997637,-14285.974681,-7967.393179
163250.518037,-7772.162391,-18061.024985,-8963.317327
163250.518355,-9474.636058,-17838.963202,-8580.269578
163250.518674,-5625.565159,-16950.716072,-5669.106685
163250.518992,-2590.720797,-13619.789333,1455.581446
163250.519311,148.041188,-9474.636058,6128.763984
163250.519629,4737.318029,-4293.194464,8580.269578
163250.519948,7624.121203,-74.020594,8044.002729
163250.520266,6439.791695,1184.329507,7277.907231
163250.520585,4145.153275,-1258.350101,3677.258390
163250.520903,1110.308913,-7994.224174,-689.485948
163250.521222,-4811.338623,-10658.965565,-7431.126331
163250.521541,-7698.141797,-16506.592507,-8810.098227
163250.521859,-9474.636058,-17838.963202,-10725.336972
163250.522178,-6365.771101,-19023.292709,-8427.050478
163250.522496,-3256.906145,-17394.839637,-4213.525239
163250.522815,-888.247130,-13989.892304,1532.190996
163250.523133,592.164754,-8068.244768,6128.763984
163250.523452,6143.709319,-4737.318029,9806.022374
163250.523770,11769.274478,-2368.659014,11568.042020
163250.524089,6513.812290,2886.803174,8427.050478
163250.524407,4737.318029,1110.308913,3447.429741
163250.524726,3478.967927,-5921.647536,-689.485948
163250.525044,-4515.256246,-9252.574275,-6665.030833
163250.525363,-7994.224174,-13619.789333,-9652.803275
163250.525682,-9844.739029,-16876.695478,-11031.775171
163250.526000,-6661.853478,-19319.375086,-8120.612279
163250.526319,-4737.318029,-17246.798449,-6128.763984
163250.526637,-4441.235652,-14285.974681,0.000000
163250.526956,592.164754,-12361.439231,5362.668486
163250.527274,6735.874072,-8216.285956,10342.289223
163250.527593,4737.318029,-74.020594,7354.516781
163250.527911,8956.491898,740.205942,7890.783629
163250.528230,6143.709319,-518.144159,5515.887586
163250.528548,2442.679609,-4737.318029,919.314598
163250.528867,-2664.741391,-9326.594869,-5362.668486
163250.529185,-5995.668130,-13841.851115,-8886.707777
163250.529504,-9326.594869,-15766.386565,-10418.898773
163250.529823,-5329.482782,-18431.127956,-7814.174080
163250.530141,-2960.823768,-16654.633695,-3677.258390
163250.530460,-74.020594,-15988.448347,1762.019645
163250.530778,1184.329507,-10732.986159,6741.640382
163250.531097,5699.585753,-5551.544565,8197.221829
163250.531415,8364.327145,-1998.556043,9652.803275
163250.531734,8364.327145,592.164754,9193.145976
163250.532052,5551.544565,-74.020594,4903.011187
163250.532371,1332.370696,-3775.050304,0.000000
163250.532689,-3552.988522,-8660.409521,-4903.011187
163250.533008,-6661.853478,-14582.057057,-6741.640382
163250.533326,-8364.327145,-16580.613101,-9882.631924
163250.533645,-8364.327145,-17468.860231,-9882.631924
163250.533964,-4441.235652,-18949.272115,-3294.210641
163250.534282,-3404.947333,-14508.036463,-459.657299
163250.534601,-592.164754,-10510.924376,4519.963438
163250.534919,3552.988522,-5403.503377,7890.783629
163250.535238,5921.647536,-1258.350101,9806.022374
163250.535556,5921.647536,-74.020594,7967.393179
163250.535875,2368.659014,-74.020594,4903.011187
163250.536193,1702.473667,-6513.812290,842.705048
163250.536512,-4737.318029,-9178.553681,-6205.373534
163250.536830,-8808.450710,-11917.315666,-12257.527968
163250.537149,-8364.327145,-18357.107362,-10495.508323
163250.537467,-7328.038826,-18949.272115,-9422.974625
163250.537786,-4219.173869,-18505.148550,-5439.278036
163250.538105,-1628.453072,-14434.015869,306.438199
163250.538423,2368.659014,-11029.068536,6741.640382
163250.538742,3552.988522,-4219.173869,7431.126331
163250.539060,7402.059420,-370.102971,9806.022374
163250.539379,9696.697840,444.123565,12793.794817
163250.539697,7031.956449,1184.329507,6052.154434
163250.540016,0.000000,-1554.432478,612.876398
163250.540334,-2812.782580,-8290.306550,-5132.839837
163250.540653,-7254.018232,-12213.398043,-9422.974625
163250.540971,-9696.697840,-16062.468941,-10878.556072
163250.541290,-8512.368333,-17838.963202,-11721.261119
163250.541608,-5033.400406,-18431.127956,-8503.660028
163250.541927,-4145.153275,-14582.057057,-2451.505594
163250.542246,-222.061783,-12435.459826,3370.820191
163250.542564,4663.297435,-9178.553681,8197.221829
163250.542883,6735.874072,-3552.988522,9116.536426
163250.543201,8586.388927,-666.185348,11031.775171
163250.543520,7328.038826,740.205942,6665.030833
163250.543838,3478.967927,-3182.885551,2145.067394
163250.544157,-1480.411884,-7105.977043,-3907.087040
163250.544475,-7994.224174,-10732.986159,-9806.022374
163250.544794,-8586.388927,-15174.221811,-10725.336972
163250.545112,-7105.977043,-16950.716072,-11644.651570
163250.545431,-4737.318029,-17838.963202,-6128.763984
163250.545749,-2146.597232,-14878.139434,-1225.752797
163250.546068,2886.803174,-11843.295072,3600.648841
163250.546387,5551.544565,-6513.812290,6665.030833
163250.546705,8290.306550,-2442.679609,9806.022374
163250.547024,10066.800811,-148.041188,10265.679673
163250.547342,7402.059420,814.226536,7354.516781
163250.547661,5033.400406,-4737.318029,5898.935335
163250.547979,-962.267725,-7179.997637,-4903.011187
163250.548298,-5329.482782,-12213.398043,-6971.469032
163250.548616,-8660.409521,-17172.777854,-9882.631924
163250.548935,-10140.821405,-18949.272115,-9882.631924
163250.549253,-6291.750507,-17468.860231,-9882.631924
163250.549572,-3849.070898,-15692.365970,-1915.238745
163250.549890,-1258.350101,-11399.171507,3524.039291
163250.550209,2220.617826,-7031.956449,7277.907231
163250.550528,6587.832884,-3552.988522,10955.165621
163250.550846,7105.977043,2294.638420,9116.536426
163250.551165,5181.441594,2886.803174,6128.763984
163250.551483,2368.659014,-2812.782580,2145.067394
163250.551802,-1258.350101,-10362.883188,-2528.115143
163250.552120,-7179.997637,-11547.212695,-9576.193725
163250.552439,-8660.409521,-17468.860231,-11414.822920
163250.552757,-9326.594869,-19615.457463,-11721.261119
163250.553076,-5847.626942,-19763.498651,-7201.297681
163250.553394,-2886.803174,-16654.633695,-1915.238745
163250.553713,1850.514855,-14211.954086,4826.401637
163250.554031,4663.297435,-7179.997637,8503.660028
163250.554350,8808.450710,-1036.288319,10955.165621
163250.554669,9104.533087,3775.050304,9269.755526
163250.554987,7698.141797,2294.638420,9193.145976
163250.555306,5847.626942,-1776.494261,3600.648841
163250.555624,-1480.411884,-6883.915261,-2681.334243
163250.555943,-6291.750507,-11103.089130,-8656.879127
163250.556261,-10140.821405,-15692.365970,-11644.651570
163250.556580,-10214.842000,-18801.230927,-11491.432470
163250.556898,-7105.977043,-20207.622217,-7354.516781
163250.557217,-3627.009116,-16580.613101,-3830.477490
163250.557535,-1332.370696,-13027.624579,1532.190996
163250.557854,1998.556043,-9252.574275,6435.202183
163250.558173,4737.318029,-1554.432478,7660.954980
163250.558491,7994.224174,814.226536,10265.679673
163250.558810,9400.615463,2442.679609,7890.783629
163250.559128,4737.318029,-370.102971,4596.572988
163250.559447,0.000000,-5403.503377,0.000000
163250.559765,-3034.844362,-10362.883188,-7431.126331
163250.560084,-6883.915261,-16284.530724,-9882.631924
163250.560403,-8586.388927,-18431.127956,-10955.165621
163250.560721,-5033.400406,-19615.457463,-8044.002729
163250.561040,-4145.153275,-15470.304188,-3677.258390
163250.561358,-592.164754,-12509.480420,3064.381992
163250.561677,2368.659014,-8808.450710,5975.544884
163250.561995,9400.615463,-6513.812290,11568.042020
163250.562314,9400.615463,-592.164754,9729.412825
163250.562632,8216.285956,2294.638420,8350.440928
163250.562951,7031.956449,0.000000,4826.401637
163250.563270,1406.391290,-6365.771101,-76.609550
163250.563588,-4441.235652,-10288.862594,-6435.202183
163250.563907,-8808.450710,-14656.077652,-9652.803275
163250.564225,-9918.759623,-17987.004391,-10189.070123
163250.564544,-7179.997637,-18949.272115,-8044.002729
163250.564862,-4811.338623,-16506.592507,-3753.867940
163250.565181,-2442.679609,-12879.583391,536.266849
163250.565500,-1776.494261,-8364.327145,4903.011187
163250.565818,3849.070898,-4219.173869,9729.412825
163250.566137,5921.647536,-74.020594,9806.022374
163250.566455,7476.080014,1184.329507,8580.269578
163250.566774,4145.153275,-962.267725,4213.525239
163250.567092,-1110.308913,-5995.668130,-2221.676944
163250.567411,-5995.668130,-9622.677246,-8656.879127
163250.567729,-8956.491898,-15100.201217,-11108.384721
163250.568048,-10140.821405,-18505.148550,-12334.137518
163250.568367,-7994.224174,-19023.292709,-9193.145976
163250.568685,-3997.112087,-16950.716072,-4903.011187
163250.569004,-74.020594,-15396.283594,4213.525239
163250.569322,1184.329507,-8956.491898,6741.640382
163250.569641,6513.812290,-3627.009116,9499.584175
163250.569959,9622.677246,-962.267725,10878.556072
163250.570278,8882.471304,592.164754,9729.412825
163250.570597,3552.988522,1702.473667,4673.182538
163250.570915,-74.020594,-5625.565159,-1302.362347
163250.571234,-5921.647536,-8956.491898,-7354.516781
163250.571552,-8882.471304,-13693.809927,-12257.527968
163250.571871,-9474.636058,-18801.230927,-9806.022374
163250.572189,-5995.668130,-18949.272115,-9882.631924
163250.572508,-4515.256246,-17616.901420,-4596.572988
163250.572826,-2294.638420,-14063.912898,0.000000
163250.573145,74.020594,-10732.986159,4213.525239
163250.573464,4515.256246,-5033.400406,7737.564530
163250.573782,8216.285956,-1776.494261,10495.508323
163250.574101,9104.533087,1776.494261,8350.440928
163250.574419,5921.647536,740.205942,4826.401637
163250.574738,0.000000,-4811.338623,0.000000
163250.575056,-3701.029710,-10436.903782,-5515.887586
163250.575375,-9400.615463,-12583.501014,-12257.527968
163250.575694,-9178.553681,-18431.127956,-10955.165621
163250.576012,-6143.709319,-18875.251521,-8350.440928
163250.576331,-2368.659014,-17838.963202,-3830.477490
163250.576649,1998.556043,-15396.283594,2374.896044
163250.576968,4071.132681,-11843.295072,6052.154434
163250.577286,6439.791695,-7105.977043,9729.412825
163250.577605,9400.615463,-1184.329507,9729.412825
163250.577923,8438.347739,1110.308913,9346.365076
163250.578242,7254.018232,-1258.350101,9499.584175
163250.578561,296.082377,-4219.173869,0.000000
163250.578879,-3627.009116,-9474.636058,-4903.011187
163250.579198,-7550.100608,-13693.809927,-8963.317327
163250.579516,-9474.636058,-17172.777854,-10265.679673
163250.579835,-8364.327145,-17172.777854,-9269.755526
163250.580153,-3627.009116,-18949.272115,-2528.115143
163250.580472,-2442.679609,-14063.912898,-383.047749
163250.580791,0.000000,-9548.656652,4903.011187
163250.581109,3849.070898,-5107.421000,9806.022374
163250.581428,9992.780217,-2368.659014,12180.918418
163250.581746,7772.162391,1776.494261,9346.365076
163250.582065,5033.400406,-666.185348,5286.058936
163250.582383,0.000000,-4811.338623,-995.924147
163250.582702,-5255.462188,-8586.388927,-6818.249932
163250.583020,-8364.327145,-14804.118840,-11108.384721
163250.583339,-11843.295072,-17838.963202,-11951.089769
163250.583658,-6957.935855,-20947.828159,-8656.879127
163250.583976,-1850.514855,-20133.601622,-2834.553343
163250.584295,-74.020594,-14211.954086,-76.609550
163250.584613,1776.494261,-10807.006753,8273.831378
163250.584932,5477.523971,-4885.359217,8733.488677
163250.585250,10140.821405,0.000000,11568.042020
163250.585569,9696.697840,1628.453072,10265.679673
163250.585888,4737.318029,1702.473667,6128.763984
163250.586206,0.000000,-2442.679609,0.000000
163250.586525,-4145.153275,-8956.491898,-4826.401637
163250.586843,-5995.668130,-14211.954086,-8044.002729
163250.587162,-8364.327145,-17468.860231,-11108.384721
163250.587480,-8364.327145,-18357.107362,-11108.384721
163250.587799,-3627.009116,-19837.519246,-5975.544884
163250.588117,-3478.967927,-15100.201217,-1838.629195
163250.588436,-518.144159,-11843.295072,3064.381992
163250.588755,2960.823768,-6217.729913,7048.078582
163250.589073,7698.141797,-2442.679609,11644.651570
163250.589392,9474.636058,1110.308913,9806.022374
163250.589710,7402.059420,1702.473667,7354.516781
163250.590029,4663.297435,-3552.988522,2068.457845
163250.590347,-3552.988522,-7179.997637,-5592.497135
163250.590666,-8734.430116,-9844.739029,-9806.022374
163250.590985,-7179.997637,-16580.613101,-10648.727422
163250.591303,-6735.874072,-19319.375086,-9806.022374
163250.591622,-3701.029710,-18505.148550,-6358.592633
163250.591940,-1850.514855,-14952.160028,-919.314598
163250.592259,2886.803174,-13619.789333,4826.401637
163250.592577,2960.823768,-5995.668130,7354.516781
163250.592896,9474.636058,-3034.844362,11797.870669
163250.593214,10140.821405,1332.370696,9729.412825
163250.593533,5033.400406,3478.967927,6128.763984
163250.593852,2294.638420,-1258.350101,612.876398
163250.594170,-1850.514855,-8586.388927,-3064.381992
163250.594489,-5995.668130,-11695.253884,-7354.516781
163250.594807,-7920.203579,-15840.407159,-9346.365076
163250.595126,-7179.997637,-18949.272115,-8656.879127
163250.595444,-6291.750507,-16802.674883,-6511.811733
163250.595763,-4737.318029,-14285.974681,-2451.505594
163250.596082,-1184.329507,-11029.068536,2451.505594
163250.596400,3997.112087,-8660.409521,9116.536426
163250.596719,4737.318029,-1258.350101,7967.393179
163250.597037,7920.203579,1184.329507,7584.345430
163250.597356,5477.523971,1184.329507,6435.202183
163250.597674,1850.514855,-3330.926739,995.924147
163250.597993,-3552.988522,-8290.306550,-5056.230287
163250.598311,-5403.503377,-14211.954086,-7431.126331
163250.598630,-9474.636058,-16358.551318,-10572.117872
163250.598949,-7698.141797,-19319.375086,-10035.851024
163250.599267,-5107.421000,-18727.210333,-6128.763984
163250.599586,-2738.761985,-15396.283594,-76.609550
163250.599904,0.000000,-11917.315666,4290.134789
163250.600223,2368.659014,-6587.832884,7354.516781
163250.600541,9326.594869,-4145.153275,11184.994271
163250.600860,10288.862594,1480.411884,10648.727422
163250.601179,7105.977043,3478.967927,6128.763984
163250.601497,4071.132681,0.000000,1149.143247
163250.601816,-1850.514855,-7031.956449,-3600.648841
163250.602134,-5477.523971,-11769.274478,-7967.393179
163250.602453,-8660.409521,-15766.386565,-10189.070123
163250.602771,-7179.997637,-18949.272115,-8656.879127
163250.603090,-5403.503377,-18801.230927,-7431.126331
163250.603408,-3552.988522,-17024.736666,-2298.286494
163250.603727,-1258.350101,-13027.624579,2374.896044
163250.604046,2294.638420,-8290.306550,5286.058936
163250.604364,4737.318029,-3627.009116,9806.022374
163250.604683,7179.997637,1406.391290,7814.174080
163250.605001,7624.121203,1924.535449,7660.954980
163250.605320,4071.132681,-592.164754,2451.505594
163250.605638,-740.205942,-6217.729913,-2757.943793
163250.605957,-4737.318029,-10362.883188,-9039.926876
163250.606275,-7031.956449,-14285.974681,-10265.679673
163250.606594,-6069.688724,-18653.189738,-9806.022374
163250.606913,-2442.679609,-20725.766376,-6205.373534
163250.607231,-3330.926739,-15692.365970,-3753.867940
163250.607550,1036.288319,-14211.954086,4749.792088
163250.607868,2516.700203,-9696.697840,5669.106685
163250.608187,7624.121203,-5033.400406,9346.365076
163250.608505,9696.697840,-1110.308913,10342.289223
163250.608824,8364.327145,1480.411884,8886.707777
163250.609143,4737.318029,-74.020594,4903.011187
163250.609461,518.144159,-5625.565159,-2451.505594
163250.609780,-2442.679609,-12731.542202,-5132.839837
163250.610098,-6735.874072,-14211.954086,-8656.879127
163250.610417,-7698.141797,-15766.386565,-9806.022374
163250.610735,-3627.009116,-18949.272115,-7431.126331
163250.611054,-4737.318029,-15766.386565,-3983.696590
163250.611372,-2664.741391,-12953.603985,1455.581446
163250.611691,148.041188,-9696.697840,5745.716235
163250.612010,5921.647536,-6439.791695,11568.042020
163250.612328,7254.018232,-666.185348,8350.440928
163250.612647,4737.318029,1702.473667,7354.516781
163250.612965,4071.132681,-1776.494261,3294.210641
163250.613284,-814.226536,-8882.471304,-1915.238745
163250.613602,-7105.977043,-10140.821405,-8580.269578
163250.613921,-7179.997637,-14804.118840,-9882.631924
163250.614240,-7402.059420,-18431.127956,-9116.536426
163250.614558,-5551.544565,-18431.127956,-7584.345430
163250.614877,-3997.112087,-16802.674883,-3907.087040
163250.615195,-518.144159,-14285.974681,1608.800546
163250.615514,666.185348,-10140.821405,5515.887586
163250.615832,7476.080014,-6365.771101,10648.727422
163250.616151,11103.089130,-2590.720797,13023.623466
163250.616469,9104.533087,1184.329507,9729.412825
163250.616788,3552.988522,-74.020594,4903.011187
163250.617107,-518.144159,-4959.379811,-2068.457845
163250.617425,-4293.194464,-10214.842000,-6435.202183
163250.617744,-7105.977043,-13767.830521,-8580.269578
163250.618062,-8068.244768,-16876.695478,-9806.022374
163250.618381,-6809.894666,-16728.654289,-9806.022374
163250.618699,-4737.318029,-16950.716072,-4903.011187
163250.619018,-4737.318029,-13101.645173,0.000000
163250.619337,-592.164754,-12139.377449,4979.620737
163250.619655,4441.235652,-6513.812290,7277.907231
163250.619974,9252.574275,-4737.318029,9729.412825
163250.620292,6661.853478,1702.473667,7277.907231
163250.620611,4293.194464,0.000000,3983.696590
163250.620929,296.082377,-4663.297435,-2068.457845
163250.621248,-3552.988522,-8956.491898,-4903.011187
163250.621566,-5921.647536,-13101.645173,-8273.831378
163250.621885,-8882.471304,-14434.015869,-9806.022374
163250.622204,-4737.318029,-17320.819043,-7201.297681
163250.622522,-2590.720797,-17468.860231,-4213.525239
163250.622841,-2960.823768,-13101.645173,-3064.381992
163250.623159,2886.803174,-12435.459826,4826.401637
163250.623478,5255.462188,-7328.038826,7814.174080
163250.623796,8216.285956,-2590.720797,9193.145976
163250.624115,8068.244768,0.000000,8120.612279
163250.624434,6883.915261,-2146.597232,5898.935335
163250.624752,0.000000,-3627.009116,-1838.629195
163250.625071,-962.267725,-10658.965565,-2911.162892
163250.625389,-5477.523971,-12361.439231,-7124.688131
163250.625708,-8364.327145,-13767.830521,-8810.098227
163250.626026,-7105.977043,-14582.057057,-6128.763984
163250.626345,-3923.091493,-16506.592507,-3907.087040
163250.626663,-3034.844362,-13915.871710,612.876398
163250.626982,-888.247130,-10510.924376,4903.011187
163250.627301,2960.823768,-5995.668130,6741.640382
163250.627619,6439.791695,-2516.700203,8120.612279
163250.627938,4737.318029,518.144159,7354.516781
163250.628256,2590.720797,-888.247130,3064.381992
163250.628575,-74.020594,-7105.977043,-1302.362347
163250.628893,-3034.844362,-11843.295072,-5592.497135
163250.629212,-5921.647536,-14952.160028,-7660.954980
163250.629531,-8438.347739,-16950.716072,-9652.803275
163250.629849,-6513.812290,-18061.024985,-8120.612279
163250.630168,-3923.091493,-17172.777854,-4519.963438
163250.630486,-4441.235652,-12509.480420,0.000000
163250.630805,296.082377,-9548.656652,5515.887586
163250.631123,6217.729913,-5995.668130,8580.269578
163250.631442,11473.192101,-2368.659014,12180.918418
163250.631760,7772.162391,2368.659014,7967.393179
163250.632079,4071.132681,2220.617826,3600.648841
163250.632398,1110.308913,-5847.626942,-1608.800546
163250.632716,-3997.112087,-9696.697840,-5745.716235
163250.633035,-6661.853478,-13027.624579,-9346.365076
163250.633353,-8290.306550,-16654.633695,-9269.755526
163250.633672,-6217.729913,-18875.251521,-7201.297681
163250.633990,-4441.235652,-16358.551318,-7354.516781
163250.634309,-3552.988522,-15470.304188,-612.876398
163250.634628,-74.020594,-11843.295072,4519.963438
163250.634946,2960.823768,-6513.812290,7277.907231
163250.635265,9104.533087,-3552.988522,9116.536426
163250.635583,7698.141797,962.267725,8044.002729
163250.635902,5181.441594,518.144159,4979.620737
163250.636220,1702.473667,-4145.153275,0.000000
163250.636539,-2442.679609,-9474.636058,-4979.620737
163250.636857,-7105.977043,-11695.253884,-8656.879127
163250.637176,-7920.203579,-15544.324782,-10955.165621
163250.637495,-5921.647536,-17246.798449,-8580.269578
163250.637813,-3552.988522,-16654.633695,-4903.011187
163250.638132,-518.144159,-15174.221811,-1608.800546
163250.638450,2294.638420,-14211.954086,3600.648841
163250.638769,4663.297435,-8068.244768,7431.126331
163250.639087,8660.409521,-2886.803174,9576.193725
163250.639406,9104.533087,592.164754,9652.803275
163250.639725,6513.812290,-370.102971,8580.269578
163250.640043,3849.070898,-3552.988522,1455.581446
163250.640362,-666.185348,-9178.553681,-3140.991542
163250.640680,-6735.874072,-9844.739029,-8427.050478
163250.640999,-8290.306550,-15470.304188,-8273.831378
163250.641317,-4811.338623,-17764.942608,-8044.002729
163250.641636,-4737.318029,-16802.674883,-5822.325785
163250.641954,-3330.926739,-15248.242405,-995.924147
163250.642273,-592.164754,-11473.192101,3907.087040
163250.642592,2664.741391,-7476.080014,7890.783629
163250.642910,4737.318029,-2442.679609,11031.775171
163250.643229,6439.791695,740.205942,7584.345430
163250.643547,3997.112087,0.000000,4826.401637
163250.643866,0.000000,-3108.864956,0.000000
163250.644184,-5329.482782,-7476.080014,-6128.763984
163250.644503,-5995.668130,-13915.871710,-8350.440928
163250.644822,-8364.327145,-15544.324782,-10418.898773
163250.645140,-8290.306550,-17987.004391,-9193.145976
163250.645459,-5921.647536,-17838.963202,-4903.011187
163250.645777,-1258.350101,-16580.613101,-1302.362347
163250.646096,1480.411884,-12287.418637,4519.963438
163250.646414,4515.256246,-7328.038826,8197.221829
163250.646733,8956.491898,-2368.659014,10801.946522
163250.647051,9474.636058,1184.329507,10418.898773
163250.647370,5699.585753,1850.514855,7201.297681
163250.647689,2368.659014,-2442.679609,995.924147
163250.648007,-3108.864956,-7920.203579,-4749.792088
163250.648326,-4589.276840,-14582.057057,-5745.716235
163250.648644,-7772.162391,-17024.736666,-9882.631924
163250.648963,-8364.327145,-17024.736666,-11338.213370
163250.649281,-5403.503377,-18209.066173,-7124.688131
163250.649600,-4145.153275,-15618.345376,-3294.210641
163250.649919,-1258.350101,-12065.356855,2987.772442
163250.650237,2368.659014,-7402.059420,7584.345430
163250.650556,7624.121203,-2960.823768,9729.412825
163250.650874,8290.306550,1110.308913,9729.412825
163250.651193,6735.874072,2368.659014,5132.839837
163250.651511,1184.329507,-2146.597232,612.876398
163250.651830,-962.267725,-8734.430116,-2528.115143
163250.652148,-7105.977043,-9548.656652,-9193.145976
163250.652467,-7179.997637,-15766.386565,-9882.631924
163250.652786,-7105.977043,-18579.169144,-10418.898773
163250.653104,-4071.132681,-18801.230927,-6128.763984
163250.653423,-3034.844362,-15100.201217,-4060.306139
163250.653741,-74.020594,-11843.295072,2987.772442
163250.654060,5847.626942,-9474.636058,7277.907231
163250.654378,8438.347739,-3034.844362,9269.755526
163250.654697,9622.677246,2294.638420,7584.345430
163250.655016,9400.615463,0.000000,8503.660028
163250.655334,4145.153275,-1850.514855,3064.381992
163250.655653,74.020594,-7105.977043,-2374.896044
163250.655971,-3849.070898,-11621.233289,-6665.030833
163250.656290,-7550.100608,-14804.118840,-7967.393179
163250.656608,-9326.594869,-16062.468941,-9576.193725
163250.656927,-4219.173869,-18357.107362,-6511.811733
163250.657245,-4737.318029,-15322.262999,-4136.915689
163250.657564,-2368.659014,-11917.315666,1225.752797
163250.657883,592.164754,-8364.327145,7354.516781
163250.658201,7031.956449,-4145.153275,8503.660028
163250.658520,7105.977043,148.041188,8886.707777
163250.658838,4811.338623,1702.473667,5975.544884
163250.659157,1702.473667,-1776.494261,1838.629195
163250.659475,-1924.535449,-7624.121203,-2604.724693
163250.659794,-5477.523971,-11843.295072,-7431.126331
163250.660112,-7772.162391,-15988.448347,-9882.631924
163250.660430,-9474.636058,-17838.963202,-11108.384721
163250.660749,-8290.306550,-17838.963202,-8273.831378
163250.661067,-3997.112087,-17690.922014,-2451.505594
163250.661386,-1776.494261,-11325.150913,766.095498
163250.661704,3552.988522,-10436.903782,8197.221829
163250.662023,7105.977043,-3701.029710,10418.898773
163250.662341,8808.450710,1406.391290,10189.070123
163250.662660,7624.121203,3849.070898,7890.783629
163250.662978,4663.297435,0.000000,2987.772442
163250.663297,0.000000,-4293.194464,-3753.867940
163250.663615,-5921.647536,-10436.903782,-6741.640382
163250.663934,-6883.915261,-15914.427753,-8044.002729
163250.664252,-7179.997637,-20133.601622,-7737.564530
163250.664571,-7698.141797,-17838.963202,-7967.393179
163250.664889,-4811.338623,-17172.777854,-5132.839837
163250.665208,-2812.782580,-14285.974681,995.924147
163250.665526,222.061783,-10214.842000,5745.716235
163250.665845,2664.741391,-2146.597232,6818.249932
163250.666163,6883.915261,0.000000,9729.412825
163250.666482,5255.462188,3923.091493,6281.983084
163250.666800,2368.659014,-74.020594,3064.381992
163250.667119,1110.308913,-6143.709319,-306.438199
163250.667437,-666.185348,-9474.636058,-7431.126331
163250.667755,-5921.647536,-13989.892304,-9039.926876
163250.668074,-7328.038826,-17468.860231,-9806.022374
163250.668392,-5033.400406,-18875.251521,-8350.440928
163250.668711,-3256.906145,-17542.880825,-4366.744339
163250.669029,-2960.823768,-13989.892304,0.000000
163250.669348,2294.638420,-11251.130318,4213.525239
163250.669666,5921.647536,-5255.462188,8273.831378
163250.669985,8290.306550,-370.102971,9806.022374
163250.670303,9696.697840,0.000000,9193.145976
163250.670622,4071.132681,1480.411884,2451.505594
163250.670940,2368.659014,-5329.482782,0.000000
163250.671259,-1850.514855,-10066.800811,-4673.182538
163250.671577,-5921.647536,-13545.768739,-7431.126331
163250.671896,-6587.832884,-16580.613101,-8044.002729
163250.672214,-4811.338623,-17764.942608,-7431.126331
163250.672533,-4367.215058,-16136.489536,-4519.963438
163250.672851,-4515.256246,-12583.501014,0.000000
163250.673170,0.000000,-10732.986159,5515.887586
163250.673488,4145.153275,-6587.832884,9499.584175
163250.673807,3552.988522,-74.020594,6435.202183
163250.674125,4737.318029,296.082377,6435.202183
163250.674444,2368.659014,-1554.432478,3140.991542
163250.674762,0.000000,-5699.585753,-1302.362347
163250.675080,-3034.844362,-8586.388927,-7124.688131
163250.675399,-6587.832884,-13101.645173,-8656.879127
163250.675717,-8956.491898,-15322.262999,-10878.556072
163250.676036,-7698.141797,-17838.963202,-8273.831378
163250.676354,-3701.029710,-18653.189738,-4290.134789
163250.676673,-4145.153275,-13693.809927,0.000000
163250.676991,1110.308913,-11251.130318,5439.278036
163250.677310,5181.441594,-5625.565159,9193.145976
163250.677628,7920.203579,-592.164754,9652.803275
163250.677947,7105.977043,1998.556043,7354.516781
163250.678265,5847.626942,0.000000,4903.011187
163250.678584,2294.638420,-5921.647536,-76.609550
163250.678902,-2738.761985,-8734.430116,-5592.497135
163250.679221,-7031.956449,-12731.542202,-8656.879127
163250.679539,-9474.636058,-16062.468941,-8580.269578
163250.679858,-8882.471304,-16062.468941,-9499.584175
163250.680176,-3701.029710,-16876.695478,-4979.620737
163250.680495,-3108.864956,-14063.912898,-612.876398
163250.680813,-888.247130,-11917.315666,3830.477490
163250.681132,3478.967927,-5329.482782,6052.154434
163250.681450,5921.647536,-1850.514855,8580.269578
163250.681769,5329.482782,814.226536,7507.735880
163250.682087,4071.132681,0.000000,4826.401637
163250.682405,-74.020594,-3849.070898,-1608.800546
163250.682724,-4737.318029,-7179.997637,-4903.011187
163250.683042,-5181.441594,-11843.295072,-8810.098227
163250.683361,-6957.935855,-16432.571912,-9116.536426
163250.683679,-4959.379811,-17542.880825,-8197.221829
163250.683998,-2738.761985,-17320.819043,-4903.011187
163250.684316,-74.020594,-15396.283594,-2528.115143
163250.684635,888.247130,-12065.356855,3983.696590
163250.684953,4737.318029,-8216.285956,6128.763984
163250.685272,8290.306550,-3478.967927,7890.783629
163250.685590,9104.533087,-1776.494261,8810.098227
163250.685909,7031.956449,-1776.494261,5439.278036
163250.686227,2368.659014,-4219.173869,1225.752797
163250.686546,-74.020594,-8734.430116,-3447.429741
163250.686864,-5329.482782,-9844.739029,-7584.345430
163250.687183,-7105.977043,-13397.727550,-7354.516781
163250.687501,-6439.791695,-14878.139434,-8044.002729
163250.687820,-3330.926739,-15840.407159,-4060.306139
163250.688138,-2072.576638,-14211.954086,76.609550
163250.688457,-148.041188,-11473.192101,4213.525239
163250.688775,3182.885551,-7698.141797,6588.421283
163250.689094,4145.153275,-3701.029710,8273.831378
163250.689412,5255.462188,-1776.494261,6052.154434
163250.689730,2294.638420,-1184.329507,2987.772442
163250.690049,-962.267725,-4441.235652,-1532.190996
163250.690367,-2960.823768,-9992.780217,-2911.162892
163250.690686,-6809.894666,-11325.150913,-8427.050478
163250.691004,-7179.997637,-16062.468941,-8427.050478
163250.691323,-5699.585753,-17468.860231,-7967.393179
163250.691641,-3923.091493,-16728.654289,-4290.134789
163250.691960,-2812.782580,-13101.645173,0.000000
163250.692278,1110.308913,-12139.377449,5209.449386
163250.692597,3701.029710,-7179.997637,8580.269578
163250.692915,7105.977043,-1850.514855,9806.022374
163250.693234,7920.203579,0.000000,9039.926876
163250.693552,7031.956449,-2368.659014,7277.907231
163250.693871,740.205942,-3701.029710,-383.047749
163250.694189,-3034.844362,-8438.347739,-4443.353888
163250.694508,-5625.565159,-11473.192101,-8350.440928
163250.694826,-6661.853478,-16876.695478,-7354.516781
163250.695145,-7105.977043,-18135.045579,-6435.202183
163250.695463,-6513.812290,-15470.304188,-6741.640382
163250.695782,-2368.659014,-15174.221811,-153.219100
163250.696100,-370.102971,-11843.295072,4366.744339
163250.696419,888.247130,-5107.421000,6128.763984
163250.696737,6439.791695,-2294.638420,8503.660028
163250.697055,6439.791695,370.102971,7660.954980
163250.697374,4959.379811,-666.185348,5209.449386
163250.697692,1998.556043,-4145.153275,306.438199
163250.698011,-666.185348,-8882.471304,-3753.867940
163250.698329,-5921.647536,-11029.068536,-7967.393179
163250.698648,-5995.668130,-16580.613101,-9882.631924
163250.698966,-5403.503377,-17764.942608,-8656.879127
163250.699285,-2442.679609,-17764.942608,-6205.373534
163250.699603,-2368.659014,-14285.974681,0.000000
163250.699922,0.000000,-11695.253884,1915.238745
163250.700240,3701.029710,-8734.430116,6358.592633
163250.700559,7328.038826,-4663.297435,8273.831378
163250.700877,9030.512492,-592.164754,9422.974625
163250.701196,7550.100608,370.102971,5822.325785
163250.701514,3849.070898,-3330.926739,2451.505594
163250.701833,1110.308913,-7994.224174,-1838.629195
163250.702151,-1850.514855,-11843.295072,-5132.839837
163250.702470,-6587.832884,-14508.036463,-8810.098227
163250.702788,-5773.606348,-18949.272115,-5132.839837
163250.703107,-5255.462188,-16580.613101,-6741.640382
163250.703425,-3182.885551,-15618.345376,-2068.457845
163250.703743,-888.247130,-12213.398043,3217.601092
163250.704062,2368.659014,-6883.915261,8580.269578
163250.704380,4737.318029,-2442.679609,9806.022374
163250.704699,6439.791695,444.123565,6128.763984
163250.705017,5033.400406,-1480.411884,6665.030833
163250.705336,1702.473667,-3552.988522,1149.143247
163250.705654,-3849.070898,-5477.523971,-5362.668486
163250.705973,-3627.009116,-11843.295072,-7431.126331
163250.706291,-7920.203579,-14878.139434,-9652.803275
163250.706610,-7550.100608,-18431.127956,-9882.631924
163250.706928,-5181.441594,-18727.210333,-6358.592633
163250.707247,-2220.617826,-17912.983796,842.705048
163250.707565,-296.082377,-13101.645173,1225.752797
163250.707884,2368.659014,-8364.327145,7660.954980
163250.708202,8216.285956,-4219.173869,10572.117872
163250.708521,8808.450710,0.000000,11568.042020
163250.708839,4737.318029,4663.297435,6128.763984
163250.709158,2886.803174,-1776.494261,1608.800546
163250.709476,-1628.453072,-7031.956449,-3600.648841
163250.709795,-4515.256246,-10732.986159,-7431.126331
163250.710113,-7624.121203,-15174.221811,-8810.098227
163250.710432,-6291.750507,-18949.272115,-8810.098227
163250.710750,-7105.977043,-17838.963202,-6741.640382
163250.711068,-3404.947333,-16580.613101,-2681.334243
163250.711387,-74.020594,-15396.283594,3600.648841
163250.711705,2294.638420,-9474.636058,6665.030833
163250.712024,5329.482782,-5995.668130,11031.775171
163250.712342,7179.997637,74.020594,9116.536426
163250.712661,6217.729913,1184.329507,6894.859482
163250.712979,2886.803174,-1998.556043,2221.676944
163250.713298,-2368.659014,-5107.421000,-4903.011187
163250.713616,-5625.565159,-8956.491898,-7967.393179
163250.713935,-6809.894666,-14211.954086,-9193.145976
163250.714253,-6217.729913,-17838.963202,-8580.269578
163250.714572,-2442.679609,-18949.272115,-6971.469032
163250.714890,-2442.679609,-15988.448347,-4366.744339
163250.715209,1110.308913,-14804.118840,1608.800546
163250.715527,1924.535449,-10510.924376,4903.011187
163250.715846,6809.894666,-5181.441594,8120.612279
163250.716164,9252.574275,-2146.597232,8580.269578
163250.716483,9474.636058,1110.308913,9806.022374
163250.716801,5477.523971,-962.267725,4903.011187
163250.717120,1776.494261,-5995.668130,766.095498
163250.717438,-666.185348,-11251.130318,-4979.620737
163250.717757,-7105.977043,-11917.315666,-8733.488677
163250.718075,-8882.471304,-14582.057057,-9806.022374
163250.718393,-4959.379811,-17764.942608,-6818.249932
163250.718712,-4219.173869,-15914.427753,-3907.087040
163250.719030,-1998.556043,-12583.501014,2145.067394
163250.719349,666.185348,-8956.491898,5822.325785
163250.719667,5847.626942,-6735.874072,9729.412825
163250.719986,5329.482782,-1258.350101,8580.269578
163250.720304,7031.956449,0.000000,7277.907231
163250.720623,1850.514855,-1258.350101,1991.848295
163250.720941,-3552.988522,-5403.503377,-3677.258390
163250.721260,-4811.338623,-9474.636058,-8044.002729
163250.721578,-7031.956449,-14582.057057,-8886.707777
163250.721897,-7920.203579,-17542.880825,-9806.022374
163250.722215,-6143.709319,-18653.189738,-7584.345430
163250.722534,-2442.679609,-18949.272115,-2528.115143
163250.722852,-1554.432478,-12287.418637,1608.800546
163250.723171,74.020594,-8956.491898,4903.011187
163250.723489,6439.791695,-5255.462188,7354.516781
163250.723808,11769.274478,0.000000,9729.412825
163250.724126,5699.585753,4071.132681,6128.763984
163250.724445,5551.544565,0.000000,4060.306139
163250.724763,-74.020594,-5995.668130,-2221.676944
163250.725082,-4293.194464,-10436.903782,-6818.249932
163250.725400,-7476.080014,-14434.015869,-8963.317327
163250.725718,-7550.100608,-18949.272115,-7431.126331
163250.726037,-7698.141797,-18135.045579,-8503.660028
163250.726355,-5181.441594,-16580.613101,-4290.134789
163250.726674,-3108.864956,-13767.830521,1225.752797
163250.726992,592.164754,-9992.780217,6588.421283
163250.727311,3552.988522,-3627.009116,8580.269578
163250.727629,4737.318029,-74.020594,9806.022374
163250.727948,7105.977043,1702.473667,8733.488677
163250.728266,4071.132681,-888.247130,3907.087040
163250.728585,-666.185348,-4811.338623,-3677.258390
163250.728903,-2442.679609,-10658.965565,-7431.126331
163250.729222,-7994.224174,-14285.974681,-10112.460574
163250.729540,-8586.388927,-17690.922014,-11184.994271
163250.729859,-5995.668130,-18801.230927,-9116.536426
163250.730177,-2072.576638,-18579.169144,-4519.963438
163250.730496,-370.102971,-15100.201217,-76.609550
163250.730814,1184.329507,-10140.821405,4903.011187
163250.731133,7031.956449,-7105.977043,8733.488677
163250.731451,11473.192101,-3552.988522,10342.289223
163250.731770,7105.977043,2294.638420,8580.269578
163250.732088,6735.874072,296.082377,5132.839837
163250.732407,2886.803174,-4589.276840,229.828649
163250.732725,-2294.638420,-9178.553681,-4596.572988
163250.733043,-5995.668130,-12805.562797,-7814.174080
163250.733362,-7179.997637,-15100.201217,-9729.412825
163250.733680,-6587.832884,-17024.736666,-8273.831378
163250.733999,-3552.988522,-17394.839637,-4596.572988
163250.734317,-814.226536,-16284.530724,2221.676944
163250.734636,814.226536,-10955.047942,5439.278036
163250.734954,4737.318029,-6291.750507,9806.022374
163250.735273,5921.647536,-1110.308913,8580.269578
163250.735591,5477.523971,814.226536,7201.297681
163250.735910,3552.988522,-444.123565,4213.525239
163250.736228,222.061783,-5551.544565,0.000000
163250.736547,-4737.318029,-8364.327145,-6128.763984
163250.736865,-7402.059420,-12805.562797,-9806.022374
163250.737184,-7179.997637,-18505.148550,-8350.440928
163250.737502,-5995.668130,-18357.107362,-8963.317327
163250.737821,-4367.215058,-16654.633695,-6511.811733
163250.738139,-74.020594,-16580.613101,1149.143247
163250.738458,296.082377,-10807.006753,4749.792088
163250.738776,4885.359217,-6587.832884,8503.660028
163250.739095,9030.512492,-1406.391290,10035.851024
163250.739413,9474.636058,518.144159,10418.898773
163250.739732,4737.318029,2294.638420,3677.258390
163250.740050,0.000000,-4219.173869,0.000000
163250.740368,-1850.514855,-10510.924376,-4979.620737
163250.740687,-7105.977043,-11029.068536,-9882.631924
163250.741005,-10288.862594,-15470.304188,-11644.651570
163250.741324,-5995.668130,-18949.272115,-8350.440928
163250.741642,-4737.318029,-17542.880825,-5362.668486
163250.741961,-3108.864956,-14508.036463,-766.095498
163250.742279,-370.102971,-10807.006753,4903.011187
163250.742598,4737.318029,-6587.832884,9729.412825
163250.742916,6513.812290,-1332.370696,9806.022374
163250.743235,7254.018232,1036.288319,8733.488677
163250.743553,5477.523971,-1258.350101,7507.735880
163250.743872,-74.020594,-4145.153275,-689.485948
163250.744190,-4737.318029,-8364.327145,-4903.011187
163250.744509,-6661.853478,-12583.501014,-9882.631924
163250.744827,-7920.203579,-16654.633695,-10112.460574
163250.745146,-5995.668130,-17764.942608,-9422.974625
163250.745464,-3330.926739,-17024.736666,-7201.297681
163250.745783,-2368.659014,-14285.974681,-3064.381992
163250.746101,296.082377,-11917.315666,3140.991542
163250.746420,3552.988522,-7179.997637,6128.763984
163250.746738,10288.862594,-4737.318029,9729.412825
163250.747056,8808.450710,888.247130,7890.783629
163250.747375,9252.574275,-2072.576638,8503.660028
163250.747693,3256.906145,-3627.009116,1149.143247
163250.748012,-666.185348,-8142.265362,-3294.210641
163250.748330,-4811.338623,-11325.150913,-7277.907231
163250.748649,-8290.306550,-14878.139434,-8580.269578
163250.748967,-7698.141797,-16062.468941,-7967.393179
163250.749286,-4737.318029,-16654.633695,-4903.011187
163250.749604,-1776.494261,-16358.551318,-76.609550
163250.749923,-74.020594,-11769.274478,4826.401637
163250.750241,814.226536,-4811.338623,4903.011187
163250.750560,6439.791695,-4145.153275,9422.974625
163250.750878,5181.441594,0.000000,7431.126331
163250.751197,3701.029710,-666.185348,4979.620737
163250.751515,1036.288319,-3108.864956,612.876398
163250.751834,-1850.514855,-9548.656652,-2911.162892
163250.752152,-8290.306550,-10140.821405,-9116.536426
163250.752471,-9474.636058,-15470.304188,-9806.022374
163250.752789,-7550.100608,-18357.107362,-9193.145976
163250.753108,-2442.679609,-18949.272115,-4979.620737
163250.753426,-4737.318029,-14285.974681,0.000000
163250.753745,222.061783,-11695.253884,3907.087040
163250.754063,3256.906145,-7624.121203,7431.126331
163250.754381,7550.100608,-2812.782580,9959.241474
163250.754700,8512.368333,1406.391290,7814.174080
163250.755018,6809.894666,814.226536,5592.497135
163250.755337,1776.494261,-2442.679609,1225.752797
163250.755655,-1332.370696,-8882.471304,-2528.115143
163250.755974,-3627.009116,-13619.789333,-7431.126331
163250.756292,-8660.409521,-15988.448347,-9269.755526
163250.756611,-7105.977043,-18875.251521,-7967.393179
163250.756929,-5403.503377,-17987.004391,-6971.469032
163250.757248,-3404.947333,-15544.324782,-1915.238745
163250.757566,-1110.308913,-11251.130318,3217.601092
163250.757885,592.164754,-5995.668130,6741.640382
163250.758203,5921.647536,-1554.432478,9806.022374
163250.758522,8290.306550,814.226536,9806.022374
163250.758840,7698.141797,0.000000,8350.440928
163250.759159,2294.638420,-1628.453072,842.705048
163250.759477,-2442.679609,-7105.977043,-5286.058936
163250.759796,-4811.338623,-12731.542202,-7431.126331
163250.760114,-8290.306550,-15026.180623,-11108.384721
163250.760433,-7476.080014,-18357.107362,-10878.556072
163250.760751,-4293.194464,-18949.272115,-7890.783629
163250.761070,-2368.659014,-16358.551318,-1762.019645
163250.761388,74.020594,-12361.439231,0.000000
163250.761707,3552.988522,-9252.574275,7660.954980
163250.762025,7698.141797,-3923.091493,9806.022374
163250.762344,11769.274478,-3552.988522,12180.918418
163250.762662,9400.615463,2146.597232,6128.763984
163250.762981,5329.482782,-1776.494261,3983.696590
163250.763299,0.000000,-5995.668130,-2145.067394
163250.763618,-2738.761985,-11843.295072,-6205.373534
163250.763936,-7328.038826,-14211.954086,-9882.631924
163250.764255,-8142.265362,-16654.633695,-9806.022374
163250.764573,-6809.894666,-16062.468941,-7967.393179
163250.764892,-3849.070898,-15766.386565,-2987.772442
163250.765210,-74.020594,-15988.448347,4826.401637
163250.765529,222.061783,-7476.080014,4136.915689
163250.765847,5847.626942,-4441.235652,8503.660028
163250.766166,5847.626942,-666.185348,8427.050478
163250.766484,5033.400406,1776.494261,6741.640382
163250.766803,2442.679609,-2072.576638,2604.724693
163250.767121,-74.020594,-9474.636058,-76.609550
163250.767440,-4367.215058,-11547.212695,-6818.249932
163250.767758,-8068.244768,-14359.995275,-9269.755526
163250.768077,-9992.780217,-16358.551318,-11874.480219
163250.768395,-6513.812290,-18431.127956,-7967.393179
163250.768714,-3034.844362,-15692.365970,-5515.887586
163250.769032,-814.226536,-13915.871710,2374.896044
163250.769351,1406.391290,-9474.636058,5898.935335
163250.769669,5625.565159,-4811.338623,8963.317327
163250.769988,8216.285956,-592.164754,9806.022374
163250.770307,7698.141797,0.000000,10648.727422
163250.770625,3849.070898,-592.164754,3370.820191
163250.770944,444.123565,-5995.668130,-1915.238745
163250.771262,-3775.050304,-10955.047942,-6435.202183
163250.771581,-7105.977043,-14285.974681,-7967.393179
163250.771899,-9474.636058,-17098.757260,-8044.002729
163250.772218,-8290.306550,-16136.489536,-8580.269578
163250.772536,-5181.441594,-16062.468941,-4596.572988
163250.772855,-4737.318029,-11917.315666,0.000000
163250.773173,74.020594,-8660.409521,4519.963438
163250.773492,6735.874072,-5921.647536,9729.412825
163250.773810,6291.750507,-814.226536,9346.365076
163250.774129,5995.668130,1480.411884,7354.516781
163250.774447,3404.947333,-592.164754,3447.429741
163250.774766,0.000000,-5625.565159,-1225.752797
163250.775084,-4737.318029,-9548.656652,-7201.297681
163250.775403,-7105.977043,-14285.974681,-8580.269578
163250.775721,-7328.038826,-18283.086767,-8580.269578
163250.776040,-3627.009116,-18949.272115,-8044.002729
163250.776358,-4737.318029,-14285.974681,-4903.011187
163250.776677,-666.185348,-14211.954086,-689.485948
163250.776995,1776.494261,-11177.109724,4060.306139
163250.777314,5699.585753,-6587.832884,6971.469032
163250.777632,8734.430116,-2886.803174,8350.440928
163250.777951,8808.450710,1480.411884,7277.907231
163250.778269,5551.544565,-370.102971,4903.011187
163250.778588,1184.329507,-3627.009116,0.000000
163250.778906,-74.020594,-10584.944971,-3753.867940
163250.779225,-5107.421000,-12435.459826,-7431.126331
163250.779543,-6809.894666,-16062.468941,-7048.078582
163250.779862,-5403.503377,-16432.571912,-7124.688131
163250.780180,-2812.782580,-16284.530724,-3983.696590
163250.780499,-2146.597232,-14359.995275,612.876398
163250.780817,-2368.659014,-9548.656652,2451.505594
163250.781136,0.000000,-3034.844362,4903.011187
163250.781454,2368.659014,-74.020594,5592.497135
163250.781773,4145.153275,-74.020594,6741.640382
163250.782091,3775.050304,-2072.576638,4596.572988
163250.782410,1110.308913,-4737.318029,-689.485948
163250.782729,-1554.432478,-10658.965565,-4366.744339
163250.783047,-5921.647536,-12657.521608,-8580.269578
163250.783366,-7624.121203,-16358.551318,-9039.926876
163250.783684,-5699.585753,-18135.045579,-7737.564530
163250.784003,-4737.318029,-16654.633695,-4903.011187
163250.784321,-2516.700203,-15026.180623,-306.438199
163250.784640,-1628.453072,-10288.862594,3064.381992
163250.784958,3256.906145,-5995.668130,4903.011187
163250.785277,8438.347739,-3256.906145,10495.508323
163250.785595,5329.482782,3478.967927,6128.763984
163250.785914,5847.626942,0.000000,5439.278036
163250.786232,1480.411884,-3775.050304,-383.047749
163250.786551,-2442.679609,-8808.450710,-4826.401637
163250.786869,-4885.359217,-12509.480420,-7737.564530
163250.787188,-7698.141797,-15914.427753,-8656.879127
163250.787506,-7328.038826,-16950.716072,-8656.879127
163250.787825,-5329.482782,-16062.468941,-6511.811733
163250.788143,-4441.235652,-14878.139434,0.000000
163250.788462,-814.226536,-12287.418637,4826.401637
163250.788780,1184.329507,-5403.503377,8580.269578
163250.789099,6439.791695,-2072.576638,9499.584175
163250.789417,6365.771101,518.144159,8044.002729
163250.789736,4737.318029,370.102971,4826.401637
163250.790054,0.000000,-1850.514855,-1685.410096
163250.790373,-4219.173869,-6365.771101,-6281.983084
163250.790691,-6291.750507,-11843.295072,-9882.631924
163250.791010,-9474.636058,-15766.386565,-9652.803275
163250.791328,-5699.585753,-18949.272115,-8044.002729
163250.791647,-3034.844362,-18949.272115,-4979.620737
163250.791965,-2960.823768,-15618.345376,-1072.533697
163250.792284,-370.102971,-12287.418637,2604.724693
163250.792602,3701.029710,-7994.224174,6435.202183
163250.792921,5921.647536,-2442.679609,7354.516781
163250.793239,7105.977043,-74.020594,7354.516781
163250.793558,5329.482782,2220.617826,4826.401637
163250.793876,1184.329507,-1258.350101,0.000000
163250.794195,-74.020594,-8734.430116,-2681.334243
163250.794513,-3627.009116,-13027.624579,-6205.373534
163250.794832,-5995.668130,-14804.118840,-9269.755526
163250.795151,-4293.194464,-17764.942608,-6818.249932
163250.795469,-4293.194464,-16654.633695,-5515.887586
163250.795788,-3404.947333,-15322.262999,-1991.848295
163250.796106,-962.267725,-12657.521608,3140.991542
163250.796425,1184.329507,-7772.162391,7354.516781
163250.796743,5255.462188,-2664.741391,7354.516781
163250.797062,4737.318029,1110.308913,6435.202183
163250.797380,6587.832884,-2146.597232,8503.660028
163250.797699,2294.638420,-3404.947333,2374.896044
163250.798017,-4737.318029,-4811.338623,-4903.011187
163250.798336,-4811.338623,-12065.356855,-7431.126331
163250.798654,-7920.203579,-15988.448347,-9039.926876
163250.798973,-7550.100608,-17394.839637,-9346.365076
163250.799291,-5403.503377,-16728.654289,-8044.002729
163250.799610,-2442.679609,-15544.324782,-2145.067394
163250.799928,-2072.576638,-11917.315666,2451.505594
163250.800247,0.000000,-7179.997637,5209.449386
163250.800565,7624.121203,-4219.173869,9729.412825
163250.800884,9400.615463,-2368.659014,10955.165621
163250.801202,5921.647536,1998.556043,6435.202183
163250.801521,3404.947333,-2886.803174,1608.800546
163250.801839,-740.205942,-8364.327145,-2834.553343
163250.802158,-3849.070898,-11399.171507,-6281.983084
163250.802476,-7994.224174,-13101.645173,-9806.022374
163250.802795,-7254.018232,-17542.880825,-7967.393179
163250.803113,-7105.977043,-15766.386565,-7660.954980
163250.803432,-5625.565159,-15766.386565,-2451.505594
163250.803750,-1554.432478,-13471.748144,3677.258390
163250.804069,1776.494261,-9400.615463,8503.660028
163250.804387,4959.379811,-2368.659014,9193.145976
163250.804706,6883.915261,888.247130,9193.145976
163250.805024,5773.606348,1998.556043,6511.811733
163250.805343,2590.720797,-1480.411884,1225.752797
163250.805661,-1554.432478,-6217.729913,-3140.991542
163250.805980,-2442.679609,-11843.295072,-6818.249932
163250.806298,-7179.997637,-15396.283594,-10265.679673
163250.806617,-7994.224174,-17024.736666,-11108.384721
163250.806936,-5403.503377,-18949.272115,-7431.126331
163250.807254,-3552.988522,-15766.386565,-3064.381992
163250.807573,-518.144159,-13323.706956,766.095498
163250.807891,2146.597232,-9992.780217,5132.839837
163250.808210,7105.977043,-4515.256246,7890.783629
163250.808528,7105.977043,-74.020594,6128.763984
163250.808847,7402.059420,1110.308913,7201.297681
163250.809165,4737.318029,-1628.453072,3600.648841
163250.809484,2294.638420,-8882.471304,-76.609550
163250.809802,-1850.514855,-9400.615463,-6665.030833
163250.810121,-5625.565159,-14285.974681,-6128.763984
163250.810439,-7105.977043,-15766.386565,-8580.269578
163250.810758,-4071.132681,-17468.860231,-7048.078582
163250.811076,-3701.029710,-16210.510130,-3370.820191
163250.811395,-2146.597232,-13693.809927,995.924147
163250.811713,222.061783,-8142.265362,2528.115143
163250.812032,4145.153275,-5699.585753,7737.564530
163250.812350,5255.462188,-1110.308913,7507.735880
163250.812669,2738.761985,3404.947333,5592.497135
163250.812987,2368.659014,-518.144159,2374.896044
163250.813306,222.061783,-5255.462188,-2834.553343
163250.813624,-1258.350101,-11251.130318,-4979.620737
163250.813943,-8882.471304,-11917.315666,-9806.022374
163250.814261,-7698.141797,-17690.922014,-9193.145976
163250.814580,-3923.091493,-20133.601622,-7431.126331
163250.814898,-5403.503377,-15174.221811,-4903.011187
163250.815217,-2738.761985,-13915.871710,1225.752797
163250.815535,296.082377,-10362.883188,5515.887586
163250.815854,5921.647536,-4811.338623,8197.221829
163250.816172,8808.450710,0.000000,9729.412825
163250.816491,6069.688724,2664.741391,6128.763984
163250.816809,5847.626942,-1776.494261,3294.210641
163250.817128,0.000000,-5403.503377,-2145.067394
163250.817446,-4737.318029,-8364.327145,-7201.297681
163250.817765,-4811.338623,-15988.448347,-6511.811733
163250.818083,-8290.306550,-16062.468941,-7967.393179
163250.818402,-5477.523971,-17690.922014,-6818.249932
163250.818720,-4293.194464,-16728.654289,-2834.553343
163250.819039,-2516.700203,-14211.954086,1762.019645
163250.819358,0.000000,-8882.471304,5975.544884
163250.819676,3552.988522,-3330.926739,8350.440928
163250.819995,6735.874072,0.000000,8503.660028
163250.820313,4959.379811,3478.967927,4519.963438
163250.820632,1184.329507,-370.102971,2451.505594
163250.820950,-74.020594,-7105.977043,-1302.362347
163250.821269,-4293.194464,-10140.821405,-5975.544884
163250.821587,-7476.080014,-13471.748144,-9193.145976
163250.821906,-7624.121203,-17616.901420,-9806.022374
163250.822224,-5329.482782,-18653.189738,-7660.954980
