#time,accel_x,accel_y,accel_z
59315.865074,1702.473667,-9474.636058,2374.896044
59315.865384,-74.020594,-9178.553681,536.266849
59315.865694,-370.102971,-7920.203579,-2451.505594
59315.866003,1924.535449,-11029.068536,3294.210641
59315.866313,-962.267725,-7994.224174,0.000000
59315.866622,-2368.659014,-7179.997637,0.000000
59315.866932,-74.020594,-8734.430116,-76.609550
59315.867242,-296.082377,-9104.533087,842.705048
59315.867551,-444.123565,-9030.512492,766.095498
59315.867861,-296.082377,-9400.615463,1072.533697
59315.868170,814.226536,-10658.965565,2987.772442
59315.868480,1110.308913,-10658.965565,2068.457845
59315.868790,-74.020594,-8882.471304,-76.609550
59315.869099,592.164754,-9696.697840,2145.067394
59315.869409,-370.102971,-8734.430116,536.266849
59315.869718,-3552.988522,-5995.668130,0.000000
59315.870028,-74.020594,-9474.636058,842.705048
59315.870338,-592.164754,-8734.430116,766.095498
59315.870647,-518.144159,-9178.553681,689.485948
59315.870957,-370.102971,-9104.533087,612.876398
59315.871266,0.000000,-9548.656652,2451.505594
59315.871576,962.267725,-10066.800811,1991.848295
59315.871886,-74.020594,-9474.636058,-76.609550
59315.872195,-3552.988522,-7179.997637,0.000000
59315.872505,1702.473667,-10658.965565,2068.457845
59315.872814,-370.102971,-7698.141797,-1608.800546
59315.873124,-74.020594,-9474.636058,1149.143247
59315.873434,-444.123565,-9326.594869,383.047749
59315.873743,-296.082377,-9104.533087,919.314598
59315.874053,-296.082377,-9104.533087,689.485948
59315.874362,-2072.576638,-7772.162391,0.000000
59315.874672,0.000000,-8956.491898,1225.752797
59315.874982,1998.556043,-11547.212695,3600.648841
59315.875291,-1258.350101,-7550.100608,-689.485948
59315.875601,0.000000,-9400.615463,1838.629195
59315.875910,-74.020594,-9474.636058,-76.609550
59315.876220,592.164754,-9992.780217,1762.019645
59315.876530,-74.020594,-9400.615463,995.924147
59315.876839,-444.123565,-9178.553681,689.485948
59315.877149,-74.020594,-8956.491898,995.924147
59315.877459,-2368.659014,-7179.997637,0.000000
59315.877768,-1776.494261,-8068.244768,612.876398
59315.878078,1332.370696,-11103.089130,4136.915689
59315.878387,-814.226536,-7698.141797,0.000000
59315.878697,0.000000,-8956.491898,919.314598
59315.879007,2294.638420,-11843.295072,2374.896044
59315.879316,-1036.288319,-8956.491898,1225.752797
59315.879626,-148.041188,-9252.574275,1149.143247
59315.879935,-592.164754,-9030.512492,842.705048
59315.880245,-444.123565,-8956.491898,766.095498
59315.880555,-1406.391290,-7402.059420,-1225.752797
59315.880864,-1184.329507,-8364.327145,229.828649
59315.881174,0.000000,-8364.327145,2451.505594
59315.881483,-74.020594,-9474.636058,-76.609550
59315.881793,-1776.494261,-7772.162391,0.000000
59315.882103,-1184.329507,-7772.162391,306.438199
59315.882412,-370.102971,-8882.471304,229.828649
59315.882722,-592.164754,-8734.430116,612.876398
59315.883031,-444.123565,-8956.491898,689.485948
59315.883341,-370.102971,-9178.553681,919.314598
59315.883651,296.082377,-10658.965565,3064.381992
59315.883960,-74.020594,-9474.636058,2374.896044
59315.884270,-74.020594,-8290.306550,-76.609550
59315.884579,0.000000,-8364.327145,612.876398
59315.884889,-74.020594,-9474.636058,842.705048
59315.885199,-74.020594,-9252.574275,1608.800546
59315.885508,-296.082377,-9400.615463,919.314598
59315.885818,-296.082377,-9030.512492,766.095498
59315.886127,-296.082377,-8956.491898,689.485948
59315.886437,370.102971,-8956.491898,1072.533697
59315.886747,0.000000,-6143.709319,0.000000
59315.887056,296.082377,-7550.100608,-76.609550
59315.887366,1184.329507,-8956.491898,2451.505594
59315.887675,1110.308913,-7994.224174,-76.609550
59315.887985,1776.494261,-8956.491898,1762.019645
59315.888295,740.205942,-7920.203579,153.219100
59315.888604,2812.782580,-9326.594869,995.924147
59315.888914,2812.782580,-9178.553681,919.314598
59315.889223,3108.864956,-9104.533087,842.705048
59315.889533,2368.659014,-9400.615463,689.485948
59315.889843,3849.070898,-10510.924376,612.876398
59315.890152,3849.070898,-11177.109724,2681.334243
59315.890462,3478.967927,-8882.471304,-689.485948
59315.890772,3849.070898,-9548.656652,1532.190996
59315.891081,4959.379811,-7994.224174,-76.609550
59315.891391,5773.606348,-8364.327145,842.705048
59315.891700,5625.565159,-8142.265362,1532.190996
59315.892010,5551.544565,-8586.388927,1532.190996
59315.892320,5477.523971,-8586.388927,995.924147
59315.892629,5921.647536,-8808.450710,1532.190996
59315.892939,5403.503377,-8364.327145,-766.095498
59315.893248,6439.791695,-7994.224174,-689.485948
59315.893558,5921.647536,-9548.656652,612.876398
59315.893868,7031.956449,-11251.130318,-76.609550
59315.894177,3478.967927,-9548.656652,-1455.581446
59315.894487,2960.823768,-13101.645173,612.876398
59315.894796,2738.761985,-13323.706956,-153.219100
59315.895106,2146.597232,-12287.418637,0.000000
59315.895416,1850.514855,-10066.800811,383.047749
59315.895725,2442.679609,-7402.059420,536.266849
59315.896035,3923.091493,-6291.750507,612.876398
59315.896344,6661.853478,-5551.544565,3983.696590
59315.896654,7624.121203,-3256.906145,2374.896044
59315.896964,7698.141797,-3034.844362,2451.505594
59315.897273,11769.274478,-8290.306550,3600.648841
59315.897583,8216.285956,-8882.471304,-76.609550
59315.897892,2368.659014,-12509.480420,-995.924147
59315.898202,-1554.432478,-16284.530724,-2911.162892
59315.898512,-3627.009116,-18209.066173,-3600.648841
59315.898821,-4145.153275,-15470.304188,-2145.067394
59315.899131,-4589.276840,-12435.459826,-2528.115143
59315.899440,-1258.350101,-7698.141797,-1302.362347
59315.899750,0.000000,-4811.338623,1225.752797
59315.900060,6143.709319,-7105.977043,6665.030833
59315.900369,4071.132681,-4145.153275,5745.716235
59315.900679,3552.988522,-3923.091493,5822.325785
59315.900988,2738.761985,-4737.318029,4826.401637
59315.901298,2442.679609,-3849.070898,3753.867940
59315.901608,3775.050304,-3108.864956,1991.848295
59315.901917,3478.967927,-4737.318029,-76.609550
59315.902227,0.000000,-8364.327145,-2451.505594
59315.902536,-4737.318029,-16062.468941,-3370.820191
59315.902846,-5995.668130,-22502.260637,-1915.238745
59315.903156,-10066.800811,-19023.292709,-7354.516781
59315.903465,-8882.471304,-14285.974681,-4903.011187
59315.903775,-2442.679609,-8290.306550,-2528.115143
59315.904085,0.000000,-4811.338623,1762.019645
59315.904394,2516.700203,-4811.338623,4903.011187
59315.904704,3404.947333,-4515.256246,6281.983084
59315.905013,2960.823768,-5107.421000,7354.516781
59315.905323,5847.626942,-4737.318029,6665.030833
59315.905633,5255.462188,-2072.576638,4826.401637
59315.905942,2960.823768,-2738.761985,4903.011187
59315.906252,-74.020594,-6809.894666,-76.609550
59315.906561,-5921.647536,-13841.851115,-612.876398
59315.906871,-10066.800811,-18431.127956,-4903.011187
59315.907181,-9548.656652,-18949.272115,-6205.373534
59315.907490,-9104.533087,-16580.613101,-5056.230287
59315.907800,-6883.915261,-11399.171507,-3140.991542
59315.908109,-2442.679609,-7105.977043,-76.609550
59315.908419,-2368.659014,-5403.503377,2451.505594
59315.908729,0.000000,-5403.503377,3983.696590
59315.909038,3478.967927,-5921.647536,4826.401637
59315.909348,4737.318029,-3034.844362,6128.763984
59315.909657,7846.182985,-1554.432478,6128.763984
59315.909967,9400.615463,-2368.659014,6358.592633
59315.910277,4737.318029,-4589.276840,3677.258390
59315.910586,-962.267725,-10732.986159,0.000000
59315.910896,-6143.709319,-16358.551318,-4213.525239
59315.911205,-9474.636058,-19023.292709,-4903.011187
59315.911515,-7772.162391,-17764.942608,-5592.497135
59315.911825,-6587.832884,-12139.377449,-5592.497135
59315.912134,-4737.318029,-9548.656652,0.000000
59315.912444,-74.020594,-8290.306550,-76.609550
59315.912753,888.247130,-10066.800811,4826.401637
59315.913063,3552.988522,-4811.338623,4903.011187
59315.913373,7476.080014,-2886.803174,7507.735880
59315.913682,10140.821405,74.020594,7660.954980
59315.913992,10140.821405,-148.041188,6128.763984
59315.914301,5255.462188,-4145.153275,2374.896044
59315.914611,-814.226536,-10732.986159,-612.876398
59315.914921,-5107.421000,-16876.695478,-4596.572988
59315.915230,-7772.162391,-19467.416275,-7277.907231
59315.915540,-8586.388927,-16062.468941,-8273.831378
59315.915849,-7105.977043,-15026.180623,-4903.011187
59315.916159,-4441.235652,-10732.986159,-1915.238745
59315.916469,-666.185348,-8290.306550,-1302.362347
59315.916778,0.000000,-7772.162391,3064.381992
59315.917088,5847.626942,-5921.647536,6971.469032
59315.917398,8216.285956,888.247130,7890.783629
59315.917707,12583.501014,2294.638420,7354.516781
59315.918017,12139.377449,1406.391290,8886.707777
59315.918326,8216.285956,-3552.988522,5439.278036
59315.918636,-1184.329507,-9844.739029,0.000000
59315.918946,-6439.791695,-16506.592507,-4903.011187
59315.919255,-11251.130318,-19171.333898,-9193.145976
59315.919565,-11917.315666,-17690.922014,-10342.289223
59315.919874,-9474.636058,-15174.221811,-8044.002729
59315.920184,-8216.285956,-15766.386565,-3983.696590
59315.920494,-2960.823768,-12657.521608,919.314598
59315.920803,-74.020594,-11843.295072,3524.039291
59315.921113,4737.318029,-4293.194464,6435.202183
59315.921422,10658.965565,-666.185348,12257.527968
59315.921732,14137.933492,4737.318029,10955.165621
59315.922042,13767.830521,4737.318029,9729.412825
59315.922351,7105.977043,-222.061783,6588.421283
59315.922661,-74.020594,-9474.636058,1762.019645
59315.922970,-6661.853478,-16580.613101,-3907.087040
59315.923280,-12139.377449,-19689.478057,-8580.269578
59315.923590,-14878.139434,-16950.716072,-12257.527968
59315.923899,-13249.686362,-17542.880825,-8810.098227
59315.924209,-11325.150913,-16432.571912,-5056.230287
59315.924518,-7402.059420,-13175.665768,-1762.019645
59315.924828,370.102971,-9992.780217,2681.334243
59315.925138,5995.668130,-6217.729913,9729.412825
59315.925447,13323.706956,814.226536,14555.814462
59315.925757,16506.592507,5329.482782,12793.794817
59315.926066,13027.624579,8216.285956,9806.022374
59315.926376,9400.615463,0.000000,6665.030833
59315.926686,-2220.617826,-7772.162391,306.438199
59315.926995,-6513.812290,-15470.304188,-4290.134789
59315.927305,-11325.150913,-19911.539840,-7431.126331
59315.927614,-12213.398043,-17764.942608,-12947.013916
59315.927924,-15396.283594,-14285.974681,-11644.651570
59315.928234,-11843.295072,-14285.974681,-6128.763984
59315.928543,-4811.338623,-13323.706956,-2374.896044
59315.928853,-1184.329507,-8660.409521,2451.505594
59315.929162,8364.327145,-3849.070898,8044.002729
59315.929472,13693.809927,1702.473667,12870.404366
59315.929782,18875.251521,3552.988522,15858.176809
59315.930092,15396.283594,7402.059420,9193.145976
59315.930402,7994.224174,0.000000,6128.763984
59315.930712,-444.123565,-9918.759623,459.657299
59315.931022,-6661.853478,-16284.530724,-5209.449386
59315.931331,-13027.624579,-19023.292709,-11338.213370
59315.931641,-14508.036463,-20651.745782,-11108.384721
59315.931951,-14582.057057,-19541.436869,-12334.137518
59315.932261,-10658.965565,-21391.951724,-4749.792088
59315.932571,-2442.679609,-18357.107362,-76.609550
59315.932881,1184.329507,-13397.727550,4826.401637
59315.933190,7772.162391,-4737.318029,9576.193725
59315.933500,13619.789333,2812.782580,14709.033562
59315.933810,18801.230927,7550.100608,14632.424012
59315.934120,17024.736666,6143.709319,10112.460574
59315.934430,5773.606348,1702.473667,2451.505594
59315.934740,-4441.235652,-11917.315666,-2451.505594
59315.935049,-5995.668130,-18949.272115,-5286.058936
59315.935359,-15766.386565,-17838.963202,-13789.718964
59315.935669,-15692.365970,-19319.375086,-13483.280765
59315.935979,-15988.448347,-21391.951724,-8886.707777
59315.936289,-11621.233289,-21465.972318,-4519.963438
59315.936599,-4145.153275,-15248.242405,459.657299
59315.936908,4071.132681,-10436.903782,5439.278036
59315.937218,14434.015869,-1702.473667,11568.042020
59315.937528,14434.015869,4737.318029,13483.280765
59315.937838,21317.931130,9992.780217,13483.280765
59315.938148,18875.251521,4737.318029,8503.660028
59315.938458,1776.494261,4071.132681,0.000000
59315.938767,-2960.823768,-10140.821405,-2145.067394
59315.939077,-11251.130318,-22576.281231,-6894.859482
59315.939387,-13989.892304,-25315.043216,-12793.794817
59315.939697,-19319.375086,-24500.816680,-12947.013916
59315.940007,-19467.416275,-26203.290347,-9729.412825
59315.940317,-9918.759623,-20947.828159,-5209.449386
59315.940626,-666.185348,-15100.201217,229.828649
59315.940936,4071.132681,-7402.059420,5439.278036
59315.941246,9474.636058,-74.020594,12563.966167
59315.941556,18875.251521,4737.318029,19382.216099
59315.941866,21836.075289,9844.739029,17083.929605
59315.942176,12435.459826,8216.285956,9806.022374
59315.942486,4071.132681,0.000000,2221.676944
59315.942795,-6883.915261,-12731.542202,-4060.306139
59315.943105,-11769.274478,-19911.539840,-10035.851024
59315.943415,-18357.107362,-24352.775492,-14096.157163
59315.943725,-17838.963202,-27239.578666,-12487.356617
59315.944035,-17394.839637,-27239.578666,-8656.879127
59315.944345,-11177.109724,-25537.104999,-3983.696590
59315.944654,0.000000,-25833.187376,6128.763984
59315.944964,7624.121203,-11843.295072,9729.412825
59315.945274,10955.047942,-222.061783,13483.280765
59315.945584,20059.581028,5255.462188,18003.244203
59315.945894,24574.837274,7550.100608,17083.929605
59315.946204,15396.283594,6143.709319,10112.460574
59315.946513,5329.482782,74.020594,2068.457845
59315.946823,-3775.050304,-11843.295072,-2834.553343
59315.947133,-16654.633695,-17764.942608,-12334.137518
59315.947443,-18357.107362,-24944.940245,-17160.539155
59315.947753,-20429.683999,-30422.464216,-12487.356617
59315.948063,-19023.292709,-28423.908173,-10189.070123
59315.948372,-8364.327145,-24130.713709,-4903.011187
59315.948682,7476.080014,-14063.912898,4443.353888
59315.948992,4441.235652,-2664.741391,8273.831378
59315.949302,14582.057057,4515.256246,16317.834107
59315.949612,23094.425390,5773.606348,19228.997000
59315.949922,25981.228564,9474.636058,19458.825649
59315.950231,17394.839637,4737.318029,13100.233016
59315.950541,1110.308913,-592.164754,-6511.811733
59315.950851,-18357.107362,-7772.162391,-12257.527968
59315.951161,-7476.080014,-23686.590144,-11108.384721
59315.951471,-17838.963202,-28868.031738,-17926.634653
59315.951781,-24500.816680,-31014.628970,-15168.690860
59315.952090,-13545.768739,-29016.072926,-4136.915689
59315.952400,-8586.388927,-27461.640448,0.000000
59315.952710,-1998.556043,-13619.789333,6665.030833
59315.953020,7698.141797,-10732.986159,14709.033562
59315.953330,16950.716072,-2294.638420,20224.921147
59315.953640,23612.569550,13027.624579,15858.176809
59315.953950,21021.848753,9400.615463,17160.539155
59315.954259,14211.954086,6735.874072,8580.269578
59315.954569,1406.391290,-2960.823768,-383.047749
59315.954879,-21021.848753,-15470.304188,-8580.269578
59315.955189,-9104.533087,-23464.528361,-17466.977354
59315.955499,-24796.899057,-30570.505405,-19688.654299
59315.955809,-28423.908173,-30792.567187,-11644.651570
59315.956118,-14804.118840,-19023.292709,-11338.213370
59315.956428,0.000000,-4811.338623,-9806.022374
59315.956738,2146.597232,-3552.988522,8044.002729
59315.957048,12953.603985,1998.556043,15245.300410
59315.957358,14211.954086,9992.780217,19612.044749
59315.957668,24796.899057,24278.754898,18922.558801
59315.957977,23538.548956,20207.622217,14325.985813
59315.958287,8882.471304,16876.695478,6281.983084
59315.958597,-4811.338623,4367.215058,-4673.182538
59315.958907,-14285.974681,-12509.480420,-11031.775171
59315.959217,-18949.272115,-19023.292709,-17160.539155
59315.959527,-26055.249158,-26129.269753,-20837.797546
59315.959836,-24944.940245,-31384.731941,-11721.261119
59315.960146,-15322.262999,-21688.034101,-11338.213370
59315.960456,-4737.318029,-26129.269753,2451.505594
59315.960766,7846.182985,-24574.837274,14632.424012
59315.961076,11621.233289,-14137.933492,16777.491406
59315.961386,15692.365970,-1036.288319,21450.673944
59315.961695,24278.754898,10436.903782,16930.710506
59315.962005,22502.260637,4663.297435,13483.280765
59315.962315,7402.059420,5699.585753,5209.449386
59315.962625,-5921.647536,-3034.844362,-9806.022374
59315.962935,-16580.613101,-17246.798449,-10418.898773
59315.963245,-11325.150913,-24574.837274,-14172.766713
59315.963554,-24870.919651,-31754.834912,-15628.348159
59315.963864,-26573.393318,-35603.905810,-11031.775171
59315.964174,2146.597232,-24204.734303,-16700.881856
59315.964484,-10362.883188,-27313.599260,4903.011187
59315.964794,10140.821405,-7846.182985,11797.870669
59315.965104,12435.459826,-962.267725,15245.300410
59315.965414,18875.251521,8586.388927,17696.806004
59315.965723,22206.178260,16506.592507,13559.890315
59315.966033,19541.436869,12361.439231,10418.898773
59315.966343,7624.121203,10066.800811,-76.609550
59315.966653,-4737.318029,-6439.791695,-2528.115143
59315.966963,-14804.118840,-23760.610738,-11644.651570
59315.967273,-20799.786970,-26869.475695,-16624.272307
59315.967582,-21762.054695,-34493.596897,-16241.224558
59315.967892,-22428.240043,-38416.688390,-10572.117872
59315.968202,-16284.530724,-30792.567187,-7431.126331
59315.968512,2886.803174,-24870.919651,6665.030833
59315.968822,8216.285956,-10510.924376,8503.660028
59315.969132,9474.636058,-3627.009116,17773.415554
59315.969441,22428.240043,5329.482782,22982.864940
59315.969751,26277.310941,19689.478057,13406.671215
59315.970061,16580.613101,11769.274478,11031.775171
59315.970371,5847.626942,7920.203579,-4290.134789
59315.970681,-8290.306550,-1184.329507,-10112.460574
59315.970991,-11917.315666,-16136.489536,-13559.890315
59315.971300,-20059.581028,-24870.919651,-16624.272307
59315.971610,-22576.281231,-33161.226202,-15628.348159
59315.971920,-17246.798449,-34345.555709,-8656.879127
59315.972230,-5995.668130,-19393.395680,-7277.907231
59315.972540,-2368.659014,-3627.009116,-3677.258390
59315.972850,9326.594869,2590.720797,9806.022374
59315.973159,15766.386565,2886.803174,18079.853753
59315.973469,22206.178260,16432.571912,20224.921147
59315.973779,23316.487173,25463.084405,14785.643111
59315.974089,15692.365970,15766.386565,9039.926876
59315.974399,1702.473667,7920.203579,-76.609550
59315.974709,-10658.965565,-5551.544565,-6741.640382
59315.975018,-15988.448347,-14211.954086,-16700.881856
59315.975328,-24352.775492,-21317.931130,-19688.654299
59315.975638,-25463.084405,-29090.093521,-17160.539155
59315.975948,-16136.489536,-27905.764013,-10418.898773
59315.976258,-5995.668130,-22502.260637,-5592.497135
59315.976568,2590.720797,-16062.468941,6281.983084
59315.976878,6661.853478,-22576.281231,16854.100956
59315.977187,15914.427753,-5107.421000,19305.606550
59315.977497,19541.436869,9400.615463,19918.482948
59315.977807,21317.931130,15322.262999,14019.547613
59315.978117,14359.995275,8808.450710,6741.640382
59315.978427,-74.020594,4737.318029,-1915.238745
59315.978737,-15396.283594,-4811.338623,-17160.539155
59315.979046,-13619.789333,-11917.315666,-18922.558801
59315.979356,-17246.798449,-24870.919651,-15398.519510
59315.979666,-24870.919651,-30348.443622,-12104.308868
59315.979976,-14137.933492,-25907.207970,-7354.516781
59315.980286,-2664.741391,-19911.539840,-2068.457845
59315.980596,11843.295072,-9548.656652,0.000000
59315.980905,2368.659014,-5699.585753,14632.424012
59315.981215,17172.777854,1702.473667,20837.797546
59315.981525,26499.372724,5921.647536,19535.435199
59315.981835,20059.581028,15396.283594,13406.671215
59315.982145,6217.729913,5773.606348,5132.839837
59315.982455,-1258.350101,0.000000,-2834.553343
59315.982764,-18801.230927,-2516.700203,-11874.480219
59315.983074,-10955.047942,-12731.542202,-15321.909960
59315.983384,-17246.798449,-27757.722825,-15168.690860
59315.983694,-22502.260637,-30866.587781,-12257.527968
59315.984004,-10066.800811,-21910.095883,-4060.306139
59315.984314,-5477.523971,-22132.157666,1225.752797
59315.984623,1184.329507,-14582.057057,6128.763984
59315.984933,6439.791695,-3552.988522,13406.671215
59315.985243,15248.242405,1776.494261,15245.300410
59315.985553,21688.034101,12657.521608,12257.527968
59315.985863,16506.592507,9622.677246,12027.699319
59315.986173,7105.977043,5625.565159,3600.648841
59315.986482,-5477.523971,-1258.350101,-6281.983084
59315.986792,-13841.851115,-5551.544565,-11721.261119
59315.987102,-16358.551318,-18949.272115,-14785.643111
59315.987412,-15618.345376,-29016.072926,-13713.109414
59315.987722,-17172.777854,-35011.741057,-5515.887586
59315.988032,-6513.812290,-35011.741057,1838.629195
59315.988342,1110.308913,-21910.095883,4519.963438
59315.988651,5329.482782,-7179.997637,8580.269578
59315.988961,8216.285956,-2960.823768,14325.985813
59315.989271,15248.242405,8882.471304,14019.547613
59315.989581,20429.683999,13989.892304,14096.157163
59315.989891,14730.098246,14211.954086,8963.317327
59315.990201,1406.391290,5551.544565,919.314598
59315.990510,-9548.656652,-8290.306550,-2528.115143
59315.990820,-14804.118840,-13693.809927,-11951.089769
59315.991130,-15248.242405,-20355.663405,-13330.061665
59315.991440,-17246.798449,-26869.475695,-11491.432470
59315.991750,-14804.118840,-25537.104999,-6128.763984
59315.992060,-4441.235652,-24796.899057,-306.438199
59315.992369,3701.029710,-17394.839637,10342.289223
59315.992679,8734.430116,-3923.091493,7660.954980
59315.992989,10584.944971,-2220.617826,13713.109414
59315.993299,16432.571912,3997.112087,14709.033562
59315.993609,20059.581028,11843.295072,9422.974625
59315.993919,8290.306550,11769.274478,0.000000
59315.994228,296.082377,2886.803174,-1225.752797
59315.994538,-5921.647536,-6883.915261,-4903.011187
59315.994848,-11843.295072,-14285.974681,-10801.946522
59315.995158,-14211.954086,-18579.169144,-12640.575717
59315.995468,-14582.057057,-25611.125593,-8503.660028
59315.995778,-10510.924376,-35455.864622,612.876398
59315.996087,-666.185348,-28423.908173,2451.505594
59315.996397,1776.494261,-24796.899057,6741.640382
59315.996707,8808.450710,-12731.542202,11414.822920
59315.997017,10584.944971,-3552.988522,12180.918418
59315.997327,11843.295072,4663.297435,11644.651570
59315.997637,15396.283594,7920.203579,9806.022374
59315.997946,5773.606348,1332.370696,4826.401637
59315.998256,-4293.194464,-3627.009116,-3370.820191
59315.998566,-11917.315666,-11843.295072,-8427.050478
59315.998876,-13175.665768,-18061.024985,-10725.336972
59315.999186,-11547.212695,-22428.240043,-10725.336972
59315.999496,-16580.613101,-26129.269753,-4903.011187
59315.999806,-4811.338623,-25907.207970,-76.609550
59316.000115,2294.638420,-20577.725188,4519.963438
59316.000425,2368.659014,-11917.315666,9806.022374
59316.000735,9474.636058,-74.020594,7507.735880
59316.001045,11769.274478,2738.761985,11568.042020
59316.001355,15766.386565,11547.212695,9652.803275
59316.001665,16580.613101,10066.800811,5898.935335
59316.001974,5773.606348,5921.647536,306.438199
59316.002284,-5921.647536,1110.308913,-6741.640382
59316.002594,-7105.977043,-7179.997637,-6741.640382
59316.002904,-11843.295072,-13101.645173,-10725.336972
59316.003214,-11917.315666,-18357.107362,-9882.631924
59316.003524,-11843.295072,-21391.951724,-7354.516781
59316.003833,-3034.844362,-18801.230927,-1302.362347
59316.004143,4367.215058,-16580.613101,4519.963438
59316.004453,8586.388927,-9104.533087,8580.269578
59316.004763,8512.368333,-3256.906145,11874.480219
59316.005073,11695.253884,3923.091493,11721.261119
59316.005383,13027.624579,7031.956449,8886.707777
59316.005692,8882.471304,9104.533087,3677.258390
59316.006002,0.000000,-666.185348,0.000000
59316.006312,-5995.668130,-9474.636058,-3140.991542
59316.006622,-15100.201217,-14285.974681,-11644.651570
59316.006932,-10732.986159,-20133.601622,-9882.631924
59316.007242,-12213.398043,-26055.249158,-6894.859482
59316.007551,-10955.047942,-26351.331535,-2068.457845
59316.007861,-2442.679609,-21836.075289,2298.286494
59316.008171,3182.885551,-20577.725188,7277.907231
59316.008481,6883.915261,-9548.656652,8810.098227
59316.008791,10658.965565,1258.350101,10495.508323
59316.009101,5921.647536,5847.626942,9806.022374
59316.009410,13175.665768,13027.624579,8197.221829
59316.009720,5847.626942,7698.141797,2374.896044
59316.010030,-1554.432478,0.000000,-689.485948
59316.010340,-9178.553681,-6587.832884,-9193.145976
59316.010650,-13545.768739,-14359.995275,-11184.994271
59316.010960,-12583.501014,-20503.704593,-10418.898773
59316.011269,-12805.562797,-23612.569550,-7354.516781
59316.011579,-6587.832884,-22058.137072,-2221.676944
59316.011889,3923.091493,-17764.942608,2068.457845
59316.012199,-74.020594,-14211.954086,6818.249932
59316.012509,9474.636058,-3627.009116,9806.022374
59316.012819,14137.933492,0.000000,14019.547613
59316.013129,13841.851115,7698.141797,12104.308868
59316.013438,11547.212695,11177.109724,6741.640382
59316.013748,5107.421000,6365.771101,1149.143247
59316.014058,-5255.462188,888.247130,-5132.839837
59316.014368,-10510.924376,-8290.306550,-9576.193725
59316.014678,-12213.398043,-16580.613101,-11184.994271
59316.014988,-11843.295072,-22576.281231,-7967.393179
59316.015297,-10140.821405,-22502.260637,-4366.744339
59316.015607,-6513.812290,-20207.622217,0.000000
59316.015917,0.000000,-20799.786970,6128.763984
59316.016227,8586.388927,-13101.645173,10418.898773
59316.016537,7698.141797,-5107.421000,9806.022374
59316.016847,9474.636058,1258.350101,10189.070123
59316.017156,10436.903782,5033.400406,9729.412825
59316.017466,9992.780217,6513.812290,4366.744339
59316.017776,3330.926739,666.185348,-76.609550
59316.018086,-4145.153275,-6143.709319,-3677.258390
59316.018396,-9548.656652,-13027.624579,-9269.755526
59316.018706,-12731.542202,-16062.468941,-13483.280765
59316.019015,-9770.718434,-22428.240043,-6818.249932
59316.019325,-9474.636058,-21688.034101,-3064.381992
59316.019635,-5255.462188,-23168.445985,919.314598
59316.019945,3256.906145,-17616.901420,6128.763984
59316.020255,6513.812290,-13989.892304,9576.193725
59316.020565,11251.130318,-2886.803174,11951.089769
59316.020874,12583.501014,2294.638420,12257.527968
59316.021184,10881.027347,8142.265362,8656.879127
59316.021494,9178.553681,6661.853478,3907.087040
59316.021804,-666.185348,2294.638420,-4903.011187
59316.022114,-9474.636058,-6883.915261,-6435.202183
59316.022424,-14211.954086,-12509.480420,-11644.651570
59316.022733,-13101.645173,-18357.107362,-11108.384721
59316.023043,-13249.686362,-22132.157666,-7584.345430
59316.023353,-6217.729913,-20133.601622,-4673.182538
59316.023663,-2442.679609,-20059.581028,3294.210641
59316.023973,4737.318029,-16654.633695,8350.440928
59316.024283,7105.977043,-7772.162391,9806.022374
59316.024593,11103.089130,-1406.391290,12793.794817
59316.024902,11769.274478,3552.988522,9729.412825
59316.025212,7402.059420,9400.615463,4903.011187
59316.025522,5181.441594,4071.132681,0.000000
59316.025832,-74.020594,-1184.329507,-3753.867940
59316.026142,-9178.553681,-9252.574275,-8350.440928
59316.026452,-11103.089130,-15174.221811,-10418.898773
59316.026761,-11251.130318,-16728.654289,-10955.165621
59316.027071,-11695.253884,-23612.569550,-4596.572988
59316.027381,-8290.306550,-22872.363608,-2451.505594
59316.027691,-1776.494261,-23760.610738,4290.134789
59316.028001,7920.203579,-20429.683999,11261.603821
59316.028311,8808.450710,-9474.636058,9729.412825
59316.028620,11177.109724,592.164754,11261.603821
59316.028930,12953.603985,4737.318029,10955.165621
59316.029240,9992.780217,7994.224174,6665.030833
59316.029550,5181.441594,4811.338623,2374.896044
59316.029860,-3182.885551,-1258.350101,-4519.963438
59316.030170,-11621.233289,-8438.347739,-8044.002729
59316.030479,-13989.892304,-15988.448347,-11721.261119
59316.030789,-13619.789333,-19615.457463,-10725.336972
59316.031099,-9548.656652,-27239.578666,-1915.238745
59316.031409,-7179.997637,-21539.992912,-1915.238745
59316.031719,1702.473667,-20725.766376,4826.401637
59316.032029,6883.915261,-16580.613101,9499.584175
59316.032339,12731.542202,-4737.318029,9882.631924
59316.032649,10510.924376,-2294.638420,12870.404366
59316.032958,10288.862594,6291.750507,9499.584175
59316.033268,10584.944971,7550.100608,4136.915689
59316.033578,3404.947333,-5255.462188,3370.820191
59316.033888,-4737.318029,-4515.256246,-5286.058936
59316.034198,-11251.130318,-14285.974681,-9193.145976
59316.034508,-10140.821405,-18357.107362,-9882.631924
59316.034818,-9548.656652,-26055.249158,-9882.631924
59316.035128,-11103.089130,-26573.393318,-6128.763984
59316.035438,-5921.647536,-28497.928767,1532.190996
59316.035747,1258.350101,-24500.816680,7277.907231
59316.036057,8290.306550,-17320.819043,9499.584175
59316.036367,11769.274478,-7105.977043,12487.356617
59316.036677,12065.356855,148.041188,12487.356617
59316.036987,9474.636058,6439.791695,10112.460574
59316.037297,9400.615463,0.000000,7890.783629
59316.037607,814.226536,296.082377,-1915.238745
59316.037917,-7476.080014,-8290.306550,-4366.744339
59316.038227,-13619.789333,-15618.345376,-9806.022374
59316.038537,-13989.892304,-19985.560434,-12563.966167
59316.038846,-15026.180623,-24870.919651,-8197.221829
59316.039156,-9548.656652,-26055.249158,-3140.991542
59316.039466,-2738.761985,-24278.754898,4290.134789
59316.039776,4367.215058,-21317.931130,9116.536426
59316.040086,8512.368333,-11843.295072,10035.851024
59316.040396,9474.636058,-4811.338623,14709.033562
59316.040706,12657.521608,3552.988522,11568.042020
59316.041016,10807.006753,4737.318029,9422.974625
59316.041326,5033.400406,5255.462188,1838.629195
59316.041635,-962.267725,0.000000,-1915.238745
59316.041945,-7920.203579,-6365.771101,-7277.907231
59316.042255,-10807.006753,-12805.562797,-10418.898773
59316.042565,-13101.645173,-17542.880825,-12257.527968
59316.042875,-11399.171507,-23686.590144,-5592.497135
59316.043185,-7179.997637,-23464.528361,-3294.210641
59316.043495,-3552.988522,-20207.622217,2451.505594
59316.043805,5551.544565,-21317.931130,9422.974625
59316.044115,10214.842000,-11621.233289,13636.499864
59316.044425,10955.047942,-1702.473667,11797.870669
59316.044734,12953.603985,6439.791695,11261.603821
59316.045044,10881.027347,6883.915261,7737.564530
59316.045354,6143.709319,5107.421000,2298.286494
59316.045664,-2738.761985,-370.102971,-4903.011187
59316.045974,-10140.821405,-9844.739029,-7124.688131
59316.046284,-11325.150913,-15396.283594,-11261.603821
59316.046594,-14878.139434,-17912.983796,-13100.233016
59316.046904,-14211.954086,-21391.951724,-7354.516781
59316.047214,-7105.977043,-21391.951724,-1225.752797
59316.047523,-666.185348,-20133.601622,4366.744339
59316.047833,7105.977043,-13693.809927,8886.707777
59316.048143,9992.780217,-9030.512492,12257.527968
59316.048453,11843.295072,296.082377,12717.185267
59316.048763,11843.295072,7624.121203,9116.536426
59316.049073,7772.162391,8438.347739,4673.182538
59316.049383,2960.823768,1110.308913,0.000000
59316.049693,-666.185348,-4737.318029,-3753.867940
59316.050003,-11991.336260,-10510.924376,-9806.022374
59316.050313,-14211.954086,-14285.974681,-12870.404366
59316.050622,-13101.645173,-20281.642811,-12334.137518
59316.050932,-12213.398043,-25907.207970,-4903.011187
59316.051242,-5033.400406,-23834.631332,-1685.410096
59316.051552,-370.102971,-20503.704593,4903.011187
59316.051862,7402.059420,-14434.015869,9039.926876
59316.052172,9474.636058,-5995.668130,12870.404366
59316.052482,14285.974681,0.000000,14632.424012
59316.052792,12361.439231,9622.677246,8503.660028
59316.053102,7105.977043,9400.615463,4903.011187
59316.053412,2368.659014,6143.709319,0.000000
59316.053721,-4811.338623,-2664.741391,-6205.373534
59316.054031,-14582.057057,-11325.150913,-11568.042020
59316.054341,-14582.057057,-16876.695478,-12947.013916
59316.054651,-15544.324782,-22058.137072,-11031.775171
59316.054961,-10807.006753,-28127.825796,-2221.676944
59316.055271,-6513.812290,-21688.034101,0.000000
59316.055581,-2072.576638,-23168.445985,7354.516781
59316.055891,11769.274478,-14211.954086,10955.165621
59316.056201,9992.780217,-3552.988522,11568.042020
59316.056510,11177.109724,2368.659014,12180.918418
59316.056820,11473.192101,9696.697840,9116.536426
59316.057130,6883.915261,6809.894666,4213.525239
59316.057440,1998.556043,2294.638420,-1225.752797
59316.057750,-7476.080014,-5033.400406,-7354.516781
59316.058060,-12805.562797,-13915.871710,-10495.508323
59316.058370,-13989.892304,-15766.386565,-14785.643111
59316.058680,-15988.448347,-22576.281231,-12257.527968
59316.058990,-6883.915261,-26055.249158,-995.924147
59316.059300,-2442.679609,-22206.178260,1149.143247
59316.059609,4663.297435,-18949.272115,7277.907231
59316.059919,10214.842000,-5403.503377,8656.879127
59316.060229,11399.171507,-5625.565159,15245.300410
59316.060539,14952.160028,5625.565159,12257.527968
59316.060849,11325.150913,5625.565159,10648.727422
59316.061159,9104.533087,5181.441594,5439.278036
59316.061469,2442.679609,3701.029710,-2221.676944
59316.061779,-10658.965565,-7179.997637,-9806.022374
59316.062089,-10658.965565,-15544.324782,-10801.946522
59316.062398,-14285.974681,-21317.931130,-13559.890315
59316.062708,-15470.304188,-27239.578666,-7431.126331
59316.063018,-10066.800811,-25685.146187,-3600.648841
59316.063328,-3108.864956,-31458.752535,5362.668486
59316.063638,4885.359217,-16580.613101,9193.145976
59316.063948,7772.162391,-10214.842000,10955.165621
59316.064258,11843.295072,-2738.761985,15934.786358
59316.064568,13397.727550,5551.544565,12410.747068
59316.064878,9400.615463,5921.647536,8503.660028
59316.065188,3552.988522,4663.297435,2451.505594
59316.065497,-592.164754,-4441.235652,-2145.067394
59316.065807,-9178.553681,-11695.253884,-7124.688131
59316.066117,-13471.748144,-11621.233289,-14249.376263
59316.066427,-15322.262999,-17542.880825,-14249.376263
59316.066737,-14137.933492,-27313.599260,-6818.249932
59316.067047,-7105.977043,-25833.187376,-3294.210641
59316.067357,-3552.988522,-22576.281231,3677.258390
59316.067667,3997.112087,-19171.333898,9346.365076
59316.067977,11769.274478,-9474.636058,13406.671215
59316.068286,9474.636058,-74.020594,12870.404366
59316.068596,15396.283594,8216.285956,13483.280765
59316.068906,11843.295072,8808.450710,9959.241474
59316.069216,7624.121203,6365.771101,3830.477490
59316.069526,-3701.029710,74.020594,-5209.449386
59316.069836,-10881.027347,-8068.244768,-9499.584175
59316.070146,-13101.645173,-13323.706956,-15245.300410
59316.070456,-17764.942608,-22576.281231,-14709.033562
59316.070766,-16580.613101,-27017.516883,-6741.640382
59316.071076,-7698.141797,-25537.104999,0.000000
59316.071385,-74.020594,-26055.249158,5439.278036
59316.071695,4811.338623,-16654.633695,9422.974625
59316.072005,10214.842000,-3627.009116,12410.747068
59316.072315,14730.098246,0.000000,15704.957709
59316.072625,15174.221811,10214.842000,11721.261119
59316.072935,10288.862594,8660.409521,7967.393179
59316.073245,5551.544565,2886.803174,2068.457845
59316.073555,-3923.091493,-888.247130,-5439.278036
59316.073865,-13915.871710,-10288.862594,-11031.775171
59316.074174,-13323.706956,-17246.798449,-12257.527968
59316.074484,-16062.468941,-23094.425390,-13559.890315
59316.074794,-16580.613101,-26721.434506,-7354.516781
59316.075104,-6513.812290,-23760.610738,-2451.505594
59316.075414,444.123565,-23908.651927,5439.278036
59316.075724,7846.182985,-13397.727550,9346.365076
59316.076034,11621.233289,-4885.359217,13636.499864
59316.076344,14508.036463,3108.864956,14172.766713
59316.076654,15322.262999,7254.018232,12180.918418
59316.076964,7698.141797,8216.285956,7507.735880
59316.077273,1184.329507,4663.297435,1225.752797
59316.077583,-3034.844362,-8290.306550,-3753.867940
59316.077893,-13397.727550,-12435.459826,-11721.261119
59316.078203,-14878.139434,-16210.510130,-16547.662757
59316.078513,-17912.983796,-25907.207970,-11261.603821
59316.078823,-15100.201217,-27979.784608,-5669.106685
59316.079133,-6513.812290,-24944.940245,-766.095498
59316.079443,1184.329507,-23094.425390,7584.345430
59316.079753,9400.615463,-14211.954086,12793.794817
59316.080062,12361.439231,-3256.906145,13789.718964
59316.080372,11843.295072,7031.956449,12870.404366
59316.080682,16580.613101,9400.615463,12257.527968
59316.080992,10584.944971,5921.647536,7277.907231
59316.081302,4071.132681,3552.988522,-2374.896044
59316.081612,-5921.647536,-6587.832884,-3524.039291
59316.081922,-11251.130318,-11695.253884,-12717.185267
59316.082232,-14952.160028,-16210.510130,-15398.519510
59316.082542,-16284.530724,-23612.569550,-10189.070123
59316.082852,-11029.068536,-28423.908173,-2834.553343
59316.083161,-4367.215058,-26943.496289,1838.629195
59316.083471,4663.297435,-23686.590144,7277.907231
59316.083781,8290.306550,-5403.503377,7354.516781
59316.084091,11843.295072,-3034.844362,15781.567259
59316.084401,17690.922014,7698.141797,13406.671215
59316.084711,15988.448347,14137.933492,10418.898773
59316.085021,10214.842000,12731.542202,5132.839837
59316.085331,1406.391290,6809.894666,-2221.676944
59316.085641,-6957.935855,-2664.741391,-8273.831378
59316.085950,-15100.201217,-11917.315666,-11644.651570
59316.086260,-15470.304188,-18209.066173,-11721.261119
59316.086570,-19023.292709,-27239.578666,-11721.261119
59316.086880,-13841.851115,-24352.775492,-6818.249932
59316.087190,-5921.647536,-21984.116477,612.876398
59316.087500,3478.967927,-19689.478057,9116.536426
59316.087810,11029.068536,-5551.544565,9959.241474
59316.088120,12435.459826,-2294.638420,15245.300410
59316.088430,15692.365970,10807.006753,12257.527968
59316.088740,12879.583391,10881.027347,7354.516781
59316.089049,5329.482782,8216.285956,4903.011187
59316.089359,-1184.329507,1406.391290,-3064.381992
59316.089669,-7179.997637,-9474.636058,-6818.249932
59316.089979,-13693.809927,-17838.963202,-14402.595362
59316.090289,-17172.777854,-24944.940245,-12870.404366
59316.090599,-16580.613101,-33161.226202,-6358.592633
59316.090909,-9104.533087,-29016.072926,-3753.867940
59316.091219,-2812.782580,-28349.887579,3677.258390
59316.091529,4737.318029,-20947.828159,9193.145976
59316.091838,10214.842000,-10140.821405,9959.241474
59316.092148,12435.459826,-1258.350101,15015.471761
59316.092458,17764.942608,5847.626942,13483.280765
59316.092768,16506.592507,5033.400406,10955.165621
59316.093078,5107.421000,7624.121203,2221.676944
59316.093388,-3552.988522,-74.020594,-4596.572988
59316.093698,-11843.295072,-13027.624579,-6818.249932
59316.094008,-13397.727550,-16062.468941,-12334.137518
59316.094318,-17246.798449,-22280.198854,-13636.499864
59316.094628,-17912.983796,-28571.949361,-7354.516781
59316.094937,-9400.615463,-23612.569550,-3677.258390
59316.095247,-4737.318029,-21391.951724,4903.011187
59316.095557,9326.594869,-13249.686362,9806.022374
59316.095867,11177.109724,-16580.613101,15858.176809
59316.096177,11843.295072,-3034.844362,16547.662757
59316.096487,15396.283594,3330.926739,12257.527968
59316.096797,10658.965565,0.000000,9422.974625
59316.097107,4515.256246,-2368.659014,919.314598
59316.097417,-6217.729913,-7920.203579,-4290.134789
59316.097726,-12435.459826,-14730.098246,-10572.117872
59316.098036,-13027.624579,-18727.210333,-15934.786358
59316.098346,-18653.189738,-21391.951724,-14709.033562
59316.098656,-16580.613101,-28497.928767,-6128.763984
59316.098966,-5625.565159,-25981.228564,-306.438199
59316.099276,-74.020594,-25167.002028,5439.278036
59316.099586,5921.647536,-14878.139434,9806.022374
59316.099896,13323.706956,-6291.750507,15934.786358
59316.100206,15174.221811,1776.494261,15628.348159
59316.100516,17098.757260,10436.903782,11338.213370
59316.100825,11251.130318,8142.265362,6665.030833
59316.101135,2072.576638,4663.297435,0.000000
59316.101445,-5995.668130,-2368.659014,-8810.098227
59316.101755,-15840.407159,-11917.315666,-13483.280765
59316.102065,-13397.727550,-18949.272115,-13023.623466
59316.102375,-16654.633695,-25315.043216,-12027.699319
59316.102685,-17172.777854,-26129.269753,-4673.182538
59316.102995,-4737.318029,-20503.704593,-2451.505594
59316.103305,1702.473667,-20133.601622,8044.002729
59316.103614,9696.697840,-10066.800811,12257.527968
59316.103924,12953.603985,-518.144159,14019.547613
59316.104234,15544.324782,7105.977043,14632.424012
59316.104544,15322.262999,12435.459826,9729.412825
59316.104854,7920.203579,10066.800811,3600.648841
59316.105164,0.000000,4663.297435,-3677.258390
59316.105474,-7179.997637,-7105.977043,-6818.249932
59316.105784,-13619.789333,-11917.315666,-13483.280765
59316.106094,-14508.036463,-16654.633695,-15934.786358
59316.106404,-17912.983796,-26055.249158,-10648.727422
59316.106713,-11843.295072,-27239.578666,-3217.601092
59316.107023,-2960.823768,-23982.672521,919.314598
59316.107333,4071.132681,-20725.766376,7890.783629
59316.107643,10584.944971,-9030.512492,9729.412825
59316.107953,16284.530724,-7105.977043,18769.339701
59316.108263,15026.180623,9104.533087,10342.289223
59316.108573,14211.954086,11769.274478,9806.022374
59316.108883,11473.192101,4145.153275,8120.612279
59316.109193,592.164754,4367.215058,-2451.505594
59316.109502,-10510.924376,-9400.615463,-8273.831378
59316.109812,-14285.974681,-15692.365970,-12334.137518
59316.110122,-16432.571912,-20429.683999,-15551.738609
59316.110432,-19615.457463,-30496.484810,-8656.879127
59316.110742,-9548.656652,-26055.249158,-2528.115143
59316.111052,-2442.679609,-23686.590144,2374.896044
59316.111362,2368.659014,-15470.304188,9806.022374
59316.111672,13545.768739,-7105.977043,14019.547613
59316.111982,13397.727550,2812.782580,14709.033562
59316.112292,14359.995275,13989.892304,10801.946522
59316.112601,12509.480420,11473.192101,7660.954980
59316.112911,6069.688724,7105.977043,1838.629195
59316.113221,-3108.864956,1998.556043,-5362.668486
59316.113531,-11621.233289,-10362.883188,-8963.317327
59316.113841,-12213.398043,-14211.954086,-12334.137518
59316.114151,-16062.468941,-21910.095883,-12947.013916
59316.114461,-17987.004391,-26203.290347,-9346.365076
59316.114771,-8882.471304,-23168.445985,-3677.258390
59316.115081,-74.020594,-24278.754898,3983.696590
59316.115391,6439.791695,-13767.830521,9422.974625
59316.115700,13841.851115,-5995.668130,14709.033562
59316.116010,16210.510130,3182.885551,17620.196454
59316.116320,19615.457463,15544.324782,10801.946522
59316.116630,14137.933492,11177.109724,9806.022374
59316.116940,7402.059420,8808.450710,3064.381992
59316.117250,-2738.761985,0.000000,-3907.087040
59316.117560,-11325.150913,-8882.471304,-11108.384721
59316.117870,-15988.448347,-13101.645173,-15628.348159
59316.118180,-17616.901420,-21984.116477,-14632.424012
59316.118489,-16062.468941,-28127.825796,-7737.564530
59316.118799,-8734.430116,-24278.754898,-3600.648841
59316.119109,-1406.391290,-23094.425390,5132.839837
59316.119419,7031.956449,-13027.624579,11108.384721
59316.119729,10658.965565,-3034.844362,13483.280765
59316.120039,14804.118840,4663.297435,17160.539155
59316.120349,16580.613101,11769.274478,12257.527968
59316.120659,13545.768739,7105.977043,8503.660028
59316.120969,3478.967927,5847.626942,-689.485948
59316.121279,-6809.894666,-74.020594,-5439.278036
59316.121588,-10732.986159,-14211.954086,-9269.755526
59316.121898,-11843.295072,-15396.283594,-15168.690860
59316.122208,-16284.530724,-24352.775492,-13023.623466
59316.122518,-14952.160028,-29830.299463,-6205.373534
59316.122828,-7994.224174,-24056.693115,-4290.134789
59316.123138,0.000000,-21391.951724,4903.011187
59316.123448,7698.141797,-20207.622217,12257.527968
59316.123758,14137.933492,-11843.295072,17083.929605
59316.124068,14285.974681,-1850.514855,13559.890315
59316.124377,16284.530724,2072.576638,14325.985813
59316.124687,12583.501014,6513.812290,7660.954980
59316.124997,3182.885551,3627.009116,536.266849
59316.125307,-1776.494261,-74.020594,-6741.640382
59316.125617,-13841.851115,-10955.047942,-10112.460574
59316.125927,-14063.912898,-10881.027347,-15934.786358
59316.126237,-18949.272115,-20207.622217,-13483.280765
59316.126547,-17764.942608,-23760.610738,-6128.763984
59316.126857,-8290.306550,-25092.981434,2221.676944
59316.127167,1110.308913,-19837.519246,6052.154434
59316.127476,6439.791695,-8882.471304,10725.336972
59316.127786,10658.965565,-370.102971,12870.404366
59316.128096,14730.098246,6513.812290,13559.890315
59316.128406,13545.768739,14211.954086,7507.735880
59316.128716,6957.935855,4885.359217,6128.763984
59316.129026,518.144159,6809.894666,-2528.115143
59316.129336,-9548.656652,-3849.070898,-8656.879127
59316.129646,-16580.613101,-13101.645173,-12257.527968
59316.129956,-13619.789333,-17838.963202,-13483.280765
59316.130265,-15766.386565,-27239.578666,-8044.002729
59316.130575,-10807.006753,-27313.599260,-3677.258390
59316.130885,-2368.659014,-22576.281231,919.314598
59316.131195,3182.885551,-19985.560434,8120.612279
59316.131505,10584.944971,-8808.450710,11184.994271
59316.131815,13693.809927,-2220.617826,14096.157163
59316.132125,16506.592507,2368.659014,13406.671215
59316.132435,12953.603985,8438.347739,9116.536426
59316.132745,5847.626942,7105.977043,2987.772442
59316.133054,-2368.659014,2886.803174,-3677.258390
59316.133364,-8364.327145,-9326.594869,-6205.373534
59316.133674,-10140.821405,-16580.613101,-6511.811733
59316.133984,-12509.480420,-21169.889941,-12947.013916
59316.134294,-17690.922014,-22502.260637,-9729.412825
59316.134604,-11103.089130,-24426.796086,-3140.991542
59316.134914,-1258.350101,-23020.404796,3677.258390
59316.135224,2368.659014,-15470.304188,9806.022374
59316.135533,10658.965565,-5995.668130,11644.651570
59316.135843,13915.871710,222.061783,15934.786358
59316.136153,15914.427753,5921.647536,10955.165621
59316.136463,9696.697840,10584.944971,5439.278036
59316.136773,4959.379811,5033.400406,842.705048
59316.137083,-2442.679609,0.000000,-4979.620737
59316.137393,-10955.047942,-9400.615463,-8733.488677
59316.137703,-11251.130318,-15470.304188,-12257.527968
59316.138012,-13323.706956,-20281.642811,-12870.404366
59316.138322,-15988.448347,-23760.610738,-7354.516781
59316.138632,-7105.977043,-22576.281231,-3677.258390
59316.138942,1776.494261,-19615.457463,5515.887586
59316.139252,11177.109724,-14211.954086,10342.289223
59316.139562,12805.562797,-1258.350101,9116.536426
59316.139872,15174.221811,3182.885551,12793.794817
59316.140182,16506.592507,6069.688724,11874.480219
59316.140491,10881.027347,8882.471304,5439.278036
59316.140801,4071.132681,5255.462188,-229.828649
59316.141111,-4515.256246,-1628.453072,-6741.640382
59316.141421,-14211.954086,-7179.997637,-11031.775171
59316.141731,-14211.954086,-13101.645173,-14709.033562
59316.142041,-14211.954086,-24352.775492,-8580.269578
59316.142351,-10732.986159,-24870.919651,-5286.058936
59316.142661,-5329.482782,-20207.622217,0.000000
59316.142971,1702.473667,-23686.590144,9729.412825
59316.143280,9696.697840,-12139.377449,12257.527968
59316.143590,12065.356855,-4737.318029,13406.671215
59316.143900,13397.727550,4737.318029,12717.185267
59316.144210,12435.459826,9104.533087,8427.050478
59316.144520,6143.709319,4663.297435,5286.058936
59316.144830,-3034.844362,2664.741391,-4060.306139
59316.145140,-11547.212695,-2442.679609,-9193.145976
59316.145450,-11991.336260,-13027.624579,-11108.384721
59316.145759,-14434.015869,-16580.613101,-14785.643111
59316.146069,-15544.324782,-24648.857869,-7201.297681
59316.146379,-10362.883188,-24352.775492,-2451.505594
59316.146689,-2442.679609,-22872.363608,2681.334243
59316.146999,4885.359217,-17764.942608,8886.707777
59316.147309,11325.150913,-11695.253884,12027.699319
59316.147619,14137.933492,-2960.823768,14019.547613
59316.147929,14137.933492,4737.318029,12180.918418
59316.148238,9992.780217,7328.038826,7354.516781
59316.148548,4737.318029,4663.297435,2451.505594
59316.148858,-74.020594,0.000000,-2528.115143
59316.149168,-9104.533087,-6217.729913,-9269.755526
59316.149478,-13027.624579,-10436.903782,-13483.280765
59316.149788,-14508.036463,-18209.066173,-12640.575717
59316.150098,-14730.098246,-22946.384202,-7967.393179
59316.150408,-7624.121203,-23168.445985,-1762.019645
59316.150717,-74.020594,-22502.260637,6665.030833
59316.151027,9400.615463,-18653.189738,12793.794817
59316.151337,11177.109724,-4145.153275,10648.727422
59316.151647,11843.295072,4071.132681,13483.280765
59316.151957,15322.262999,8290.306550,13100.233016
59316.152267,9474.636058,15026.180623,4903.011187
59316.152577,2368.659014,7328.038826,0.000000
59316.152887,-5181.441594,2738.761985,-6435.202183
59316.153197,-12213.398043,-6291.750507,-11031.775171
59316.153506,-13101.645173,-14211.954086,-14325.985813
59316.153816,-13471.748144,-21614.013506,-12334.137518
59316.154126,-9548.656652,-27239.578666,-2528.115143
59316.154436,-3627.009116,-23094.425390,-689.485948
59316.154746,0.000000,-20207.622217,5515.887586
59316.155056,11399.171507,-20207.622217,14709.033562
59316.155366,10955.047942,-6143.709319,14862.252661
59316.155676,16506.592507,1776.494261,12180.918418
59316.155985,13323.706956,6217.729913,10189.070123
59316.156295,7105.977043,6735.874072,4519.963438
59316.156605,3849.070898,2812.782580,-842.705048
59316.156915,-4145.153275,-3034.844362,-4903.011187
59316.157225,-11843.295072,-9548.656652,-9806.022374
59316.157535,-10140.821405,-17764.942608,-11721.261119
59316.157845,-15174.221811,-22354.219448,-11108.384721
59316.158155,-14211.954086,-23760.610738,-6128.763984
59316.158464,-6439.791695,-24056.693115,0.000000
59316.158774,2294.638420,-23686.590144,7890.783629
59316.159084,7920.203579,-16432.571912,11951.089769
59316.159394,11251.130318,-4441.235652,12717.185267
59316.159704,13619.789333,2072.576638,13023.623466
59316.160014,10658.965565,9400.615463,9806.022374
59316.160324,2368.659014,8216.285956,2451.505594
59316.160634,740.205942,0.000000,-1532.190996
59316.160944,-7179.997637,-5329.482782,-7431.126331
59316.161253,-16580.613101,-9548.656652,-14096.157163
59316.161563,-14285.974681,-17024.736666,-14785.643111
59316.161873,-14285.974681,-26055.249158,-7507.735880
59316.162183,-8882.471304,-25463.084405,-3600.648841
59316.162493,-2664.741391,-24796.899057,3524.039291
59316.162803,6809.894666,-18505.148550,10725.336972
59316.163113,10658.965565,-11917.315666,11644.651570
59316.163423,9474.636058,-74.020594,11031.775171
59316.163732,13619.789333,3478.967927,12563.966167
59316.164042,9992.780217,2960.823768,9116.536426
59316.164352,1184.329507,7031.956449,0.000000
59316.164662,-370.102971,-2368.659014,-3140.991542
59316.164972,-7550.100608,-7105.977043,-6971.469032
59316.165282,-10807.006753,-13027.624579,-11568.042020
59316.165592,-8956.491898,-17912.983796,-9729.412825
59316.165902,-15766.386565,-24278.754898,-8120.612279
59316.166211,-8512.368333,-24130.713709,-1915.238745
59316.166521,-1258.350101,-23686.590144,3600.648841
59316.166831,2960.823768,-17246.798449,9806.022374
59316.167141,11177.109724,-11843.295072,14632.424012
59316.167451,11769.274478,0.000000,11568.042020
59316.167761,12583.501014,2368.659014,9729.412825
59316.168071,5477.523971,7624.121203,5669.106685
59316.168381,3849.070898,5329.482782,-1685.410096
59316.168690,-5625.565159,-1850.514855,-5056.230287
59316.169000,-11251.130318,-7031.956449,-9422.974625
59316.169310,-13693.809927,-15396.283594,-12334.137518
59316.169620,-13101.645173,-21021.848753,-11108.384721
59316.169930,-11991.336260,-24648.857869,-5898.935335
59316.170240,-4737.318029,-24056.693115,1225.752797
59316.170550,4071.132681,-23686.590144,8503.660028
59316.170860,9400.615463,-18357.107362,13100.233016
59316.171170,14211.954086,-10140.821405,15015.471761
59316.171479,14582.057057,-2368.659014,14402.595362
59316.171789,11029.068536,3182.885551,8886.707777
59316.172099,6439.791695,3182.885551,3600.648841
59316.172409,4071.132681,0.000000,-689.485948
59316.172719,-2442.679609,-5921.647536,-4979.620737
59316.173029,-9844.739029,-9178.553681,-10801.946522
59316.173339,-15396.283594,-16654.633695,-12257.527968
59316.173649,-11547.212695,-23686.590144,-9039.926876
59316.173958,-9474.636058,-25537.104999,-2451.505594
59316.174268,-4515.256246,-22576.281231,1915.238745
59316.174578,1776.494261,-19615.457463,7507.735880
59316.174888,9252.574275,-12879.583391,10648.727422
59316.175198,13397.727550,-4885.359217,13406.671215
59316.175508,15174.221811,1480.411884,14402.595362
59316.175818,14730.098246,8290.306550,9422.974625
59316.176128,8216.285956,8586.388927,2374.896044
59316.176437,-2220.617826,7031.956449,-7354.516781
59316.176747,-5477.523971,74.020594,-6281.983084
59316.177057,-13471.748144,-5403.503377,-13483.280765
59316.177367,-14285.974681,-11843.295072,-14325.985813
59316.177677,-12953.603985,-19023.292709,-9039.926876
59316.177987,-6809.894666,-18949.272115,-2451.505594
59316.178297,-1554.432478,-18505.148550,2987.772442
59316.178607,6513.812290,-13989.892304,10112.460574
59316.178916,13027.624579,-7179.997637,12410.747068
59316.179226,16506.592507,0.000000,13406.671215
59316.179536,13397.727550,7402.059420,9729.412825
59316.179846,7105.977043,3478.967927,7354.516781
59316.180156,1480.411884,-74.020594,919.314598
59316.180466,-1850.514855,-4145.153275,-4366.744339
59316.180776,-7179.997637,-8956.491898,-8044.002729
59316.181086,-11917.315666,-16506.592507,-11568.042020
59316.181396,-14137.933492,-20873.807564,-11338.213370
59316.181705,-11843.295072,-22576.281231,-7354.516781
59316.182015,-7105.977043,-23760.610738,0.000000
59316.182325,-74.020594,-22354.219448,6665.030833
59316.182635,5847.626942,-13619.789333,8503.660028
59316.182945,8290.306550,-5403.503377,13483.280765
59316.183255,12361.439231,3701.029710,11797.870669
59316.183565,12879.583391,7254.018232,10725.336972
59316.183875,5773.606348,8364.327145,5362.668486
59316.184184,1924.535449,4737.318029,-1378.971896
59316.184494,-5625.565159,518.144159,-7354.516781
59316.184804,-14211.954086,-13545.768739,-8656.879127
59316.185114,-16284.530724,-17838.963202,-14402.595362
59316.185424,-18949.272115,-24944.940245,-11644.651570
59316.185734,-9548.656652,-28423.908173,-3140.991542
59316.186044,-4959.379811,-21984.116477,-1302.362347
59316.186354,3478.967927,-21317.931130,7890.783629
59316.186663,9474.636058,-13101.645173,11644.651570
59316.186973,13545.768739,-6513.812290,14632.424012
59316.187283,16210.510130,2294.638420,13406.671215
59316.187593,11177.109724,7179.997637,9116.536426
59316.187903,4071.132681,7105.977043,3600.648841
59316.188213,1702.473667,4737.318029,-3753.867940
59316.188523,-6957.935855,-1258.350101,-7354.516781
59316.188833,-8068.244768,-11251.130318,-9269.755526
59316.189142,-13101.645173,-15396.283594,-13866.328514
59316.189452,-14285.974681,-21317.931130,-9882.631924
59316.189762,-8290.306550,-22872.363608,-4903.011187
59316.190072,-3034.844362,-21984.116477,1455.581446
59316.190382,2072.576638,-20577.725188,8886.707777
59316.190692,9622.677246,-10362.883188,10801.946522
59316.191002,14137.933492,-6217.729913,16317.834107
59316.191312,16506.592507,5329.482782,12180.918418
59316.191622,9844.739029,9400.615463,7354.516781
59316.191931,3552.988522,5847.626942,3677.258390
59316.192241,-74.020594,1184.329507,-2834.553343
59316.192551,-6069.688724,-4737.318029,-6205.373534
59316.192861,-13027.624579,-9548.656652,-13330.061665
59316.193171,-15988.448347,-16654.633695,-14402.595362
59316.193481,-15396.283594,-23464.528361,-8886.707777
59316.193791,-7476.080014,-22872.363608,-3064.381992
59316.194101,-740.205942,-22502.260637,5515.887586
59316.194410,6439.791695,-17764.942608,10955.165621
59316.194720,10584.944971,-8142.265362,11568.042020
59316.195030,11843.295072,-1258.350101,12257.527968
59316.195340,16950.716072,3849.070898,13789.718964
59316.195650,7105.977043,6069.688724,8120.612279
59316.195960,2442.679609,5699.585753,153.219100
59316.196270,-1554.432478,-148.041188,-4903.011187
59316.196580,-7105.977043,-5329.482782,-7890.783629
59316.196889,-11843.295072,-13249.686362,-13023.623466
59316.197199,-15396.283594,-18431.127956,-13483.280765
59316.197509,-12879.583391,-25907.207970,-6894.859482
59316.197819,-4811.338623,-24870.919651,-1302.362347
59316.198129,-2442.679609,-22798.343014,3600.648841
59316.198439,2368.659014,-16062.468941,9806.022374
59316.198749,9474.636058,-6587.832884,12563.966167
59316.199059,13249.686362,-2294.638420,15858.176809
59316.199369,12879.583391,7994.224174,11491.432470
59316.199678,6957.935855,8216.285956,6281.983084
59316.199988,1702.473667,4737.318029,-536.266849
59316.200298,-4737.318029,2294.638420,-7354.516781
59316.200608,-10658.965565,-5403.503377,-9806.022374
59316.200918,-13101.645173,-14211.954086,-12334.137518
59316.201228,-18949.272115,-16654.633695,-15628.348159
59316.201538,-14211.954086,-23464.528361,-7354.516781
59316.201848,-6365.771101,-21095.869347,-2145.067394
59316.202157,814.226536,-22280.198854,6971.469032
59316.202467,7846.182985,-13101.645173,10878.556072
59316.202777,12287.418637,-4367.215058,14555.814462
59316.203087,17912.983796,8216.285956,12870.404366
59316.203397,11843.295072,15322.262999,9806.022374
59316.203707,4737.318029,14137.933492,2451.505594
59316.204017,3849.070898,9030.512492,-689.485948
59316.204327,-6587.832884,3256.906145,-9269.755526
59316.204636,-11843.295072,-6291.750507,-11031.775171
59316.204946,-13989.892304,-13619.789333,-15015.471761
59316.205256,-16802.674883,-20207.622217,-12104.308868
59316.205566,-10881.027347,-19393.395680,-7431.126331
59316.205876,-3552.988522,-20503.704593,-1072.533697
59316.206186,-370.102971,-19393.395680,6052.154434
59316.206496,6143.709319,-14211.954086,10955.165621
59316.206806,10140.821405,-4219.173869,12563.966167
59316.207115,13323.706956,4515.256246,9806.022374
59316.207425,15322.262999,4737.318029,12180.918418
59316.207735,6143.709319,9918.759623,2987.772442
59316.208045,2886.803174,7402.059420,-3064.381992
59316.208355,-3849.070898,3034.844362,-5975.544884
59316.208665,-10066.800811,-4737.318029,-10495.508323
59316.208975,-14063.912898,-13397.727550,-13713.109414
59316.209285,-15396.283594,-20059.581028,-11721.261119
59316.209595,-10732.986159,-23686.590144,-5592.497135
59316.209904,-5995.668130,-20725.766376,-1455.581446
59316.210214,-1184.329507,-16654.633695,2451.505594
59316.210524,10066.800811,-10140.821405,10725.336972
59316.210834,14137.933492,-5921.647536,13406.671215
59316.211144,14730.098246,592.164754,10955.165621
59316.211454,9918.759623,5551.544565,9959.241474
59316.211764,5329.482782,5329.482782,3140.991542
59316.212074,3256.906145,1110.308913,-153.219100
59316.212383,-5551.544565,-2516.700203,-4443.353888
59316.212693,-7179.997637,-11695.253884,-7814.174080
59316.213003,-11325.150913,-18949.272115,-10648.727422
59316.213313,-15248.242405,-19023.292709,-12870.404366
59316.213623,-9474.636058,-22576.281231,-4290.134789
59316.213933,-3034.844362,-26055.249158,2374.896044
59316.214243,2886.803174,-20651.745782,7277.907231
59316.214553,8290.306550,-12065.356855,9806.022374
59316.214862,12435.459826,-5329.482782,13023.623466
59316.215172,12583.501014,1850.514855,12027.699319
59316.215482,9326.594869,4737.318029,8580.269578
59316.215792,6513.812290,4367.215058,4596.572988
59316.216102,2294.638420,1184.329507,-2528.115143
59316.216412,-7772.162391,-740.205942,-8656.879127
59316.216722,-13027.624579,-11325.150913,-9806.022374
59316.217032,-13249.686362,-20133.601622,-10801.946522
59316.217341,-13397.727550,-23686.590144,-8044.002729
59316.217651,-9400.615463,-23316.487173,-3447.429741
59316.217961,-3552.988522,-21465.972318,3217.601092
59316.218271,3108.864956,-20429.683999,9652.803275
59316.218581,10732.986159,-9918.759623,9806.022374
59316.218891,14508.036463,-1554.432478,14096.157163
59316.219201,13841.851115,1776.494261,13100.233016
59316.219511,8660.409521,7698.141797,4826.401637
59316.219821,4737.318029,3478.967927,2451.505594
59316.220130,-74.020594,740.205942,-3753.867940
59316.220440,-6365.771101,-5921.647536,-5132.839837
59316.220750,-10955.047942,-12657.521608,-11261.603821
59316.221060,-12805.562797,-17838.963202,-11951.089769
59316.221370,-12361.439231,-23094.425390,-8810.098227
59316.221680,-7994.224174,-22576.281231,-4290.134789
59316.221990,-4737.318029,-20503.704593,2451.505594
59316.222300,4663.297435,-17172.777854,9422.974625
59316.222609,7624.121203,-11843.295072,9729.412825
59316.222919,9474.636058,-74.020594,9806.022374
59316.223229,10658.965565,2294.638420,13023.623466
59316.223539,7328.038826,6439.791695,8580.269578
59316.223849,2960.823768,4737.318029,383.047749
59316.224159,-1776.494261,1628.453072,-4519.963438
59316.224469,-9992.780217,-7328.038826,-7354.516781
59316.224779,-12953.603985,-14285.974681,-12947.013916
59316.225088,-16284.530724,-19023.292709,-14709.033562
59316.225398,-15396.283594,-25537.104999,-7048.078582
59316.225708,-7698.141797,-24944.940245,0.000000
59316.226018,-74.020594,-23686.590144,6052.154434
59316.226328,3997.112087,-16654.633695,9422.974625
59316.226638,11843.295072,-4811.338623,11338.213370
59316.226948,12953.603985,-2368.659014,13866.328514
59316.227258,11399.171507,8512.368333,9959.241474
59316.227568,7698.141797,6661.853478,4366.744339
59316.227877,4589.276840,3552.988522,-76.609550
59316.228187,-3034.844362,2590.720797,-6818.249932
59316.228497,-9474.636058,-6291.750507,-8886.707777
59316.228807,-9548.656652,-16580.613101,-9882.631924
59316.229117,-14285.974681,-17542.880825,-13100.233016
59316.229427,-11547.212695,-22724.322419,-6128.763984
59316.229737,-5921.647536,-20799.786970,0.000000
59316.230047,-1332.370696,-21317.931130,5439.278036
59316.230356,6439.791695,-13841.851115,8886.707777
59316.230666,11769.274478,-6883.915261,12104.308868
59316.230976,13619.789333,-1776.494261,14632.424012
59316.231286,12953.603985,6513.812290,9729.412825
59316.231596,5921.647536,8216.285956,3753.867940
59316.231906,2368.659014,4663.297435,0.000000
59316.232216,-3034.844362,-2368.659014,-4979.620737
59316.232526,-13027.624579,-8364.327145,-12257.527968
59316.232835,-15840.407159,-14878.139434,-14709.033562
59316.233145,-16062.468941,-21095.869347,-11644.651570
59316.233455,-12509.480420,-23686.590144,-5209.449386
59316.233765,-7105.977043,-25241.022622,612.876398
59316.234074,2294.638420,-23390.507767,9729.412825
59316.234384,9400.615463,-18949.272115,12180.918418
59316.234694,12953.603985,-5921.647536,13100.233016
59316.235004,9992.780217,5847.626942,9806.022374
59316.235314,11251.130318,2368.659014,11951.089769
59316.235623,6439.791695,3701.029710,3907.087040
59316.235933,2368.659014,444.123565,-1302.362347
59316.236243,-7105.977043,-2442.679609,-7354.516781
59316.236553,-10436.903782,-9548.656652,-11338.213370
59316.236862,-13323.706956,-16284.530724,-12487.356617
59316.237172,-14285.974681,-22206.178260,-9269.755526
59316.237482,-8364.327145,-24870.919651,-2528.115143
59316.237792,-3923.091493,-22058.137072,1149.143247
59316.238101,0.000000,-14878.139434,4903.011187
59316.238411,10066.800811,-12287.418637,11568.042020
59316.238721,12953.603985,-4145.153275,11874.480219
59316.239031,13397.727550,6069.688724,10955.165621
59316.239340,9474.636058,6957.935855,8273.831378
59316.239650,6143.709319,7994.224174,2604.724693
59316.239960,0.000000,3404.947333,-2834.553343
59316.240270,-5921.647536,-3330.926739,-5822.325785
59316.240579,-11399.171507,-14137.933492,-9882.631924
59316.240889,-13101.645173,-18949.272115,-12334.137518
59316.241199,-17616.901420,-21391.951724,-11644.651570
59316.241509,-9474.636058,-24944.940245,-1378.971896
59316.241819,-2590.720797,-21614.013506,2374.896044
59316.242128,5255.462188,-18653.189738,9729.412825
59316.242438,10584.944971,-9178.553681,10648.727422
59316.242748,13619.789333,-296.082377,13559.890315
59316.243058,12435.459826,5329.482782,11644.651570
59316.243367,7698.141797,8216.285956,7354.516781
59316.243677,5921.647536,3478.967927,3677.258390
59316.243987,-74.020594,0.000000,-2528.115143
59316.244297,-9992.780217,-2738.761985,-9806.022374
59316.244606,-12435.459826,-14285.974681,-11338.213370
59316.244916,-12065.356855,-18949.272115,-12334.137518
59316.245226,-12065.356855,-24870.919651,-7507.735880
59316.245536,-6513.812290,-21836.075289,-2681.334243
59316.245845,-3330.926739,-21391.951724,3907.087040
59316.246155,4441.235652,-14285.974681,8580.269578
59316.246465,8290.306550,-7179.997637,7660.954980
59316.246775,9474.636058,-5995.668130,14709.033562
59316.247084,13027.624579,0.000000,15321.909960
59316.247394,9400.615463,7105.977043,6665.030833
59316.247704,3552.988522,2294.638420,2451.505594
59316.248014,-666.185348,-3552.988522,-3753.867940
59316.248323,-10658.965565,-10288.862594,-7660.954980
59316.248633,-13989.892304,-17172.777854,-12640.575717
59316.248943,-16580.613101,-22428.240043,-13559.890315
59316.249253,-15840.407159,-25241.022622,-8733.488677
59316.249563,-9252.574275,-22724.322419,-2528.115143
59316.249872,-4441.235652,-20207.622217,3677.258390
59316.250182,7402.059420,-13693.809927,9806.022374
59316.250492,14137.933492,-5921.647536,13406.671215
59316.250802,11843.295072,6439.791695,11031.775171
59316.251111,15322.262999,10066.800811,13406.671215
59316.251421,7698.141797,11769.274478,6128.763984
59316.251731,7031.956449,7105.977043,995.924147
59316.252041,-3256.906145,1850.514855,-4979.620737
59316.252350,-8290.306550,-3108.864956,-10265.679673
59316.252660,-10140.821405,-9474.636058,-13559.890315
59316.252970,-14285.974681,-13619.789333,-14938.862211
59316.253280,-13027.624579,-19023.292709,-9806.022374
59316.253589,-4737.318029,-17838.963202,-612.876398
59316.253899,-74.020594,-16580.613101,4826.401637
59316.254209,6513.812290,-5403.503377,8580.269578
59316.254519,9474.636058,-1850.514855,10418.898773
59316.254828,13545.768739,2590.720797,13789.718964
59316.255138,12509.480420,9400.615463,9882.631924
59316.255448,9474.636058,9696.697840,4903.011187
59316.255758,5255.462188,4737.318029,-76.609550
59316.256068,-3627.009116,592.164754,-5286.058936
59316.256377,-13323.706956,-7179.997637,-13483.280765
59316.256687,-11325.150913,-18949.272115,-11108.384721
59316.256997,-16062.468941,-21836.075289,-12947.013916
59316.257307,-14211.954086,-22576.281231,-7354.516781
59316.257616,-6217.729913,-21243.910535,-1149.143247
59316.257926,1332.370696,-20799.786970,7354.516781
59316.258236,8734.430116,-12583.501014,10112.460574
59316.258546,12879.583391,-4367.215058,14325.985813
59316.258855,16506.592507,2664.741391,15858.176809
59316.259165,14137.933492,9474.636058,10955.165621
59316.259475,7031.956449,7105.977043,6052.154434
59316.259785,2960.823768,7031.956449,-2451.505594
59316.260094,-4959.379811,-3849.070898,-5056.230287
59316.260404,-13397.727550,-7772.162391,-13483.280765
59316.260714,-13249.686362,-15100.201217,-14325.985813
59316.261024,-16432.571912,-22576.281231,-10418.898773
59316.261333,-10732.986159,-23538.548956,-5209.449386
59316.261643,-4219.173869,-21614.013506,0.000000
59316.261953,2960.823768,-18431.127956,9499.584175
59316.262263,9400.615463,-14211.954086,12793.794817
59316.262572,12805.562797,-4737.318029,14019.547613
59316.262882,11843.295072,7624.121203,11031.775171
59316.263192,13027.624579,9992.780217,11031.775171
59316.263502,8216.285956,9178.553681,3600.648841
59316.263812,4367.215058,3552.988522,-2528.115143
59316.264121,-8068.244768,-6217.729913,-7354.516781
59316.264431,-11399.171507,-13989.892304,-9652.803275
59316.264741,-13915.871710,-17098.757260,-13789.718964
59316.265051,-17764.942608,-22576.281231,-9806.022374
59316.265360,-9474.636058,-24648.857869,-2451.505594
59316.265670,-1702.473667,-22428.240043,3983.696590
59316.265980,4663.297435,-21317.931130,9729.412825
59316.266290,9474.636058,-9548.656652,10418.898773
59316.266599,16506.592507,-2368.659014,14632.424012
59316.266909,15618.345376,2516.700203,13406.671215
59316.267219,11177.109724,7994.224174,7584.345430
59316.267529,5847.626942,2516.700203,3677.258390
59316.267838,1406.391290,518.144159,-3830.477490
59316.268148,-9474.636058,-5995.668130,-8580.269578
59316.268458,-13027.624579,-14285.974681,-12257.527968
59316.268768,-11843.295072,-20207.622217,-11031.775171
59316.269077,-12509.480420,-27831.743419,-7431.126331
59316.269387,-9474.636058,-23168.445985,-3677.258390
59316.269697,-1258.350101,-25463.084405,4826.401637
59316.270007,4663.297435,-19763.498651,10112.460574
59316.270316,10436.903782,-8438.347739,11108.384721
59316.270626,11695.253884,-7402.059420,14709.033562
59316.270936,14656.077652,3404.947333,12640.575717
59316.271246,9030.512492,7624.121203,5515.887586
59316.271556,2368.659014,4663.297435,1225.752797
59316.271865,0.000000,-74.020594,-4903.011187
59316.272175,-9548.656652,-13027.624579,-6818.249932
59316.272485,-14211.954086,-14878.139434,-13713.109414
59316.272795,-14285.974681,-22206.178260,-11338.213370
59316.273104,-17764.942608,-29978.340651,-6741.640382
59316.273414,-8438.347739,-24204.734303,-2528.115143
59316.273724,-1406.391290,-24648.857869,5209.449386
59316.274034,7624.121203,-16506.592507,10418.898773
59316.274343,12361.439231,-3552.988522,9729.412825
59316.274653,11103.089130,-888.247130,14325.985813
59316.274963,10955.047942,10584.944971,9806.022374
59316.275273,9474.636058,5847.626942,8580.269578
59316.275582,5551.544565,2368.659014,2374.896044
59316.275892,-1480.411884,-1850.514855,-2451.505594
59316.276202,-10955.047942,-10732.986159,-8503.660028
59316.276512,-11917.315666,-15174.221811,-13483.280765
59316.276821,-14582.057057,-21614.013506,-13253.452115
59316.277131,-14137.933492,-26055.249158,-7048.078582
59316.277441,-5995.668130,-23686.590144,-2528.115143
59316.277751,-1258.350101,-22502.260637,3600.648841
59316.278061,2368.659014,-11917.315666,6435.202183
59316.278370,12287.418637,-6883.915261,13866.328514
59316.278680,14137.933492,592.164754,14632.424012
59316.278990,14211.954086,11769.274478,10418.898773
59316.279300,11843.295072,9400.615463,10418.898773
59316.279609,6735.874072,7994.224174,1072.533697
59316.279919,-3849.070898,2294.638420,-4903.011187
59316.280229,-10066.800811,-8956.491898,-9346.365076
59316.280539,-10732.986159,-18357.107362,-11721.261119
59316.280848,-14285.974681,-23686.590144,-12334.137518
59316.281158,-14285.974681,-26055.249158,-7737.564530
59316.281468,-8290.306550,-23760.610738,-1838.629195
59316.281778,4071.132681,-23168.445985,8503.660028
59316.282087,2960.823768,-11917.315666,9806.022374
59316.282397,11843.295072,-3034.844362,12793.794817
59316.282707,15248.242405,1258.350101,14325.985813
59316.283017,14285.974681,8660.409521,11491.432470
59316.283326,9770.718434,8364.327145,5822.325785
59316.283636,5329.482782,888.247130,2145.067394
59316.283946,-2442.679609,-4737.318029,-3217.601092
59316.284256,-10732.986159,-10658.965565,-11108.384721
59316.284565,-13619.789333,-16654.633695,-12870.404366
59316.284875,-13397.727550,-24278.754898,-11108.384721
59316.285185,-15396.283594,-23760.610738,-8273.831378
59316.285495,-5995.668130,-23686.590144,-1302.362347
59316.285805,-222.061783,-21688.034101,4903.011187
59316.286114,8216.285956,-12879.583391,8656.879127
59316.286424,10955.047942,-3478.967927,12563.966167
59316.286734,14211.954086,3478.967927,15321.909960
59316.287044,15692.365970,8364.327145,12257.527968
59316.287353,12953.603985,4885.359217,8197.221829
59316.287663,2590.720797,5699.585753,-1608.800546
59316.287973,-5477.523971,-3404.947333,-3753.867940
59316.288283,-11325.150913,-11547.212695,-12334.137518
59316.288592,-12213.398043,-18357.107362,-12334.137518
59316.288902,-16580.613101,-24426.796086,-11491.432470
59316.289212,-14359.995275,-25981.228564,-4903.011187
59316.289522,-5699.585753,-21910.095883,-536.266849
59316.289831,0.000000,-17838.963202,6128.763984
59316.290141,7105.977043,-6587.832884,7354.516781
59316.290451,13619.789333,1998.556043,14555.814462
59316.290761,15322.262999,9474.636058,11568.042020
59316.291070,11991.336260,14137.933492,6971.469032
59316.291380,9400.615463,4737.318029,5439.278036
59316.291690,2886.803174,1776.494261,-1991.848295
59316.292000,-8660.409521,-9474.636058,-4366.744339
59316.292310,-10807.006753,-14656.077652,-12410.747068
59316.292619,-13397.727550,-16802.674883,-13330.061665
59316.292929,-16580.613101,-22576.281231,-9806.022374
59316.293239,-12435.459826,-21391.951724,-7354.516781
59316.293549,-4737.318029,-26129.269753,1532.190996
59316.293858,4367.215058,-23686.590144,8503.660028
59316.294168,7105.977043,-10732.986159,6128.763984
59316.294478,13841.851115,-7698.141797,14632.424012
59316.294788,14063.912898,0.000000,12257.527968
59316.295097,12657.521608,3627.009116,9729.412825
59316.295407,7402.059420,3034.844362,5898.935335
59316.295717,1332.370696,-148.041188,-1225.752797
59316.296027,-9696.697840,-6513.812290,-5592.497135
59316.296336,-13397.727550,-14285.974681,-11721.261119
59316.296646,-16580.613101,-19023.292709,-12257.527968
59316.296956,-16284.530724,-27757.722825,-6205.373534
59316.297266,-11621.233289,-23834.631332,-4979.620737
59316.297575,-3330.926739,-22428.240043,2681.334243
59316.297885,1776.494261,-19023.292709,7507.735880
59316.298195,9400.615463,-5995.668130,8733.488677
59316.298505,11473.192101,-4441.235652,13483.280765
59316.298814,13175.665768,814.226536,11644.651570
59316.299124,11177.109724,2960.823768,6052.154434
59316.299434,4663.297435,0.000000,2374.896044
59316.299744,-2072.576638,-370.102971,-3447.429741
59316.300054,-10362.883188,-16358.551318,-4519.963438
59316.300363,-10732.986159,-18949.272115,-9882.631924
59316.300673,-11843.295072,-21391.951724,-9193.145976
59316.300983,-14211.954086,-28868.031738,-5209.449386
59316.301293,-8512.368333,-23686.590144,-3370.820191
59316.301602,-4219.173869,-22650.301825,3064.381992
59316.301912,5033.400406,-13693.809927,7201.297681
59316.302222,12953.603985,-5921.647536,10955.165621
59316.302532,11769.274478,0.000000,14019.547613
59316.302841,10510.924376,10584.944971,7584.345430
59316.303151,13027.624579,6735.874072,8044.002729
59316.303461,6439.791695,4737.318029,1762.019645
59316.303771,-4737.318029,-74.020594,-3677.258390
59316.304080,-11399.171507,-7476.080014,-9422.974625
59316.304390,-11843.295072,-16358.551318,-12104.308868
59316.304700,-15322.262999,-21169.889941,-12027.699319
59316.305010,-15544.324782,-27535.661042,-6052.154434
59316.305319,-6661.853478,-26055.249158,919.314598
59316.305629,2220.617826,-19615.457463,6741.640382
59316.305939,8216.285956,-13619.789333,9116.536426
59316.306249,10658.965565,-2442.679609,11031.775171
59316.306559,15396.283594,518.144159,17160.539155
59316.306868,11843.295072,13841.851115,7507.735880
59316.307178,10584.944971,7698.141797,5132.839837
59316.307488,2738.761985,2516.700203,-1302.362347
59316.307798,-5699.585753,-1628.453072,-5592.497135
59316.308107,-10732.986159,-11621.233289,-10495.508323
59316.308417,-10066.800811,-20207.622217,-6128.763984
59316.308727,-14211.954086,-21391.951724,-10725.336972
59316.309037,-12065.356855,-24278.754898,-5132.839837
59316.309346,-6069.688724,-21762.054695,-842.705048
59316.309656,0.000000,-19023.292709,6128.763984
59316.309966,7031.956449,-9844.739029,7048.078582
59316.310276,11769.274478,-2960.823768,12180.918418
59316.310585,12953.603985,4885.359217,12334.137518
59316.310895,13915.871710,11399.171507,9346.365076
59316.311205,7550.100608,2368.659014,7354.516781
59316.311515,1184.329507,2294.638420,-2451.505594
59316.311824,-11843.295072,-5995.668130,-4903.011187
59316.312134,-10658.965565,-16580.613101,-9652.803275
59316.312444,-11917.315666,-21317.931130,-12334.137518
59316.312754,-19911.539840,-27461.640448,-10495.508323
59316.313063,-13101.645173,-28423.908173,-6511.811733
59316.313373,-5329.482782,-26129.269753,1685.410096
59316.313683,3552.988522,-21910.095883,8963.317327
59316.313993,9326.594869,-11399.171507,10342.289223
59316.314303,11621.233289,-2072.576638,13866.328514
59316.314612,12435.459826,9400.615463,9806.022374
59316.314922,9474.636058,11769.274478,6435.202183
59316.315232,7402.059420,5847.626942,5209.449386
59316.315542,2294.638420,3849.070898,-3140.991542
59316.315851,-9474.636058,-5995.668130,-4903.011187
59316.316161,-8364.327145,-15396.283594,-10495.508323
59316.316471,-12435.459826,-17838.963202,-12180.918418
59316.316781,-15322.262999,-24426.796086,-8044.002729
59316.317090,-11177.109724,-25389.063811,-3907.087040
59316.317400,-4737.318029,-21465.972318,0.000000
59316.317710,2516.700203,-19023.292709,6435.202183
59316.318020,8216.285956,-3034.844362,5898.935335
59316.318329,10066.800811,-3034.844362,12870.404366
59316.318639,15914.427753,4959.379811,13100.233016
59316.318949,10584.944971,11325.150913,6052.154434
59316.319259,9400.615463,4145.153275,4826.401637
59316.319568,592.164754,4589.276840,-4213.525239
59316.319878,-8438.347739,-9844.739029,-2604.724693
59316.320188,-9918.759623,-14952.160028,-11644.651570
59316.320498,-13915.871710,-19689.478057,-12257.527968
59316.320808,-15470.304188,-27831.743419,-6205.373534
59316.321117,-7772.162391,-23686.590144,-4979.620737
59316.321427,-6365.771101,-20799.786970,1532.190996
59316.321737,3552.988522,-13989.892304,9499.584175
59316.322047,15322.262999,-7105.977043,10955.165621
59316.322356,10510.924376,0.000000,15321.909960
59316.322666,11843.295072,10362.883188,9116.536426
59316.322976,11695.253884,6883.915261,7354.516781
59316.323286,5255.462188,3404.947333,2374.896044
59316.323595,-3775.050304,0.000000,-4673.182538
59316.323905,-7772.162391,-7105.977043,-7431.126331
59316.324215,-9548.656652,-14211.954086,-11721.261119
59316.324525,-13101.645173,-15026.180623,-13100.233016
59316.324834,-15248.242405,-22576.281231,-9193.145976
59316.325144,-5625.565159,-21539.992912,-76.609550
59316.325454,0.000000,-19615.457463,4290.134789
59316.325764,7031.956449,-13545.768739,9116.536426
59316.326073,11251.130318,-2368.659014,10265.679673
59316.326383,12065.356855,3478.967927,12180.918418
59316.326693,14656.077652,11621.233289,8886.707777
59316.327003,12731.542202,8512.368333,7354.516781
59316.327312,7624.121203,4737.318029,2374.896044
59316.327622,-4811.338623,2368.659014,-6205.373534
59316.327932,-11843.295072,-7920.203579,-9806.022374
59316.328242,-9548.656652,-16580.613101,-10495.508323
59316.328552,-16580.613101,-20503.704593,-11031.775171
59316.328861,-14878.139434,-27239.578666,-4979.620737
59316.329171,-6513.812290,-20651.745782,-919.314598
59316.329481,814.226536,-19245.354492,5209.449386
59316.329791,7476.080014,-16654.633695,10955.165621
59316.330100,10658.965565,-7179.997637,11031.775171
59316.330410,11843.295072,-74.020594,13789.718964
59316.330720,12953.603985,5921.647536,9116.536426
59316.331030,7179.997637,5847.626942,1225.752797
59316.331339,2960.823768,-1998.556043,-76.609550
59316.331649,-8216.285956,-3775.050304,-5439.278036
59316.331959,-10214.842000,-16876.695478,-6205.373534
59316.332269,-11917.315666,-18579.169144,-11414.822920
59316.332578,-15100.201217,-22650.301825,-8963.317327
59316.332888,-11251.130318,-24056.693115,-3600.648841
59316.333198,-5921.647536,-20503.704593,306.438199
59316.333508,0.000000,-19023.292709,7354.516781
59316.333817,11769.274478,-10658.965565,9729.412825
59316.334127,9178.553681,-666.185348,7967.393179
59316.334437,11843.295072,6735.874072,11338.213370
59316.334747,12361.439231,10658.965565,6128.763984
59316.335056,7846.182985,5995.668130,4443.353888
59316.335366,148.041188,3923.091493,-3983.696590
59316.335676,-8438.347739,-4811.338623,-7354.516781
59316.335986,-11399.171507,-14582.057057,-10495.508323
59316.336296,-13323.706956,-17690.922014,-12487.356617
59316.336605,-16580.613101,-22576.281231,-9193.145976
59316.336915,-12435.459826,-24352.775492,-3064.381992
59316.337225,-2368.659014,-20207.622217,4903.011187
59316.337535,5847.626942,-18801.230927,7890.783629
59316.337845,10066.800811,-4811.338623,9806.022374
59316.338154,13545.768739,2368.659014,11568.042020
59316.338464,8438.347739,8216.285956,8580.269578
59316.338774,11251.130318,8956.491898,5745.716235
59316.339084,5921.647536,4737.318029,2681.334243
59316.339393,-3256.906145,3182.885551,-5515.887586
59316.339703,-12435.459826,-4811.338623,-9806.022374
59316.340013,-10807.006753,-16728.654289,-10112.460574
59316.340323,-10732.986159,-21317.931130,-9882.631924
59316.340633,-14359.995275,-23094.425390,-7890.783629
59316.340942,-7179.997637,-21836.075289,-3600.648841
59316.341252,-1480.411884,-21465.972318,4290.134789
59316.341562,6439.791695,-16210.510130,9269.755526
59316.341872,11399.171507,-6143.709319,10342.289223
59316.342181,11769.274478,740.205942,13100.233016
59316.342491,10140.821405,11547.212695,8810.098227
59316.342801,9548.656652,13841.851115,3294.210641
59316.343111,4737.318029,9400.615463,612.876398
59316.343421,-3034.844362,2368.659014,-4979.620737
59316.343730,-9474.636058,-4811.338623,-11644.651570
59316.344040,-8660.409521,-17468.860231,-12947.013916
59316.344350,-15914.427753,-20947.828159,-9806.022374
59316.344660,-13693.809927,-23094.425390,-7048.078582
59316.344969,-6883.915261,-22724.322419,-1838.629195
59316.345279,962.267725,-18061.024985,5515.887586
59316.345589,9400.615463,-11251.130318,9116.536426
59316.345899,12361.439231,-1628.453072,10342.289223
59316.346209,9474.636058,4663.297435,10572.117872
59316.346518,15322.262999,7105.977043,10955.165621
59316.346828,7624.121203,9770.718434,4213.525239
59316.347138,3701.029710,6291.750507,-76.609550
59316.347448,-4885.359217,-74.020594,-4673.182538
59316.347757,-9622.677246,-9622.677246,-9652.803275
59316.348067,-10732.986159,-14730.098246,-10878.556072
59316.348377,-13989.892304,-21614.013506,-9193.145976
59316.348687,-9548.656652,-23686.590144,-4366.744339
59316.348997,-4811.338623,-23686.590144,-76.609550
59316.349306,888.247130,-18653.189738,5515.887586
59316.349616,9474.636058,-11917.315666,11644.651570
59316.349926,13545.768739,-4737.318029,11874.480219
59316.350236,11251.130318,2368.659014,12180.918418
59316.350545,11473.192101,8364.327145,7814.174080
59316.350855,7105.977043,7846.182985,2681.334243
59316.351165,2812.782580,1480.411884,-2451.505594
59316.351475,-6513.812290,-5181.441594,-4903.011187
59316.351785,-8882.471304,-12879.583391,-8580.269578
59316.352094,-7476.080014,-18949.272115,-8656.879127
59316.352404,-13101.645173,-24574.837274,-7737.564530
59316.352714,-10658.965565,-24352.775492,-1838.629195
59316.353024,-1258.350101,-23390.507767,2374.896044
59316.353333,2960.823768,-20503.704593,9346.365076
59316.353643,12065.356855,-8142.265362,9652.803275
59316.353953,10510.924376,-3182.885551,11414.822920
59316.354263,10881.027347,5255.462188,9499.584175
59316.354573,9622.677246,7031.956449,4673.182538
59316.354882,5921.647536,4071.132681,1838.629195
59316.355192,-74.020594,0.000000,-2757.943793
59316.355502,-8660.409521,-6365.771101,-6818.249932
59316.355812,-11843.295072,-13101.645173,-9806.022374
59316.356121,-9548.656652,-21317.931130,-9882.631924
59316.356431,-14804.118840,-23760.610738,-5975.544884
59316.356741,-7698.141797,-24130.713709,-2145.067394
59316.357051,-2294.638420,-23538.548956,4213.525239
59316.357361,5995.668130,-17098.757260,9422.974625
59316.357670,11843.295072,-8290.306550,11261.603821
59316.357980,9474.636058,-666.185348,9806.022374
59316.358290,10066.800811,7624.121203,8580.269578
59316.358600,9400.615463,4737.318029,7277.907231
59316.358910,2368.659014,9400.615463,0.000000
59316.359219,-1110.308913,0.000000,-1302.362347
59316.359529,-8290.306550,-4811.338623,-8580.269578
59316.359839,-10066.800811,-14508.036463,-10725.336972
59316.360149,-12953.603985,-21317.931130,-9652.803275
59316.360458,-11843.295072,-22872.363608,-6741.640382
59316.360768,-6883.915261,-23686.590144,-76.609550
59316.361078,-1480.411884,-19689.478057,4826.401637
59316.361388,5921.647536,-16062.468941,9806.022374
59316.361698,11251.130318,-7772.162391,12257.527968
59316.362007,11769.274478,0.000000,9729.412825
59316.362317,9474.636058,3478.967927,9806.022374
59316.362627,5181.441594,5847.626942,3064.381992
59316.362937,1036.288319,2590.720797,-2298.286494
59316.363246,-6587.832884,-2738.761985,-4136.915689
59316.363556,-9992.780217,-7920.203579,-10265.679673
59316.363866,-11325.150913,-17764.942608,-8656.879127
59316.364176,-13101.645173,-22502.260637,-7431.126331
59316.364486,-12583.501014,-21391.951724,-5975.544884
59316.364795,-5329.482782,-23908.651927,3677.258390
59316.365105,2294.638420,-18949.272115,6052.154434
59316.365415,7105.977043,-12509.480420,9806.022374
59316.365725,11621.233289,-2960.823768,9729.412825
59316.366034,9474.636058,2590.720797,9882.631924
59316.366344,10732.986159,5255.462188,7048.078582
59316.366654,6735.874072,2886.803174,3830.477490
59316.366964,1406.391290,518.144159,-1838.629195
59316.367274,-3627.009116,-5921.647536,-4060.306139
59316.367583,-8956.491898,-12435.459826,-9882.631924
59316.367893,-11251.130318,-16654.633695,-12870.404366
59316.368203,-9622.677246,-25759.166782,-4213.525239
59316.368513,-8956.491898,-20947.828159,-5515.887586
59316.368822,-2442.679609,-21910.095883,2374.896044
59316.369132,3182.885551,-19689.478057,7967.393179
59316.369442,10658.965565,-10436.903782,11108.384721
59316.369752,10436.903782,-4219.173869,11797.870669
59316.370062,9474.636058,4663.297435,9806.022374
59316.370371,9400.615463,2960.823768,7277.907231
59316.370681,5847.626942,3552.988522,2374.896044
59316.370991,-2960.823768,3478.967927,-7354.516781
59316.371301,-6809.894666,-7476.080014,-4979.620737
59316.371610,-10732.986159,-13027.624579,-11108.384721
59316.371920,-10732.986159,-20133.601622,-10495.508323
59316.372230,-10955.047942,-23908.651927,-6435.202183
59316.372540,-7254.018232,-22428.240043,-1608.800546
59316.372850,-2294.638420,-21391.951724,3907.087040
59316.373159,4737.318029,-17246.798449,8580.269578
59316.373469,13915.871710,-9548.656652,13483.280765
59316.373779,15322.262999,-2368.659014,12793.794817
59316.374089,10584.944971,4367.215058,7354.516781
59316.374398,10584.944971,0.000000,7124.688131
59316.374708,3478.967927,-1184.329507,1762.019645
59316.375018,-2442.679609,-5403.503377,-2604.724693
59316.375328,-6883.915261,-8364.327145,-8120.612279
59316.375638,-10288.862594,-16580.613101,-9959.241474
59316.375947,-11843.295072,-21984.116477,-8427.050478
59316.376257,-11399.171507,-23760.610738,-7354.516781
59316.376567,-9474.636058,-23760.610738,0.000000
59316.376877,-444.123565,-22428.240043,5898.935335
59316.377186,5847.626942,-20133.601622,9729.412825
59316.377496,8290.306550,-7179.997637,9806.022374
59316.377806,12657.521608,-4737.318029,14632.424012
59316.378116,8882.471304,2442.679609,8963.317327
59316.378426,7105.977043,4293.194464,5132.839837
59316.378735,1850.514855,1850.514855,-229.828649
59316.379045,-4737.318029,-1036.288319,-4290.134789
59316.379355,-9548.656652,-7920.203579,-9882.631924
59316.379665,-14211.954086,-14434.015869,-11031.775171
59316.379974,-13027.624579,-19615.457463,-8580.269578
59316.380284,-10732.986159,-25759.166782,-3140.991542
59316.380594,-8882.471304,-19023.292709,0.000000
59316.380904,3478.967927,-21317.931130,9729.412825
59316.381214,6513.812290,-12509.480420,9806.022374
59316.381523,13989.892304,-6957.935855,12947.013916
59316.381833,9992.780217,0.000000,11031.775171
59316.382143,9770.718434,3997.112087,5975.544884
59316.382453,6735.874072,1184.329507,3600.648841
59316.382763,-814.226536,3552.988522,-3447.429741
59316.383072,-5329.482782,-1850.514855,-4903.011187
59316.383382,-5995.668130,-14211.954086,-4979.620737
59316.383692,-10732.986159,-15544.324782,-11108.384721
59316.384002,-11843.295072,-20799.786970,-6741.640382
59316.384311,-9178.553681,-20799.786970,-4290.134789
59316.384621,-3849.070898,-23538.548956,2451.505594
59316.384931,1110.308913,-20799.786970,6971.469032
59316.385241,9252.574275,-12657.521608,10418.898773
59316.385551,12953.603985,-8290.306550,14019.547613
59316.385860,10584.944971,2368.659014,9729.412825
59316.386170,6513.812290,4663.297435,5515.887586
59316.386480,7031.956449,0.000000,4826.401637
59316.386790,-1850.514855,2072.576638,-3753.867940
59316.387099,-9474.636058,-2442.679609,-7354.516781
59316.387409,-10436.903782,-11251.130318,-8963.317327
59316.387719,-12879.583391,-19245.354492,-9576.193725
59316.388029,-12065.356855,-22058.137072,-7967.393179
59316.388339,-8734.430116,-22872.363608,-2604.724693
59316.388648,-1924.535449,-22502.260637,5439.278036
59316.388958,4663.297435,-16580.613101,8503.660028
59316.389268,9400.615463,-9622.677246,9729.412825
59316.389578,9474.636058,-74.020594,9806.022374
59316.389887,11769.274478,0.000000,9729.412825
59316.390197,3849.070898,5847.626942,2451.505594
59316.390507,4663.297435,2368.659014,-383.047749
59316.390817,-1924.535449,-296.082377,-3064.381992
59316.391127,-5403.503377,-4515.256246,-7814.174080
59316.391436,-9030.512492,-12213.398043,-10495.508323
59316.391746,-11843.295072,-19023.292709,-7967.393179
59316.392056,-7772.162391,-23094.425390,-4979.620737
59316.392366,-6587.832884,-22798.343014,-1302.362347
59316.392675,-3552.988522,-16654.633695,1838.629195
59316.392985,6069.688724,-15618.345376,12257.527968
59316.393295,10584.944971,-2960.823768,7890.783629
59316.393605,15322.262999,0.000000,13253.452115
59316.393915,9252.574275,6143.709319,8810.098227
59316.394224,7328.038826,9326.594869,3600.648841
59316.394534,3034.844362,5847.626942,-995.924147
59316.394844,-5921.647536,2294.638420,-4903.011187
59316.395154,-6957.935855,-6439.791695,-7660.954980
59316.395463,-10732.986159,-15396.283594,-9882.631924
59316.395773,-14285.974681,-18357.107362,-11414.822920
59316.396083,-11251.130318,-21391.951724,-3677.258390
59316.396393,-3627.009116,-21910.095883,-76.609550
59316.396703,2294.638420,-18949.272115,7277.907231
59316.397012,8216.285956,-13471.748144,10878.556072
59316.397322,12953.603985,-4811.338623,12487.356617
59316.397632,11547.212695,3997.112087,9729.412825
59316.397942,4737.318029,9400.615463,6128.763984
59316.398251,6217.729913,6439.791695,3830.477490
59316.398561,2294.638420,3552.988522,-1302.362347
59316.398871,-6809.894666,2294.638420,-9193.145976
59316.399181,-8142.265362,-9696.697840,-9039.926876
59316.399491,-9548.656652,-15396.283594,-11108.384721
59316.399800,-11029.068536,-21614.013506,-7737.564530
59316.400110,-7550.100608,-22428.240043,-4060.306139
59316.400420,-4071.132681,-21688.034101,1532.190996
59316.400730,2146.597232,-18579.169144,7048.078582
59316.401039,7698.141797,-11917.315666,11184.994271
59316.401349,14211.954086,-4811.338623,13789.718964
59316.401659,12953.603985,2960.823768,11568.042020
59316.401969,5921.647536,9400.615463,4903.011187
59316.402279,7624.121203,0.000000,4826.401637
59316.402588,-74.020594,1480.411884,-3753.867940
59316.402898,-7698.141797,-6291.750507,-5822.325785
59316.403208,-10732.986159,-11991.336260,-11261.603821
59316.403518,-14582.057057,-20133.601622,-11874.480219
59316.403828,-15544.324782,-23316.487173,-8580.269578
59316.404137,-9474.636058,-21391.951724,-4290.134789
59316.404447,-4145.153275,-23168.445985,3064.381992
59316.404757,3923.091493,-18949.272115,11568.042020
59316.405067,11769.274478,-10362.883188,10955.165621
59316.405376,10658.965565,-74.020594,12257.527968
59316.405686,14137.933492,4737.318029,10955.165621
59316.405996,7698.141797,9400.615463,5056.230287
59316.406306,3849.070898,5773.606348,612.876398
59316.406616,-592.164754,3478.967927,-3677.258390
59316.406925,-6069.688724,-2664.741391,-7890.783629
59316.407235,-9252.574275,-10955.047942,-12870.404366
59316.407545,-13027.624579,-17838.963202,-11031.775171
59316.407855,-12139.377449,-19911.539840,-9806.022374
59316.408164,-5625.565159,-23242.466579,-459.657299
59316.408474,-2442.679609,-19541.436869,2374.896044
59316.408784,4737.318029,-14285.974681,9806.022374
59316.409094,11251.130318,-7772.162391,11644.651570
59316.409404,13471.748144,-1406.391290,12793.794817
59316.409713,10510.924376,5551.544565,9806.022374
59316.410023,8142.265362,8216.285956,5209.449386
59316.410333,4663.297435,6513.812290,-76.609550
59316.410643,-4145.153275,2886.803174,-5209.449386
59316.410952,-8882.471304,-5995.668130,-8580.269578
59316.411262,-9548.656652,-16580.613101,-9882.631924
59316.411572,-16802.674883,-20355.663405,-12027.699319
59316.411882,-12435.459826,-22576.281231,-5822.325785
59316.412192,-7105.977043,-21391.951724,-2451.505594
59316.412501,-1184.329507,-22058.137072,6818.249932
59316.412811,7031.956449,-13027.624579,9422.974625
59316.413121,12435.459826,-9326.594869,14249.376263
59316.413431,15322.262999,-3552.988522,14019.547613
59316.413740,9992.780217,3849.070898,7890.783629
59316.414050,4737.318029,3182.885551,3064.381992
59316.414360,4663.297435,0.000000,-76.609550
59316.414670,-3552.988522,-1850.514855,-3983.696590
59316.414980,-9474.636058,-7179.997637,-8580.269578
59316.415289,-11325.150913,-13767.830521,-12180.918418
59316.415599,-13027.624579,-21465.972318,-9729.412825
59316.415909,-9992.780217,-24130.713709,-5056.230287
59316.416219,-5329.482782,-22280.198854,-1149.143247
59316.416528,2220.617826,-18653.189738,7277.907231
59316.416838,6439.791695,-14211.954086,9729.412825
59316.417148,11917.315666,-2442.679609,9806.022374
59316.417458,15248.242405,0.000000,14632.424012
59316.417768,9400.615463,9622.677246,6971.469032
59316.418077,3552.988522,11769.274478,2451.505594
59316.418387,2294.638420,5329.482782,-1302.362347
59316.418697,-5699.585753,74.020594,-6128.763984
59316.419007,-10140.821405,-8512.368333,-10265.679673
59316.419316,-12583.501014,-16062.468941,-11261.603821
59316.419626,-15988.448347,-22724.322419,-9039.926876
59316.419936,-7772.162391,-25907.207970,-2528.115143
59316.420246,-3923.091493,-21910.095883,-76.609550
59316.420556,0.000000,-16654.633695,6128.763984
59316.420865,10584.944971,-13027.624579,11568.042020
59316.421175,12065.356855,-74.020594,9806.022374
59316.421485,12953.603985,0.000000,12563.966167
59316.421795,7920.203579,7550.100608,5745.716235
59316.422104,3997.112087,5107.421000,1762.019645
59316.422414,1036.288319,2220.617826,-2757.943793
59316.422724,-7105.977043,-1554.432478,-6128.763984
59316.423034,-8290.306550,-11621.233289,-8810.098227
59316.423344,-10732.986159,-18653.189738,-11108.384721
59316.423653,-14211.954086,-21095.869347,-9806.022374
59316.423963,-8882.471304,-23760.610738,-3064.381992
59316.424273,-3627.009116,-28423.908173,2987.772442
59316.424583,2146.597232,-23982.672521,9729.412825
59316.424892,9474.636058,-15470.304188,11797.870669
59316.425202,13101.645173,-8660.409521,14325.985813
59316.425512,10955.047942,370.102971,10418.898773
59316.425822,4737.318029,-74.020594,7967.393179
59316.426132,4737.318029,2886.803174,2451.505594
59316.426441,-74.020594,-4737.318029,-76.609550
59316.426751,-10362.883188,-4811.338623,-8580.269578
59316.427061,-10066.800811,-14285.974681,-10418.898773
59316.427371,-11917.315666,-23686.590144,-11108.384721
59316.427681,-15174.221811,-26943.496289,-7354.516781
59316.427990,-8882.471304,-25537.104999,-2528.115143
59316.428300,-3404.947333,-24648.857869,4826.401637
59316.428610,3923.091493,-16728.654289,8810.098227
59316.428920,8290.306550,-7772.162391,11644.651570
59316.429229,11843.295072,-370.102971,12870.404366
59316.429539,13767.830521,2664.741391,12793.794817
59316.429849,5403.503377,12361.439231,3064.381992
59316.430159,5033.400406,4219.173869,2374.896044
59316.430469,2294.638420,1184.329507,-2834.553343
59316.430778,-5921.647536,-2812.782580,-8197.221829
59316.431088,-9548.656652,-12287.418637,-10495.508323
59316.431398,-11325.150913,-17690.922014,-12180.918418
59316.431708,-11029.068536,-23020.404796,-6665.030833
59316.432017,-7328.038826,-20133.601622,-4749.792088
59316.432327,-2812.782580,-19023.292709,2451.505594
59316.432637,4737.318029,-13693.809927,8580.269578
59316.432947,12953.603985,-10658.965565,12180.918418
59316.433257,11843.295072,-3627.009116,13330.061665
59316.433566,9474.636058,7031.956449,9806.022374
59316.433876,9400.615463,7402.059420,5669.106685
59316.434186,5699.585753,4367.215058,3524.039291
59316.434496,-2146.597232,1110.308913,-3907.087040
59316.434805,-8512.368333,-6439.791695,-8197.221829
59316.435115,-11547.212695,-16284.530724,-9882.631924
59316.435425,-13397.727550,-21910.095883,-10495.508323
59316.435735,-12213.398043,-22206.178260,-7431.126331
59316.436044,-9474.636058,-21688.034101,-2451.505594
59316.436354,-370.102971,-21317.931130,6665.030833
59316.436664,7624.121203,-15396.283594,9729.412825
59316.436974,11547.212695,-5773.606348,13023.623466
59316.437284,12509.480420,0.000000,12870.404366
59316.437593,9178.553681,6439.791695,7354.516781
59316.437903,6661.853478,7328.038826,3217.601092
59316.438213,740.205942,1110.308913,-2451.505594
59316.438523,-4737.318029,-666.185348,-7967.393179
59316.438832,-7994.224174,-12065.356855,-7048.078582
59316.439142,-10140.821405,-17764.942608,-11108.384721
59316.439452,-13027.624579,-19023.292709,-14096.157163
59316.439762,-13027.624579,-23760.610738,-3983.696590
59316.440071,-7179.997637,-20725.766376,-1302.362347
59316.440381,-740.205942,-18801.230927,5209.449386
59316.440691,7105.977043,-12583.501014,8580.269578
59316.441001,10288.862594,-5403.503377,11644.651570
59316.441310,12953.603985,-5921.647536,14632.424012
59316.441620,11769.274478,0.000000,12180.918418
59316.441930,3552.988522,5551.544565,3447.429741
59316.442240,3256.906145,148.041188,-612.876398
59316.442550,-5995.668130,-3552.988522,-4979.620737
59316.442859,-11029.068536,-11843.295072,-10189.070123
59316.443169,-13915.871710,-19023.292709,-11951.089769
59316.443479,-17098.757260,-24574.837274,-10265.679673
59316.443789,-10214.842000,-25463.084405,-2451.505594
59316.444098,-5699.585753,-24056.693115,3294.210641
59316.444408,0.000000,-15618.345376,6128.763984
59316.444718,5921.647536,-8364.327145,8580.269578
59316.445028,14137.933492,-5699.585753,15398.519510
59316.445337,11177.109724,4293.194464,10035.851024
59316.445647,8290.306550,7031.956449,8580.269578
59316.445957,5625.565159,3627.009116,3753.867940
59316.446267,518.144159,1480.411884,-1915.238745
59316.446577,-5033.400406,-2368.659014,-5745.716235
59316.446886,-8512.368333,-12287.418637,-10189.070123
59316.447196,-11547.212695,-17838.963202,-12640.575717
59316.447506,-11251.130318,-22354.219448,-7814.174080
59316.447816,-5403.503377,-23686.590144,-2528.115143
59316.448125,-7105.977043,-22872.363608,0.000000
59316.448435,1924.535449,-15470.304188,7660.954980
59316.448745,9400.615463,-11251.130318,9116.536426
59316.449055,12361.439231,814.226536,10342.289223
59316.449364,10658.965565,3478.967927,11108.384721
59316.449674,10214.842000,8808.450710,7814.174080
59316.449984,7772.162391,8068.244768,2298.286494
59316.450294,-74.020594,1924.535449,-1608.800546
59316.450603,-8438.347739,-592.164754,-7584.345430
59316.450913,-13619.789333,-11917.315666,-12257.527968
59316.451223,-14211.954086,-20355.663405,-11184.994271
59316.451533,-12509.480420,-23686.590144,-7431.126331
59316.451843,-11843.295072,-22206.178260,-3600.648841
59316.452152,-3256.906145,-22502.260637,5056.230287
59316.452462,3997.112087,-16506.592507,8273.831378
59316.452772,10214.842000,-7920.203579,11951.089769
59316.453082,13915.871710,3330.926739,12180.918418
59316.453391,7846.182985,11769.274478,7890.783629
59316.453701,9178.553681,16210.510130,3983.696590
59316.454011,7920.203579,7105.977043,2374.896044
59316.454321,-2812.782580,6809.894666,-5975.544884
59316.454630,-9474.636058,-74.020594,-8580.269578
59316.454940,-11029.068536,-12731.542202,-12257.527968
59316.455250,-13989.892304,-16432.571912,-13942.938064
59316.455560,-12435.459826,-22354.219448,-7660.954980
59316.455869,-6809.894666,-21317.931130,-1838.629195
59316.456179,-2738.761985,-19985.560434,3677.258390
59316.456489,4663.297435,-17172.777854,10265.679673
59316.456799,11769.274478,-5921.647536,10342.289223
59316.457109,9474.636058,-3923.091493,14709.033562
59316.457418,13471.748144,4885.359217,12180.918418
59316.457728,8512.368333,12213.398043,2987.772442
59316.458038,8586.388927,2368.659014,4826.401637
59316.458348,-74.020594,2738.761985,-6358.592633
59316.458657,-10584.944971,-7772.162391,-9499.584175
59316.458967,-13249.686362,-17690.922014,-11261.603821
59316.459277,-16580.613101,-22946.384202,-13713.109414
59316.459587,-16654.633695,-25241.022622,-9806.022374
59316.459896,-7105.977043,-22872.363608,-1532.190996
59316.460206,-74.020594,-21910.095883,6052.154434
59316.460516,4293.194464,-10732.986159,6128.763984
59316.460826,12435.459826,-4219.173869,14709.033562
59316.461136,12731.542202,518.144159,14249.376263
59316.461445,10288.862594,8216.285956,8503.660028
59316.461755,7550.100608,8216.285956,4596.572988
59316.462065,4737.318029,3923.091493,459.657299
59316.462375,-2664.741391,-3849.070898,-153.219100
59316.462684,-5107.421000,-8290.306550,-8044.002729
59316.462994,-13101.645173,-12731.542202,-13253.452115
59316.463304,-14211.954086,-19319.375086,-12870.404366
59316.463614,-9548.656652,-27831.743419,-3140.991542
59316.463923,-6587.832884,-23686.590144,-2528.115143
59316.464233,-74.020594,-18801.230927,4826.401637
59316.464543,7994.224174,-10658.965565,8273.831378
59316.464853,12731.542202,-1998.556043,12180.918418
59316.465162,14211.954086,5329.482782,12027.699319
59316.465472,13841.851115,11621.233289,10342.289223
59316.465782,8290.306550,17690.922014,3677.258390
59316.466092,7105.977043,9992.780217,1915.238745
59316.466402,-2442.679609,0.000000,-2834.553343
59316.466711,-9844.739029,-4441.235652,-11721.261119
59316.467021,-14211.954086,-16654.633695,-12257.527968
59316.467331,-17172.777854,-22576.281231,-11031.775171
59316.467641,-13101.645173,-23834.631332,-7431.126331
59316.467950,-6143.709319,-24944.940245,76.609550
59316.468260,148.041188,-18875.251521,4826.401637
59316.468570,6661.853478,-13397.727550,10265.679673
59316.468880,14137.933492,-6513.812290,14019.547613
59316.469189,13397.727550,1184.329507,12027.699319
59316.469499,9548.656652,5847.626942,9806.022374
59316.469809,9400.615463,6513.812290,2987.772442
59316.470119,2960.823768,2886.803174,0.000000
59316.470428,-3034.844362,-3997.112087,-4979.620737
59316.470738,-8808.450710,-12213.398043,-7890.783629
59316.471048,-14434.015869,-17024.736666,-13330.061665
59316.471358,-13619.789333,-23168.445985,-10725.336972
59316.471668,-9992.780217,-28645.969955,-4136.915689
59316.471977,-8290.306550,-24352.775492,-1532.190996
59316.472287,-1850.514855,-21317.931130,4979.620737
59316.472597,7105.977043,-13767.830521,8810.098227
59316.472907,11399.171507,-4663.297435,11491.432470
59316.473216,12213.398043,814.226536,12257.527968
59316.473526,12805.562797,5329.482782,9729.412825
59316.473836,10214.842000,8882.471304,4826.401637
59316.474146,3552.988522,8216.285956,0.000000
59316.474455,-4811.338623,-2072.576638,-2528.115143
59316.474765,-11029.068536,-4811.338623,-10801.946522
59316.475075,-15322.262999,-16802.674883,-10725.336972
59316.475385,-16728.654289,-21762.054695,-10265.679673
59316.475695,-13323.706956,-25092.981434,-5056.230287
59316.476004,-7476.080014,-23094.425390,-153.219100
59316.476314,-962.267725,-16284.530724,5745.716235
59316.476624,8808.450710,-9474.636058,9116.536426
59316.476934,11769.274478,0.000000,11568.042020
59316.477243,8290.306550,7031.956449,9806.022374
59316.477553,12361.439231,5329.482782,9269.755526
59316.477863,10288.862594,5329.482782,2987.772442
59316.478173,1110.308913,1480.411884,-2451.505594
59316.478482,-6661.853478,-3404.947333,-4290.134789
59316.478792,-9548.656652,-11399.171507,-9806.022374
59316.479102,-12213.398043,-18579.169144,-11031.775171
59316.479412,-13101.645173,-21614.013506,-8656.879127
59316.479721,-9474.636058,-26055.249158,-1991.848295
59316.480031,-4737.318029,-22576.281231,3064.381992
59316.480341,3478.967927,-18949.272115,8503.660028
59316.480651,7105.977043,-4811.338623,7431.126331
59316.480961,11843.295072,-4811.338623,13483.280765
59316.481270,12953.603985,2812.782580,10342.289223
59316.481580,12583.501014,6883.915261,8656.879127
59316.481890,9918.759623,5847.626942,3447.429741
59316.482200,666.185348,1924.535449,-2298.286494
59316.482509,-6809.894666,-5995.668130,-4519.963438
59316.482819,-11103.089130,-15174.221811,-9806.022374
59316.483129,-13915.871710,-22280.198854,-9806.022374
59316.483439,-13101.645173,-25463.084405,-8656.879127
59316.483748,-11251.130318,-24352.775492,-3064.381992
59316.484058,-2442.679609,-21021.848753,3600.648841
59316.484368,4071.132681,-15100.201217,8197.221829
59316.484678,9030.512492,-2664.741391,9806.022374
59316.484988,12361.439231,1332.370696,12027.699319
59316.485297,11917.315666,7105.977043,10112.460574
59316.485607,11917.315666,8808.450710,7354.516781
59316.485917,5329.482782,7031.956449,2451.505594
59316.486227,-4145.153275,2294.638420,-4290.134789
59316.486536,-5403.503377,-8882.471304,-6205.373534
59316.486846,-10140.821405,-17024.736666,-8350.440928
59316.487156,-13915.871710,-20059.581028,-13330.061665
59316.487466,-12139.377449,-24278.754898,-6205.373534
59316.487775,-7254.018232,-23834.631332,-1532.190996
59316.488085,296.082377,-16432.571912,1991.848295
59316.488395,4589.276840,-11029.068536,7431.126331
59316.488705,12139.377449,2664.741391,7354.516781
59316.489014,11251.130318,7031.956449,9806.022374
59316.489324,9474.636058,12953.603985,8580.269578
59316.489634,13767.830521,11695.253884,6741.640382
59316.489944,7624.121203,11843.295072,995.924147
59316.490254,-1184.329507,7031.956449,-3830.477490
59316.490563,-11843.295072,-8586.388927,-7431.126331
59316.490873,-12213.398043,-16136.489536,-10955.165621
59316.491183,-15692.365970,-21391.951724,-12027.699319
59316.491493,-14582.057057,-26573.393318,-6358.592633
59316.491802,-7772.162391,-23168.445985,-3217.601092
59316.492112,-3034.844362,-19689.478057,4596.572988
59316.492422,4663.297435,-11843.295072,7277.907231
59316.492732,9474.636058,-2442.679609,9806.022374
59316.493041,11695.253884,0.000000,13100.233016
59316.493351,9474.636058,6143.709319,8503.660028
59316.493661,9474.636058,4959.379811,4903.011187
59316.493971,5847.626942,1998.556043,766.095498
59316.494280,-3627.009116,0.000000,-3753.867940
59316.494590,-12139.377449,-8142.265362,-10112.460574
59316.494900,-12805.562797,-11991.336260,-12027.699319
59316.495210,-12213.398043,-21021.848753,-11108.384721
59316.495520,-14211.954086,-21984.116477,-7201.297681
59316.495829,-6809.894666,-22576.281231,612.876398
59316.496139,2294.638420,-17172.777854,7277.907231
59316.496449,5847.626942,-10807.006753,9652.803275
59316.496759,10955.047942,-1554.432478,12257.527968
59316.497068,12361.439231,3182.885551,11031.775171
59316.497378,11991.336260,6661.853478,9346.365076
59316.497688,11473.192101,8216.285956,5056.230287
59316.497998,5625.565159,4737.318029,-76.609550
59316.498307,-3034.844362,-1184.329507,-4596.572988
59316.498617,-9548.656652,-9474.636058,-9882.631924
59316.498927,-16580.613101,-17838.963202,-12257.527968
59316.499237,-14952.160028,-24278.754898,-9729.412825
59316.499547,-11917.315666,-27239.578666,-4290.134789
59316.499856,-5921.647536,-21688.034101,612.876398
59316.500166,1776.494261,-16654.633695,7584.345430
59316.500476,8956.491898,-14211.954086,12257.527968
59316.500786,11621.233289,-5773.606348,13406.671215
59316.501095,11473.192101,0.000000,12180.918418
59316.501405,12065.356855,2368.659014,10648.727422
59316.501715,11769.274478,1184.329507,3600.648841
59316.502025,-74.020594,-962.267725,-842.705048
59316.502334,-5921.647536,-4219.173869,-6128.763984
59316.502644,-9548.656652,-14952.160028,-11031.775171
59316.502954,-15618.345376,-20133.601622,-14632.424012
59316.503264,-15988.448347,-27535.661042,-7967.393179
59316.503573,-8956.491898,-27683.702231,-3600.648841
59316.503883,-3256.906145,-23390.507767,1762.019645
59316.504193,2960.823768,-17542.880825,7967.393179
59316.504503,9474.636058,-8364.327145,9882.631924
59316.504813,16136.489536,-1184.329507,14632.424012
59316.505122,11769.274478,4441.235652,10648.727422
59316.505432,11843.295072,11473.192101,4903.011187
59316.505742,11103.089130,8216.285956,2757.943793
59316.506052,2294.638420,2960.823768,-1608.800546
59316.506361,-6883.915261,-2738.761985,-6971.469032
59316.506671,-12361.439231,-13841.851115,-10878.556072
59316.506981,-16654.633695,-20503.704593,-14325.985813
59316.507291,-16580.613101,-24944.940245,-9806.022374
59316.507600,-9474.636058,-26129.269753,-3677.258390
59316.507910,-3552.988522,-20207.622217,4290.134789
59316.508220,7031.956449,-16580.613101,9729.412825
59316.508530,9474.636058,-3627.009116,7967.393179
59316.508839,12435.459826,4367.215058,12180.918418
59316.509149,14137.933492,5921.647536,10955.165621
59316.509459,10436.903782,8586.388927,5362.668486
59316.509769,7328.038826,3552.988522,2298.286494
59316.510079,-962.267725,-296.082377,-3370.820191
59316.510388,-9474.636058,-8364.327145,-5515.887586
59316.510698,-13619.789333,-15100.201217,-10495.508323
59316.511008,-16580.613101,-19023.292709,-15321.909960
59316.511318,-12731.542202,-28794.011144,-5515.887586
59316.511627,-6587.832884,-28423.908173,-76.609550
59316.511937,-962.267725,-21317.931130,4826.401637
59316.512247,7624.121203,-16136.489536,10342.289223
59316.512557,13841.851115,2220.617826,9422.974625
59316.512866,13249.686362,3923.091493,12717.185267
59316.513176,12287.418637,9844.739029,9806.022374
59316.513486,10066.800811,10584.944971,4903.011187
59316.513796,7105.977043,8290.306550,2374.896044
59316.514106,-4071.132681,4663.297435,-5822.325785
59316.514415,-9770.718434,-6217.729913,-9039.926876
59316.514725,-13989.892304,-15396.283594,-12947.013916
59316.515035,-17098.757260,-22798.343014,-11108.384721
59316.515345,-13323.706956,-24944.940245,-6281.983084
59316.515654,-6957.935855,-21910.095883,-1915.238745
59316.515964,-1332.370696,-18579.169144,6281.983084
59316.516274,7550.100608,-7105.977043,8656.879127
59316.516584,11177.109724,-1776.494261,12180.918418
59316.516893,11769.274478,2368.659014,12793.794817
59316.517203,10288.862594,10510.924376,4826.401637
59316.517513,5921.647536,7031.956449,3677.258390
59316.517823,5847.626942,0.000000,-76.609550
59316.518132,-3775.050304,-4441.235652,-2221.676944
59316.518442,-10658.965565,-9548.656652,-9806.022374
59316.518752,-13767.830521,-18209.066173,-13023.623466
59316.519062,-15988.448347,-21021.848753,-12563.966167
59316.519372,-13841.851115,-24722.878463,-5515.887586
59316.519681,-2442.679609,-17172.777854,-76.609550
59316.519991,4071.132681,-13175.665768,7354.516781
59316.520301,12953.603985,-7105.977043,9729.412825
59316.520611,11769.274478,666.185348,11874.480219
59316.520920,10658.965565,4663.297435,12257.527968
59316.521230,12139.377449,9104.533087,9193.145976
59316.521540,7698.141797,9400.615463,3217.601092
59316.521850,5403.503377,6661.853478,-1532.190996
59316.522159,-4811.338623,-1258.350101,-4366.744339
59316.522469,-10732.986159,-9252.574275,-11568.042020
59316.522779,-13693.809927,-17468.860231,-12410.747068
59316.523089,-17690.922014,-24722.878463,-9806.022374
59316.523398,-9548.656652,-28423.908173,-2528.115143
59316.523708,-4219.173869,-26129.269753,3294.210641
59316.524018,0.000000,-15470.304188,7354.516781
59316.524328,10066.800811,-7772.162391,9806.022374
59316.524638,8808.450710,-2220.617826,12793.794817
59316.524947,10362.883188,3701.029710,9346.365076
59316.525257,7920.203579,4145.153275,6665.030833
59316.525567,6883.915261,4441.235652,2068.457845
59316.525877,2886.803174,-518.144159,-1225.752797
59316.526186,-8290.306550,-5995.668130,-5515.887586
59316.526496,-9844.739029,-12731.542202,-13023.623466
59316.526806,-14582.057057,-20133.601622,-13559.890315
59316.527116,-15396.283594,-24352.775492,-9806.022374
59316.527425,-11251.130318,-28497.928767,-3064.381992
59316.527735,-2442.679609,-21317.931130,3294.210641
59316.528045,5033.400406,-15914.427753,7967.393179
59316.528355,11917.315666,-4737.318029,9806.022374
59316.528665,12509.480420,2664.741391,11491.432470
59316.528974,10658.965565,9992.780217,7967.393179
59316.529284,11769.274478,10807.006753,5132.839837
59316.529594,8290.306550,8808.450710,3064.381992
59316.529904,2294.638420,5181.441594,-2528.115143
59316.530213,-10362.883188,-74.020594,-9806.022374
59316.530523,-11029.068536,-11103.089130,-12180.918418
59316.530833,-14285.974681,-20133.601622,-12027.699319
59316.531143,-13693.809927,-22650.301825,-7737.564530
59316.531452,-7254.018232,-23168.445985,-1838.629195
59316.531762,-888.247130,-17542.880825,4136.915689
59316.532072,4885.359217,-10140.821405,6741.640382
59316.532382,11917.315666,-1776.494261,10725.336972
59316.532691,9474.636058,3478.967927,10418.898773
59316.533001,10288.862594,4737.318029,9729.412825
59316.533311,5847.626942,9400.615463,1225.752797
59316.533621,5255.462188,4737.318029,-76.609550
59316.533930,-3034.844362,0.000000,-3140.991542
59316.534240,-8734.430116,-6883.915261,-8197.221829
59316.534550,-12509.480420,-17764.942608,-10878.556072
59316.534860,-14656.077652,-21317.931130,-10801.946522
59316.535169,-11991.336260,-26203.290347,-5592.497135
59316.535479,-3627.009116,-25463.084405,-76.609550
59316.535789,518.144159,-17912.983796,5822.325785
59316.536098,7402.059420,-11917.315666,9806.022374
59316.536408,16506.592507,-4737.318029,14632.424012
59316.536718,11769.274478,0.000000,12180.918418
59316.537027,9622.677246,5551.544565,7354.516781
59316.537337,8142.265362,5625.565159,4136.915689
59316.537647,5699.585753,6661.853478,-919.314598
59316.537957,-4441.235652,-444.123565,-4060.306139
59316.538266,-8956.491898,-6587.832884,-10418.898773
59316.538576,-12287.418637,-17098.757260,-10035.851024
59316.538886,-14878.139434,-25389.063811,-8273.831378
59316.539195,-11325.150913,-24574.837274,-4979.620737
59316.539505,-6513.812290,-21984.116477,1838.629195
59316.539815,1924.535449,-12805.562797,3830.477490
59316.540125,8586.388927,-5551.544565,8580.269578
59316.540434,12361.439231,592.164754,11874.480219
59316.540744,9992.780217,3182.885551,10878.556072
59316.541054,7772.162391,5625.565159,4979.620737
59316.541363,7846.182985,4367.215058,3677.258390
59316.541673,1184.329507,2886.803174,-2451.505594
59316.541983,-4219.173869,-4737.318029,-3907.087040
59316.542292,-10288.862594,-11843.295072,-9882.631924
59316.542602,-14211.954086,-16062.468941,-12257.527968
59316.542912,-14434.015869,-23760.610738,-9806.022374
59316.543222,-8660.409521,-27239.578666,-3140.991542
59316.543531,-2960.823768,-20725.766376,2451.505594
59316.543841,5033.400406,-18209.066173,7507.735880
59316.544151,11177.109724,-9844.739029,11797.870669
59316.544460,9474.636058,-74.020594,10112.460574
59316.544770,8808.450710,3849.070898,8963.317327
59316.545080,9474.636058,5847.626942,4903.011187
59316.545390,9400.615463,592.164754,4826.401637
59316.545699,-666.185348,4071.132681,-4366.744339
59316.546009,-5773.606348,-3775.050304,-6818.249932
59316.546319,-10732.986159,-16580.613101,-8350.440928
59316.546628,-16432.571912,-20873.807564,-11874.480219
59316.546938,-13545.768739,-25167.002028,-7814.174080
59316.547248,-8956.491898,-27239.578666,-1072.533697
59316.547557,-3849.070898,-19023.292709,1225.752797
59316.547867,4663.297435,-17320.819043,9729.412825
59316.548177,9474.636058,-3034.844362,9959.241474
59316.548487,12065.356855,0.000000,13176.842566
59316.548796,8808.450710,2960.823768,8503.660028
59316.549106,7031.956449,5921.647536,3600.648841
59316.549416,6735.874072,3256.906145,995.924147
59316.549725,-1258.350101,-370.102971,-2987.772442
59316.550035,-6661.853478,-6661.853478,-6511.811733
59316.550345,-12139.377449,-14730.098246,-9806.022374
59316.550655,-14582.057057,-20651.745782,-11108.384721
59316.550964,-12213.398043,-26055.249158,-7431.126331
59316.551274,-9474.636058,-25537.104999,0.000000
59316.551584,592.164754,-18431.127956,5515.887586
59316.551893,9400.615463,-15988.448347,9729.412825
59316.552203,15026.180623,-4737.318029,13406.671215
59316.552513,11843.295072,1850.514855,11031.775171
59316.552822,9770.718434,-666.185348,9116.536426
59316.553132,8290.306550,296.082377,5975.544884
59316.553442,5477.523971,666.185348,306.438199
59316.553752,-1258.350101,-1776.494261,-4366.744339
59316.554061,-7550.100608,-7179.997637,-8886.707777
59316.554371,-13915.871710,-14804.118840,-10801.946522
59316.554681,-14804.118840,-22576.281231,-9806.022374
59316.554990,-10214.842000,-29238.134709,-2604.724693
59316.555300,-4811.338623,-27683.702231,4213.525239
59316.555610,2368.659014,-15470.304188,5515.887586
59316.555920,8438.347739,-14804.118840,11108.384721
59316.556229,12065.356855,-4589.276840,12104.308868
59316.556539,9474.636058,1924.535449,10112.460574
59316.556849,8512.368333,2368.659014,7584.345430
59316.557158,7105.977043,4663.297435,2451.505594
59316.557468,3478.967927,296.082377,-76.609550
59316.557778,-4589.276840,-1554.432478,-4903.011187
59316.558087,-7179.997637,-12287.418637,-5592.497135
59316.558397,-13619.789333,-16654.633695,-9729.412825
59316.558707,-15100.201217,-21391.951724,-9806.022374
59316.559017,-10436.903782,-27239.578666,-3140.991542
59316.559326,-4219.173869,-22724.322419,2374.896044
59316.559636,4219.173869,-15322.262999,7354.516781
59316.559946,11769.274478,-10510.924376,11031.775171
59316.560255,12139.377449,-74.020594,11031.775171
59316.560565,11177.109724,1776.494261,9729.412825
59316.560875,5477.523971,2590.720797,2451.505594
59316.561184,9030.512492,1184.329507,3524.039291
59316.561494,0.000000,-74.020594,0.000000
59316.561804,-6365.771101,-3627.009116,-6052.154434
59316.562114,-9474.636058,-12213.398043,-9806.022374
59316.562423,-15396.283594,-23538.548956,-10572.117872
59316.562733,-13841.851115,-26351.331535,-7277.907231
59316.563043,-9474.636058,-28497.928767,-1149.143247
59316.563352,-3404.947333,-22576.281231,3217.601092
59316.563662,5847.626942,-16580.613101,9729.412825
59316.563972,8586.388927,-5403.503377,8503.660028
59316.564282,10066.800811,1702.473667,11031.775171
59316.564591,7105.977043,2886.803174,10418.898773
59316.564901,5255.462188,4811.338623,3600.648841
59316.565211,4737.318029,3997.112087,-383.047749
59316.565520,-1480.411884,-1628.453072,-3294.210641
59316.565830,-7698.141797,-5921.647536,-6665.030833
59316.566140,-13323.706956,-14359.995275,-10112.460574
59316.566449,-16580.613101,-20207.622217,-11491.432470
59316.566759,-9844.739029,-25759.166782,-5898.935335
59316.567069,-8290.306550,-26129.269753,-1302.362347
59316.567379,0.000000,-19023.292709,4903.011187
59316.567688,7328.038826,-12731.542202,7354.516781
59316.567998,14137.933492,-4737.318029,12793.794817
59316.568308,13249.686362,3404.947333,10342.289223
59316.568617,8808.450710,2072.576638,8044.002729
59316.568927,6439.791695,2442.679609,4673.182538
59316.569237,3701.029710,2886.803174,612.876398
59316.569547,-3552.988522,-74.020594,-4903.011187
59316.569856,-7105.977043,-5699.585753,-9193.145976
59316.570166,-11917.315666,-15396.283594,-9882.631924
59316.570476,-16580.613101,-19023.292709,-12257.527968
59316.570785,-11917.315666,-26647.413912,-5286.058936
59316.571095,-5107.421000,-23686.590144,1149.143247
59316.571405,1110.308913,-16802.674883,5439.278036
59316.571714,8290.306550,-9844.739029,10112.460574
59316.572024,12065.356855,-3256.906145,12027.699319
59316.572334,8808.450710,1332.370696,10955.165621
59316.572644,7328.038826,4293.194464,6435.202183
59316.572953,4145.153275,4663.297435,1225.752797
59316.573263,2368.659014,1702.473667,612.876398
59316.573573,-2442.679609,-2368.659014,-4979.620737
59316.573882,-7772.162391,-10658.965565,-7431.126331
59316.574192,-13471.748144,-16802.674883,-10955.165621
59316.574502,-12805.562797,-21614.013506,-8656.879127
59316.574812,-9104.533087,-26055.249158,-2528.115143
59316.575121,-2664.741391,-23316.487173,3983.696590
59316.575431,3478.967927,-18949.272115,9729.412825
59316.575741,11769.274478,-9474.636058,10955.165621
59316.576050,10955.047942,-1850.514855,11338.213370
59316.576360,11769.274478,0.000000,12793.794817
59316.576670,7624.121203,1776.494261,4213.525239
59316.576979,7920.203579,0.000000,3600.648841
59316.577289,1480.411884,222.061783,-1378.971896
59316.577599,-5773.606348,-4219.173869,-5286.058936
59316.577909,-8216.285956,-11621.233289,-10495.508323
59316.578218,-14211.954086,-20281.642811,-10878.556072
59316.578528,-11917.315666,-21984.116477,-7967.393179
59316.578838,-9918.759623,-26277.310941,-995.924147
59316.579147,-1258.350101,-18949.272115,3600.648841
59316.579457,2368.659014,-10732.986159,6128.763984
59316.579767,12435.459826,-4811.338623,11644.651570
59316.580077,12583.501014,1480.411884,13330.061665
59316.580386,5329.482782,6143.709319,7967.393179
59316.580696,5847.626942,7920.203579,3217.601092
59316.581006,4589.276840,6883.915261,-1149.143247
59316.581315,-666.185348,4663.297435,-4366.744339
59316.581625,-5551.544565,-3330.926739,-7354.516781
59316.581935,-11843.295072,-11621.233289,-10035.851024
59316.582244,-12805.562797,-18653.189738,-9882.631924
59316.582554,-13619.789333,-21984.116477,-9193.145976
59316.582864,-8290.306550,-26425.352129,306.438199
59316.583174,-1776.494261,-19319.375086,6128.763984
59316.583483,5921.647536,-13693.809927,8427.050478
59316.583793,13175.665768,-4811.338623,11338.213370
59316.584103,11843.295072,1998.556043,10342.289223
59316.584412,7179.997637,2590.720797,7201.297681
59316.584722,6735.874072,4663.297435,2528.115143
59316.585032,4737.318029,2738.761985,229.828649
59316.585342,1480.411884,-888.247130,-383.047749
