#time,accel_x,accel_y,accel_z
59445.374100,-74.020594,-9474.636058,1149.143247
59445.374410,-888.247130,-8512.368333,306.438199
59445.374720,-296.082377,-8956.491898,842.705048
59445.375030,-592.164754,-8808.450710,689.485948
59445.375339,0.000000,-7772.162391,0.000000
59445.375649,592.164754,-9992.780217,2451.505594
59445.375959,-74.020594,-9474.636058,1455.581446
59445.376269,-3552.988522,-7179.997637,0.000000
59445.376579,2294.638420,-10658.965565,2068.457845
59445.376889,-962.267725,-7105.977043,-689.485948
59445.377199,1110.308913,-10510.924376,1762.019645
59445.377508,-518.144159,-9030.512492,383.047749
59445.377818,-148.041188,-9178.553681,612.876398
59445.378128,-74.020594,-9474.636058,1072.533697
59445.378438,-2368.659014,-6587.832884,306.438199
59445.378748,0.000000,-8660.409521,1225.752797
59445.379058,1110.308913,-10362.883188,2374.896044
59445.379368,-3552.988522,-6587.832884,0.000000
59445.379678,1998.556043,-11251.130318,2068.457845
59445.379987,-74.020594,-9474.636058,-76.609550
59445.380297,592.164754,-9992.780217,1991.848295
59445.380607,-74.020594,-9474.636058,995.924147
59445.380917,-444.123565,-9252.574275,612.876398
59445.381227,-370.102971,-9030.512492,612.876398
59445.381537,-2368.659014,-7179.997637,0.000000
59445.381847,-2368.659014,-7772.162391,0.000000
59445.382156,0.000000,-9548.656652,1762.019645
59445.382466,-3256.906145,-6291.750507,0.000000
59445.382776,1702.473667,-10658.965565,2374.896044
59445.383086,-74.020594,-9474.636058,1762.019645
59445.383396,0.000000,-9252.574275,1225.752797
59445.383706,-74.020594,-9030.512492,1302.362347
59445.384016,-296.082377,-9400.615463,995.924147
59445.384326,-370.102971,-8882.471304,689.485948
59445.384635,-74.020594,-8586.388927,-1302.362347
59445.384945,-1776.494261,-7476.080014,0.000000
59445.385255,-1776.494261,-7772.162391,612.876398
59445.385565,-74.020594,-8882.471304,-76.609550
59445.385875,-1776.494261,-8512.368333,1225.752797
59445.386185,-74.020594,-10658.965565,3294.210641
59445.386495,-2072.576638,-8364.327145,306.438199
59445.386805,-74.020594,-9252.574275,1072.533697
59445.387114,-518.144159,-9252.574275,1149.143247
59445.387424,-74.020594,-9178.553681,842.705048
59445.387734,-74.020594,-9474.636058,-76.609550
59445.388044,-370.102971,-7994.224174,-383.047749
59445.388354,-1184.329507,-8364.327145,0.000000
59445.388664,2294.638420,-11843.295072,2374.896044
59445.388974,-1924.535449,-7476.080014,0.000000
59445.389283,0.000000,-9548.656652,3064.381992
59445.389593,-1406.391290,-8068.244768,0.000000
59445.389903,0.000000,-8956.491898,1072.533697
59445.390213,0.000000,-9252.574275,766.095498
59445.390523,-592.164754,-8956.491898,459.657299
59445.390833,-74.020594,-9474.636058,2374.896044
59445.391143,-74.020594,-8882.471304,-76.609550
59445.391453,-1332.370696,-7476.080014,0.000000
59445.391762,1998.556043,-11251.130318,2987.772442
59445.392072,-962.267725,-7179.997637,76.609550
59445.392382,0.000000,-9548.656652,2451.505594
59445.392692,-1776.494261,-7772.162391,0.000000
59445.393002,-518.144159,-9178.553681,995.924147
59445.393312,-370.102971,-9104.533087,689.485948
59445.393622,-592.164754,-9030.512492,689.485948
59445.393931,2294.638420,-10658.965565,2374.896044
59445.394241,-370.102971,-7994.224174,-383.047749
59445.394551,-1184.329507,-7772.162391,0.000000
59445.394861,-74.020594,-9474.636058,-76.609550
59445.395171,-1776.494261,-7772.162391,0.000000
59445.395481,1332.370696,-10732.986159,3370.820191
59445.395791,-1776.494261,-7476.080014,0.000000
59445.396101,0.000000,-9400.615463,2604.724693
59445.396410,-148.041188,-9400.615463,1072.533697
59445.396720,-370.102971,-9178.553681,842.705048
59445.397030,2294.638420,-10658.965565,-76.609550
59445.397340,-666.185348,-7994.224174,-536.266849
59445.397650,-1628.453072,-8068.244768,0.000000
59445.397960,2294.638420,-11843.295072,2987.772442
59445.398270,0.000000,-7772.162391,0.000000
59445.398579,1554.432478,-10807.006753,2911.162892
59445.398889,0.000000,-8364.327145,2451.505594
59445.399199,1110.308913,-9178.553681,1149.143247
59445.399509,370.102971,-8290.306550,842.705048
59445.399819,888.247130,-8438.347739,1378.971896
59445.400129,518.144159,-7179.997637,0.000000
59445.400439,0.000000,-7624.121203,0.000000
59445.400749,1184.329507,-8956.491898,2757.943793
59445.401058,2294.638420,-8882.471304,-1302.362347
59445.401368,1184.329507,-8364.327145,1225.752797
59445.401678,5847.626942,-11843.295072,3600.648841
59445.401988,1776.494261,-8364.327145,919.314598
59445.402298,2664.741391,-9030.512492,459.657299
59445.402608,2368.659014,-9400.615463,536.266849
59445.402918,2812.782580,-9622.677246,459.657299
59445.403227,4663.297435,-9474.636058,-76.609550
59445.403537,4071.132681,-8882.471304,-76.609550
59445.403847,3552.988522,-8068.244768,612.876398
59445.404157,5255.462188,-7698.141797,536.266849
59445.404467,5921.647536,-8956.491898,2451.505594
59445.404777,7031.956449,-8808.450710,3447.429741
59445.405087,4737.318029,-7328.038826,612.876398
59445.405397,5329.482782,-8660.409521,306.438199
59445.405706,5773.606348,-8882.471304,229.828649
59445.406016,6143.709319,-9252.574275,0.000000
59445.406326,8808.450710,-10658.965565,-76.609550
59445.406636,6439.791695,-10658.965565,-76.609550
59445.406946,3849.070898,-10436.903782,-2451.505594
59445.407256,5255.462188,-14211.954086,2145.067394
59445.407566,1850.514855,-11917.315666,-1685.410096
59445.407875,592.164754,-10732.986159,612.876398
59445.408185,2442.679609,-9474.636058,1149.143247
59445.408495,2664.741391,-8364.327145,1685.410096
59445.408805,4219.173869,-5773.606348,1225.752797
59445.409115,5033.400406,-5181.441594,2374.896044
59445.409425,8956.491898,-5921.647536,5439.278036
59445.409735,10584.944971,-5921.647536,4213.525239
59445.410045,9400.615463,-4145.153275,536.266849
59445.410354,7105.977043,-8956.491898,1838.629195
59445.410664,3478.967927,-14211.954086,-689.485948
59445.410974,-4737.318029,-13101.645173,-4903.011187
59445.411284,-4219.173869,-18653.189738,-3140.991542
59445.411594,-4663.297435,-13915.871710,-3677.258390
59445.411904,-3182.885551,-10066.800811,-2068.457845
59445.412214,-1184.329507,-6513.812290,-536.266849
59445.412524,2368.659014,-7179.997637,3983.696590
59445.412833,5477.523971,-6217.729913,5592.497135
59445.413143,6439.791695,-4737.318029,4826.401637
59445.413453,592.164754,-2442.679609,3677.258390
59445.413763,3330.926739,-5921.647536,4826.401637
59445.414073,814.226536,-1554.432478,0.000000
59445.414383,4663.297435,-4737.318029,3294.210641
59445.414693,3478.967927,-6143.709319,383.047749
59445.415002,0.000000,-11029.068536,-1378.971896
59445.415312,-3108.864956,-16876.695478,-3064.381992
59445.415622,-7105.977043,-19023.292709,-3677.258390
59445.415932,-6365.771101,-19023.292709,-3064.381992
59445.416242,-3034.844362,-15396.283594,-1302.362347
59445.416552,-2442.679609,-6439.791695,-2911.162892
59445.416862,2960.823768,-5403.503377,2451.505594
59445.417172,4663.297435,-4737.318029,3294.210641
59445.417481,5033.400406,-5403.503377,5515.887586
59445.417791,5699.585753,-5551.544565,5669.106685
59445.418101,7920.203579,-3923.091493,5439.278036
59445.418411,8808.450710,-3404.947333,4826.401637
59445.418721,4737.318029,-3627.009116,4903.011187
59445.419031,1184.329507,-7772.162391,612.876398
59445.419341,0.000000,-14285.974681,0.000000
59445.419650,-74.020594,-18357.107362,-3140.991542
59445.419960,-4145.153275,-14582.057057,-6128.763984
59445.420270,-3627.009116,-17764.942608,-3753.867940
59445.420580,-5773.606348,-14730.098246,-4290.134789
59445.420890,-1110.308913,-10955.047942,-1455.581446
59445.421200,5033.400406,-6587.832884,2528.115143
59445.421510,11251.130318,-1998.556043,5745.716235
59445.421820,11843.295072,-74.020594,6128.763984
59445.422129,11843.295072,-2442.679609,7507.735880
59445.422439,9474.636058,-5995.668130,6435.202183
59445.422749,8216.285956,-9474.636058,3600.648841
59445.423059,2664.741391,-8364.327145,0.000000
59445.423369,2294.638420,-14211.954086,-76.609550
59445.423679,-3256.906145,-13841.851115,-4903.011187
59445.423989,-1184.329507,-14582.057057,-3677.258390
59445.424298,3478.967927,-12509.480420,-1378.971896
59445.424608,3627.009116,-10584.944971,0.000000
59445.424918,1702.473667,-9474.636058,-1762.019645
59445.425228,1036.288319,-8956.491898,0.000000
59445.425538,3552.988522,-3627.009116,1225.752797
59445.425848,9400.615463,-4737.318029,4826.401637
59445.426158,3552.988522,-2738.761985,1608.800546
59445.426468,3552.988522,-3627.009116,459.657299
59445.426777,8216.285956,-6883.915261,1762.019645
59445.427087,6587.832884,-9400.615463,2834.553343
59445.427397,2294.638420,-11325.150913,536.266849
59445.427707,-2146.597232,-13323.706956,-2298.286494
59445.428017,-1628.453072,-14730.098246,-1608.800546
59445.428327,-1184.329507,-12583.501014,-1838.629195
59445.428637,-74.020594,-11843.295072,-689.485948
59445.428946,592.164754,-7179.997637,0.000000
59445.429256,8216.285956,-6809.894666,2987.772442
59445.429566,9696.697840,-6365.771101,4826.401637
59445.429876,4737.318029,-5699.585753,3370.820191
59445.430186,3182.885551,-5847.626942,2681.334243
59445.430496,2738.761985,-5773.606348,995.924147
59445.430806,1628.453072,-8068.244768,459.657299
59445.431116,0.000000,-9400.615463,0.000000
59445.431425,0.000000,-10362.883188,-1915.238745
59445.431735,-2368.659014,-11917.315666,0.000000
59445.432045,-1258.350101,-16580.613101,-1302.362347
59445.432355,-4293.194464,-12509.480420,-4596.572988
59445.432665,-2072.576638,-8660.409521,0.000000
59445.432975,3775.050304,-7031.956449,2374.896044
59445.433285,5329.482782,-5847.626942,3753.867940
59445.433594,5329.482782,-6365.771101,4366.744339
59445.433904,4885.359217,-6587.832884,4213.525239
59445.434214,3701.029710,-8882.471304,2834.553343
59445.434524,1776.494261,-8956.491898,3064.381992
59445.434834,1702.473667,-8882.471304,-76.609550
59445.435144,0.000000,-10140.821405,1225.752797
59445.435454,-3034.844362,-11251.130318,-76.609550
59445.435764,-4811.338623,-12435.459826,-3753.867940
59445.436073,-6069.688724,-11325.150913,-2374.896044
59445.436383,-4293.194464,-11399.171507,-306.438199
59445.436693,-370.102971,-8216.285956,1762.019645
59445.437003,2294.638420,-6587.832884,4826.401637
59445.437313,2072.576638,-4959.379811,3447.429741
59445.437623,0.000000,-3182.885551,995.924147
59445.437933,-1184.329507,-7179.997637,1838.629195
59445.438242,-2442.679609,-8882.471304,-76.609550
59445.438552,-4737.318029,-7179.997637,0.000000
59445.438862,-3552.988522,-11399.171507,1225.752797
59445.439172,-4811.338623,-11843.295072,-689.485948
59445.439482,-7402.059420,-12509.480420,-1991.848295
59445.439792,-6143.709319,-10732.986159,-2145.067394
59445.440102,-4885.359217,-8438.347739,-995.924147
59445.440412,-740.205942,-8216.285956,1378.971896
59445.440721,4663.297435,-8290.306550,4826.401637
59445.441031,2590.720797,-3849.070898,3217.601092
59445.441341,2960.823768,-7179.997637,5132.839837
59445.441651,0.000000,-5403.503377,0.000000
59445.441961,-1406.391290,-8882.471304,76.609550
59445.442271,-1776.494261,-9844.739029,0.000000
59445.442581,-1998.556043,-10436.903782,-612.876398
59445.442890,-4219.173869,-11917.315666,-995.924147
59445.443200,-4219.173869,-14211.954086,-76.609550
59445.443510,-5773.606348,-9844.739029,-2528.115143
59445.443820,-7105.977043,-7772.162391,-2451.505594
59445.444130,-1702.473667,-8660.409521,919.314598
59445.444440,1702.473667,-3849.070898,536.266849
59445.444749,6217.729913,-6513.812290,7507.735880
59445.445059,7031.956449,-6143.709319,6665.030833
59445.445369,3923.091493,-4811.338623,2681.334243
59445.445679,2886.803174,-9326.594869,1762.019645
59445.445989,1036.288319,-10288.862594,153.219100
59445.446298,0.000000,-10214.842000,-2911.162892
59445.446608,-74.020594,-13101.645173,0.000000
59445.446918,-1850.514855,-15396.283594,-1302.362347
59445.447228,-5551.544565,-11917.315666,-4060.306139
59445.447538,-2368.659014,-11917.315666,0.000000
59445.447848,-74.020594,-11251.130318,766.095498
59445.448157,1036.288319,-6365.771101,1149.143247
59445.448467,5625.565159,-5551.544565,4673.182538
59445.448777,7624.121203,-3552.988522,4979.620737
59445.449087,5181.441594,-4811.338623,4290.134789
59445.449397,4663.297435,-9474.636058,6052.154434
59445.449706,4071.132681,-5181.441594,1762.019645
59445.450016,1184.329507,-10140.821405,1838.629195
59445.450326,2590.720797,-12213.398043,-76.609550
59445.450636,-4811.338623,-12435.459826,-3753.867940
59445.450946,-4589.276840,-15396.283594,-2911.162892
59445.451256,-4367.215058,-15026.180623,-2757.943793
59445.451565,-6143.709319,-12361.439231,-3064.381992
59445.451875,-3775.050304,-9696.697840,-1225.752797
59445.452185,2294.638420,-5847.626942,2528.115143
59445.452495,3849.070898,-1554.432478,3677.258390
59445.452805,6809.894666,-3923.091493,7048.078582
59445.453114,4663.297435,-4737.318029,4213.525239
59445.453424,2368.659014,-6291.750507,2451.505594
59445.453734,4663.297435,-8290.306550,2068.457845
59445.454044,0.000000,-9548.656652,612.876398
59445.454354,-3849.070898,-11621.233289,-1838.629195
59445.454663,-6513.812290,-14730.098246,-3140.991542
59445.454973,-7476.080014,-15766.386565,-3830.477490
59445.455283,-8364.327145,-14211.954086,-4060.306139
59445.455593,-5403.503377,-13619.789333,-76.609550
59445.455903,-2294.638420,-6069.688724,536.266849
59445.456213,3552.988522,-3627.009116,5209.449386
59445.456522,6439.791695,-3552.988522,7277.907231
59445.456832,2368.659014,-1258.350101,4903.011187
59445.457142,4663.297435,-4145.153275,3600.648841
59445.457452,2886.803174,-7698.141797,2987.772442
59445.457762,-518.144159,-8882.471304,229.828649
59445.458071,-3627.009116,-12731.542202,-1915.238745
59445.458381,-7105.977043,-14952.160028,-3907.087040
59445.458691,-11251.130318,-15470.304188,-6128.763984
59445.459001,-7772.162391,-16580.613101,-4366.744339
59445.459311,-6587.832884,-13027.624579,-2528.115143
59445.459621,-7105.977043,-7179.997637,0.000000
59445.459930,4071.132681,-7994.224174,5439.278036
59445.460240,7179.997637,-4367.215058,7584.345430
59445.460550,5329.482782,-1406.391290,7048.078582
59445.460860,6217.729913,-2368.659014,6205.373534
59445.461170,5107.421000,-4367.215058,4213.525239
59445.461479,3552.988522,-7550.100608,2451.505594
59445.461789,-74.020594,-11251.130318,-76.609550
59445.462099,-5181.441594,-13693.809927,-2604.724693
59445.462409,-6883.915261,-16432.571912,-4519.963438
59445.462719,-7920.203579,-16210.510130,-6052.154434
59445.463029,-8142.265362,-15100.201217,-4519.963438
59445.463338,-6513.812290,-12361.439231,-1072.533697
59445.463648,2072.576638,-8734.430116,3294.210641
59445.463958,6439.791695,-2072.576638,4213.525239
59445.464268,8586.388927,-2146.597232,8886.707777
59445.464578,9400.615463,-2960.823768,7890.783629
59445.464887,9400.615463,-4737.318029,6665.030833
59445.465197,5625.565159,-4811.338623,3677.258390
59445.465507,3108.864956,-8438.347739,1072.533697
59445.465817,-2220.617826,-11325.150913,-1378.971896
59445.466127,-5921.647536,-14804.118840,-4596.572988
59445.466437,-8290.306550,-16654.633695,-4749.792088
59445.466746,-8290.306550,-16506.592507,-4826.401637
59445.467056,-7179.997637,-13471.748144,-4979.620737
59445.467366,-2072.576638,-9548.656652,1225.752797
59445.467676,6439.791695,-7105.977043,5898.935335
59445.467986,10584.944971,-4145.153275,8503.660028
59445.468295,7105.977043,-740.205942,6281.983084
59445.468605,5403.503377,-3182.885551,5592.497135
59445.468915,6809.894666,-3627.009116,4596.572988
59445.469225,5551.544565,-6587.832884,2757.943793
59445.469535,0.000000,-8364.327145,1225.752797
59445.469845,-4737.318029,-12805.562797,-1455.581446
59445.470154,-8956.491898,-15692.365970,-6205.373534
59445.470464,-9474.636058,-16654.633695,-6128.763984
59445.470774,-9548.656652,-17764.942608,-5286.058936
59445.471084,-5921.647536,-14211.954086,-1608.800546
59445.471394,0.000000,-8364.327145,1838.629195
59445.471703,5921.647536,-3552.988522,5286.058936
59445.472013,6957.935855,-2664.741391,7737.564530
59445.472323,7031.956449,-666.185348,7124.688131
59445.472633,4737.318029,-74.020594,4903.011187
59445.472943,5329.482782,-3627.009116,4903.011187
59445.473252,3478.967927,-9474.636058,-76.609550
59445.473562,-6957.935855,-11029.068536,-2451.505594
59445.473872,-7179.997637,-16876.695478,-4290.134789
59445.474182,-10066.800811,-18949.272115,-5515.887586
59445.474492,-12509.480420,-17912.983796,-7814.174080
59445.474802,-10510.924376,-15174.221811,-4826.401637
59445.475111,-2664.741391,-10510.924376,229.828649
59445.475421,4293.194464,-5699.585753,4519.963438
59445.475731,2960.823768,-1554.432478,5515.887586
59445.476041,5921.647536,-2146.597232,7354.516781
59445.476351,9400.615463,-1776.494261,7277.907231
59445.476660,4737.318029,-1258.350101,5515.887586
59445.476970,4663.297435,-5921.647536,4519.963438
59445.477280,-1184.329507,-9548.656652,1532.190996
59445.477590,-5847.626942,-12879.583391,-3677.258390
59445.477900,-9474.636058,-16284.530724,-6281.983084
59445.478210,-12509.480420,-19023.292709,-7967.393179
59445.478519,-12879.583391,-17024.736666,-6894.859482
59445.478829,-8290.306550,-11325.150913,-6665.030833
59445.479139,592.164754,-8364.327145,0.000000
59445.479449,7550.100608,-7105.977043,7584.345430
59445.479759,8216.285956,-1776.494261,7584.345430
59445.480068,8438.347739,-74.020594,8580.269578
59445.480378,9474.636058,-74.020594,9193.145976
59445.480688,8068.244768,-2368.659014,6052.154434
59445.480998,2072.576638,-6809.894666,1838.629195
59445.481308,-2368.659014,-10658.965565,-1149.143247
59445.481618,-5847.626942,-15100.201217,-3753.867940
59445.481927,-9548.656652,-17320.819043,-8656.879127
59445.482237,-13323.706956,-17542.880825,-9806.022374
59445.482547,-8364.327145,-18949.272115,-3753.867940
59445.482857,-2664.741391,-9548.656652,-2298.286494
59445.483167,3552.988522,-7179.997637,3677.258390
59445.483476,5329.482782,-4219.173869,6741.640382
59445.483786,9400.615463,-2738.761985,8503.660028
59445.484096,10955.047942,-1332.370696,8656.879127
59445.484406,10658.965565,-2220.617826,7660.954980
59445.484716,7031.956449,-3034.844362,4213.525239
59445.485026,1110.308913,-7105.977043,536.266849
59445.485335,-4663.297435,-10732.986159,-4903.011187
59445.485645,-4811.338623,-18949.272115,-3753.867940
59445.485955,-13027.624579,-17542.880825,-9806.022374
59445.486265,-11843.295072,-17987.004391,-7354.516781
59445.486575,-7105.977043,-13101.645173,-4903.011187
59445.486884,518.144159,-9400.615463,842.705048
59445.487194,2886.803174,-6513.812290,4519.963438
59445.487504,6217.729913,-4515.256246,6741.640382
59445.487814,10288.862594,-1332.370696,8120.612279
59445.488124,14137.933492,-1480.411884,9729.412825
59445.488434,10288.862594,-74.020594,4903.011187
59445.488743,5921.647536,-4811.338623,5209.449386
59445.489053,-1258.350101,-8290.306550,-1302.362347
59445.489363,-7105.977043,-13101.645173,-4596.572988
59445.489673,-12953.603985,-16876.695478,-9499.584175
59445.489983,-14878.139434,-21095.869347,-9269.755526
59445.490292,-11917.315666,-18061.024985,-7967.393179
59445.490602,-4219.173869,-12361.439231,-2068.457845
59445.490912,370.102971,-8660.409521,2987.772442
59445.491222,4367.215058,-6513.812290,6971.469032
59445.491532,7920.203579,-2368.659014,6052.154434
59445.491841,10066.800811,-74.020594,11031.775171
59445.492151,12657.521608,0.000000,10648.727422
59445.492461,5329.482782,-74.020594,5515.887586
59445.492771,-74.020594,-4737.318029,612.876398
59445.493081,-4515.256246,-10658.965565,-2145.067394
59445.493391,-10658.965565,-16136.489536,-5975.544884
59445.493700,-15100.201217,-19541.436869,-9806.022374
59445.494010,-14656.077652,-18209.066173,-9269.755526
59445.494320,-8586.388927,-16580.613101,-5286.058936
59445.494630,-1554.432478,-13027.624579,-76.609550
59445.494940,-2368.659014,-7179.997637,1225.752797
59445.495249,5033.400406,-8364.327145,7967.393179
59445.495559,12213.398043,-3256.906145,10648.727422
59445.495869,12657.521608,1776.494261,9729.412825
59445.496179,10436.903782,-74.020594,10648.727422
59445.496489,6365.771101,-2146.597232,5975.544884
59445.496799,-666.185348,-6365.771101,-153.219100
59445.497108,-7254.018232,-11769.274478,-3140.991542
59445.497418,-13027.624579,-18875.251521,-6741.640382
59445.497728,-15470.304188,-18949.272115,-10495.508323
59445.498038,-15988.448347,-16654.633695,-9806.022374
59445.498348,-5995.668130,-17172.777854,-1915.238745
59445.498657,-518.144159,-11177.109724,383.047749
59445.498967,4663.297435,-7698.141797,4826.401637
59445.499277,8956.491898,-3552.988522,8120.612279
59445.499587,12509.480420,-2294.638420,11568.042020
59445.499897,13545.768739,148.041188,11108.384721
59445.500207,10732.986159,-1184.329507,9193.145976
59445.500516,3552.988522,-5403.503377,3064.381992
59445.500826,-1628.453072,-9548.656652,0.000000
59445.501136,-7179.997637,-16580.613101,-5592.497135
59445.501446,-15396.283594,-19023.292709,-10418.898773
59445.501756,-12287.418637,-18357.107362,-9193.145976
59445.502065,-8364.327145,-16950.716072,-5592.497135
59445.502375,-4145.153275,-11991.336260,-2298.286494
59445.502685,222.061783,-9918.759623,1455.581446
59445.502995,4737.318029,-6957.935855,6052.154434
59445.503305,11769.274478,-2886.803174,9806.022374
59445.503615,12435.459826,-74.020594,11338.213370
59445.503924,12435.459826,2886.803174,10418.898773
59445.504234,11769.274478,-4737.318029,7277.907231
59445.504544,370.102971,-4811.338623,-1302.362347
59445.504854,-6957.935855,-12509.480420,-4903.011187
59445.505164,-12065.356855,-18949.272115,-6205.373534
59445.505473,-13989.892304,-18653.189738,-11261.603821
59445.505783,-10214.842000,-15544.324782,-9422.974625
59445.506093,-6883.915261,-15248.242405,-4903.011187
59445.506403,-1480.411884,-12657.521608,0.000000
59445.506713,1480.411884,-7772.162391,3983.696590
59445.507023,7105.977043,-3034.844362,7354.516781
59445.507332,14137.933492,-4737.318029,12793.794817
59445.507642,12361.439231,1110.308913,9959.241474
59445.507952,11547.212695,-74.020594,9422.974625
59445.508262,4737.318029,-5847.626942,5286.058936
59445.508572,-2590.720797,-6809.894666,-2451.505594
59445.508881,-9918.759623,-14137.933492,-5975.544884
59445.509191,-13693.809927,-17542.880825,-9346.365076
59445.509501,-14582.057057,-19023.292709,-12027.699319
59445.509811,-12509.480420,-14508.036463,-9039.926876
59445.510121,-10955.047942,-13101.645173,-4136.915689
59445.510431,-2368.659014,-9548.656652,2451.505594
59445.510740,6439.791695,-8882.471304,7277.907231
59445.511050,9696.697840,-1702.473667,10495.508323
59445.511360,13027.624579,-1998.556043,14096.157163
59445.511670,13915.871710,888.247130,12104.308868
59445.511980,8586.388927,-666.185348,6741.640382
59445.512289,0.000000,-5329.482782,-766.095498
59445.512599,-7846.182985,-9548.656652,-5592.497135
59445.512909,-13101.645173,-17764.942608,-8963.317327
59445.513219,-17616.901420,-17246.798449,-11951.089769
59445.513529,-12435.459826,-17320.819043,-8580.269578
59445.513838,-10140.821405,-15988.448347,-4979.620737
59445.514148,-6291.750507,-13175.665768,1149.143247
59445.514458,1332.370696,-10732.986159,4903.011187
59445.514768,9400.615463,-4737.318029,9729.412825
59445.515078,13101.645173,-962.267725,11491.432470
59445.515388,12657.521608,0.000000,12180.918418
59445.515697,12435.459826,1480.411884,9729.412825
59445.516007,5847.626942,-4737.318029,4213.525239
59445.516317,-3627.009116,-7994.224174,-3753.867940
59445.516627,-11843.295072,-13101.645173,-7967.393179
59445.516937,-13101.645173,-21317.931130,-8044.002729
59445.517246,-14508.036463,-16580.613101,-11031.775171
59445.517556,-14211.954086,-14285.974681,-9039.926876
59445.517866,-9030.512492,-16062.468941,-1685.410096
59445.518176,-1554.432478,-11843.295072,2834.553343
59445.518486,5921.647536,-2442.679609,5515.887586
59445.518796,14508.036463,-2368.659014,12180.918418
59445.519105,17690.922014,0.000000,14709.033562
59445.519415,18283.086767,3552.988522,13406.671215
59445.519725,9474.636058,1702.473667,6128.763984
59445.520035,2294.638420,-7105.977043,3600.648841
59445.520345,-8364.327145,-10140.821405,-7354.516781
59445.520654,-15100.201217,-14878.139434,-11031.775171
59445.520964,-14582.057057,-18209.066173,-12257.527968
59445.521274,-12139.377449,-16284.530724,-11261.603821
59445.521584,-11325.150913,-17098.757260,-6128.763984
59445.521894,-3923.091493,-14804.118840,-76.609550
59445.522204,6143.709319,-9474.636058,6128.763984
59445.522513,14137.933492,-5921.647536,9729.412825
59445.522823,11029.068536,-1850.514855,12257.527968
59445.523133,16432.571912,592.164754,14632.424012
59445.523443,15322.262999,-592.164754,9806.022374
59445.523753,7031.956449,-2812.782580,2221.676944
59445.524062,-5551.544565,-9104.533087,-3294.210641
59445.524372,-11177.109724,-14804.118840,-8197.221829
59445.524682,-14878.139434,-18579.169144,-9652.803275
59445.524992,-12805.562797,-19911.539840,-10418.898773
59445.525302,-13619.789333,-17838.963202,-8197.221829
59445.525612,-10658.965565,-16950.716072,-3370.820191
59445.525921,2146.597232,-13619.789333,3294.210641
59445.526231,6513.812290,-5995.668130,3753.867940
59445.526541,10807.006753,-3034.844362,9806.022374
59445.526851,14137.933492,-2960.823768,14632.424012
59445.527161,17098.757260,3923.091493,12410.747068
59445.527470,11251.130318,-518.144159,8120.612279
59445.527780,148.041188,-6143.709319,-306.438199
59445.528090,-10066.800811,-9548.656652,-6128.763984
59445.528400,-15396.283594,-17246.798449,-9806.022374
59445.528710,-12731.542202,-19467.416275,-9346.365076
59445.529020,-14285.974681,-18653.189738,-10495.508323
59445.529329,-15396.283594,-15470.304188,-9806.022374
59445.529639,-5477.523971,-14285.974681,-1302.362347
59445.529949,6439.791695,-11843.295072,6052.154434
59445.530259,8586.388927,-7402.059420,10342.289223
59445.530569,12805.562797,-3478.967927,14402.595362
59445.530878,17542.880825,3108.864956,14249.376263
59445.531188,16580.613101,3478.967927,12257.527968
59445.531498,6513.812290,-1258.350101,2451.505594
59445.531808,-3552.988522,-9548.656652,-306.438199
59445.532118,-9548.656652,-13619.789333,-7431.126331
59445.532427,-15396.283594,-15470.304188,-12257.527968
59445.532737,-14878.139434,-18949.272115,-11108.384721
59445.533047,-14878.139434,-22206.178260,-8044.002729
59445.533357,-11621.233289,-17172.777854,-4749.792088
59445.533667,74.020594,-12657.521608,995.924147
59445.533977,7179.997637,-8512.368333,7354.516781
59445.534286,9918.759623,-1258.350101,11031.775171
59445.534596,13619.789333,2294.638420,13559.890315
59445.534906,16580.613101,7031.956449,12257.527968
59445.535216,15322.262999,592.164754,9729.412825
59445.535526,814.226536,-3256.906145,-76.609550
59445.535835,-12435.459826,-9474.636058,-3753.867940
59445.536145,-9770.718434,-15914.427753,-9729.412825
59445.536455,-14359.995275,-17246.798449,-12334.137518
59445.536765,-17838.963202,-19245.354492,-11797.870669
59445.537075,-15248.242405,-16876.695478,-7967.393179
59445.537385,-6513.812290,-14878.139434,-2374.896044
59445.537694,2368.659014,-12435.459826,4826.401637
59445.538004,6069.688724,-4811.338623,7354.516781
59445.538314,13323.706956,-5551.544565,16241.224558
59445.538624,18875.251521,4737.318029,13406.671215
59445.538934,17987.004391,3552.988522,13406.671215
59445.539243,7105.977043,-5107.421000,5515.887586
59445.539553,-4293.194464,-7846.182985,-1455.581446
59445.539863,-11843.295072,-11547.212695,-8810.098227
59445.540173,-12435.459826,-15988.448347,-10495.508323
59445.540483,-14582.057057,-23094.425390,-9269.755526
59445.540793,-16654.633695,-22502.260637,-9882.631924
59445.541102,-12731.542202,-14285.974681,-7354.516781
59445.541412,-74.020594,-14804.118840,1608.800546
59445.541722,9400.615463,-9474.636058,8503.660028
59445.542032,13397.727550,-5625.565159,14249.376263
59445.542341,15396.283594,-74.020594,15015.471761
59445.542651,20725.766376,5477.523971,13176.842566
59445.542961,14952.160028,2590.720797,9652.803275
59445.543271,592.164754,-1628.453072,0.000000
59445.543580,-9548.656652,-7105.977043,-7431.126331
59445.543890,-9548.656652,-14211.954086,-10189.070123
59445.544200,-11621.233289,-15396.283594,-12640.575717
59445.544510,-18949.272115,-19615.457463,-11644.651570
59445.544819,-11917.315666,-17764.942608,-6205.373534
59445.545129,-4737.318029,-12509.480420,-1838.629195
59445.545439,2664.741391,-6587.832884,2451.505594
59445.545749,9400.615463,-6217.729913,10648.727422
59445.546058,10288.862594,-2812.782580,13253.452115
59445.546368,17764.942608,2960.823768,14709.033562
59445.546678,20059.581028,4737.318029,12180.918418
59445.546988,8216.285956,-3256.906145,7277.907231
59445.547297,-2442.679609,-4737.318029,-1302.362347
59445.547607,-10436.903782,-6513.812290,-9652.803275
59445.547917,-10140.821405,-13619.789333,-14785.643111
59445.548226,-16580.613101,-19615.457463,-13483.280765
59445.548536,-17246.798449,-20873.807564,-9269.755526
59445.548846,-11029.068536,-17098.757260,-4213.525239
59445.549156,-2738.761985,-11843.295072,-689.485948
59445.549465,8956.491898,-4145.153275,5745.716235
59445.549775,13841.851115,-4515.256246,14096.157163
59445.550085,17468.860231,2294.638420,16241.224558
59445.550395,20947.828159,5329.482782,13406.671215
59445.550704,12805.562797,3404.947333,8503.660028
59445.551014,0.000000,-1258.350101,1225.752797
59445.551324,-8290.306550,-6291.750507,-4903.011187
59445.551634,-9992.780217,-10584.944971,-9422.974625
59445.551943,-13471.748144,-15026.180623,-11644.651570
59445.552253,-17987.004391,-19763.498651,-12640.575717
59445.552563,-16136.489536,-18801.230927,-8886.707777
59445.552873,-7105.977043,-14285.974681,-3677.258390
59445.553182,0.000000,-14285.974681,3677.258390
59445.553492,7105.977043,-12435.459826,10342.289223
59445.553802,12953.603985,-3552.988522,12793.794817
59445.554111,14211.954086,7031.956449,11031.775171
59445.554421,15396.283594,4663.297435,9806.022374
59445.554731,11177.109724,0.000000,4826.401637
59445.555041,-2368.659014,-3849.070898,0.000000
59445.555350,-8586.388927,-7550.100608,-6894.859482
59445.555660,-12509.480420,-11325.150913,-10189.070123
59445.555970,-17172.777854,-18135.045579,-12870.404366
59445.556280,-18949.272115,-19023.292709,-11031.775171
59445.556589,-14211.954086,-19023.292709,-6435.202183
59445.556899,-3627.009116,-14211.954086,-1302.362347
59445.557209,0.000000,-10732.986159,3983.696590
59445.557519,11769.274478,-2886.803174,10035.851024
59445.557828,18875.251521,296.082377,14632.424012
59445.558138,17468.860231,3552.988522,13406.671215
59445.558448,12731.542202,962.267725,10878.556072
59445.558758,3182.885551,-2294.638420,995.924147
59445.559067,-7105.977043,-5995.668130,-4903.011187
59445.559377,-13027.624579,-11917.315666,-9806.022374
59445.559687,-10658.965565,-17764.942608,-8963.317327
59445.559996,-15470.304188,-19689.478057,-13100.233016
59445.560306,-17764.942608,-17246.798449,-9806.022374
59445.560616,-5995.668130,-17764.942608,-3753.867940
59445.560926,3182.885551,-15914.427753,5286.058936
59445.561235,7920.203579,-12879.583391,10648.727422
59445.561545,13323.706956,-3404.947333,12870.404366
59445.561855,16284.530724,3330.926739,12947.013916
59445.562165,14804.118840,3478.967927,11261.603821
59445.562474,8142.265362,1332.370696,3907.087040
59445.562784,-3552.988522,-2738.761985,-1838.629195
59445.563094,-8586.388927,-8660.409521,-5592.497135
59445.563404,-13397.727550,-11917.315666,-12027.699319
59445.563713,-13101.645173,-21021.848753,-9882.631924
59445.564023,-16432.571912,-21688.034101,-9576.193725
59445.564333,-12953.603985,-19245.354492,-7124.688131
59445.564642,-4219.173869,-18209.066173,-536.266849
59445.564952,6069.688724,-12213.398043,7890.783629
59445.565262,13249.686362,-2960.823768,12180.918418
59445.565572,17098.757260,-444.123565,15628.348159
59445.565881,16950.716072,4367.215058,12257.527968
59445.566191,13027.624579,2294.638420,9806.022374
59445.566501,4737.318029,-3034.844362,3370.820191
59445.566811,-3034.844362,-8290.306550,-1608.800546
59445.567120,-12731.542202,-11325.150913,-9193.145976
59445.567430,-11103.089130,-14508.036463,-11031.775171
59445.567740,-16136.489536,-16654.633695,-13330.061665
59445.568050,-16580.613101,-15692.365970,-9269.755526
59445.568359,-7476.080014,-16580.613101,-3447.429741
59445.568669,2960.823768,-14285.974681,5362.668486
59445.568979,9400.615463,-8290.306550,9729.412825
59445.569289,11843.295072,1998.556043,9806.022374
59445.569598,18061.024985,5107.421000,14402.595362
59445.569908,15544.324782,1554.432478,13713.109414
59445.570218,7105.977043,-222.061783,3983.696590
59445.570527,-2220.617826,-4071.132681,-995.924147
59445.570837,-10066.800811,-8364.327145,-7124.688131
59445.571147,-13471.748144,-12287.418637,-10418.898773
59445.571457,-14878.139434,-21021.848753,-11414.822920
59445.571766,-18505.148550,-20799.786970,-10495.508323
59445.572076,-13101.645173,-18949.272115,-6511.811733
59445.572386,-4071.132681,-13545.768739,-3140.991542
59445.572696,5329.482782,-14878.139434,7967.393179
59445.573005,13027.624579,-5403.503377,14096.157163
59445.573315,14804.118840,-74.020594,13176.842566
59445.573625,15692.365970,370.102971,13253.452115
59445.573935,10955.047942,-1036.288319,10189.070123
59445.574244,1628.453072,-2368.659014,842.705048
59445.574554,-5107.421000,-9030.512492,-2145.067394
59445.574864,-11621.233289,-11621.233289,-8580.269578
59445.575174,-10732.986159,-17764.942608,-9882.631924
59445.575483,-18061.024985,-19023.292709,-14709.033562
59445.575793,-18949.272115,-17838.963202,-9806.022374
59445.576103,-9474.636058,-19023.292709,-2451.505594
59445.576412,1480.411884,-14285.974681,3294.210641
59445.576722,9474.636058,-7179.997637,10112.460574
59445.577032,13989.892304,-592.164754,12793.794817
59445.577342,16284.530724,518.144159,14096.157163
59445.577651,14508.036463,1110.308913,12410.747068
59445.577961,8882.471304,-518.144159,2987.772442
59445.578271,-1480.411884,-6883.915261,-76.609550
59445.578581,-6587.832884,-7698.141797,-6205.373534
59445.578890,-11843.295072,-10732.986159,-8580.269578
59445.579200,-13619.789333,-18135.045579,-11031.775171
59445.579510,-13693.809927,-18653.189738,-10342.289223
59445.579820,-12953.603985,-19319.375086,-7354.516781
59445.580129,-4293.194464,-17024.736666,0.000000
59445.580439,5921.647536,-11917.315666,6741.640382
59445.580749,12139.377449,-4367.215058,11261.603821
59445.581059,13989.892304,-518.144159,12334.137518
59445.581368,15026.180623,518.144159,12257.527968
59445.581678,11769.274478,4145.153275,5745.716235
59445.581988,3552.988522,-2442.679609,4903.011187
59445.582297,-5403.503377,-2516.700203,-6128.763984
59445.582607,-8364.327145,-10658.965565,-7124.688131
59445.582917,-8956.491898,-14137.933492,-9193.145976
59445.583227,-14359.995275,-18431.127956,-11184.994271
59445.583536,-14434.015869,-18949.272115,-9269.755526
59445.583846,-9474.636058,-18283.086767,-3217.601092
59445.584156,888.247130,-14285.974681,3140.991542
59445.584466,9474.636058,-7328.038826,9806.022374
59445.584775,15322.262999,-4737.318029,13406.671215
59445.585085,14137.933492,1776.494261,10955.165621
59445.585395,12953.603985,2960.823768,7584.345430
59445.585705,7624.121203,-3256.906145,4826.401637
59445.586014,-1998.556043,-2886.803174,-2374.896044
59445.586324,-8882.471304,-7031.956449,-5209.449386
59445.586634,-10066.800811,-11621.233289,-7814.174080
59445.586944,-15100.201217,-16358.551318,-9269.755526
59445.587253,-15470.304188,-17542.880825,-10648.727422
59445.587563,-15248.242405,-16950.716072,-6741.640382
59445.587873,-1850.514855,-14211.954086,-76.609550
59445.588182,2368.659014,-7772.162391,2757.943793
59445.588492,10584.944971,-4737.318029,9729.412825
59445.588802,14137.933492,-962.267725,11951.089769
59445.589112,12065.356855,-2368.659014,11184.994271
59445.589421,8660.409521,-1332.370696,7660.954980
59445.589731,1480.411884,-3182.885551,1532.190996
59445.590041,-4219.173869,-5625.565159,-1302.362347
59445.590351,-5847.626942,-9474.636058,-4749.792088
59445.590660,-11251.130318,-12287.418637,-8427.050478
59445.590970,-12731.542202,-16802.674883,-8580.269578
59445.591280,-10732.986159,-20133.601622,-5592.497135
59445.591590,-7179.997637,-20725.766376,-1302.362347
59445.591899,1036.288319,-12509.480420,2681.334243
59445.592209,7550.100608,-9918.759623,8197.221829
59445.592519,10732.986159,-3552.988522,10801.946522
59445.592829,11621.233289,-1332.370696,10648.727422
59445.593138,10584.944971,-1776.494261,9729.412825
59445.593448,5329.482782,-370.102971,2528.115143
59445.593758,-2738.761985,-2368.659014,-1378.971896
59445.594067,-7105.977043,-4811.338623,-2451.505594
59445.594377,-5995.668130,-13027.624579,-4366.744339
59445.594687,-9992.780217,-17172.777854,-6205.373534
59445.594997,-14211.954086,-16950.716072,-10878.556072
59445.595306,-11399.171507,-18209.066173,-5439.278036
59445.595616,-3330.926739,-15396.283594,153.219100
59445.595926,6291.750507,-9548.656652,4673.182538
59445.596236,11399.171507,-7920.203579,9193.145976
59445.596545,11695.253884,-4959.379811,10418.898773
59445.596855,11177.109724,-4737.318029,9116.536426
59445.597165,2960.823768,-74.020594,3677.258390
59445.597475,2368.659014,-4811.338623,3064.381992
59445.597784,-814.226536,-5921.647536,2221.676944
59445.598094,-4737.318029,-6291.750507,-2451.505594
59445.598404,-6513.812290,-10658.965565,-5056.230287
59445.598714,-10510.924376,-14063.912898,-8120.612279
59445.599023,-10732.986159,-17912.983796,-5975.544884
59445.599333,-5625.565159,-16654.633695,-3983.696590
59445.599643,-1036.288319,-13767.830521,1608.800546
59445.599952,6439.791695,-10066.800811,5745.716235
59445.600262,5329.482782,-5995.668130,5209.449386
59445.600572,9474.636058,-4219.173869,8580.269578
59445.600882,8882.471304,-2442.679609,8580.269578
59445.601191,4441.235652,-2072.576638,3064.381992
59445.601501,888.247130,-4367.215058,1225.752797
59445.601811,-2072.576638,-5625.565159,-842.705048
59445.602121,-4219.173869,-10584.944971,-2451.505594
59445.602430,-7994.224174,-12583.501014,-8120.612279
59445.602740,-11843.295072,-16284.530724,-7354.516781
59445.603050,-8364.327145,-18949.272115,-4060.306139
59445.603360,-4219.173869,-13767.830521,-2604.724693
59445.603669,2368.659014,-10140.821405,3677.258390
59445.603979,4737.318029,-7179.997637,6128.763984
59445.604289,7624.121203,-6217.729913,5898.935335
59445.604599,8956.491898,-4219.173869,6052.154434
59445.604908,4959.379811,-4219.173869,5669.106685
59445.605218,1258.350101,-4071.132681,2145.067394
59445.605528,0.000000,-4367.215058,-689.485948
59445.605837,-3256.906145,-6735.874072,-1225.752797
59445.606147,-4885.359217,-11843.295072,-3140.991542
59445.606457,-13027.624579,-11917.315666,-9193.145976
59445.606767,-10510.924376,-18875.251521,-4290.134789
59445.607076,-7698.141797,-15470.304188,-3677.258390
59445.607386,-666.185348,-12731.542202,842.705048
59445.607696,3108.864956,-9252.574275,5056.230287
59445.608006,5699.585753,-6365.771101,6128.763984
59445.608315,8290.306550,-3701.029710,7354.516781
59445.608625,7105.977043,-888.247130,5745.716235
59445.608935,592.164754,-1258.350101,3064.381992
59445.609245,1480.411884,-3552.988522,3907.087040
59445.609554,-74.020594,-4145.153275,-1915.238745
59445.609864,-5921.647536,-8364.327145,-2451.505594
59445.610174,-8882.471304,-11029.068536,-6741.640382
59445.610484,-10140.821405,-18061.024985,-5286.058936
59445.610793,-8734.430116,-18505.148550,-4136.915689
59445.611103,-2812.782580,-14137.933492,-612.876398
59445.611413,1036.288319,-11843.295072,2911.162892
59445.611722,3330.926739,-9474.636058,6511.811733
59445.612032,6143.709319,-7105.977043,6052.154434
59445.612342,6217.729913,-4811.338623,6128.763984
59445.612652,5847.626942,-2960.823768,4213.525239
59445.612961,0.000000,-2442.679609,1838.629195
59445.613271,1110.308913,-3552.988522,0.000000
59445.613581,-1776.494261,-7624.121203,153.219100
59445.613891,-5255.462188,-9622.677246,-3753.867940
59445.614200,-9918.759623,-14508.036463,-6435.202183
59445.614510,-9326.594869,-16950.716072,-5439.278036
59445.614820,-4811.338623,-17172.777854,-689.485948
59445.615130,-666.185348,-10362.883188,-383.047749
59445.615439,1184.329507,-9548.656652,612.876398
59445.615749,4737.318029,-8660.409521,7354.516781
59445.616059,8216.285956,-7105.977043,6052.154434
59445.616368,7031.956449,-4145.153275,5439.278036
59445.616678,2960.823768,-2738.761985,4519.963438
59445.616988,3478.967927,-2812.782580,2987.772442
59445.617298,2072.576638,-4515.256246,1991.848295
59445.617607,-1332.370696,-7328.038826,-1532.190996
59445.617917,-5107.421000,-13027.624579,-2528.115143
59445.618227,-7476.080014,-16284.530724,-4979.620737
59445.618537,-5921.647536,-17542.880825,-2451.505594
59445.618846,-74.020594,-16580.613101,-689.485948
59445.619156,-1628.453072,-11473.192101,0.000000
59445.619466,4071.132681,-12435.459826,6052.154434
59445.619776,5329.482782,-6587.832884,3830.477490
59445.620085,5773.606348,-4515.256246,5056.230287
59445.620395,3627.009116,-3108.864956,4596.572988
59445.620705,3997.112087,-2220.617826,3294.210641
59445.621015,5477.523971,-4219.173869,4749.792088
59445.621324,2294.638420,-6513.812290,842.705048
59445.621634,-4589.276840,-7179.997637,-6128.763984
59445.621944,-6513.812290,-15914.427753,-2451.505594
59445.622253,-4811.338623,-15396.283594,-4979.620737
59445.622563,-2442.679609,-15396.283594,-1915.238745
59445.622873,-2368.659014,-11473.192101,-1608.800546
59445.623183,0.000000,-12509.480420,1991.848295
59445.623492,2960.823768,-9696.697840,3140.991542
59445.623802,4663.297435,-7254.018232,3830.477490
59445.624112,2960.823768,-4811.338623,4903.011187
59445.624422,3775.050304,-2960.823768,4749.792088
59445.624731,4663.297435,-2368.659014,3600.648841
59445.625041,1184.329507,-1258.350101,2451.505594
59445.625351,-74.020594,-8290.306550,-76.609550
59445.625661,-4737.318029,-12657.521608,-536.266849
59445.625970,-6661.853478,-14730.098246,-3677.258390
59445.626280,-5847.626942,-15470.304188,-3983.696590
59445.626590,-4219.173869,-14804.118840,-2681.334243
59445.626900,-3182.885551,-14804.118840,229.828649
59445.627209,0.000000,-10140.821405,612.876398
59445.627519,1480.411884,-8956.491898,2068.457845
59445.627829,2294.638420,-8882.471304,4826.401637
59445.628138,0.000000,-2442.679609,1838.629195
59445.628448,5255.462188,-4367.215058,6588.421283
59445.628758,4737.318029,-2442.679609,4903.011187
59445.629068,1110.308913,-4589.276840,1762.019645
59445.629377,-3034.844362,-7179.997637,-1302.362347
59445.629687,-4959.379811,-11547.212695,-1991.848295
59445.629997,-4885.359217,-13767.830521,-2145.067394
59445.630307,-5921.647536,-12213.398043,-4903.011187
59445.630616,-5329.482782,-14285.974681,-1838.629195
59445.630926,-2442.679609,-17764.942608,2374.896044
59445.631236,-1258.350101,-10066.800811,-383.047749
59445.631546,0.000000,-8364.327145,1838.629195
59445.631855,0.000000,-5107.421000,2757.943793
59445.632165,4071.132681,-4071.132681,4826.401637
59445.632475,5625.565159,-1924.535449,5745.716235
59445.632785,4663.297435,-1702.473667,4366.744339
59445.633094,-148.041188,-5995.668130,1149.143247
59445.633404,-2886.803174,-7328.038826,-1149.143247
59445.633714,-4737.318029,-12509.480420,-1225.752797
59445.634023,-2442.679609,-16580.613101,-689.485948
59445.634333,-5995.668130,-13027.624579,-4979.620737
59445.634643,-5921.647536,-14285.974681,-1838.629195
59445.634953,-2738.761985,-12065.356855,-1225.752797
59445.635262,-222.061783,-11843.295072,1072.533697
59445.635572,-370.102971,-7772.162391,2068.457845
59445.635882,2442.679609,-6513.812290,3907.087040
59445.636192,7179.997637,-3478.967927,6358.592633
59445.636501,8216.285956,0.000000,6052.154434
59445.636811,2368.659014,-1850.514855,2757.943793
59445.637121,2886.803174,-8660.409521,4213.525239
59445.637431,-1850.514855,-8142.265362,-1915.238745
59445.637740,-4145.153275,-11029.068536,-2451.505594
59445.638050,-4219.173869,-13175.665768,-3983.696590
59445.638360,-3923.091493,-15026.180623,-2451.505594
59445.638670,-3923.091493,-14730.098246,-1991.848295
59445.638979,-3330.926739,-14211.954086,-1455.581446
59445.639289,-3034.844362,-11251.130318,-153.219100
59445.639599,-74.020594,-9474.636058,2374.896044
59445.639908,3923.091493,-4293.194464,3600.648841
59445.640218,5921.647536,-74.020594,6128.763984
59445.640528,8216.285956,-3552.988522,6665.030833
59445.640838,1776.494261,-1924.535449,1838.629195
59445.641147,1702.473667,-6217.729913,0.000000
59445.641457,-74.020594,-10510.924376,612.876398
59445.641767,-2368.659014,-11843.295072,-2528.115143
59445.642077,-5107.421000,-14804.118840,-3600.648841
59445.642386,-5107.421000,-16210.510130,-2528.115143
59445.642696,-2590.720797,-16580.613101,-689.485948
59445.643006,-3330.926739,-13619.789333,-1302.362347
59445.643316,-6513.812290,-7179.997637,-2451.505594
59445.643625,0.000000,-8956.491898,4290.134789
59445.643935,7920.203579,-4737.318029,5439.278036
59445.644245,8808.450710,296.082377,5822.325785
59445.644555,4737.318029,-2738.761985,5975.544884
59445.644864,2368.659014,-3108.864956,2834.553343
59445.645174,-592.164754,-7772.162391,766.095498
59445.645484,-518.144159,-9104.533087,-76.609550
59445.645793,-2664.741391,-14211.954086,-229.828649
59445.646103,-5699.585753,-16432.571912,-2528.115143
59445.646413,-5995.668130,-15988.448347,-3753.867940
59445.646723,-8586.388927,-13101.645173,-5822.325785
59445.647032,-5329.482782,-13693.809927,-1225.752797
59445.647342,-1258.350101,-10066.800811,612.876398
59445.647652,3849.070898,-5403.503377,4290.134789
59445.647962,9104.533087,-3849.070898,7124.688131
59445.648271,6735.874072,0.000000,6358.592633
59445.648581,4219.173869,-3182.885551,5439.278036
59445.648891,5847.626942,-6513.812290,4826.401637
59445.649201,2294.638420,-8290.306550,1149.143247
59445.649510,-3552.988522,-9548.656652,0.000000
59445.649820,-3627.009116,-15396.283594,-1915.238745
59445.650130,-9252.574275,-14434.015869,-4903.011187
59445.650440,-7772.162391,-16580.613101,-5209.449386
59445.650749,-7698.141797,-15174.221811,-3983.696590
59445.651059,-5107.421000,-12731.542202,-612.876398
59445.651369,962.267725,-7476.080014,2528.115143
59445.651679,7476.080014,-2146.597232,7201.297681
59445.651988,9104.533087,-2368.659014,9652.803275
59445.652298,7031.956449,-1776.494261,7277.907231
59445.652608,2146.597232,-1258.350101,1225.752797
59445.652917,2368.659014,-7772.162391,3064.381992
59445.653227,-74.020594,-10658.965565,-383.047749
59445.653537,-3627.009116,-13767.830521,-2528.115143
59445.653847,-7105.977043,-16210.510130,-4060.306139
59445.654156,-8142.265362,-16358.551318,-5056.230287
59445.654466,-7920.203579,-15766.386565,-5362.668486
59445.654776,-7105.977043,-15100.201217,-919.314598
59445.655086,0.000000,-9844.739029,2604.724693
59445.655395,7031.956449,-5625.565159,7277.907231
59445.655705,9400.615463,0.000000,6052.154434
59445.656015,4737.318029,-74.020594,4903.011187
59445.656325,6735.874072,-3404.947333,6052.154434
59445.656634,6291.750507,-4145.153275,4826.401637
59445.656944,1554.432478,-7031.956449,842.705048
59445.657254,-1628.453072,-10362.883188,-842.705048
59445.657564,-5329.482782,-14730.098246,-2604.724693
59445.657873,-7476.080014,-16062.468941,-6128.763984
59445.658183,-9474.636058,-16802.674883,-6741.640382
59445.658493,-8364.327145,-17468.860231,-2528.115143
59445.658803,-2442.679609,-13027.624579,-1302.362347
59445.659112,592.164754,-5995.668130,612.876398
59445.659422,9178.553681,-3775.050304,6281.983084
59445.659732,9548.656652,-2368.659014,9729.412825
59445.660041,8512.368333,-814.226536,6818.249932
59445.660351,7698.141797,-2442.679609,5822.325785
59445.660661,5033.400406,-6069.688724,3524.039291
59445.660971,592.164754,-7698.141797,-2145.067394
59445.661280,-5921.647536,-11325.150913,-3370.820191
59445.661590,-5921.647536,-15470.304188,-3064.381992
59445.661900,-7179.997637,-18949.272115,-5592.497135
59445.662210,-11843.295072,-15470.304188,-7354.516781
59445.662519,-8142.265362,-15470.304188,-2528.115143
59445.662829,-2368.659014,-11843.295072,2604.724693
59445.663139,5033.400406,-5107.421000,3830.477490
59445.663449,6883.915261,-962.267725,6205.373534
59445.663758,7476.080014,-370.102971,7354.516781
59445.664068,7328.038826,-1258.350101,4903.011187
59445.664378,4737.318029,-2146.597232,1838.629195
59445.664688,2368.659014,-5995.668130,1225.752797
59445.664997,-74.020594,-11843.295072,-76.609550
59445.665307,-8290.306550,-13693.809927,-4290.134789
59445.665617,-9178.553681,-17838.963202,-4673.182538
59445.665926,-11251.130318,-19023.292709,-6435.202183
59445.666236,-10140.821405,-17320.819043,-4979.620737
59445.666546,-5403.503377,-12657.521608,-1455.581446
59445.666856,2516.700203,-7994.224174,2451.505594
59445.667165,7031.956449,-2738.761985,5745.716235
59445.667475,6587.832884,888.247130,6128.763984
59445.667785,7402.059420,-74.020594,4903.011187
59445.668095,9474.636058,-3923.091493,9193.145976
59445.668404,5847.626942,-4145.153275,3600.648841
59445.668714,-1184.329507,-7179.997637,2528.115143
59445.669024,-4663.297435,-11917.315666,0.000000
59445.669334,-6809.894666,-15840.407159,-4136.915689
59445.669643,-10955.047942,-17838.963202,-7431.126331
59445.669953,-12583.501014,-19097.313304,-7124.688131
59445.670263,-10288.862594,-14804.118840,-4979.620737
59445.670573,-1258.350101,-10658.965565,-1302.362347
59445.670882,3182.885551,-5329.482782,2374.896044
59445.671192,2368.659014,-1258.350101,4903.011187
59445.671502,9400.615463,-3256.906145,7890.783629
59445.671812,7920.203579,-444.123565,7354.516781
59445.672121,7698.141797,-2442.679609,5515.887586
59445.672431,4959.379811,-5551.544565,3677.258390
59445.672741,-518.144159,-9548.656652,1072.533697
59445.673050,-4737.318029,-12657.521608,-2298.286494
59445.673360,-7772.162391,-17764.942608,-4979.620737
59445.673670,-9548.656652,-18949.272115,-6205.373534
59445.673980,-12213.398043,-17172.777854,-7431.126331
59445.674289,-8290.306550,-11917.315666,-2451.505594
59445.674599,4663.297435,-9474.636058,2374.896044
59445.674909,4737.318029,-3034.844362,4903.011187
59445.675219,5403.503377,-74.020594,5209.449386
59445.675528,9696.697840,-222.061783,7277.907231
59445.675838,9400.615463,-2368.659014,7048.078582
59445.676148,6735.874072,-4663.297435,5132.839837
59445.676458,2294.638420,-8290.306550,3600.648841
59445.676767,-1258.350101,-11843.295072,-76.609550
59445.677077,-5699.585753,-14211.954086,-5592.497135
59445.677387,-11843.295072,-16654.633695,-7354.516781
59445.677697,-12509.480420,-18949.272115,-7431.126331
59445.678006,-10955.047942,-12509.480420,-7354.516781
59445.678316,-1628.453072,-10214.842000,-995.924147
59445.678626,3775.050304,-6735.874072,3294.210641
59445.678936,5255.462188,-4219.173869,5822.325785
59445.679245,8290.306550,-1554.432478,7201.297681
59445.679555,12953.603985,-2294.638420,9576.193725
59445.679865,11399.171507,-4737.318029,9729.412825
59445.680174,8068.244768,-7105.977043,7277.907231
59445.680484,0.000000,-5403.503377,306.438199
59445.680794,-1850.514855,-13619.789333,-1302.362347
59445.681104,-9548.656652,-14285.974681,-8427.050478
59445.681413,-13693.809927,-18357.107362,-9269.755526
59445.681723,-14211.954086,-17764.942608,-7814.174080
59445.682033,-6365.771101,-13323.706956,-3447.429741
59445.682343,-666.185348,-10140.821405,1149.143247
59445.682652,2368.659014,-5995.668130,4903.011187
59445.682962,4737.318029,-4811.338623,8580.269578
59445.683272,9474.636058,-1258.350101,8580.269578
59445.683582,12953.603985,-2368.659014,8503.660028
59445.683891,5329.482782,-2442.679609,5515.887586
59445.684201,5033.400406,-5033.400406,4213.525239
59445.684511,2294.638420,-9474.636058,1149.143247
59445.684821,-5181.441594,-13841.851115,-3217.601092
59445.685130,-9992.780217,-17912.983796,-7201.297681
59445.685440,-13323.706956,-18357.107362,-8350.440928
59445.685750,-11843.295072,-15470.304188,-7354.516781
59445.686060,-4737.318029,-10732.986159,0.000000
59445.686369,888.247130,-10140.821405,4290.134789
59445.686679,4663.297435,-8882.471304,6052.154434
59445.686989,5921.647536,-2442.679609,7354.516781
59445.687298,11251.130318,0.000000,9422.974625
59445.687608,11769.274478,-4145.153275,10342.289223
59445.687918,7772.162391,-1406.391290,6205.373534
59445.688228,2072.576638,-6365.771101,2681.334243
59445.688537,-3997.112087,-9844.739029,-2604.724693
59445.688847,-13027.624579,-14878.139434,-9499.584175
59445.689157,-16580.613101,-16062.468941,-11031.775171
59445.689467,-13027.624579,-19023.292709,-7354.516781
59445.689776,-6587.832884,-17764.942608,-4979.620737
59445.690086,-3256.906145,-9548.656652,0.000000
59445.690396,2664.741391,-9474.636058,6052.154434
59445.690706,7698.141797,-5551.544565,8886.707777
59445.691015,12065.356855,-2220.617826,10035.851024
59445.691325,12361.439231,0.000000,9422.974625
59445.691635,9104.533087,-1850.514855,7967.393179
59445.691945,3552.988522,-2664.741391,1915.238745
59445.692254,0.000000,-6587.832884,0.000000
59445.692564,-9474.636058,-10732.986159,-7354.516781
59445.692874,-13619.789333,-18579.169144,-8273.831378
59445.693184,-14952.160028,-19985.560434,-8656.879127
59445.693493,-10658.965565,-17764.942608,-6818.249932
59445.693803,-3997.112087,-15766.386565,-383.047749
59445.694113,-296.082377,-9474.636058,1378.971896
59445.694422,3775.050304,-7328.038826,5898.935335
59445.694732,9548.656652,-3627.009116,8503.660028
59445.695042,11325.150913,-74.020594,7354.516781
59445.695352,10066.800811,-74.020594,9806.022374
59445.695661,7105.977043,-74.020594,5515.887586
59445.695971,6439.791695,-7698.141797,5745.716235
59445.696281,-2960.823768,-8068.244768,-3830.477490
59445.696591,-9548.656652,-15988.448347,-6818.249932
59445.696900,-14804.118840,-18949.272115,-9193.145976
59445.697210,-12213.398043,-17024.736666,-11031.775171
59445.697520,-8660.409521,-16728.654289,-6358.592633
59445.697830,-4145.153275,-13619.789333,-842.705048
59445.698139,-962.267725,-7772.162391,1225.752797
59445.698449,7031.956449,-5329.482782,6052.154434
59445.698759,11843.295072,-3034.844362,12563.966167
59445.699069,12953.603985,1184.329507,9729.412825
59445.699378,11843.295072,1998.556043,9806.022374
59445.699688,8660.409521,-3552.988522,6052.154434
59445.699998,2368.659014,-4811.338623,1225.752797
59445.700307,-6439.791695,-12065.356855,-4443.353888
59445.700617,-15544.324782,-18283.086767,-8733.488677
59445.700927,-15248.242405,-17838.963202,-11414.822920
59445.701237,-8956.491898,-17172.777854,-8044.002729
59445.701546,-7179.997637,-17764.942608,-3753.867940
59445.701856,-3775.050304,-15100.201217,-76.609550
59445.702166,0.000000,-10140.821405,4903.011187
59445.702476,8808.450710,-8290.306550,10035.851024
59445.702785,12065.356855,-2072.576638,10648.727422
59445.703095,10658.965565,2294.638420,9806.022374
59445.703405,11399.171507,-814.226536,8886.707777
59445.703715,5033.400406,-4293.194464,3753.867940
59445.704024,-2442.679609,-10214.842000,-995.924147
59445.704334,-11177.109724,-15988.448347,-7431.126331
59445.704644,-14285.974681,-18949.272115,-9882.631924
59445.704954,-14285.974681,-15396.283594,-12334.137518
59445.705263,-12731.542202,-15470.304188,-8580.269578
59445.705573,-5403.503377,-17764.942608,-76.609550
59445.705883,0.000000,-10140.821405,1225.752797
59445.706193,5551.544565,-3997.112087,5132.839837
59445.706502,10362.883188,-1850.514855,11031.775171
59445.706812,12879.583391,-3627.009116,13330.061665
59445.707122,12657.521608,-1998.556043,12717.185267
59445.707431,11177.109724,-4441.235652,7890.783629
59445.707741,2664.741391,-11843.295072,4826.401637
59445.708051,-7179.997637,-12731.542202,-4979.620737
59445.708361,-16580.613101,-15470.304188,-9806.022374
59445.708670,-14582.057057,-22354.219448,-9882.631924
59445.708980,-12213.398043,-15470.304188,-12180.918418
59445.709290,-9622.677246,-16654.633695,-6128.763984
59445.709600,-5403.503377,-13693.809927,229.828649
59445.709909,3478.967927,-9992.780217,4290.134789
59445.710219,9104.533087,-5847.626942,9193.145976
59445.710529,13841.851115,-4737.318029,14096.157163
59445.710839,14359.995275,0.000000,14632.424012
59445.711148,16506.592507,0.000000,12793.794817
59445.711458,8808.450710,-3552.988522,3294.210641
59445.711768,-4145.153275,-6883.915261,0.000000
59445.712078,-8216.285956,-13101.645173,-7354.516781
59445.712387,-14285.974681,-18949.272115,-9269.755526
59445.712697,-14508.036463,-16136.489536,-12027.699319
59445.713007,-9992.780217,-15100.201217,-8503.660028
59445.713317,-8512.368333,-17320.819043,-3064.381992
59445.713626,0.000000,-9548.656652,3064.381992
59445.713936,7105.977043,-9104.533087,9346.365076
59445.714246,11769.274478,-7105.977043,13406.671215
59445.714555,11251.130318,1998.556043,9193.145976
59445.714865,14359.995275,-814.226536,13636.499864
59445.715175,11769.274478,1702.473667,6665.030833
59445.715485,4663.297435,-4737.318029,2374.896044
59445.715794,-6513.812290,-10510.924376,-4290.134789
59445.716104,-11621.233289,-15692.365970,-8197.221829
59445.716414,-14656.077652,-18357.107362,-11338.213370
59445.716724,-13027.624579,-15470.304188,-12257.527968
59445.717033,-11251.130318,-16654.633695,-6128.763984
59445.717343,-2960.823768,-14285.974681,2451.505594
59445.717653,6439.791695,-11251.130318,4519.963438
59445.717963,7105.977043,-5995.668130,7967.393179
59445.718272,12953.603985,-2368.659014,12180.918418
59445.718582,15914.427753,0.000000,12180.918418
59445.718892,14359.995275,1258.350101,10572.117872
59445.719202,8068.244768,-2738.761985,4443.353888
59445.719511,-2590.720797,-7179.997637,306.438199
59445.719821,-11843.295072,-10881.027347,-8580.269578
59445.720131,-16580.613101,-14878.139434,-9806.022374
59445.720441,-15100.201217,-19319.375086,-9806.022374
59445.720750,-11029.068536,-16580.613101,-8044.002729
59445.721060,-10658.965565,-13101.645173,-5515.887586
59445.721370,1406.391290,-11843.295072,2374.896044
59445.721679,9400.615463,-9474.636058,7890.783629
59445.721989,10584.944971,-4145.153275,10648.727422
59445.722299,11251.130318,-2072.576638,11874.480219
59445.722609,13175.665768,1110.308913,11184.994271
59445.722918,11399.171507,-1258.350101,9806.022374
59445.723228,0.000000,-5995.668130,1225.752797
59445.723538,-11843.295072,-9548.656652,-4903.011187
59445.723848,-10955.047942,-15914.427753,-7967.393179
59445.724157,-14952.160028,-17246.798449,-11721.261119
59445.724467,-15396.283594,-18949.272115,-10801.946522
59445.724777,-12731.542202,-18357.107362,-5822.325785
59445.725087,-5403.503377,-14211.954086,-766.095498
59445.725396,3849.070898,-13175.665768,4903.011187
59445.725706,7550.100608,-4959.379811,9959.241474
59445.726016,11177.109724,-592.164754,10648.727422
59445.726326,10066.800811,-74.020594,10112.460574
59445.726635,10658.965565,4663.297435,8580.269578
59445.726945,9400.615463,-5329.482782,6052.154434
59445.727255,-4515.256246,-8586.388927,0.000000
59445.727565,-8512.368333,-12509.480420,-6205.373534
59445.727874,-13619.789333,-15470.304188,-9806.022374
59445.728184,-13471.748144,-18727.210333,-10265.679673
59445.728494,-12139.377449,-16136.489536,-9499.584175
59445.728803,-9844.739029,-17394.839637,-4213.525239
59445.729113,1702.473667,-9178.553681,2068.457845
59445.729423,7031.956449,-6957.935855,6971.469032
59445.729733,7179.997637,-3034.844362,9806.022374
59445.730042,12435.459826,-1258.350101,12563.966167
59445.730352,16506.592507,148.041188,12793.794817
59445.730662,13619.789333,-74.020594,8580.269578
59445.730972,0.000000,-5995.668130,2451.505594
59445.731281,-6957.935855,-7846.182985,-3830.477490
59445.731591,-9696.697840,-11843.295072,-9422.974625
59445.731901,-14137.933492,-16950.716072,-11031.775171
59445.732211,-12213.398043,-18949.272115,-9882.631924
59445.732520,-10140.821405,-18949.272115,-7431.126331
59445.732830,-6587.832884,-13101.645173,-4213.525239
59445.733140,2960.823768,-10732.986159,4903.011187
59445.733450,9400.615463,-9474.636058,10955.165621
59445.733759,11843.295072,-1850.514855,11644.651570
59445.734069,12435.459826,2590.720797,9806.022374
59445.734379,14730.098246,1184.329507,11108.384721
59445.734688,9992.780217,-5477.523971,8656.879127
59445.734998,-1480.411884,-7772.162391,-536.266849
59445.735308,-8956.491898,-11843.295072,-5592.497135
59445.735618,-9548.656652,-17764.942608,-7431.126331
59445.735927,-11917.315666,-17764.942608,-12334.137518
59445.736237,-15396.283594,-16062.468941,-9806.022374
59445.736547,-8364.327145,-17468.860231,-4979.620737
59445.736857,-2368.659014,-13101.645173,0.000000
59445.737166,5477.523971,-10214.842000,6281.983084
59445.737476,8586.388927,-8364.327145,11721.261119
59445.737786,11843.295072,-3404.947333,13866.328514
59445.738096,14434.015869,2590.720797,10801.946522
59445.738405,11621.233289,-3923.091493,10265.679673
59445.738715,2294.638420,-6513.812290,2451.505594
59445.739025,-4811.338623,-7105.977043,-2528.115143
59445.739335,-11547.212695,-7772.162391,-10495.508323
59445.739644,-12435.459826,-13693.809927,-8273.831378
59445.739954,-14656.077652,-15692.365970,-11031.775171
59445.740264,-11917.315666,-16136.489536,-7431.126331
59445.740574,-5847.626942,-13693.809927,-2451.505594
59445.740883,4145.153275,-13767.830521,5362.668486
59445.741193,6439.791695,-10362.883188,9422.974625
59445.741503,10658.965565,-3627.009116,15934.786358
59445.741812,15840.407159,2886.803174,13483.280765
59445.742122,16358.551318,2368.659014,11568.042020
59445.742432,6883.915261,0.000000,3600.648841
59445.742742,-4145.153275,-3923.091493,0.000000
59445.743051,-8660.409521,-8438.347739,-6818.249932
59445.743360,-10732.986159,-14211.954086,-10189.070123
59445.743670,-16580.613101,-16876.695478,-12027.699319
59445.743979,-15988.448347,-18875.251521,-9729.412825
59445.744289,-9030.512492,-17542.880825,-4443.353888
59445.744598,0.000000,-11917.315666,612.876398
59445.744908,5921.647536,-10732.986159,6128.763984
59445.745217,11769.274478,-8142.265362,14632.424012
59445.745527,15026.180623,-2072.576638,12180.918418
59445.745837,11843.295072,5551.544565,8503.660028
59445.746146,11177.109724,-444.123565,7890.783629
59445.746456,2294.638420,-7105.977043,2987.772442
59445.746765,-6291.750507,-10288.862594,-3294.210641
59445.747075,-6291.750507,-14211.954086,-6358.592633
59445.747385,-14211.954086,-14434.015869,-12257.527968
59445.747694,-18949.272115,-16654.633695,-12257.527968
59445.748004,-13027.624579,-17838.963202,-5515.887586
59445.748313,-3627.009116,-20725.766376,-2528.115143
59445.748623,0.000000,-11917.315666,2757.943793
59445.748932,9104.533087,-9474.636058,10955.165621
59445.749242,14137.933492,-2960.823768,14019.547613
59445.749552,17542.880825,1184.329507,13253.452115
59445.749861,14656.077652,2590.720797,12027.699319
59445.750171,7105.977043,-2220.617826,3907.087040
59445.750480,-3034.844362,-5477.523971,1072.533697
59445.750790,-10658.965565,-8364.327145,-8580.269578
59445.751100,-14211.954086,-11325.150913,-12717.185267
59445.751409,-17172.777854,-17838.963202,-12257.527968
59445.751719,-13101.645173,-18949.272115,-9882.631924
59445.752028,-11399.171507,-16654.633695,-9193.145976
59445.752338,1406.391290,-14211.954086,2068.457845
59445.752647,5625.565159,-11029.068536,8580.269578
59445.752957,12583.501014,-2146.597232,12640.575717
59445.753267,16432.571912,2294.638420,13330.061665
59445.753576,14952.160028,5255.462188,12257.527968
59445.753886,10510.924376,4071.132681,6665.030833
59445.754195,296.082377,740.205942,-76.609550
59445.754505,-8290.306550,-2442.679609,-6128.763984
59445.754815,-6661.853478,-10362.883188,-8963.317327
59445.755124,-11843.295072,-13027.624579,-11414.822920
59445.755434,-15248.242405,-20577.725188,-8427.050478
59445.755743,-14211.954086,-19763.498651,-8427.050478
59445.756053,-5921.647536,-17987.004391,-3830.477490
59445.756363,1702.473667,-14804.118840,4060.306139
59445.756672,7402.059420,-9030.512492,9346.365076
59445.756982,14137.933492,-1184.329507,12180.918418
59445.757291,15322.262999,2368.659014,13406.671215
59445.757601,11769.274478,1184.329507,10342.289223
59445.757910,5921.647536,-370.102971,4903.011187
59445.758220,-666.185348,-7105.977043,-76.609550
59445.758530,-7698.141797,-9844.739029,-3753.867940
59445.758839,-11843.295072,-11917.315666,-10418.898773
59445.759149,-15618.345376,-17764.942608,-11721.261119
59445.759458,-17542.880825,-17912.983796,-10648.727422
59445.759768,-11991.336260,-18209.066173,-7431.126331
59445.760078,-1850.514855,-17764.942608,1762.019645
59445.760387,7031.956449,-14211.954086,9729.412825
59445.760697,12953.603985,-2072.576638,9729.412825
59445.761006,14804.118840,1110.308913,12257.527968
59445.761316,14137.933492,0.000000,14632.424012
59445.761625,10658.965565,-74.020594,9806.022374
59445.761935,1480.411884,-2812.782580,1532.190996
59445.762245,-5033.400406,-7476.080014,-1225.752797
59445.762554,-8438.347739,-11399.171507,-7431.126331
59445.762864,-10658.965565,-15988.448347,-8810.098227
59445.763173,-14285.974681,-21317.931130,-9882.631924
59445.763483,-11917.315666,-18949.272115,-7431.126331
59445.763793,-9548.656652,-20133.601622,-4979.620737
59445.764102,0.000000,-13249.686362,3677.258390
59445.764412,9400.615463,-11843.295072,12180.918418
59445.764721,13027.624579,-74.020594,12257.527968
59445.765031,14063.912898,4663.297435,11184.994271
59445.765341,9622.677246,370.102971,11108.384721
59445.765650,7624.121203,-2220.617826,3600.648841
59445.765960,-3034.844362,-5847.626942,-919.314598
59445.766269,-6883.915261,-9770.718434,-4290.134789
59445.766579,-9474.636058,-11325.150913,-7967.393179
59445.766888,-9548.656652,-16580.613101,-9882.631924
59445.767198,-13989.892304,-15840.407159,-11644.651570
59445.767508,-9548.656652,-20873.807564,-4979.620737
59445.767817,-4663.297435,-16654.633695,0.000000
59445.768127,5847.626942,-12731.542202,7277.907231
59445.768436,13027.624579,-3775.050304,10495.508323
59445.768746,15322.262999,592.164754,12257.527968
59445.769056,12435.459826,518.144159,10955.165621
59445.769365,10658.965565,-2146.597232,8580.269578
59445.769675,0.000000,-2442.679609,1225.752797
59445.769984,-3775.050304,-8290.306550,-76.609550
59445.770294,-5995.668130,-11695.253884,-5898.935335
59445.770603,-11843.295072,-14285.974681,-9193.145976
59445.770913,-15470.304188,-13397.727550,-12870.404366
59445.771223,-14285.974681,-18801.230927,-8656.879127
59445.771532,-8068.244768,-16580.613101,-4673.182538
59445.771842,2368.659014,-12509.480420,3447.429741
59445.772151,8586.388927,-7328.038826,8197.221829
59445.772461,13027.624579,-74.020594,9806.022374
59445.772771,11843.295072,-74.020594,10418.898773
59445.773080,11843.295072,-3627.009116,12563.966167
59445.773390,7920.203579,-4737.318029,4826.401637
59445.773699,0.000000,-3034.844362,0.000000
59445.774009,-4811.338623,-7105.977043,-3753.867940
59445.774318,-5699.585753,-11547.212695,-4979.620737
59445.774628,-10732.986159,-14211.954086,-9116.536426
59445.774938,-13619.789333,-15470.304188,-10495.508323
59445.775247,-11399.171507,-18727.210333,-7048.078582
59445.775557,-7105.977043,-15766.386565,-1838.629195
59445.775866,888.247130,-10436.903782,3983.696590
59445.776176,10066.800811,-6587.832884,10725.336972
59445.776486,14137.933492,0.000000,10342.289223
59445.776795,9474.636058,-74.020594,10418.898773
59445.777105,8216.285956,-4737.318029,8503.660028
59445.777414,3182.885551,-3997.112087,1149.143247
59445.777724,-3923.091493,-6883.915261,-1838.629195
59445.778034,-6883.915261,-10214.842000,-5056.230287
59445.778343,-7920.203579,-14211.954086,-6511.811733
59445.778653,-13101.645173,-14285.974681,-11414.822920
59445.778962,-12509.480420,-16136.489536,-9882.631924
59445.779272,-9474.636058,-17838.963202,-3677.258390
59445.779581,3701.029710,-13323.706956,6665.030833
59445.779891,8216.285956,-9474.636058,7890.783629
59445.780201,13545.768739,-2368.659014,11874.480219
59445.780510,11843.295072,222.061783,10112.460574
59445.780820,7402.059420,-2072.576638,8733.488677
59445.781129,4071.132681,-1480.411884,2834.553343
59445.781439,-592.164754,-4219.173869,-383.047749
59445.781749,-5107.421000,-7105.977043,-1302.362347
59445.782058,-4811.338623,-8882.471304,-6205.373534
59445.782368,-14211.954086,-11917.315666,-9806.022374
59445.782677,-13471.748144,-15988.448347,-9806.022374
59445.782987,-8364.327145,-21317.931130,-5592.497135
59445.783296,-74.020594,-18357.107362,2374.896044
59445.783606,3701.029710,-11917.315666,5209.449386
59445.783916,8808.450710,-8216.285956,9499.584175
59445.784225,11917.315666,-3404.947333,10495.508323
59445.784535,9326.594869,-4293.194464,9193.145976
59445.784844,5847.626942,-4737.318029,6665.030833
59445.785154,2294.638420,-6513.812290,1762.019645
59445.785464,-4589.276840,-5403.503377,-2451.505594
59445.785773,-4145.153275,-8956.491898,-1838.629195
59445.786083,-4811.338623,-14211.954086,-5592.497135
59445.786392,-10658.965565,-14285.974681,-8886.707777
59445.786702,-13027.624579,-17542.880825,-7967.393179
59445.787012,-6217.729913,-18727.210333,-2145.067394
59445.787321,2072.576638,-14211.954086,4290.134789
59445.787631,6365.771101,-9326.594869,7354.516781
59445.787940,12361.439231,-4737.318029,7814.174080
59445.788250,11769.274478,-7105.977043,9729.412825
59445.788559,7031.956449,-2516.700203,6052.154434
59445.788869,1184.329507,-4219.173869,3064.381992
59445.789179,-74.020594,-5921.647536,-76.609550
59445.789488,-2368.659014,-8364.327145,2451.505594
59445.789798,-6143.709319,-9622.677246,-3983.696590
59445.790107,-10140.821405,-10362.883188,-8810.098227
59445.790417,-11917.315666,-15914.427753,-7737.564530
59445.790727,-6809.894666,-19319.375086,-4443.353888
59445.791036,814.226536,-17172.777854,2451.505594
59445.791346,4885.359217,-13693.809927,7201.297681
59445.791655,9400.615463,-5921.647536,7890.783629
59445.791965,8586.388927,-4811.338623,7354.516781
59445.792274,11769.274478,-7105.977043,9729.412825
59445.792584,3552.988522,-2442.679609,3677.258390
59445.792894,222.061783,-3997.112087,1991.848295
59445.793203,-1110.308913,-5403.503377,-459.657299
59445.793513,-2220.617826,-7772.162391,-2451.505594
59445.793822,-7846.182985,-11621.233289,-5439.278036
59445.794132,-10658.965565,-13693.809927,-8580.269578
59445.794442,-10362.883188,-17838.963202,-6128.763984
59445.794751,-2738.761985,-17764.942608,-842.705048
59445.795061,1110.308913,-13619.789333,2374.896044
59445.795370,2368.659014,-5403.503377,3677.258390
59445.795680,5329.482782,-3034.844362,6435.202183
59445.795990,9992.780217,-2368.659014,8044.002729
59445.796299,5551.544565,-1480.411884,6205.373534
59445.796609,2072.576638,740.205942,2145.067394
59445.796918,444.123565,-1702.473667,1149.143247
59445.797228,0.000000,-2442.679609,-1225.752797
59445.797537,-4737.318029,-7179.997637,-3677.258390
59445.797847,-8438.347739,-11917.315666,-6281.983084
59445.798157,-9548.656652,-16580.613101,-7431.126331
59445.798466,-9474.636058,-16950.716072,-5822.325785
59445.798776,-3034.844362,-14285.974681,-2451.505594
59445.799085,2738.761985,-12435.459826,3447.429741
59445.799395,5625.565159,-6587.832884,5745.716235
59445.799705,8216.285956,-6143.709319,7890.783629
59445.800014,7328.038826,-4959.379811,7584.345430
59445.800324,1184.329507,-2738.761985,4519.963438
59445.800633,0.000000,-3034.844362,2451.505594
59445.800943,0.000000,-6291.750507,2451.505594
59445.801252,-666.185348,-7698.141797,-1915.238745
59445.801562,-8290.306550,-11917.315666,-4903.011187
59445.801872,-9844.739029,-14211.954086,-8656.879127
59445.802181,-10955.047942,-19319.375086,-6741.640382
59445.802491,-5477.523971,-18875.251521,-2298.286494
59445.802800,-1480.411884,-13989.892304,919.314598
59445.803110,2294.638420,-10140.821405,3983.696590
59445.803420,4071.132681,-10658.965565,7277.907231
59445.803729,5995.668130,-7772.162391,5898.935335
59445.804039,3552.988522,-5995.668130,5209.449386
59445.804348,2294.638420,-8290.306550,6052.154434
59445.804658,0.000000,-1258.350101,0.000000
59445.804967,2886.803174,-6513.812290,1149.143247
59445.805277,-3552.988522,-8808.450710,-1762.019645
59445.805587,-7105.977043,-11251.130318,-5439.278036
59445.805896,-9030.512492,-15544.324782,-5822.325785
59445.806206,-6587.832884,-17394.839637,-3447.429741
59445.806515,-2442.679609,-14804.118840,-76.609550
59445.806825,2294.638420,-11103.089130,2374.896044
59445.807135,1776.494261,-7772.162391,3677.258390
59445.807444,5921.647536,-7179.997637,7967.393179
59445.807754,5847.626942,-7105.977043,6665.030833
59445.808063,4663.297435,-2368.659014,4826.401637
59445.808373,1776.494261,-666.185348,3064.381992
59445.808683,3552.988522,-1110.308913,1991.848295
59445.808992,1184.329507,-3701.029710,0.000000
59445.809302,-3404.947333,-8512.368333,-2604.724693
59445.809611,-5107.421000,-13915.871710,-4060.306139
59445.809921,-4811.338623,-17764.942608,-4060.306139
59445.810230,-4737.318029,-15470.304188,-3907.087040
59445.810540,0.000000,-14285.974681,1532.190996
59445.810850,2294.638420,-11843.295072,1762.019645
59445.811159,4737.318029,-10066.800811,5439.278036
59445.811469,4367.215058,-6291.750507,3983.696590
59445.811778,4293.194464,-3775.050304,4443.353888
59445.812088,3330.926739,-2738.761985,4060.306139
59445.812398,4959.379811,-1554.432478,3370.820191
59445.812707,4885.359217,-3552.988522,3983.696590
59445.813017,2294.638420,-7105.977043,-76.609550
59445.813326,-6217.729913,-7994.224174,-3753.867940
59445.813636,-6513.812290,-14878.139434,-1532.190996
59445.813945,-4811.338623,-16580.613101,-3140.991542
59445.814255,-3552.988522,-15322.262999,-306.438199
59445.814565,-1332.370696,-12435.459826,-383.047749
59445.814874,-444.123565,-11251.130318,1225.752797
59445.815184,1924.535449,-10584.944971,2911.162892
59445.815493,2220.617826,-7328.038826,3294.210641
59445.815803,1184.329507,-5995.668130,3064.381992
59445.816113,5477.523971,-8068.244768,7354.516781
59445.816422,6439.791695,-4441.235652,6052.154434
59445.816732,0.000000,-3627.009116,1225.752797
59445.817041,-74.020594,-9474.636058,-76.609550
59445.817351,-6217.729913,-10140.821405,-2451.505594
59445.817661,-4515.256246,-13619.789333,-2528.115143
59445.817970,-4737.318029,-14359.995275,-3140.991542
59445.818280,-3701.029710,-13693.809927,-1225.752797
59445.818589,-2442.679609,-12879.583391,229.828649
59445.818899,-1184.329507,-9548.656652,0.000000
59445.819208,592.164754,-9548.656652,2757.943793
59445.819518,2294.638420,-7105.977043,5898.935335
59445.819828,518.144159,-2590.720797,2068.457845
59445.820137,4737.318029,-2442.679609,4903.011187
59445.820447,2960.823768,-2442.679609,2987.772442
59445.820756,814.226536,-7550.100608,842.705048
59445.821066,-3330.926739,-11399.171507,-1378.971896
59445.821376,-5699.585753,-14878.139434,-2451.505594
59445.821685,-4293.194464,-14508.036463,-3140.991542
59445.821995,-4737.318029,-14285.974681,-3983.696590
59445.822304,-4737.318029,-13101.645173,0.000000
59445.822614,-962.267725,-14211.954086,2374.896044
59445.822923,-666.185348,-9178.553681,-76.609550
59445.823233,0.000000,-7179.997637,2451.505594
59445.823543,1480.411884,-5477.523971,4290.134789
59445.823852,5847.626942,-4737.318029,5592.497135
59445.824162,5847.626942,-3997.112087,5209.449386
59445.824471,1628.453072,-6069.688724,3294.210641
59445.824781,-1036.288319,-7698.141797,383.047749
59445.825091,-3775.050304,-9844.739029,-1915.238745
59445.825400,-5329.482782,-11917.315666,-3600.648841
59445.825710,-3849.070898,-13693.809927,-3064.381992
59445.826019,-2442.679609,-16580.613101,-2528.115143
59445.826329,-6809.894666,-11917.315666,-3677.258390
59445.826639,-3034.844362,-12435.459826,-2451.505594
59445.826948,-148.041188,-10436.903782,1532.190996
59445.827258,1406.391290,-5847.626942,2681.334243
59445.827567,4145.153275,-6661.853478,5592.497135
59445.827877,7994.224174,-814.226536,5898.935335
59445.828186,4663.297435,-2368.659014,5439.278036
59445.828496,1702.473667,-3404.947333,1455.581446
59445.828806,0.000000,-7179.997637,0.000000
59445.829115,-74.020594,-13619.789333,-689.485948
59445.829425,-5107.421000,-11029.068536,-4826.401637
59445.829734,-3849.070898,-15396.283594,-4290.134789
59445.830044,-5329.482782,-15174.221811,-2451.505594
59445.830354,-3997.112087,-15100.201217,-2221.676944
59445.830663,-3182.885551,-11769.274478,-1149.143247
59445.830973,-1184.329507,-8512.368333,2374.896044
59445.831282,4663.297435,-5921.647536,4826.401637
59445.831592,6439.791695,-296.082377,4519.963438
59445.831901,5921.647536,3478.967927,2451.505594
59445.832211,7031.956449,-2368.659014,6052.154434
59445.832521,1184.329507,-1258.350101,612.876398
59445.832830,1110.308913,-9178.553681,-76.609550
59445.833140,-2368.659014,-10436.903782,-1838.629195
59445.833449,-3552.988522,-12805.562797,-3524.039291
59445.833759,-5107.421000,-15618.345376,-3140.991542
59445.834069,-5403.503377,-16284.530724,-1991.848295
59445.834378,-3034.844362,-15988.448347,-689.485948
59445.834688,-2738.761985,-13027.624579,-1302.362347
59445.834997,-1998.556043,-5403.503377,0.000000
59445.835307,7031.956449,-7105.977043,7277.907231
59445.835616,7624.121203,1332.370696,5132.839837
59445.835926,6661.853478,148.041188,6971.469032
59445.836236,4071.132681,-74.020594,3524.039291
59445.836545,2368.659014,-5033.400406,2528.115143
59445.836855,-296.082377,-7772.162391,536.266849
59445.837164,-3108.864956,-11177.109724,-3064.381992
59445.837474,-5847.626942,-14582.057057,-1838.629195
59445.837784,-5107.421000,-18357.107362,-3140.991542
59445.838093,-7846.182985,-16432.571912,-4979.620737
59445.838403,-8290.306550,-13101.645173,-2451.505594
59445.838712,-1628.453072,-11991.336260,1838.629195
59445.839022,2886.803174,-6513.812290,6052.154434
59445.839332,7328.038826,-1036.288319,5745.716235
59445.839641,7031.956449,-444.123565,7201.297681
59445.839951,4663.297435,-2220.617826,5132.839837
59445.840260,3404.947333,-4441.235652,1225.752797
59445.840570,0.000000,-8364.327145,1838.629195
59445.840879,-814.226536,-11029.068536,-459.657299
59445.841189,-4811.338623,-13323.706956,-5286.058936
59445.841499,-9474.636058,-14285.974681,-6128.763984
59445.841808,-7772.162391,-19837.519246,-3907.087040
59445.842118,-7402.059420,-18949.272115,-1608.800546
59445.842427,-5107.421000,-14211.954086,-995.924147
59445.842737,0.000000,-9326.594869,2604.724693
59445.843047,6439.791695,-3182.885551,5439.278036
59445.843356,7994.224174,-666.185348,6971.469032
59445.843666,4737.318029,2886.803174,4903.011187
59445.843975,5329.482782,-2146.597232,5822.325785
59445.844285,4663.297435,-4737.318029,3600.648841
59445.844594,592.164754,-7179.997637,1225.752797
59445.844904,-1258.350101,-12435.459826,-229.828649
59445.845214,-7105.977043,-15174.221811,-3370.820191
59445.845523,-9252.574275,-17690.922014,-6358.592633
59445.845833,-10066.800811,-18579.169144,-7048.078582
59445.846142,-9326.594869,-18505.148550,-4979.620737
59445.846452,-3923.091493,-10436.903782,-2221.676944
59445.846762,2368.659014,-5995.668130,2451.505594
59445.847071,8290.306550,-74.020594,6128.763984
59445.847381,11769.274478,0.000000,9729.412825
59445.847691,6217.729913,3478.967927,5515.887586
59445.848000,8290.306550,-1406.391290,7890.783629
59445.848310,2960.823768,-4811.338623,4213.525239
59445.848619,-518.144159,-6069.688724,-1608.800546
59445.848929,-3627.009116,-11547.212695,-2528.115143
59445.849239,-7550.100608,-15692.365970,-5362.668486
59445.849548,-10510.924376,-18949.272115,-7048.078582
59445.849858,-9178.553681,-19615.457463,-6128.763984
59445.850167,-4219.173869,-18949.272115,-1302.362347
59445.850477,962.267725,-10362.883188,842.705048
59445.850787,5033.400406,-4811.338623,6128.763984
59445.851096,9104.533087,-888.247130,6511.811733
59445.851406,7105.977043,-74.020594,8580.269578
59445.851716,8216.285956,-2368.659014,6741.640382
59445.852025,5255.462188,-4959.379811,4596.572988
59445.852335,2368.659014,-8956.491898,3064.381992
59445.852644,-888.247130,-9548.656652,-306.438199
59445.852954,-5921.647536,-13101.645173,-4903.011187
59445.853264,-9474.636058,-15470.304188,-6128.763984
59445.853573,-9548.656652,-19837.519246,-4979.620737
59445.853883,-9844.739029,-16136.489536,-6818.249932
59445.854192,-7105.977043,-12213.398043,-2451.505594
59445.854502,1480.411884,-5107.421000,2451.505594
59445.854812,7476.080014,-3552.988522,6358.592633
59445.855121,9030.512492,222.061783,7277.907231
59445.855431,7920.203579,0.000000,7584.345430
59445.855740,7624.121203,888.247130,5592.497135
59445.856050,4145.153275,-1850.514855,2451.505594
59445.856360,0.000000,-5995.668130,612.876398
59445.856669,-1850.514855,-11843.295072,-76.609550
59445.856979,-9474.636058,-11917.315666,-6128.763984
59445.857289,-7179.997637,-18949.272115,-5898.935335
59445.857598,-13545.768739,-19023.292709,-7124.688131
59445.857908,-9104.533087,-16580.613101,-4290.134789
59445.858217,-2146.597232,-10807.006753,-229.828649
59445.858527,4441.235652,-4515.256246,3677.258390
59445.858837,5921.647536,-2442.679609,6665.030833
59445.859146,5625.565159,-3775.050304,7277.907231
59445.859456,4737.318029,-1554.432478,5515.887586
59445.859765,5477.523971,-5477.523971,8503.660028
59445.860075,3775.050304,-888.247130,2068.457845
59445.860385,1480.411884,-8660.409521,2068.457845
59445.860694,-4663.297435,-11843.295072,-3524.039291
59445.861004,-10658.965565,-15766.386565,-5209.449386
59445.861314,-12731.542202,-18283.086767,-8120.612279
59445.861623,-12731.542202,-18653.189738,-7584.345430
59445.861933,-8142.265362,-14508.036463,-2757.943793
59445.862242,518.144159,-8882.471304,2374.896044
59445.862552,3552.988522,-2738.761985,4290.134789
59445.862862,7402.059420,-1332.370696,9499.584175
59445.863171,7031.956449,-2368.659014,5439.278036
59445.863481,5329.482782,-370.102971,6128.763984
59445.863790,6439.791695,-4145.153275,3447.429741
59445.864100,2368.659014,-5699.585753,1991.848295
59445.864410,-1406.391290,-8512.368333,-689.485948
59445.864719,-6217.729913,-14508.036463,-4519.963438
59445.865029,-10732.986159,-16580.613101,-8044.002729
59445.865338,-11917.315666,-21317.931130,-6511.811733
59445.865648,-10140.821405,-16876.695478,-5898.935335
59445.865958,-2368.659014,-10140.821405,0.000000
59445.866267,8808.450710,-9474.636058,6665.030833
59445.866577,6069.688724,-2442.679609,5822.325785
59445.866887,10881.027347,-2146.597232,6052.154434
59445.867196,9622.677246,-4071.132681,8733.488677
59445.867506,7328.038826,-4737.318029,6894.859482
59445.867815,3034.844362,-6661.853478,3370.820191
59445.868125,74.020594,-8438.347739,919.314598
59445.868435,-3627.009116,-14211.954086,-995.924147
59445.868744,-7179.997637,-16580.613101,-6818.249932
59445.869054,-12953.603985,-17616.901420,-9882.631924
59445.869363,-11843.295072,-17838.963202,-4903.011187
59445.869673,-2442.679609,-14211.954086,-689.485948
59445.869983,4663.297435,-7402.059420,3600.648841
59445.870292,4737.318029,-4811.338623,5515.887586
59445.870602,7179.997637,-2664.741391,7354.516781
59445.870912,10436.903782,-2590.720797,7890.783629
59445.871221,9474.636058,-1554.432478,7354.516781
59445.871531,7550.100608,-2442.679609,7048.078582
59445.871840,5551.544565,-4737.318029,2374.896044
59445.872150,-1998.556043,-5699.585753,-3140.991542
59445.872460,-6513.812290,-16062.468941,-3064.381992
59445.872769,-11917.315666,-18357.107362,-9269.755526
59445.873079,-14508.036463,-20725.766376,-7431.126331
59445.873388,-8586.388927,-17838.963202,-5286.058936
59445.873698,-1036.288319,-12361.439231,612.876398
59445.874008,4219.173869,-7698.141797,4749.792088
59445.874317,5921.647536,-3849.070898,5822.325785
59445.874627,7105.977043,-3627.009116,8580.269578
59445.874936,12509.480420,0.000000,9729.412825
59445.875246,7624.121203,592.164754,6665.030833
59445.875556,4737.318029,-1258.350101,6128.763984
59445.875865,2886.803174,-5921.647536,1149.143247
59445.876175,-4441.235652,-11547.212695,-689.485948
59445.876485,-9548.656652,-16876.695478,-6435.202183
59445.876794,-15396.283594,-17912.983796,-10955.165621
59445.877104,-14508.036463,-18357.107362,-9959.241474
59445.877413,-8364.327145,-15174.221811,-6128.763984
59445.877723,-3552.988522,-8364.327145,0.000000
59445.878033,3552.988522,-8068.244768,6128.763984
59445.878342,7031.956449,-8290.306550,9729.412825
59445.878652,9474.636058,-74.020594,7354.516781
59445.878961,12139.377449,-1776.494261,10955.165621
59445.879271,7698.141797,-962.267725,9652.803275
59445.879581,4589.276840,-2368.659014,4826.401637
59445.879890,0.000000,-5995.668130,-383.047749
59445.880200,-6365.771101,-13323.706956,-4519.963438
59445.880509,-13545.768739,-16062.468941,-9576.193725
59445.880819,-18135.045579,-19023.292709,-12257.527968
59445.881129,-11843.295072,-17838.963202,-8580.269578
59445.881438,-3034.844362,-16580.613101,-76.609550
59445.881748,-666.185348,-6809.894666,-383.047749
59445.882058,4737.318029,-5107.421000,7124.688131
59445.882367,9030.512492,-4811.338623,10418.898773
59445.882677,12805.562797,592.164754,9729.412825
59445.882986,10214.842000,0.000000,10112.460574
59445.883296,9104.533087,518.144159,6894.859482
59445.883606,3552.988522,-3552.988522,2987.772442
59445.883915,-2590.720797,-8660.409521,-3140.991542
59445.884225,-10658.965565,-14434.015869,-7048.078582
59445.884534,-13619.789333,-20651.745782,-8963.317327
59445.884844,-11917.315666,-17764.942608,-11108.384721
59445.885154,-9474.636058,-16654.633695,-6741.640382
59445.885463,-4145.153275,-13397.727550,0.000000
59445.885773,2516.700203,-8290.306550,3447.429741
59445.886083,6439.791695,-6883.915261,7277.907231
59445.886392,11843.295072,-1480.411884,9729.412825
59445.886702,12583.501014,-2368.659014,12180.918418
59445.887011,11177.109724,296.082377,9116.536426
59445.887321,7105.977043,1110.308913,4903.011187
59445.887631,3182.885551,-8290.306550,4213.525239
59445.887940,-5551.544565,-8438.347739,-4903.011187
59445.888250,-11843.295072,-17246.798449,-6128.763984
59445.888559,-13915.871710,-17246.798449,-11644.651570
59445.888869,-9622.677246,-17912.983796,-8963.317327
59445.889179,-7698.141797,-17468.860231,-4826.401637
59445.889488,-3775.050304,-13545.768739,-689.485948
59445.889798,2294.638420,-11103.089130,6052.154434
59445.890107,9400.615463,-7105.977043,8503.660028
59445.890417,10881.027347,-1776.494261,8503.660028
59445.890727,12731.542202,-2294.638420,13176.842566
59445.891036,8808.450710,3108.864956,6971.469032
59445.891346,6513.812290,-666.185348,4903.011187
59445.891656,1406.391290,-4589.276840,-2528.115143
59445.891965,-7402.059420,-12509.480420,-3983.696590
59445.892275,-13323.706956,-15914.427753,-8197.221829
59445.892584,-12287.418637,-17838.963202,-9806.022374
59445.892894,-7179.997637,-18949.272115,-5515.887586
59445.893204,-4219.173869,-18949.272115,-1302.362347
59445.893513,-1258.350101,-11843.295072,1608.800546
59445.893823,2368.659014,-4811.338623,4903.011187
59445.894132,12361.439231,-6513.812290,12793.794817
59445.894442,13545.768739,3404.947333,7737.564530
59445.894752,11473.192101,2960.823768,9116.536426
59445.895061,7179.997637,-370.102971,7967.393179
59445.895371,2516.700203,-3923.091493,1608.800546
59445.895681,-5921.647536,-11177.109724,-4366.744339
59445.895990,-13619.789333,-15618.345376,-6128.763984
59445.896300,-13323.706956,-17764.942608,-9039.926876
59445.896609,-10140.821405,-17764.942608,-9882.631924
59445.896919,-11843.295072,-15470.304188,-6741.640382
59445.897229,-3330.926739,-17024.736666,1302.362347
59445.897538,2294.638420,-10658.965565,4213.525239
59445.897848,9400.615463,-6513.812290,9422.974625
59445.898157,10288.862594,-4367.215058,11184.994271
59445.898467,11473.192101,-296.082377,10495.508323
59445.898777,10510.924376,1998.556043,8886.707777
59445.899086,5329.482782,-1258.350101,4903.011187
59445.899396,-1628.453072,-8364.327145,612.876398
59445.899705,-9548.656652,-16580.613101,-2834.553343
59445.900015,-14878.139434,-17172.777854,-11108.384721
59445.900325,-15100.201217,-16654.633695,-11644.651570
59445.900634,-9548.656652,-18949.272115,-8044.002729
59445.900944,-8364.327145,-18949.272115,-2528.115143
59445.901254,-1850.514855,-11029.068536,306.438199
59445.901563,6143.709319,-8364.327145,6358.592633
59445.901873,9844.739029,-2738.761985,9806.022374
59445.902182,11399.171507,1702.473667,9116.536426
59445.902492,10066.800811,-74.020594,9806.022374
59445.902802,11251.130318,888.247130,7967.393179
59445.903111,4663.297435,-7105.977043,2987.772442
59445.903421,-7698.141797,-9548.656652,-3677.258390
59445.903730,-10732.986159,-15396.283594,-6205.373534
59445.904040,-13101.645173,-17098.757260,-9576.193725
59445.904350,-10288.862594,-14211.954086,-10801.946522
59445.904659,-10362.883188,-17246.798449,-6358.592633
59445.904969,-4811.338623,-13471.748144,-842.705048
59445.905279,3108.864956,-7179.997637,2987.772442
59445.905588,5329.482782,-3627.009116,7354.516781
59445.905898,11843.295072,-74.020594,7354.516781
59445.906207,15322.262999,0.000000,13406.671215
59445.906517,12805.562797,4441.235652,6971.469032
59445.906827,7254.018232,-1998.556043,5439.278036
59445.907136,-2368.659014,-5107.421000,-919.314598
59445.907446,-8364.327145,-11399.171507,-4979.620737
59445.907755,-11843.295072,-15322.262999,-8656.879127
59445.908065,-11251.130318,-14878.139434,-10572.117872
59445.908375,-10436.903782,-15692.365970,-9269.755526
59445.908684,-9400.615463,-15470.304188,-5209.449386
59445.908994,0.000000,-11917.315666,0.000000
59445.909303,8882.471304,-8660.409521,8733.488677
59445.909613,11177.109724,-3256.906145,9729.412825
59445.909923,14211.954086,-666.185348,12563.966167
59445.910232,12435.459826,1110.308913,11031.775171
59445.910542,10510.924376,740.205942,7124.688131
59445.910852,3478.967927,-7550.100608,5898.935335
59445.911161,-6661.853478,-11695.253884,-612.876398
59445.911471,-8364.327145,-11843.295072,-8656.879127
59445.911780,-11917.315666,-12287.418637,-10189.070123
59445.912090,-12435.459826,-10732.986159,-13176.842566
59445.912400,-11843.295072,-15766.386565,-6435.202183
59445.912709,-4811.338623,-17764.942608,-76.609550
59445.913019,2960.823768,-7179.997637,3677.258390
59445.913328,7105.977043,-7179.997637,7967.393179
59445.913638,10955.047942,-3775.050304,12257.527968
59445.913948,15248.242405,666.185348,11184.994271
59445.914257,12879.583391,222.061783,10189.070123
59445.914567,8808.450710,0.000000,6665.030833
59445.914877,-74.020594,-7105.977043,-689.485948
59445.915186,-11325.150913,-11843.295072,-5592.497135
59445.915496,-14211.954086,-14285.974681,-9806.022374
59445.915805,-10732.986159,-18357.107362,-10495.508323
59445.916115,-13767.830521,-16654.633695,-9806.022374
59445.916425,-11917.315666,-16358.551318,-5898.935335
59445.916734,-1776.494261,-11547.212695,1378.971896
59445.917044,5181.441594,-10436.903782,8044.002729
59445.917353,9104.533087,-5033.400406,12027.699319
59445.917663,13989.892304,-2072.576638,14172.766713
59445.917973,17690.922014,0.000000,14019.547613
59445.918282,12657.521608,592.164754,7277.907231
59445.918592,0.000000,-1554.432478,0.000000
59445.918901,-5995.668130,-11251.130318,-2528.115143
59445.919211,-14804.118840,-10140.821405,-11031.775171
59445.919521,-11917.315666,-16432.571912,-11721.261119
59445.919830,-13693.809927,-18135.045579,-11338.213370
59445.920140,-13989.892304,-18875.251521,-7737.564530
59445.920450,-5181.441594,-15914.427753,-536.266849
59445.920759,5033.400406,-11917.315666,5515.887586
59445.921069,10214.842000,-10955.047942,12180.918418
59445.921378,14137.933492,-4737.318029,14632.424012
59445.921688,12657.521608,3256.906145,10342.289223
59445.921998,13027.624579,2886.803174,10418.898773
59445.922307,6735.874072,592.164754,4060.306139
59445.922617,-2738.761985,-7105.977043,-995.924147
59445.922926,-9770.718434,-13175.665768,-4903.011187
59445.923236,-10584.944971,-16432.571912,-9499.584175
59445.923546,-12657.521608,-19985.560434,-11261.603821
59445.923855,-15396.283594,-16950.716072,-11031.775171
59445.924165,-10658.965565,-19023.292709,-3677.258390
59445.924474,2294.638420,-17764.942608,4826.401637
59445.924784,7624.121203,-7994.224174,5439.278036
59445.925094,11251.130318,-6883.915261,13483.280765
59445.925403,16506.592507,0.000000,14019.547613
59445.925713,17987.004391,1184.329507,14325.985813
59445.926023,11547.212695,3108.864956,8273.831378
59445.926332,1554.432478,-2960.823768,689.485948
59445.926642,-7179.997637,-9178.553681,-3370.820191
59445.926951,-13027.624579,-10732.986159,-9806.022374
59445.927261,-13619.789333,-14878.139434,-11644.651570
59445.927571,-11917.315666,-19911.539840,-8656.879127
59445.927880,-13101.645173,-18949.272115,-8656.879127
59445.928190,-8290.306550,-17246.798449,-2451.505594
59445.928499,7031.956449,-14211.954086,6052.154434
59445.928809,9252.574275,-9030.512492,10801.946522
59445.929119,12657.521608,-2442.679609,12793.794817
59445.929428,15248.242405,2886.803174,11338.213370
59445.929738,14211.954086,1554.432478,11261.603821
59445.930048,5625.565159,3182.885551,3064.381992
59445.930357,-4737.318029,-3627.009116,0.000000
59445.930667,-8290.306550,-11769.274478,-2987.772442
59445.930976,-8660.409521,-13915.871710,-8963.317327
59445.931286,-14211.954086,-14582.057057,-12257.527968
59445.931596,-12509.480420,-18949.272115,-9882.631924
59445.931905,-11843.295072,-18727.210333,-5822.325785
59445.932215,-1258.350101,-16580.613101,995.924147
59445.932524,4515.256246,-13175.665768,6358.592633
59445.932834,8216.285956,-6735.874072,10418.898773
59445.933144,12953.603985,-1480.411884,10955.165621
59445.933453,13027.624579,4071.132681,9959.241474
59445.933763,9474.636058,3478.967927,7967.393179
59445.934072,5107.421000,-2738.761985,3140.991542
59445.934382,-4885.359217,-7105.977043,-2374.896044
59445.934692,-9178.553681,-12805.562797,-5209.449386
59445.935001,-13027.624579,-16654.633695,-11031.775171
59445.935311,-16654.633695,-19171.333898,-12410.747068
59445.935621,-15322.262999,-19837.519246,-9422.974625
59445.935930,-8734.430116,-19837.519246,-3370.820191
59445.936240,4663.297435,-17764.942608,4519.963438
59445.936549,4959.379811,-12731.542202,10648.727422
59445.936859,10066.800811,-74.020594,11644.651570
59445.937169,15396.283594,3478.967927,12870.404366
59445.937478,16210.510130,5329.482782,10955.165621
59445.937788,6217.729913,-666.185348,4903.011187
59445.938097,-4145.153275,-3182.885551,-2451.505594
59445.938407,-8882.471304,-8438.347739,-6511.811733
59445.938717,-11547.212695,-13915.871710,-10035.851024
59445.939026,-15470.304188,-18283.086767,-12334.137518
59445.939336,-13101.645173,-20725.766376,-9882.631924
59445.939646,-10140.821405,-20133.601622,-6818.249932
59445.939955,-4367.215058,-14285.974681,-1838.629195
59445.940265,2368.659014,-13101.645173,8273.831378
59445.940574,12361.439231,-4737.318029,13406.671215
59445.940884,14211.954086,1702.473667,13483.280765
59445.941194,14656.077652,3923.091493,12334.137518
59445.941503,11991.336260,1998.556043,9576.193725
59445.941813,3108.864956,-1776.494261,1149.143247
59445.942122,-6365.771101,-7772.162391,-2757.943793
59445.942432,-7179.997637,-11843.295072,-5286.058936
59445.942742,-9548.656652,-15396.283594,-8656.879127
59445.943051,-13101.645173,-15396.283594,-13559.890315
59445.943361,-17172.777854,-14285.974681,-12257.527968
59445.943670,-6661.853478,-16062.468941,-3064.381992
59445.943980,2664.741391,-11029.068536,4903.011187
59445.944290,9992.780217,-7402.059420,10035.851024
59445.944599,13915.871710,-1406.391290,12487.356617
59445.944909,16580.613101,3478.967927,12257.527968
59445.945219,14804.118840,1406.391290,12947.013916
59445.945528,9178.553681,-1702.473667,7967.393179
59445.945838,-370.102971,-5329.482782,-612.876398
59445.946148,-7772.162391,-8290.306550,-6205.373534
59445.946457,-11843.295072,-11917.315666,-9652.803275
59445.946767,-11917.315666,-17172.777854,-9882.631924
59445.947077,-16358.551318,-15988.448347,-13483.280765
59445.947386,-11917.315666,-19763.498651,-7584.345430
59445.947696,-1480.411884,-16580.613101,766.095498
59445.948006,5995.668130,-13027.624579,8350.440928
59445.948315,11769.274478,-5107.421000,12793.794817
59445.948625,14211.954086,1480.411884,12870.404366
59445.948935,14804.118840,3182.885551,10572.117872
59445.949244,11547.212695,1110.308913,9806.022374
59445.949554,4663.297435,-3552.988522,-76.609550
59445.949864,-6735.874072,-5403.503377,-5745.716235
59445.950173,-10362.883188,-11029.068536,-7354.516781
59445.950483,-9252.574275,-14211.954086,-10495.508323
59445.950793,-15174.221811,-18061.024985,-11031.775171
59445.951102,-15766.386565,-16580.613101,-10265.679673
59445.951412,-6883.915261,-17098.757260,-3447.429741
59445.951722,3108.864956,-10732.986159,2604.724693
59445.952031,4737.318029,-10732.986159,9806.022374
59445.952341,12435.459826,-4811.338623,16241.224558
59445.952651,16506.592507,592.164754,12180.918418
59445.952960,10584.944971,1998.556043,9193.145976
59445.953270,7846.182985,-2960.823768,7814.174080
59445.953580,-2368.659014,-3923.091493,-1838.629195
59445.953889,-7846.182985,-8290.306550,-5132.839837
59445.954199,-8882.471304,-12879.583391,-7660.954980
59445.954509,-12657.521608,-17912.983796,-9729.412825
59445.954818,-15470.304188,-16580.613101,-12947.013916
59445.955128,-12953.603985,-16802.674883,-8580.269578
59445.955438,-5921.647536,-14285.974681,0.000000
59445.955747,7105.977043,-9844.739029,7660.954980
59445.956057,11769.274478,-3552.988522,11568.042020
59445.956366,13619.789333,3478.967927,12563.966167
59445.956676,10955.047942,1110.308913,11031.775171
59445.956986,8956.491898,74.020594,8273.831378
59445.957295,666.185348,-1036.288319,536.266849
59445.957605,-5107.421000,-5107.421000,-1915.238745
59445.957915,-4811.338623,-8290.306550,-6205.373534
59445.958224,-10732.986159,-12435.459826,-9882.631924
59445.958534,-17764.942608,-13101.645173,-13023.623466
59445.958844,-15692.365970,-16950.716072,-9652.803275
59445.959153,-5995.668130,-18949.272115,-2528.115143
59445.959463,3552.988522,-9548.656652,2757.943793
59445.959773,5477.523971,-8364.327145,9806.022374
59445.960082,14359.995275,-3923.091493,14325.985813
59445.960392,15100.201217,-74.020594,12027.699319
59445.960702,11177.109724,-592.164754,9959.241474
59445.961011,7031.956449,-2960.823768,4826.401637
59445.961321,-2442.679609,-5921.647536,-1302.362347
59445.961631,-10658.965565,-6587.832884,-8273.831378
59445.961940,-8290.306550,-13397.727550,-6128.763984
59445.962250,-11029.068536,-17764.942608,-9882.631924
59445.962560,-16580.613101,-15470.304188,-9806.022374
59445.962869,-10658.965565,-16654.633695,-7124.688131
59445.963179,222.061783,-15470.304188,1762.019645
59445.963489,5551.544565,-12435.459826,8120.612279
59445.963798,8808.450710,-5699.585753,10955.165621
59445.964108,15322.262999,-3552.988522,14019.547613
59445.964418,14137.933492,-3552.988522,14632.424012
59445.964727,11177.109724,-3552.988522,7277.907231
59445.965037,-2072.576638,-3034.844362,-1225.752797
59445.965347,-3701.029710,-7105.977043,-1915.238745
59445.965656,-8290.306550,-7476.080014,-8273.831378
59445.965966,-9548.656652,-15396.283594,-8350.440928
59445.966276,-14211.954086,-16506.592507,-10955.165621
59445.966585,-13989.892304,-20133.601622,-8963.317327
59445.966895,-4811.338623,-18653.189738,-1608.800546
59445.967205,5921.647536,-14878.139434,9039.926876
59445.967514,12213.398043,-7994.224174,12563.966167
59445.967824,14137.933492,0.000000,11568.042020
59445.968134,10066.800811,3182.885551,9806.022374
59445.968443,11325.150913,1850.514855,10418.898773
59445.968753,2886.803174,0.000000,0.000000
59445.969063,-5107.421000,-1184.329507,-2834.553343
59445.969372,-5699.585753,-5995.668130,-5669.106685
59445.969682,-7254.018232,-12213.398043,-6435.202183
59445.969992,-12953.603985,-15174.221811,-10495.508323
59445.970301,-16580.613101,-14878.139434,-11644.651570
59445.970611,-11251.130318,-19615.457463,-4903.011187
59445.970921,2294.638420,-16580.613101,2987.772442
59445.971230,7328.038826,-7254.018232,7431.126331
59445.971540,10066.800811,-74.020594,11031.775171
59445.971850,13545.768739,1776.494261,9729.412825
59445.972159,10584.944971,-4145.153275,12180.918418
59445.972469,6439.791695,1258.350101,4749.792088
59445.972779,-740.205942,-1776.494261,-383.047749
59445.973088,-3108.864956,-4885.359217,-3064.381992
59445.973398,-4737.318029,-4811.338623,-6128.763984
59445.973708,-9474.636058,-11917.315666,-9806.022374
59445.974017,-15396.283594,-16654.633695,-9806.022374
59445.974327,-15470.304188,-21169.889941,-10495.508323
59445.974636,-9696.697840,-17024.736666,-7431.126331
59445.974946,-1850.514855,-13619.789333,-76.609550
59445.975256,7846.182985,-4737.318029,9576.193725
59445.975565,9770.718434,-2368.659014,11414.822920
59445.975875,6217.729913,-2220.617826,9882.631924
59445.976185,5033.400406,-3849.070898,10035.851024
59445.976494,-2368.659014,-74.020594,1225.752797
59445.976804,-9474.636058,-74.020594,-3677.258390
59445.977114,-6809.894666,-6291.750507,-612.876398
59445.977423,-8660.409521,-6957.935855,-5592.497135
59445.977733,-13915.871710,-13175.665768,-5745.716235
59445.978043,-16654.633695,-17764.942608,-9882.631924
59445.978352,-15840.407159,-17468.860231,-7354.516781
59445.978662,-7920.203579,-18579.169144,689.485948
59445.978972,-2072.576638,-11991.336260,5209.449386
59445.979281,1258.350101,-6513.812290,8197.221829
59445.979591,3775.050304,-1258.350101,8197.221829
59445.979901,6661.853478,-74.020594,7737.564530
59445.980210,2368.659014,-1258.350101,8580.269578
59445.980520,-2442.679609,-5921.647536,3600.648841
59445.980830,-9326.594869,-3627.009116,-4596.572988
59445.981139,-7550.100608,-10658.965565,-689.485948
59445.981449,-13915.871710,-11917.315666,-5822.325785
59445.981759,-15026.180623,-14211.954086,-7201.297681
59445.982068,-11917.315666,-15396.283594,-6052.154434
59445.982378,-6957.935855,-13545.768739,-2528.115143
59445.982688,-5995.668130,-14211.954086,-76.609550
59445.982997,-3627.009116,-11843.295072,3600.648841
59445.983307,0.000000,-4811.338623,4903.011187
59445.983617,5921.647536,-6513.812290,10342.289223
59445.983926,2294.638420,-1850.514855,6052.154434
59445.984236,-1776.494261,-5403.503377,6741.640382
59445.984546,-1776.494261,-3330.926739,2145.067394
59445.984855,888.247130,-4515.256246,919.314598
59445.985165,-2294.638420,-6661.853478,-1455.581446
59445.985475,-8438.347739,-9918.759623,-4903.011187
59445.985784,-9548.656652,-14804.118840,-5592.497135
59445.986094,-6587.832884,-16580.613101,-5592.497135
59445.986404,-8290.306550,-15470.304188,-4903.011187
59445.986713,-5477.523971,-16136.489536,-536.266849
59445.987023,-2442.679609,-12583.501014,-383.047749
59445.987333,2368.659014,-9548.656652,4903.011187
59445.987642,6809.894666,-4219.173869,7354.516781
59445.987952,8586.388927,-2960.823768,11338.213370
59445.988262,6365.771101,296.082377,8503.660028
59445.988571,592.164754,-1924.535449,3447.429741
59445.988881,-2442.679609,-9474.636058,-76.609550
59445.989191,-4811.338623,-13027.624579,-689.485948
59445.989500,-7179.997637,-11843.295072,-4979.620737
59445.989810,-11251.130318,-12509.480420,-6435.202183
59445.990120,-8364.327145,-17764.942608,-3140.991542
59445.990429,-9474.636058,-14285.974681,-4290.134789
59445.990739,-2516.700203,-13101.645173,153.219100
59445.991049,1776.494261,-8882.471304,3447.429741
59445.991358,4885.359217,-5107.421000,5822.325785
59445.991668,7031.956449,-4515.256246,8197.221829
59445.991978,9400.615463,-4737.318029,9652.803275
59445.992287,4663.297435,-8142.265362,6818.249932
59445.992597,-4219.173869,-9474.636058,-383.047749
59445.992906,-10658.965565,-10732.986159,-3370.820191
59445.993216,-9548.656652,-11843.295072,-3753.867940
59445.993526,-9474.636058,-7179.997637,-4290.134789
59445.993835,-9548.656652,-9104.533087,-4213.525239
59445.994145,-7920.203579,-11769.274478,-3600.648841
59445.994455,-6069.688724,-12583.501014,0.000000
59445.994764,-4737.318029,-12583.501014,2834.553343
59445.995074,-74.020594,-10658.965565,6665.030833
59445.995384,2294.638420,-6513.812290,7277.907231
59445.995693,1184.329507,-74.020594,4903.011187
59445.996003,5847.626942,0.000000,7124.688131
59445.996313,592.164754,-666.185348,0.000000
59445.996622,-4737.318029,-7772.162391,306.438199
59445.996932,-10955.047942,-13397.727550,-5669.106685
59445.997242,-15026.180623,-18653.189738,-8044.002729
59445.997551,-18135.045579,-21169.889941,-7354.516781
59445.997861,-14359.995275,-16580.613101,-5439.278036
59445.998171,-5995.668130,-14211.954086,-76.609550
59445.998480,-1258.350101,-9474.636058,7277.907231
59445.998790,1110.308913,-962.267725,5745.716235
59445.999100,7105.977043,-1258.350101,10112.460574
59445.999409,9400.615463,-2368.659014,9729.412825
59445.999719,5773.606348,1480.411884,7354.516781
59446.000029,740.205942,-1850.514855,3677.258390
59446.000338,-5773.606348,-7105.977043,-1762.019645
59446.000648,-11843.295072,-12657.521608,-5132.839837
59446.000958,-15988.448347,-17616.901420,-7431.126331
59446.001267,-17764.942608,-21243.910535,-7048.078582
59446.001577,-13397.727550,-19689.478057,-6128.763984
59446.001887,-7179.997637,-16580.613101,-1302.362347
59446.002196,-4737.318029,-7772.162391,1225.752797
59446.002506,4811.338623,-5255.462188,7890.783629
59446.002816,5847.626942,-74.020594,6435.202183
59446.003125,10584.944971,-2368.659014,9729.412825
59446.003435,8660.409521,-962.267725,8197.221829
59446.003745,4515.256246,-3701.029710,5669.106685
59446.004054,1628.453072,-6143.709319,2374.896044
59446.004364,-4737.318029,-7772.162391,-1225.752797
59446.004674,-7994.224174,-11325.150913,-7354.516781
59446.004983,-8438.347739,-16876.695478,-5592.497135
59446.005293,-11325.150913,-16580.613101,-9269.755526
59446.005603,-11843.295072,-19615.457463,-6741.640382
59446.005912,-5995.668130,-17172.777854,-4366.744339
59446.006222,-1258.350101,-13323.706956,1455.581446
59446.006532,2590.720797,-7031.956449,5362.668486
59446.006841,5551.544565,-3478.967927,8503.660028
59446.007151,7105.977043,-74.020594,8886.707777
59446.007461,4737.318029,2294.638420,8580.269578
59446.007770,2368.659014,-74.020594,4903.011187
59446.008080,888.247130,-5329.482782,5822.325785
59446.008390,-2442.679609,-8882.471304,1149.143247
59446.008699,-7105.977043,-10732.986159,-2451.505594
59446.009009,-7624.121203,-14730.098246,-5362.668486
59446.009319,-8882.471304,-15766.386565,-4903.011187
59446.009628,-7698.141797,-16950.716072,-2451.505594
59446.009938,-3627.009116,-16876.695478,383.047749
59446.010248,-3627.009116,-14434.015869,2451.505594
59446.010557,1184.329507,-5995.668130,6128.763984
59446.010867,8438.347739,-7179.997637,9806.022374
59446.011176,12953.603985,-2368.659014,12180.918418
59446.011486,7105.977043,2886.803174,9806.022374
59446.011796,8216.285956,0.000000,9729.412825
59446.012105,2294.638420,-1184.329507,2987.772442
59446.012415,-222.061783,-9474.636058,4060.306139
59446.012725,-5699.585753,-11769.274478,306.438199
59446.013034,-7698.141797,-14285.974681,-1838.629195
59446.013344,-7402.059420,-16950.716072,-919.314598
59446.013654,-6513.812290,-15470.304188,0.000000
59446.013963,-3256.906145,-13101.645173,0.000000
59446.014273,-74.020594,-14211.954086,8503.660028
59446.014583,2886.803174,-4737.318029,6358.592633
59446.014892,4145.153275,-5403.503377,9806.022374
59446.015202,8216.285956,-4737.318029,10955.165621
59446.015512,7031.956449,0.000000,11721.261119
59446.015821,4959.379811,370.102971,9576.193725
59446.016131,3552.988522,-888.247130,8197.221829
59446.016441,1480.411884,-4515.256246,7354.516781
59446.016750,-2220.617826,-8364.327145,3677.258390
59446.017060,-4737.318029,-10732.986159,1225.752797
59446.017370,-4737.318029,-19023.292709,4903.011187
59446.017679,-5995.668130,-20725.766376,2987.772442
59446.017989,-10362.883188,-16654.633695,0.000000
59446.018299,-5107.421000,-15988.448347,6052.154434
59446.018608,-74.020594,-6143.709319,7967.393179
59446.018918,5255.462188,-1776.494261,11568.042020
59446.019228,8660.409521,2738.761985,13942.938064
59446.019537,6365.771101,3552.988522,12563.966167
59446.019847,2812.782580,-74.020594,12257.527968
59446.020157,1184.329507,-74.020594,7890.783629
59446.020466,-1184.329507,-8512.368333,7967.393179
59446.020776,-4219.173869,-10362.883188,2987.772442
59446.021086,-6513.812290,-10732.986159,1225.752797
59446.021395,-666.185348,-16580.613101,4826.401637
59446.021705,-2368.659014,-15766.386565,2451.505594
59446.022015,-5329.482782,-18431.127956,2528.115143
59446.022324,-6069.688724,-18431.127956,1532.190996
59446.022634,-3997.112087,-14656.077652,4519.963438
59446.022944,814.226536,-9326.594869,6052.154434
59446.023253,2590.720797,-3552.988522,7277.907231
59446.023563,2368.659014,-74.020594,7354.516781
59446.023873,5773.606348,-3256.906145,9729.412825
59446.024182,3478.967927,-74.020594,4213.525239
59446.024492,2664.741391,-6735.874072,7048.078582
59446.024802,0.000000,-8364.327145,3064.381992
59446.025111,-1110.308913,-14211.954086,1838.629195
59446.025421,-5403.503377,-16950.716072,0.000000
59446.025731,-8882.471304,-20133.601622,-2681.334243
59446.026040,-8364.327145,-20133.601622,-3753.867940
59446.026350,-4811.338623,-16580.613101,-2528.115143
59446.026660,-3552.988522,-9548.656652,0.000000
59446.026969,1776.494261,-6587.832884,3983.696590
59446.027279,5255.462188,-2960.823768,4826.401637
59446.027589,5921.647536,-666.185348,7354.516781
59446.027898,7105.977043,1850.514855,4290.134789
59446.028208,4737.318029,-3775.050304,4443.353888
59446.028518,888.247130,-7105.977043,2528.115143
59446.028827,-2294.638420,-10732.986159,612.876398
59446.029137,-74.020594,-11843.295072,-76.609550
59446.029446,-74.020594,-14211.954086,-76.609550
59446.029756,-4811.338623,-10658.965565,-3753.867940
59446.030066,-4145.153275,-11917.315666,-2451.505594
59446.030375,-74.020594,-14211.954086,-689.485948
59446.030685,0.000000,-12509.480420,0.000000
59446.030995,-1332.370696,-13175.665768,689.485948
59446.031304,0.000000,-11177.109724,2068.457845
59446.031614,2368.659014,-9400.615463,4060.306139
59446.031924,4441.235652,-4663.297435,5362.668486
59446.032233,5255.462188,-4737.318029,6588.421283
59446.032543,4663.297435,-6513.812290,7277.907231
59446.032853,1702.473667,-3552.988522,842.705048
59446.033162,1184.329507,-9548.656652,2451.505594
59446.033472,-1850.514855,-14211.954086,-76.609550
59446.033782,-8290.306550,-15470.304188,0.000000
59446.034091,-4367.215058,-16580.613101,-76.609550
59446.034401,-4219.173869,-11917.315666,-1302.362347
59446.034711,-2220.617826,-9104.533087,995.924147
59446.035020,1554.432478,-5995.668130,3677.258390
59446.035330,4885.359217,-5403.503377,5669.106685
59446.035640,2960.823768,-7179.997637,7354.516781
59446.035949,-74.020594,-10658.965565,4213.525239
59446.036259,-3404.947333,-10288.862594,3677.258390
59446.036569,-74.020594,-14211.954086,8503.660028
59446.036878,-2886.803174,-4811.338623,1838.629195
59446.037188,-74.020594,-5921.647536,3907.087040
59446.037498,1480.411884,-6217.729913,5286.058936
59446.037807,2516.700203,-6365.771101,4826.401637
59446.038117,-1258.350101,-9622.677246,2451.505594
59446.038427,-4737.318029,-11325.150913,2451.505594
59446.038736,-4737.318029,-11917.315666,2451.505594
59446.039046,2590.720797,-12435.459826,6665.030833
59446.039356,-74.020594,-8142.265362,4213.525239
59446.039665,-2368.659014,-8364.327145,6128.763984
59446.039975,-74.020594,-9474.636058,4826.401637
59446.040285,2294.638420,-10066.800811,6818.249932
59446.040594,-666.185348,-9104.533087,6818.249932
59446.040904,-2220.617826,-7254.018232,5745.716235
59446.041214,-962.267725,-7550.100608,5286.058936
59446.041523,-2368.659014,-7179.997637,4290.134789
59446.041833,-4441.235652,-3627.009116,2451.505594
59446.042143,-2368.659014,-7179.997637,3983.696590
59446.042452,-74.020594,-6513.812290,3294.210641
59446.042762,0.000000,-4811.338623,1838.629195
59446.043072,4071.132681,-5329.482782,3294.210641
59446.043381,-1184.329507,-9104.533087,2451.505594
59446.043691,-3108.864956,-12731.542202,2451.505594
59446.044001,-2146.597232,-13101.645173,1455.581446
59446.044310,-2220.617826,-12879.583391,2681.334243
59446.044620,-1998.556043,-6587.832884,1302.362347
59446.044930,-962.267725,-3701.029710,306.438199
59446.045239,0.000000,-4811.338623,1838.629195
59446.045549,1110.308913,-9474.636058,4519.963438
59446.045859,-1998.556043,-4811.338623,0.000000
59446.046168,1702.473667,-8586.388927,1149.143247
59446.046478,0.000000,-7179.997637,-612.876398
59446.046788,1258.350101,-6365.771101,-1378.971896
59446.047097,518.144159,-8142.265362,-2221.676944
59446.047407,-3256.906145,-11177.109724,-2298.286494
59446.047717,-2442.679609,-12287.418637,-3753.867940
59446.048026,-74.020594,-13027.624579,-3140.991542
59446.048336,-2368.659014,-10732.986159,-2451.505594
59446.048646,0.000000,-11621.233289,612.876398
59446.048955,-74.020594,-9474.636058,-1302.362347
59446.049265,1184.329507,-11103.089130,536.266849
59446.049575,1480.411884,-9474.636058,-76.609550
59446.049885,2072.576638,-7624.121203,-1072.533697
59446.050194,2590.720797,-5921.647536,-1149.143247
59446.050504,3478.967927,-4737.318029,-1378.971896
59446.050814,592.164754,-4811.338623,-4903.011187
59446.051123,-2960.823768,-7772.162391,-5822.325785
59446.051433,-5921.647536,-13101.645173,-4903.011187
59446.051743,-1258.350101,-16506.592507,-3447.429741
59446.052053,-2442.679609,-12435.459826,-4366.744339
59446.052362,-74.020594,-13027.624579,-689.485948
59446.052672,0.000000,-9548.656652,0.000000
59446.052982,518.144159,-9178.553681,-76.609550
59446.053291,74.020594,-7772.162391,0.000000
59446.053601,444.123565,-6809.894666,-919.314598
59446.053911,0.000000,-4811.338623,-2528.115143
59446.054220,0.000000,-2960.823768,-2528.115143
59446.054530,0.000000,-4811.338623,-3064.381992
59446.054840,-74.020594,-9474.636058,-1302.362347
59446.055150,-4219.173869,-9918.759623,-4366.744339
59446.055459,-1332.370696,-13619.789333,-1378.971896
59446.055769,-1776.494261,-13397.727550,-2145.067394
59446.056079,-666.185348,-12435.459826,-306.438199
59446.056388,-962.267725,-11843.295072,229.828649
59446.056698,-222.061783,-10066.800811,995.924147
59446.057008,1110.308913,-7698.141797,1149.143247
59446.057318,-296.082377,-5625.565159,-76.609550
59446.057627,592.164754,-4811.338623,3064.381992
59446.057937,4663.297435,-4145.153275,2374.896044
59446.058247,1184.329507,-1850.514855,0.000000
59446.058556,1628.453072,-8068.244768,3524.039291
59446.058866,-4145.153275,-9548.656652,-919.314598
59446.059176,-3108.864956,-12879.583391,-919.314598
59446.059485,-1332.370696,-13249.686362,-766.095498
59446.059795,-2368.659014,-13323.706956,689.485948
59446.060105,-74.020594,-13027.624579,1762.019645
59446.060415,1110.308913,-13027.624579,3600.648841
59446.060724,-2960.823768,-9548.656652,1225.752797
59446.061034,222.061783,-11621.233289,4903.011187
59446.061344,-74.020594,-7698.141797,612.876398
59446.061653,592.164754,-5995.668130,7354.516781
59446.061963,2960.823768,-1258.350101,4596.572988
59446.062273,2590.720797,-1702.473667,3753.867940
59446.062583,-296.082377,-4885.359217,3753.867940
59446.062892,-2220.617826,-10140.821405,2528.115143
59446.063202,-74.020594,-13027.624579,2987.772442
59446.063512,-74.020594,-16580.613101,4826.401637
59446.063821,-2442.679609,-13619.789333,2374.896044
59446.064131,-3552.988522,-11325.150913,2451.505594
59446.064441,-74.020594,-13619.789333,5439.278036
59446.064750,-4737.318029,-9548.656652,1225.752797
59446.065060,-2368.659014,-8882.471304,1762.019645
59446.065370,148.041188,-6587.832884,3524.039291
59446.065680,3182.885551,-3552.988522,6358.592633
59446.065989,3849.070898,-1554.432478,4749.792088
59446.066299,3478.967927,-4737.318029,5362.668486
59446.066609,2220.617826,-8586.388927,6052.154434
59446.066918,-74.020594,-9474.636058,1149.143247
59446.067228,-2368.659014,-10140.821405,0.000000
59446.067538,-74.020594,-16136.489536,4213.525239
59446.067848,-3552.988522,-11917.315666,0.000000
59446.068157,-1258.350101,-13545.768739,842.705048
59446.068467,-4293.194464,-12435.459826,-995.924147
59446.068777,-5033.400406,-13693.809927,459.657299
59446.069086,-888.247130,-9252.574275,995.924147
59446.069396,1184.329507,-5995.668130,3677.258390
59446.069706,4737.318029,-2442.679609,6128.763984
59446.070015,4663.297435,0.000000,2374.896044
59446.070325,0.000000,-3627.009116,2451.505594
59446.070635,3478.967927,-9474.636058,4213.525239
59446.070945,0.000000,-7179.997637,-2374.896044
59446.071254,814.226536,-11843.295072,-76.609550
59446.071564,-2146.597232,-14582.057057,229.828649
59446.071874,-666.185348,-13471.748144,-383.047749
59446.072183,-2146.597232,-14359.995275,-1762.019645
59446.072493,-5921.647536,-13397.727550,-2451.505594
59446.072803,-5921.647536,-10732.986159,-2451.505594
59446.073112,-74.020594,-13027.624579,2068.457845
59446.073422,2146.597232,-3108.864956,536.266849
59446.073732,3923.091493,-4145.153275,3600.648841
59446.074042,2294.638420,-2294.638420,842.705048
59446.074351,2960.823768,-5625.565159,2451.505594
59446.074661,3108.864956,-8734.430116,1532.190996
59446.074971,740.205942,-9622.677246,0.000000
59446.075280,-2146.597232,-11843.295072,-689.485948
59446.075590,-2368.659014,-11917.315666,-2451.505594
59446.075900,-4737.318029,-11917.315666,-4290.134789
59446.076210,-5625.565159,-15174.221811,-1838.629195
59446.076519,-4811.338623,-15396.283594,-3140.991542
59446.076829,-6513.812290,-9548.656652,-4596.572988
59446.077139,2886.803174,-7105.977043,842.705048
59446.077448,2368.659014,-2960.823768,1225.752797
59446.077758,3478.967927,-2220.617826,1608.800546
59446.078068,3182.885551,-4737.318029,2451.505594
59446.078377,3627.009116,-6365.771101,2298.286494
59446.078687,1332.370696,-5995.668130,0.000000
59446.078997,-1258.350101,-8068.244768,-1378.971896
59446.079307,-1184.329507,-11325.150913,612.876398
59446.079616,-74.020594,-13027.624579,-1302.362347
59446.079926,-7105.977043,-10140.821405,-4903.011187
59446.080236,-3627.009116,-15988.448347,-2528.115143
59446.080545,-4441.235652,-13249.686362,-2451.505594
59446.080855,-1332.370696,-11769.274478,-153.219100
59446.081165,518.144159,-6291.750507,306.438199
59446.081475,2220.617826,-3256.906145,842.705048
59446.081784,2886.803174,-2220.617826,1149.143247
59446.082094,4663.297435,-3256.906145,2374.896044
59446.082404,2960.823768,-3034.844362,1225.752797
59446.082713,2664.741391,-9474.636058,3600.648841
59446.083023,-74.020594,-10066.800811,-689.485948
59446.083333,-74.020594,-15396.283594,2374.896044
59446.083642,-3923.091493,-13693.809927,-1915.238745
59446.083952,-7772.162391,-15174.221811,-3753.867940
59446.084262,-6957.935855,-14211.954086,-3064.381992
59446.084572,-4219.173869,-11029.068536,-2068.457845
59446.084881,-74.020594,-7994.224174,-76.609550
59446.085191,2294.638420,-4145.153275,-76.609550
59446.085501,0.000000,-2738.761985,1225.752797
59446.085810,5255.462188,-5921.647536,5439.278036
59446.086120,1184.329507,-2442.679609,1225.752797
59446.086430,5033.400406,-7476.080014,5515.887586
59446.086740,1036.288319,-8290.306550,2834.553343
59446.087049,888.247130,-10807.006753,2068.457845
59446.087359,-962.267725,-11991.336260,0.000000
59446.087669,-6365.771101,-13915.871710,-2221.676944
59446.087978,-6291.750507,-17172.777854,-1685.410096
59446.088288,-2442.679609,-17172.777854,-689.485948
59446.088598,-3775.050304,-12139.377449,-842.705048
59446.088907,-1776.494261,-4811.338623,0.000000
59446.089217,4663.297435,-6809.894666,4826.401637
59446.089527,4145.153275,-2442.679609,6435.202183
59446.089837,6735.874072,-2072.576638,5898.935335
59446.090146,5625.565159,-3552.988522,4903.011187
59446.090456,2960.823768,-7179.997637,5209.449386
59446.090766,1110.308913,-10955.047942,4596.572988
59446.091075,1702.473667,-14137.933492,3677.258390
59446.091385,-2220.617826,-14211.954086,2374.896044
59446.091695,-5995.668130,-14211.954086,-1302.362347
59446.092004,-7698.141797,-10732.986159,-4903.011187
59446.092314,-5921.647536,-11325.150913,0.000000
59446.092624,-2960.823768,-7179.997637,612.876398
59446.092934,444.123565,-5329.482782,1915.238745
59446.093243,2516.700203,-5403.503377,4903.011187
59446.093553,5329.482782,-4145.153275,5669.106685
59446.093863,5625.565159,-3849.070898,4903.011187
59446.094172,3108.864956,-5107.421000,4903.011187
59446.094482,1184.329507,-8364.327145,5515.887586
59446.094792,2294.638420,-10066.800811,2681.334243
59446.095102,-2072.576638,-10732.986159,0.000000
59446.095411,-4811.338623,-16580.613101,-76.609550
59446.095721,-9178.553681,-14285.974681,-3064.381992
59446.096031,-6439.791695,-15692.365970,-2374.896044
59446.096340,-5329.482782,-12509.480420,-1608.800546
59446.096650,-2220.617826,-7402.059420,-995.924147
59446.096960,518.144159,-5625.565159,2374.896044
59446.097269,4737.318029,-2442.679609,3677.258390
59446.097579,4737.318029,-666.185348,4903.011187
59446.097889,7624.121203,-4145.153275,5439.278036
59446.098199,2664.741391,-4811.338623,612.876398
59446.098508,5847.626942,-13619.789333,6052.154434
59446.098818,888.247130,-10436.903782,306.438199
59446.099128,-4441.235652,-13989.892304,-2221.676944
59446.099437,-7920.203579,-15914.427753,-4060.306139
59446.099747,-6217.729913,-13841.851115,-4826.401637
59446.100057,-5773.606348,-13397.727550,-3140.991542
59446.100367,-4737.318029,-7179.997637,-4290.134789
59446.100676,-3552.988522,-5995.668130,-2451.505594
