#time,accel_x,accel_y,accel_z
59269.762266,-222.061783,-9178.553681,536.266849
59269.762576,-296.082377,-9178.553681,766.095498
59269.762886,-444.123565,-8956.491898,1072.533697
59269.763195,-74.020594,-9474.636058,-76.609550
59269.763505,-370.102971,-7994.224174,-383.047749
59269.763815,-1628.453072,-8364.327145,0.000000
59269.764125,2294.638420,-11843.295072,2374.896044
59269.764435,-2368.659014,-7179.997637,0.000000
59269.764744,0.000000,-9844.739029,2451.505594
59269.765054,-1554.432478,-7920.203579,0.000000
59269.765364,-370.102971,-9104.533087,766.095498
59269.765674,-370.102971,-9178.553681,995.924147
59269.765984,-148.041188,-9104.533087,842.705048
59269.766294,1702.473667,-10658.965565,2374.896044
59269.766603,-74.020594,-9474.636058,1149.143247
59269.766913,-888.247130,-7772.162391,-2451.505594
59269.767223,1924.535449,-11399.171507,3217.601092
59269.767533,-1332.370696,-7772.162391,0.000000
59269.767843,-2368.659014,-7179.997637,1225.752797
59269.768152,-370.102971,-8734.430116,383.047749
59269.768462,-592.164754,-8956.491898,612.876398
59269.768772,-296.082377,-9252.574275,766.095498
59269.769082,-444.123565,-9104.533087,1149.143247
59269.769392,888.247130,-11103.089130,2298.286494
59269.769702,1110.308913,-9474.636058,2221.676944
59269.770011,-74.020594,-9474.636058,-76.609550
59269.770321,0.000000,-8364.327145,1225.752797
59269.770631,-74.020594,-9474.636058,1149.143247
59269.770941,-2812.782580,-6291.750507,0.000000
59269.771251,-74.020594,-9474.636058,842.705048
59269.771561,-666.185348,-8956.491898,459.657299
59269.771870,-518.144159,-9104.533087,536.266849
59269.772180,-296.082377,-8882.471304,919.314598
59269.772490,-1776.494261,-8956.491898,2451.505594
59269.772800,592.164754,-10214.842000,1991.848295
59269.773110,-74.020594,-10658.965565,-76.609550
59269.773419,-2368.659014,-6587.832884,0.000000
59269.773729,1110.308913,-10510.924376,2068.457845
59269.774039,-370.102971,-7254.018232,-1302.362347
59269.774349,1036.288319,-10066.800811,1915.238745
59269.774659,-444.123565,-8882.471304,459.657299
59269.774969,-370.102971,-9178.553681,766.095498
59269.775278,0.000000,-9178.553681,842.705048
59269.775588,0.000000,-7772.162391,0.000000
59269.775898,0.000000,-9548.656652,1225.752797
59269.776208,518.144159,-11843.295072,3600.648841
59269.776518,-666.185348,-7994.224174,-689.485948
59269.776827,0.000000,-8956.491898,1838.629195
59269.777137,-74.020594,-9474.636058,-76.609550
59269.777447,74.020594,-9400.615463,1225.752797
59269.777757,-222.061783,-9030.512492,919.314598
59269.778067,-444.123565,-9178.553681,919.314598
59269.778377,-370.102971,-8882.471304,459.657299
59269.778686,-2368.659014,-6291.750507,0.000000
59269.778996,-2072.576638,-7772.162391,0.000000
59269.779306,1332.370696,-11177.109724,3447.429741
59269.779616,-2220.617826,-7179.997637,0.000000
59269.779926,296.082377,-9992.780217,2068.457845
59269.780236,2294.638420,-10658.965565,2374.896044
59269.780545,-888.247130,-9252.574275,919.314598
59269.780855,-222.061783,-9178.553681,1072.533697
59269.781165,-370.102971,-9178.553681,536.266849
59269.781475,-444.123565,-9178.553681,919.314598
59269.781785,-666.185348,-8290.306550,-1149.143247
59269.782094,-1480.411884,-8364.327145,0.000000
59269.782404,0.000000,-7772.162391,1225.752797
59269.782714,-74.020594,-9474.636058,-76.609550
59269.783024,-1776.494261,-8364.327145,0.000000
59269.783334,1110.308913,-11547.212695,4443.353888
59269.783644,-1184.329507,-8364.327145,306.438199
59269.783953,-74.020594,-9400.615463,995.924147
59269.784263,-148.041188,-9400.615463,1149.143247
59269.784573,-518.144159,-9030.512492,919.314598
59269.784883,-74.020594,-9178.553681,-76.609550
59269.785193,-74.020594,-8808.450710,842.705048
59269.785503,-3552.988522,-5995.668130,0.000000
59269.785812,2220.617826,-10066.800811,2757.943793
59269.786122,222.061783,-7550.100608,153.219100
59269.786432,592.164754,-9548.656652,3064.381992
59269.786742,592.164754,-7772.162391,383.047749
59269.787052,1776.494261,-8808.450710,1149.143247
59269.787361,1850.514855,-8734.430116,689.485948
59269.787671,2220.617826,-9030.512492,766.095498
59269.787981,4663.297435,-10658.965565,2068.457845
59269.788291,4071.132681,-9474.636058,1762.019645
59269.788601,0.000000,-7179.997637,-1838.629195
59269.788911,3256.906145,-10732.986159,1532.190996
59269.789220,2590.720797,-8882.471304,-383.047749
59269.789530,2368.659014,-7179.997637,0.000000
59269.789840,4367.215058,-8882.471304,842.705048
59269.790150,4737.318029,-8438.347739,1378.971896
59269.790460,5625.565159,-8882.471304,1762.019645
59269.790769,6217.729913,-8660.409521,2221.676944
59269.791079,7846.182985,-9474.636058,3600.648841
59269.791389,6439.791695,-9474.636058,1838.629195
59269.791699,5255.462188,-7698.141797,-1302.362347
59269.792009,4737.318029,-8364.327145,0.000000
59269.792319,7031.956449,-9474.636058,-76.609550
59269.792628,7920.203579,-10066.800811,-76.609550
59269.792938,5551.544565,-9844.739029,0.000000
59269.793248,5329.482782,-11399.171507,-153.219100
59269.793558,4145.153275,-12287.418637,76.609550
59269.793868,2516.700203,-12287.418637,0.000000
59269.794178,888.247130,-10214.842000,-1838.629195
59269.794487,1184.329507,-8956.491898,-1455.581446
59269.794797,2960.823768,-8364.327145,1838.629195
59269.795107,3478.967927,-5625.565159,842.705048
59269.795417,4737.318029,-3627.009116,2834.553343
59269.795727,6661.853478,-3627.009116,2528.115143
59269.796036,9252.574275,-4737.318029,2987.772442
59269.796346,10140.821405,-7402.059420,5132.839837
59269.796656,7994.224174,-10140.821405,2528.115143
59269.796966,2664.741391,-13249.686362,-383.047749
59269.797276,-666.185348,-18949.272115,-842.705048
59269.797586,-3849.070898,-19615.457463,-1838.629195
59269.797895,-5995.668130,-17764.942608,-4366.744339
59269.798205,-7105.977043,-11917.315666,-3677.258390
59269.798515,-2442.679609,-11843.295072,-76.609550
59269.798825,-74.020594,-4737.318029,536.266849
59269.799135,2442.679609,-3923.091493,3983.696590
59269.799444,3701.029710,-4737.318029,6052.154434
59269.799754,1924.535449,-4145.153275,5745.716235
59269.800064,-1110.308913,-5107.421000,6588.421283
59269.800374,-3108.864956,-4071.132681,2757.943793
59269.800684,-3627.009116,-3404.947333,229.828649
59269.800994,-4737.318029,-5403.503377,0.000000
59269.801303,-3404.947333,-10066.800811,-76.609550
59269.801613,-8956.491898,-10881.027347,-4826.401637
59269.801923,-9474.636058,-16802.674883,-1838.629195
59269.802233,-9104.533087,-18505.148550,-2528.115143
59269.802543,-10658.965565,-17764.942608,-2068.457845
59269.802853,-10436.903782,-14285.974681,-1302.362347
59269.803162,-7476.080014,-7920.203579,-689.485948
59269.803472,-1850.514855,-5699.585753,3677.258390
59269.803782,3701.029710,-2442.679609,8273.831378
59269.804092,5847.626942,0.000000,7890.783629
59269.804402,5329.482782,-666.185348,7354.516781
59269.804711,5847.626942,-9474.636058,7277.907231
59269.805021,-2442.679609,-10658.965565,1455.581446
59269.805331,-6809.894666,-14359.995275,-1072.533697
59269.805641,-7772.162391,-14285.974681,-3370.820191
59269.805951,-7698.141797,-13175.665768,-4136.915689
59269.806261,-4515.256246,-13101.645173,-1762.019645
59269.806570,-2590.720797,-9474.636058,-1302.362347
59269.806880,-592.164754,-8882.471304,-1302.362347
59269.807190,0.000000,-14285.974681,2451.505594
59269.807500,1702.473667,-15988.448347,4826.401637
59269.807810,-2664.741391,-10066.800811,1762.019645
59269.808119,0.000000,-8808.450710,3677.258390
59269.808429,1554.432478,-6365.771101,2374.896044
59269.808739,3997.112087,-3997.112087,2681.334243
59269.809049,5477.523971,-4293.194464,3140.991542
59269.809359,4811.338623,-4663.297435,2068.457845
59269.809669,4145.153275,-8364.327145,2451.505594
59269.809978,2368.659014,-13397.727550,1378.971896
59269.810288,-666.185348,-15988.448347,-76.609550
59269.810598,-5921.647536,-13101.645173,-2451.505594
59269.810908,-1924.535449,-12065.356855,-3677.258390
59269.811218,-1406.391290,-8216.285956,-1608.800546
59269.811528,3552.988522,-3330.926739,-612.876398
59269.811837,6587.832884,-3478.967927,2298.286494
59269.812147,8882.471304,-2738.761985,3447.429741
59269.812457,8882.471304,-5699.585753,4826.401637
59269.812767,5847.626942,-7698.141797,1762.019645
59269.813077,370.102971,-10362.883188,-1608.800546
59269.813386,-2368.659014,-13397.727550,-153.219100
59269.813696,-1258.350101,-13619.789333,-2528.115143
59269.814006,-2072.576638,-11843.295072,-995.924147
59269.814316,296.082377,-9844.739029,0.000000
59269.814626,1998.556043,-7994.224174,306.438199
59269.814936,3404.947333,-7328.038826,2068.457845
59269.815245,4071.132681,-8808.450710,2681.334243
59269.815555,814.226536,-8586.388927,0.000000
59269.815865,-2960.823768,-10140.821405,1225.752797
59269.816175,-3552.988522,-9622.677246,612.876398
59269.816485,-370.102971,-8290.306550,-76.609550
59269.816794,0.000000,-4811.338623,0.000000
59269.817104,0.000000,-3627.009116,306.438199
59269.817414,518.144159,-6587.832884,-842.705048
59269.817724,-1406.391290,-11843.295072,-919.314598
59269.818034,-4663.297435,-15322.262999,-1915.238745
59269.818344,-8068.244768,-17172.777854,-3294.210641
59269.818653,-9474.636058,-19763.498651,689.485948
59269.818963,-5699.585753,-11843.295072,-995.924147
59269.819273,-2886.803174,-5699.585753,842.705048
59269.819583,2368.659014,-4515.256246,7354.516781
59269.819893,4071.132681,0.000000,4826.401637
59269.820203,7624.121203,-2368.659014,8503.660028
59269.820512,3775.050304,-5107.421000,5362.668486
59269.820822,-1850.514855,-8068.244768,2374.896044
59269.821132,-5921.647536,-10584.944971,0.000000
59269.821442,-7328.038826,-11621.233289,-1532.190996
59269.821752,-7920.203579,-10362.883188,-4290.134789
59269.822061,-5329.482782,-9104.533087,-2451.505594
59269.822371,-1998.556043,-9104.533087,-153.219100
59269.822681,-74.020594,-9474.636058,-76.609550
59269.822991,0.000000,-7772.162391,0.000000
59269.823301,0.000000,-9844.739029,2451.505594
59269.823611,-1258.350101,-9918.759623,536.266849
59269.823920,-2294.638420,-9992.780217,919.314598
59269.824230,-962.267725,-8290.306550,2068.457845
59269.824540,518.144159,-5551.544565,2451.505594
59269.824850,4441.235652,-6365.771101,4826.401637
59269.825160,3701.029710,-5255.462188,3217.601092
59269.825469,3849.070898,-7550.100608,3524.039291
59269.825779,1850.514855,-10732.986159,1991.848295
59269.826089,-1702.473667,-12287.418637,-536.266849
59269.826399,-5921.647536,-11917.315666,-2451.505594
59269.826709,-4367.215058,-12509.480420,-4903.011187
59269.827019,-740.205942,-11769.274478,612.876398
59269.827328,222.061783,-7105.977043,-1455.581446
59269.827638,3552.988522,-6587.832884,1838.629195
59269.827948,6513.812290,-7105.977043,2834.553343
59269.828258,5403.503377,-7772.162391,1685.410096
59269.828568,3034.844362,-10436.903782,1072.533697
59269.828878,74.020594,-12953.603985,459.657299
59269.829187,-1776.494261,-12509.480420,-842.705048
59269.829497,-2812.782580,-10140.821405,-2145.067394
59269.829807,148.041188,-8068.244768,0.000000
59269.830117,4663.297435,-8882.471304,3294.210641
59269.830427,1480.411884,-3034.844362,1838.629195
59269.830736,4737.318029,-6291.750507,3830.477490
59269.831046,3256.906145,-8364.327145,4903.011187
59269.831356,814.226536,-9474.636058,1149.143247
59269.831666,-2368.659014,-11843.295072,0.000000
59269.831975,-4293.194464,-11399.171507,-1685.410096
59269.832285,-4293.194464,-10066.800811,-2221.676944
59269.832595,-1258.350101,-7698.141797,-2528.115143
59269.832904,370.102971,-6069.688724,-919.314598
59269.833214,3478.967927,-7105.977043,-76.609550
59269.833524,0.000000,-7179.997637,0.000000
59269.833834,1480.411884,-12805.562797,1225.752797
59269.834143,-3256.906145,-13397.727550,153.219100
59269.834453,-4441.235652,-13397.727550,0.000000
59269.834763,-1850.514855,-14211.954086,-76.609550
59269.835073,-1998.556043,-7402.059420,536.266849
59269.835382,0.000000,-4811.338623,3064.381992
59269.835692,4663.297435,-5329.482782,4213.525239
59269.836002,3404.947333,-4293.194464,3677.258390
59269.836311,2590.720797,-7772.162391,3677.258390
59269.836621,-666.185348,-9474.636058,1685.410096
59269.836931,-5255.462188,-11843.295072,-1225.752797
59269.837241,-7105.977043,-11917.315666,-1225.752797
59269.837550,-5403.503377,-12139.377449,-1302.362347
59269.837860,-3627.009116,-8290.306550,-2221.676944
59269.838170,-3552.988522,-5403.503377,0.000000
59269.838480,2886.803174,-9178.553681,2374.896044
59269.838789,1110.308913,-10658.965565,2068.457845
59269.839099,-1184.329507,-11325.150913,1225.752797
59269.839409,-2738.761985,-12731.542202,1149.143247
59269.839718,-4071.132681,-12139.377449,919.314598
59269.840028,-2738.761985,-9400.615463,1072.533697
59269.840338,-74.020594,-5921.647536,1149.143247
59269.840648,2368.659014,-4515.256246,4443.353888
59269.840957,4663.297435,-3849.070898,5132.839837
59269.841267,4441.235652,-5181.441594,4060.306139
59269.841577,2368.659014,-8808.450710,2987.772442
59269.841887,-444.123565,-13323.706956,2145.067394
59269.842196,-4219.173869,-13915.871710,-689.485948
59269.842506,-9474.636058,-10140.821405,-4749.792088
59269.842816,-3034.844362,-12731.542202,-383.047749
59269.843125,-2442.679609,-7476.080014,-1762.019645
59269.843435,2294.638420,-6513.812290,1149.143247
59269.843745,2960.823768,-5403.503377,1838.629195
59269.844055,4293.194464,-7772.162391,2604.724693
59269.844364,2886.803174,-9326.594869,1608.800546
59269.844674,444.123565,-11695.253884,612.876398
59269.844984,-2072.576638,-12805.562797,766.095498
59269.845293,-1998.556043,-11769.274478,-76.609550
59269.845603,-1850.514855,-7254.018232,-1762.019645
59269.845913,1184.329507,-7179.997637,2451.505594
59269.846223,4663.297435,-6513.812290,2987.772442
59269.846532,5847.626942,-7105.977043,2374.896044
59269.846842,1776.494261,-8364.327145,1991.848295
59269.847152,740.205942,-10362.883188,995.924147
59269.847462,-2072.576638,-11547.212695,-229.828649
59269.847771,-3627.009116,-11399.171507,-1608.800546
59269.848081,-3552.988522,-9548.656652,-1225.752797
59269.848391,-222.061783,-7772.162391,-76.609550
59269.848700,2294.638420,-4737.318029,-1608.800546
59269.849010,2368.659014,-5995.668130,1225.752797
59269.849320,4663.297435,-9474.636058,1149.143247
59269.849630,3478.967927,-13619.789333,1762.019645
59269.849939,-2146.597232,-13619.789333,-842.705048
59269.850249,-4737.318029,-13545.768739,0.000000
59269.850559,-1258.350101,-14211.954086,-76.609550
59269.850869,-3552.988522,-6587.832884,0.000000
59269.851178,2294.638420,-5181.441594,1149.143247
59269.851488,4885.359217,-4367.215058,4749.792088
59269.851798,4959.379811,-4367.215058,4213.525239
59269.852107,3330.926739,-6735.874072,3447.429741
59269.852417,0.000000,-9696.697840,1685.410096
59269.852727,-4737.318029,-10732.986159,0.000000
59269.853037,-5403.503377,-13323.706956,-1991.848295
59269.853346,-5773.606348,-11547.212695,-2757.943793
59269.853656,-3923.091493,-9252.574275,-2145.067394
59269.853966,-1406.391290,-7328.038826,-536.266849
59269.854276,2294.638420,-7105.977043,-76.609550
59269.854585,1776.494261,-6587.832884,0.000000
59269.854895,1184.329507,-10732.986159,3677.258390
59269.855205,-74.020594,-11843.295072,2374.896044
59269.855514,-4441.235652,-10732.986159,612.876398
59269.855824,-4441.235652,-8364.327145,153.219100
59269.856134,-2220.617826,-7846.182985,1455.581446
59269.856444,-296.082377,-5329.482782,1685.410096
59269.856753,1998.556043,-4959.379811,3294.210641
59269.857063,2738.761985,-5699.585753,3600.648841
59269.857373,3478.967927,-9474.636058,3600.648841
59269.857683,-1554.432478,-9474.636058,-76.609550
59269.857992,-7105.977043,-11325.150913,0.000000
59269.858302,-4367.215058,-14211.954086,-76.609550
59269.858612,-4811.338623,-11251.130318,-1302.362347
59269.858921,-2442.679609,-8290.306550,-2451.505594
59269.859231,1184.329507,-6735.874072,1378.971896
59269.859541,3552.988522,-5551.544565,2068.457845
59269.859851,3627.009116,-7105.977043,2451.505594
59269.860160,2368.659014,-9918.759623,2221.676944
59269.860470,-74.020594,-14211.954086,3294.210641
59269.860780,-2442.679609,-15396.283594,-76.609550
59269.861090,-5551.544565,-10732.986159,-2298.286494
59269.861399,-888.247130,-9770.718434,1532.190996
59269.861709,1110.308913,-6809.894666,1762.019645
59269.862019,3478.967927,-4737.318029,1302.362347
59269.862328,3256.906145,-5107.421000,3370.820191
59269.862638,3256.906145,-7476.080014,2987.772442
59269.862948,1480.411884,-9400.615463,1838.629195
59269.863258,-2072.576638,-11621.233289,1762.019645
59269.863567,-3849.070898,-12361.439231,0.000000
59269.863877,-2442.679609,-12731.542202,-76.609550
59269.864187,-2442.679609,-7402.059420,-3140.991542
59269.864496,592.164754,-7179.997637,0.000000
59269.864806,3478.967927,-6513.812290,-76.609550
59269.865116,4219.173869,-7994.224174,842.705048
59269.865426,2368.659014,-10140.821405,1149.143247
59269.865735,814.226536,-12731.542202,919.314598
59269.866045,-1924.535449,-13027.624579,-76.609550
59269.866355,-3330.926739,-11769.274478,-76.609550
59269.866665,-2368.659014,-8956.491898,306.438199
59269.866974,2294.638420,-8808.450710,4136.915689
59269.867284,2294.638420,-3552.988522,1608.800546
59269.867594,4145.153275,-4959.379811,3677.258390
59269.867903,4663.297435,-7105.977043,2987.772442
59269.868213,2294.638420,-9104.533087,2374.896044
59269.868523,-2072.576638,-11029.068536,0.000000
59269.868833,-4515.256246,-12435.459826,-2068.457845
59269.869142,-4811.338623,-12139.377449,-1915.238745
59269.869452,-3404.947333,-9844.739029,-2451.505594
59269.869762,-1776.494261,-6291.750507,0.000000
59269.870072,592.164754,-5107.421000,0.000000
59269.870381,4663.297435,-9474.636058,2987.772442
59269.870691,1184.329507,-8660.409521,612.876398
59269.871001,0.000000,-12435.459826,1838.629195
59269.871310,-2220.617826,-14211.954086,2374.896044
59269.871620,-3701.029710,-11695.253884,76.609550
59269.871930,-2072.576638,-8364.327145,1072.533697
59269.872240,222.061783,-5995.668130,2221.676944
59269.872549,2590.720797,-3701.029710,1838.629195
59269.872859,2368.659014,-2442.679609,2451.505594
59269.873169,2368.659014,-7179.997637,4903.011187
59269.873479,-74.020594,-10658.965565,2374.896044
59269.873788,-4737.318029,-11325.150913,0.000000
59269.874098,-4885.359217,-14804.118840,-76.609550
59269.874408,-5921.647536,-13027.624579,-842.705048
59269.874717,-3627.009116,-9918.759623,-1149.143247
59269.875027,-148.041188,-6587.832884,383.047749
59269.875337,2664.741391,-5181.441594,2221.676944
59269.875647,3701.029710,-5107.421000,919.314598
59269.875956,2294.638420,-7105.977043,1225.752797
59269.876266,0.000000,-9548.656652,1225.752797
59269.876576,-296.082377,-14211.954086,2374.896044
59269.876886,-4811.338623,-10955.047942,-995.924147
59269.877195,-3552.988522,-10140.821405,842.705048
59269.877505,-1776.494261,-7772.162391,1225.752797
59269.877815,1258.350101,-6069.688724,2221.676944
59269.878124,2590.720797,-5625.565159,2834.553343
59269.878434,2368.659014,-6957.935855,3064.381992
59269.878744,740.205942,-8364.327145,1455.581446
59269.879054,-1258.350101,-10658.965565,-76.609550
59269.879363,-5995.668130,-9696.697840,-3140.991542
59269.879673,-4737.318029,-10732.986159,0.000000
59269.879983,-1258.350101,-9474.636058,-1302.362347
59269.880293,0.000000,-6143.709319,-76.609550
59269.880602,1332.370696,-4811.338623,0.000000
59269.880912,3330.926739,-7328.038826,842.705048
59269.881222,2516.700203,-10140.821405,612.876398
59269.881531,0.000000,-12583.501014,459.657299
59269.881841,-2738.761985,-14211.954086,-76.609550
59269.882151,-2442.679609,-13027.624579,-76.609550
59269.882461,-74.020594,-11251.130318,-76.609550
59269.882770,0.000000,-5403.503377,612.876398
59269.883080,4663.297435,-6513.812290,4519.963438
59269.883390,4071.132681,-3552.988522,3677.258390
59269.883700,2960.823768,-3627.009116,2451.505594
59269.884009,2368.659014,-8808.450710,2681.334243
59269.884319,-1036.288319,-11325.150913,612.876398
59269.884629,-3849.070898,-12583.501014,-1378.971896
59269.884938,-4811.338623,-13619.789333,-1915.238745
59269.885248,-1850.514855,-11547.212695,-689.485948
59269.885558,-74.020594,-8290.306550,-1915.238745
59269.885868,0.000000,-5403.503377,0.000000
59269.886177,4663.297435,-7698.141797,2374.896044
59269.886487,2368.659014,-8364.327145,612.876398
59269.886797,222.061783,-9548.656652,612.876398
59269.887106,-1184.329507,-12361.439231,919.314598
59269.887416,-2664.741391,-12213.398043,612.876398
59269.887726,-2664.741391,-9622.677246,383.047749
59269.888036,-74.020594,-8142.265362,2374.896044
59269.888345,2368.659014,-6365.771101,2068.457845
59269.888655,4663.297435,-6513.812290,4213.525239
59269.888965,1406.391290,-4811.338623,1455.581446
59269.889275,296.082377,-8364.327145,0.000000
59269.889584,-1258.350101,-11843.295072,0.000000
59269.889894,-5773.606348,-11029.068536,-3064.381992
59269.890204,-5625.565159,-12213.398043,-1608.800546
59269.890513,-3923.091493,-10288.862594,-1455.581446
59269.890823,-592.164754,-7698.141797,-76.609550
59269.891133,2294.638420,-7105.977043,2911.162892
59269.891443,4959.379811,-8290.306550,3677.258390
59269.891752,4071.132681,-8882.471304,1762.019645
59269.892062,0.000000,-10140.821405,76.609550
59269.892372,-1776.494261,-13841.851115,2911.162892
59269.892682,-3627.009116,-12953.603985,-1532.190996
59269.892991,-4737.318029,-8364.327145,-1225.752797
59269.893301,-1184.329507,-7476.080014,1072.533697
59269.893611,1554.432478,-5181.441594,2298.286494
59269.893920,3627.009116,-4737.318029,3294.210641
59269.894230,4071.132681,-7105.977043,4213.525239
59269.894540,3034.844362,-9474.636058,3677.258390
59269.894850,-74.020594,-14211.954086,2987.772442
59269.895159,-3923.091493,-12139.377449,-1915.238745
59269.895469,-5921.647536,-11325.150913,-1838.629195
59269.895779,-3256.906145,-10436.903782,-1532.190996
59269.896089,-1258.350101,-6661.853478,-1915.238745
59269.896398,1184.329507,-5699.585753,306.438199
59269.896708,3256.906145,-6291.750507,1455.581446
59269.897018,2368.659014,-8586.388927,1149.143247
59269.897327,1776.494261,-13027.624579,2834.553343
59269.897637,-2072.576638,-13767.830521,0.000000
59269.897947,-1998.556043,-15100.201217,1455.581446
59269.898257,-4515.256246,-8956.491898,-1608.800546
59269.898566,-888.247130,-8068.244768,3294.210641
59269.898876,1702.473667,-4515.256246,842.705048
59269.899186,4367.215058,-4145.153275,3294.210641
59269.899496,3256.906145,-4885.359217,3217.601092
59269.899805,2294.638420,-7772.162391,2528.115143
59269.900115,-814.226536,-10436.903782,1149.143247
59269.900425,-2960.823768,-12509.480420,0.000000
59269.900734,-5329.482782,-12509.480420,-2987.772442
59269.901044,-4737.318029,-11325.150913,-1225.752797
59269.901354,-74.020594,-9474.636058,-1302.362347
59269.901664,0.000000,-5995.668130,0.000000
59269.901973,4071.132681,-7179.997637,0.000000
59269.902283,4663.297435,-9474.636058,1762.019645
59269.902593,1258.350101,-11029.068536,1225.752797
59269.902903,-592.164754,-12805.562797,1378.971896
59269.903212,-2886.803174,-12657.521608,153.219100
59269.903522,-2072.576638,-10140.821405,1225.752797
59269.903832,592.164754,-7994.224174,689.485948
59269.904141,3108.864956,-6143.709319,4136.915689
59269.904451,3478.967927,-3552.988522,2374.896044
59269.904761,2368.659014,-4811.338623,612.876398
59269.905071,3182.885551,-8808.450710,2451.505594
59269.905380,-666.185348,-10658.965565,536.266849
59269.905690,-4663.297435,-13101.645173,-1225.752797
59269.906000,-5551.544565,-13397.727550,-2068.457845
59269.906310,-4515.256246,-10955.047942,-1991.848295
59269.906619,-222.061783,-8956.491898,0.000000
59269.906929,592.164754,-4811.338623,612.876398
59269.907239,4663.297435,-5921.647536,1762.019645
59269.907548,1184.329507,-5995.668130,1225.752797
59269.907858,2294.638420,-11621.233289,4596.572988
59269.908168,-666.185348,-11843.295072,-76.609550
59269.908478,-4441.235652,-13619.789333,-76.609550
59269.908787,-4515.256246,-11843.295072,-383.047749
59269.909097,-2368.659014,-7846.182985,306.438199
59269.909407,296.082377,-5995.668130,2068.457845
59269.909716,2220.617826,-4071.132681,1532.190996
59269.910026,888.247130,-3627.009116,2451.505594
59269.910336,0.000000,-5995.668130,1225.752797
59269.910646,1702.473667,-11843.295072,3447.429741
59269.910955,-3627.009116,-11399.171507,-842.705048
59269.911265,-5329.482782,-11473.192101,-1072.533697
59269.911575,-4737.318029,-11399.171507,-689.485948
59269.911885,-1258.350101,-8586.388927,-995.924147
59269.912194,592.164754,-6365.771101,0.000000
59269.912504,2516.700203,-6513.812290,1072.533697
59269.912814,2590.720797,-7772.162391,153.219100
59269.913123,1110.308913,-10658.965565,0.000000
59269.913433,-4441.235652,-11325.150913,-1838.629195
59269.913743,-3552.988522,-13693.809927,612.876398
59269.914053,-2738.761985,-11251.130318,-383.047749
59269.914362,-2368.659014,-6587.832884,1378.971896
59269.914672,592.164754,-4811.338623,3677.258390
59269.914982,3997.112087,-4071.132681,3600.648841
59269.915292,4071.132681,-4589.276840,3524.039291
59269.915601,2960.823768,-7328.038826,3064.381992
59269.915911,-518.144159,-10066.800811,-76.609550
59269.916221,-2442.679609,-12731.542202,-1302.362347
59269.916530,-5995.668130,-11547.212695,-3447.429741
59269.916840,-5921.647536,-10436.903782,-2451.505594
59269.917150,-962.267725,-9474.636058,-1608.800546
59269.917460,0.000000,-5995.668130,919.314598
59269.917769,2368.659014,-4811.338623,1225.752797
59269.918079,3923.091493,-7994.224174,2221.676944
59269.918389,2294.638420,-10288.862594,1455.581446
59269.918699,-518.144159,-12583.501014,1149.143247
59269.919008,-3034.844362,-13619.789333,-76.609550
59269.919318,-1850.514855,-12435.459826,-76.609550
59269.919628,-3034.844362,-6217.729913,-1915.238745
59269.919937,0.000000,-5403.503377,2451.505594
59269.920247,4071.132681,-4737.318029,3600.648841
59269.920557,2664.741391,-4219.173869,2451.505594
59269.920867,592.164754,-5995.668130,1608.800546
59269.921176,0.000000,-10288.862594,1608.800546
59269.921486,-2664.741391,-12213.398043,0.000000
59269.921796,-4737.318029,-12065.356855,-1838.629195
59269.922106,-5107.421000,-13027.624579,-1302.362347
59269.922415,-666.185348,-10362.883188,-76.609550
59269.922725,2294.638420,-8290.306550,-76.609550
59269.923035,296.082377,-4811.338623,0.000000
59269.923344,4663.297435,-8882.471304,2374.896044
59269.923654,1998.556043,-9622.677246,0.000000
59269.923964,-592.164754,-11621.233289,0.000000
59269.924274,-2960.823768,-12953.603985,76.609550
59269.924583,-3478.967927,-11991.336260,-306.438199
59269.924893,-1554.432478,-8882.471304,536.266849
59269.925203,2294.638420,-7698.141797,4136.915689
59269.925513,3552.988522,-4811.338623,3370.820191
59269.925822,5551.544565,-6809.894666,5362.668486
59269.926132,3478.967927,-7105.977043,2374.896044
59269.926442,0.000000,-8660.409521,0.000000
59269.926751,-2368.659014,-12213.398043,0.000000
59269.927061,-4219.173869,-13027.624579,-1608.800546
59269.927371,-4737.318029,-11029.068536,-1608.800546
59269.927681,-2590.720797,-8512.368333,-1378.971896
59269.927990,0.000000,-6513.812290,-383.047749
59269.928300,2664.741391,-5995.668130,2451.505594
59269.928610,2664.741391,-7179.997637,612.876398
59269.928919,3997.112087,-12435.459826,3600.648841
59269.929229,-74.020594,-12731.542202,536.266849
59269.929539,-4737.318029,-12213.398043,0.000000
59269.929848,-3775.050304,-11473.192101,-919.314598
59269.930158,-1258.350101,-9474.636058,-76.609550
59269.930468,-518.144159,-5699.585753,1532.190996
59269.930777,2368.659014,-4071.132681,3064.381992
59269.931087,3701.029710,-4515.256246,3677.258390
59269.931396,1776.494261,-5403.503377,2451.505594
59269.931706,0.000000,-7179.997637,306.438199
59269.932015,-3552.988522,-10732.986159,612.876398
59269.932325,-3627.009116,-14211.954086,-689.485948
59269.932634,-6291.750507,-10066.800811,-4366.744339
59269.932944,-4515.256246,-9178.553681,-2221.676944
59269.933253,1702.473667,-9326.594869,-76.609550
59269.933563,1184.329507,-7105.977043,1762.019645
59269.933872,2960.823768,-7920.203579,1149.143247
59269.934182,2220.617826,-10214.842000,1608.800546
59269.934491,0.000000,-10732.986159,306.438199
59269.934801,-2368.659014,-13027.624579,1455.581446
59269.935110,-4737.318029,-10140.821405,0.000000
59269.935420,-74.020594,-10066.800811,2681.334243
59269.935729,666.185348,-4811.338623,0.000000
59269.936039,4293.194464,-5921.647536,4826.401637
59269.936349,4589.276840,-5699.585753,4749.792088
59269.936658,3256.906145,-7328.038826,2374.896044
59269.936968,0.000000,-10288.862594,1149.143247
59269.937277,-2960.823768,-12509.480420,-919.314598
59269.937587,-6217.729913,-12509.480420,-2528.115143
59269.937896,-5847.626942,-11251.130318,-2528.115143
59269.938206,-4737.318029,-7179.997637,-3064.381992
59269.938515,2294.638420,-8290.306550,1685.410096
59269.938825,3182.885551,-3627.009116,-1302.362347
59269.939134,4663.297435,-7698.141797,3983.696590
59269.939444,3552.988522,-8956.491898,2604.724693
59269.939753,814.226536,-11769.274478,1455.581446
59269.940063,-2738.761985,-13027.624579,-383.047749
59269.940372,-4811.338623,-12657.521608,-842.705048
59269.940682,-3627.009116,-9474.636058,-76.609550
59269.940991,-1554.432478,-6809.894666,1455.581446
59269.941301,0.000000,-3849.070898,919.314598
59269.941610,4367.215058,-6513.812290,4749.792088
59269.941920,3182.885551,-5921.647536,3600.648841
59269.942229,1554.432478,-9548.656652,3983.696590
59269.942539,-2960.823768,-9548.656652,0.000000
59269.942849,-3923.091493,-12435.459826,-536.266849
59269.943158,-4515.256246,-10881.027347,-1378.971896
59269.943468,-3330.926739,-9474.636058,-1302.362347
59269.943777,-74.020594,-8290.306550,-383.047749
59269.944087,3478.967927,-9178.553681,2374.896044
59269.944396,962.267725,-5551.544565,0.000000
59269.944706,1184.329507,-10140.821405,1838.629195
59269.945015,-74.020594,-14211.954086,-76.609550
59269.945325,-3552.988522,-13101.645173,612.876398
59269.945634,-4737.318029,-11621.233289,0.000000
59269.945944,-2072.576638,-9844.739029,919.314598
59269.946253,222.061783,-6143.709319,2374.896044
59269.946563,2886.803174,-4145.153275,3294.210641
59269.946872,6143.709319,-4737.318029,4826.401637
59269.947182,3108.864956,-4811.338623,3064.381992
59269.947491,2886.803174,-9474.636058,3294.210641
59269.947801,-2664.741391,-10732.986159,-383.047749
59269.948110,-5625.565159,-13693.809927,0.000000
59269.948420,-6513.812290,-11917.315666,-2451.505594
59269.948730,-4737.318029,-8956.491898,-2911.162892
59269.949039,-444.123565,-7772.162391,-612.876398
59269.949349,2294.638420,-6291.750507,1149.143247
59269.949658,3552.988522,-7105.977043,2145.067394
59269.949968,4663.297435,-10140.821405,2604.724693
59269.950277,2368.659014,-11917.315666,2451.505594
59269.950587,-74.020594,-14211.954086,2374.896044
59269.950896,-3997.112087,-10807.006753,-1149.143247
59269.951206,-1258.350101,-11621.233289,3370.820191
59269.951515,-1924.535449,-5551.544565,0.000000
59269.951825,1110.308913,-4145.153275,1762.019645
59269.952134,2442.679609,-4441.235652,3064.381992
59269.952444,2960.823768,-6439.791695,2681.334243
59269.952753,1184.329507,-9030.512492,1838.629195
59269.953063,-1184.329507,-11325.150913,612.876398
59269.953372,-3627.009116,-12287.418637,-1762.019645
59269.953682,-4737.318029,-13323.706956,-766.095498
59269.953991,-4219.173869,-9474.636058,-2528.115143
59269.954301,-1776.494261,-8364.327145,612.876398
59269.954610,814.226536,-5403.503377,76.609550
59269.954920,4071.132681,-6513.812290,1455.581446
59269.955230,2960.823768,-8364.327145,1838.629195
59269.955539,1776.494261,-10732.986159,1838.629195
59269.955849,-740.205942,-12583.501014,1225.752797
59269.956158,-4441.235652,-11325.150913,0.000000
59269.956468,-2516.700203,-9992.780217,536.266849
59269.956777,-1776.494261,-7179.997637,1532.190996
59269.957087,2886.803174,-5921.647536,2987.772442
59269.957396,0.000000,-2442.679609,306.438199
59269.957706,3478.967927,-5329.482782,2374.896044
59269.958015,3182.885551,-9474.636058,3294.210641
59269.958325,-1258.350101,-11325.150913,842.705048
59269.958634,-4071.132681,-12731.542202,-995.924147
59269.958944,-5181.441594,-12731.542202,-1838.629195
59269.959253,-4737.318029,-9548.656652,-2834.553343
59269.959563,-74.020594,-8142.265362,-459.657299
59269.959872,296.082377,-4811.338623,0.000000
59269.960182,4663.297435,-7105.977043,2987.772442
59269.960491,2886.803174,-6957.935855,229.828649
59269.960801,2294.638420,-12435.459826,2374.896044
59269.961111,-1036.288319,-14211.954086,1302.362347
59269.961420,-3775.050304,-13175.665768,-689.485948
59269.961730,-3849.070898,-10584.944971,0.000000
59269.962039,-1332.370696,-7624.121203,919.314598
59269.962349,222.061783,-3997.112087,2911.162892
59269.962658,3182.885551,-4663.297435,3600.648841
59269.962968,2368.659014,-3627.009116,2451.505594
59269.963277,2960.823768,-8364.327145,3983.696590
59269.963587,-74.020594,-12731.542202,2374.896044
59269.963896,-2738.761985,-14211.954086,-76.609550
59269.964206,-5625.565159,-12509.480420,-2145.067394
59269.964515,-5329.482782,-10881.027347,-2604.724693
59269.964825,-2368.659014,-8660.409521,-1838.629195
59269.965134,1036.288319,-6957.935855,-76.609550
59269.965444,3478.967927,-6513.812290,1149.143247
59269.965753,3256.906145,-8512.368333,2451.505594
59269.966063,1850.514855,-10510.924376,1149.143247
59269.966372,-1184.329507,-11917.315666,1225.752797
59269.966682,-74.020594,-15396.283594,-76.609550
59269.966992,-1258.350101,-11843.295072,2068.457845
59269.967301,-2072.576638,-7179.997637,766.095498
59269.967611,1924.535449,-5699.585753,2681.334243
59269.967920,2886.803174,-4145.153275,2528.115143
59269.968230,3627.009116,-5477.523971,3064.381992
59269.968539,3182.885551,-9474.636058,2374.896044
59269.968849,-888.247130,-11177.109724,919.314598
59269.969158,-2738.761985,-13915.871710,-689.485948
59269.969468,-6439.791695,-11917.315666,-4903.011187
59269.969777,-1332.370696,-13027.624579,-76.609550
59269.970087,-592.164754,-8956.491898,612.876398
59269.970396,592.164754,-5107.421000,0.000000
59269.970706,3627.009116,-5847.626942,1838.629195
59269.971015,3701.029710,-7920.203579,2068.457845
59269.971325,1554.432478,-11029.068536,1455.581446
59269.971634,-666.185348,-14211.954086,919.314598
59269.971944,-4441.235652,-12805.562797,-919.314598
59269.972253,-3034.844362,-11843.295072,-76.609550
59269.972563,-2960.823768,-5995.668130,-2451.505594
59269.972872,2812.782580,-7624.121203,4749.792088
59269.973182,1776.494261,-2442.679609,3217.601092
59269.973492,2738.761985,-3627.009116,2528.115143
59269.973801,2368.659014,-7254.018232,2911.162892
59269.974111,-518.144159,-10066.800811,1455.581446
59269.974420,-4071.132681,-12139.377449,-1225.752797
59269.974730,-5033.400406,-13101.645173,-2298.286494
59269.975039,-5773.606348,-12213.398043,-1838.629195
59269.975349,-1554.432478,-9474.636058,-1915.238745
59269.975658,0.000000,-5403.503377,0.000000
59269.975968,5255.462188,-8290.306550,3600.648841
59269.976277,1184.329507,-5995.668130,1225.752797
59269.976587,2590.720797,-10362.883188,1991.848295
59269.976896,-148.041188,-12509.480420,1838.629195
59269.977206,-2442.679609,-12879.583391,766.095498
59269.977515,-2516.700203,-11177.109724,612.876398
59269.977825,-1776.494261,-7476.080014,919.314598
59269.978134,1036.288319,-5107.421000,1838.629195
59269.978444,3256.906145,-4367.215058,3677.258390
59269.978753,4367.215058,-4737.318029,2374.896044
59269.979063,0.000000,-5995.668130,612.876398
59269.979373,-2072.576638,-9548.656652,0.000000
59269.979682,-3034.844362,-13027.624579,-995.924147
59269.979992,-5625.565159,-13471.748144,-2451.505594
59269.980301,-4515.256246,-11251.130318,-2221.676944
59269.980611,-1406.391290,-8734.430116,-689.485948
59269.980920,592.164754,-5847.626942,1608.800546
59269.981230,4219.173869,-5551.544565,2221.676944
59269.981539,4145.153275,-7772.162391,3064.381992
59269.981849,3182.885551,-10658.965565,2374.896044
59269.982158,-3552.988522,-10140.821405,0.000000
59269.982468,-3627.009116,-11843.295072,-1991.848295
59269.982777,-3627.009116,-11843.295072,-76.609550
59269.983087,-2812.782580,-7846.182985,0.000000
59269.983396,74.020594,-5921.647536,1608.800546
59269.983706,2516.700203,-4515.256246,2681.334243
59269.984015,2072.576638,-4515.256246,3600.648841
59269.984325,1702.473667,-6587.832884,1762.019645
59269.984634,0.000000,-9548.656652,1225.752797
59269.984944,-1258.350101,-14211.954086,-76.609550
59269.985253,-5403.503377,-11843.295072,-3447.429741
59269.985563,-4811.338623,-13027.624579,-2528.115143
59269.985873,-2442.679609,-9918.759623,-1072.533697
59269.986182,-74.020594,-7402.059420,-536.266849
59269.986492,2294.638420,-5995.668130,919.314598
59269.986801,3256.906145,-7550.100608,1685.410096
59269.987111,3182.885551,-9770.718434,2681.334243
59269.987420,1110.308913,-12287.418637,1838.629195
59269.987730,-3108.864956,-11917.315666,0.000000
59269.988039,-1850.514855,-14211.954086,2374.896044
59269.988349,-2442.679609,-7254.018232,-1302.362347
59269.988658,1998.556043,-7105.977043,3294.210641
59269.988968,2368.659014,-4811.338623,3064.381992
59269.989277,3478.967927,-5181.441594,2911.162892
59269.989587,2368.659014,-7402.059420,2451.505594
59269.989896,148.041188,-10214.842000,1378.971896
59269.990206,-1998.556043,-12435.459826,-76.609550
59269.990515,-3997.112087,-13323.706956,-1225.752797
59269.990825,-4663.297435,-10510.924376,-2451.505594
59269.991134,-1036.288319,-10140.821405,1532.190996
59269.991444,2294.638420,-7105.977043,-76.609550
59269.991754,4663.297435,-7105.977043,3600.648841
59269.992063,3256.906145,-6661.853478,1225.752797
59269.992373,2368.659014,-10955.047942,1685.410096
59269.992682,-444.123565,-13101.645173,1072.533697
59269.992992,-3108.864956,-13545.768739,0.000000
59269.993301,-3775.050304,-12287.418637,0.000000
59269.993611,-2960.823768,-8068.244768,536.266849
59269.993920,-888.247130,-5329.482782,1225.752797
59269.994230,4663.297435,-6661.853478,6052.154434
59269.994539,4663.297435,-3552.988522,3294.210641
59269.994849,2368.659014,-7179.997637,4903.011187
59269.995158,0.000000,-8364.327145,1378.971896
59269.995468,-3034.844362,-11769.274478,-153.219100
59269.995777,-5847.626942,-12287.418637,-2298.286494
59269.996087,-7031.956449,-11917.315666,-3064.381992
59269.996396,-4293.194464,-9548.656652,-3677.258390
59269.996706,-1184.329507,-7550.100608,-1072.533697
59269.997015,2886.803174,-7402.059420,2068.457845
59269.997325,0.000000,-4811.338623,0.000000
59269.997635,4885.359217,-11473.192101,4060.306139
59269.997944,1184.329507,-11325.150913,3064.381992
59269.998254,-1776.494261,-11621.233289,612.876398
59269.998563,-2664.741391,-11621.233289,383.047749
59269.998873,-2146.597232,-8586.388927,766.095498
59269.999182,296.082377,-6069.688724,1532.190996
59269.999492,2146.597232,-3923.091493,2451.505594
59269.999801,2960.823768,-4811.338623,3370.820191
59270.000111,3478.967927,-7698.141797,2374.896044
59270.000420,-3552.988522,-7179.997637,0.000000
59270.000730,-1776.494261,-13249.686362,306.438199
59270.001039,-6513.812290,-11917.315666,-1838.629195
59270.001349,-4811.338623,-11843.295072,-2221.676944
59270.001658,-2220.617826,-9252.574275,-1225.752797
59270.001968,814.226536,-7328.038826,536.266849
59270.002277,3552.988522,-5181.441594,1685.410096
59270.002587,4293.194464,-5625.565159,1762.019645
59270.002896,2368.659014,-8956.491898,1225.752797
59270.003206,1850.514855,-13027.624579,2604.724693
59270.003515,-2442.679609,-12731.542202,-1915.238745
59270.003825,-5921.647536,-11917.315666,0.000000
59270.004135,-4737.318029,-7920.203579,0.000000
59270.004444,-74.020594,-7105.977043,1608.800546
59270.004754,2220.617826,-4737.318029,2757.943793
59270.005063,3552.988522,-4145.153275,3677.258390
59270.005373,3552.988522,-5995.668130,3677.258390
59270.005682,1628.453072,-9178.553681,2987.772442
59270.005992,-2146.597232,-11325.150913,-306.438199
59270.006301,-5329.482782,-12287.418637,-1225.752797
59270.006611,-4811.338623,-11843.295072,-3140.991542
59270.006920,-5921.647536,-8364.327145,-2451.505594
59270.007230,-370.102971,-6735.874072,-2374.896044
59270.007539,1850.514855,-6957.935855,842.705048
59270.007849,2664.741391,-7105.977043,1608.800546
59270.008158,2516.700203,-9622.677246,1455.581446
59270.008468,888.247130,-12065.356855,1685.410096
59270.008777,-1258.350101,-14211.954086,1149.143247
59270.009087,-2960.823768,-12435.459826,995.924147
59270.009396,-2368.659014,-9548.656652,2604.724693
59270.009706,-1998.556043,-4811.338623,0.000000
59270.010016,2368.659014,-5403.503377,4596.572988
59270.010325,4663.297435,-4145.153275,2068.457845
59270.010635,3404.947333,-7105.977043,3600.648841
59270.010944,666.185348,-9622.677246,1838.629195
59270.011254,-2368.659014,-11917.315666,0.000000
59270.011563,-5107.421000,-12953.603985,-1149.143247
59270.011873,-4811.338623,-13027.624579,-76.609550
59270.012182,-2220.617826,-9918.759623,-1149.143247
59270.012492,0.000000,-5403.503377,-2451.505594
59270.012801,3552.988522,-6587.832884,3677.258390
59270.013111,5847.626942,-7105.977043,2374.896044
59270.013420,5551.544565,-10658.965565,1762.019645
59270.013730,0.000000,-11399.171507,766.095498
59270.014039,-2590.720797,-13397.727550,-536.266849
59270.014349,-4219.173869,-12731.542202,-689.485948
59270.014658,-3330.926739,-9992.780217,0.000000
59270.014968,-74.020594,-7328.038826,2757.943793
59270.015277,2886.803174,-5477.523971,2681.334243
59270.015587,2442.679609,-2442.679609,2451.505594
59270.015896,6439.791695,-8882.471304,6052.154434
59270.016206,1110.308913,-7698.141797,1455.581446
59270.016516,-666.185348,-11843.295072,1762.019645
59270.016825,-5403.503377,-11843.295072,-1915.238745
59270.017135,-5995.668130,-12287.418637,-2834.553343
59270.017444,-4663.297435,-10214.842000,-2528.115143
59270.017754,-1332.370696,-8142.265362,-919.314598
59270.018063,1776.494261,-5995.668130,612.876398
59270.018373,3034.844362,-7031.956449,1838.629195
59270.018682,3478.967927,-9474.636058,-76.609550
59270.018992,0.000000,-9548.656652,0.000000
59270.019301,-592.164754,-13101.645173,1991.848295
59270.019611,-2368.659014,-13471.748144,2374.896044
59270.019920,-3108.864956,-9474.636058,-383.047749
59270.020230,-888.247130,-7328.038826,919.314598
59270.020539,1480.411884,-4737.318029,2451.505594
59270.020849,3256.906145,-4293.194464,3064.381992
59270.021158,1776.494261,-4811.338623,2451.505594
59270.021468,1554.432478,-8364.327145,1762.019645
59270.021777,-74.020594,-13915.871710,3600.648841
59270.022087,-4515.256246,-11251.130318,-2528.115143
59270.022397,-5921.647536,-12065.356855,-1225.752797
59270.022706,-3552.988522,-10436.903782,-919.314598
59270.023016,-74.020594,-7698.141797,-76.609550
59270.023325,2812.782580,-5699.585753,1072.533697
59270.023635,4219.173869,-5699.585753,1532.190996
59270.023944,3330.926739,-8438.347739,1608.800546
59270.024254,0.000000,-9548.656652,0.000000
59270.024563,-2368.659014,-13693.809927,306.438199
59270.024873,-2738.761985,-14211.954086,-76.609550
59270.025182,-6513.812290,-9548.656652,0.000000
59270.025492,-74.020594,-8882.471304,2221.676944
59270.025801,1184.329507,-4811.338623,2911.162892
59270.026111,4663.297435,-4071.132681,4213.525239
59270.026420,4441.235652,-5107.421000,4290.134789
59270.026730,2664.741391,-8068.244768,3294.210641
59270.027039,-1110.308913,-11029.068536,1378.971896
59270.027349,-4811.338623,-11473.192101,-1302.362347
59270.027658,-7105.977043,-11917.315666,-2451.505594
59270.027968,-3627.009116,-13027.624579,-76.609550
59270.028277,-2442.679609,-6957.935855,-2834.553343
59270.028587,740.205942,-6883.915261,1225.752797
59270.028897,1554.432478,-4811.338623,612.876398
59270.029206,3182.885551,-8660.409521,2068.457845
59270.029516,1184.329507,-10881.027347,1455.581446
59270.029825,-1036.288319,-12509.480420,1072.533697
59270.030135,-3552.988522,-12435.459826,229.828649
59270.030444,-3627.009116,-10362.883188,-383.047749
59270.030754,-3552.988522,-6291.750507,0.000000
59270.031063,2664.741391,-8216.285956,5439.278036
59270.031373,3478.967927,-3256.906145,2068.457845
59270.031682,2368.659014,-4811.338623,3064.381992
59270.031992,1406.391290,-6661.853478,2451.505594
59270.032301,-814.226536,-11103.089130,1225.752797
59270.032611,-3330.926739,-12139.377449,-919.314598
59270.032920,-4959.379811,-13397.727550,-1608.800546
59270.033230,-3552.988522,-10362.883188,-1302.362347
59270.033539,1110.308913,-9474.636058,-76.609550
59270.033849,2590.720797,-6217.729913,1072.533697
59270.034158,1184.329507,-4811.338623,0.000000
59270.034468,6439.791695,-9474.636058,3294.210641
59270.034778,1406.391290,-11029.068536,536.266849
59270.035087,-1554.432478,-12139.377449,-76.609550
59270.035397,-2442.679609,-15396.283594,-76.609550
59270.035706,-3997.112087,-12361.439231,-689.485948
59270.036016,-2146.597232,-8068.244768,229.828649
59270.036325,1332.370696,-5403.503377,2681.334243
59270.036635,4663.297435,-4145.153275,4826.401637
59270.036944,4219.173869,-4737.318029,3753.867940
59270.037254,0.000000,-5403.503377,2451.505594
59270.037563,2294.638420,-12731.542202,3600.648841
59270.037873,-3627.009116,-11769.274478,-1302.362347
59270.038182,-6587.832884,-11695.253884,-4290.134789
59270.038492,-5329.482782,-11399.171507,-2221.676944
59270.038801,-2294.638420,-8216.285956,-1762.019645
59270.039111,592.164754,-6809.894666,76.609550
59270.039420,2738.761985,-6291.750507,1532.190996
59270.039730,4663.297435,-9474.636058,3600.648841
59270.040040,2590.720797,-10510.924376,1149.143247
59270.040349,-3552.988522,-9844.739029,0.000000
59270.040659,-666.185348,-14211.954086,2221.676944
59270.040968,-3627.009116,-10658.965565,-689.485948
59270.041278,-962.267725,-8290.306550,0.000000
59270.041587,888.247130,-5625.565159,1991.848295
59270.041897,3182.885551,-4737.318029,3447.429741
59270.042206,3256.906145,-4811.338623,2987.772442
59270.042516,2368.659014,-7772.162391,3600.648841
59270.042825,1110.308913,-12435.459826,3600.648841
59270.043135,-2442.679609,-13027.624579,-76.609550
59270.043444,-4811.338623,-11843.295072,-2834.553343
59270.043754,-4737.318029,-11029.068536,0.000000
59270.044063,-74.020594,-9178.553681,-689.485948
59270.044373,2590.720797,-6809.894666,-689.485948
59270.044682,2960.823768,-4959.379811,1378.971896
59270.044992,3627.009116,-8142.265362,1991.848295
59270.045301,1850.514855,-11251.130318,1149.143247
59270.045611,-1258.350101,-13397.727550,1608.800546
59270.045921,-3552.988522,-14285.974681,1225.752797
59270.046230,-3330.926739,-12805.562797,995.924147
59270.046540,-4737.318029,-4811.338623,0.000000
59270.046849,2590.720797,-7105.977043,4213.525239
59270.047159,2886.803174,-2516.700203,2987.772442
59270.047468,4959.379811,-4219.173869,4826.401637
59270.047778,2146.597232,-6587.832884,2911.162892
59270.048087,-148.041188,-9844.739029,1378.971896
59270.048397,-3849.070898,-12065.356855,-383.047749
59270.048706,-6883.915261,-12509.480420,-2451.505594
59270.049016,-7105.977043,-11325.150913,-3677.258390
59270.049325,-3034.844362,-10066.800811,-1225.752797
59270.049635,-74.020594,-8290.306550,-76.609550
59270.049944,0.000000,-4811.338623,0.000000
59270.050254,2516.700203,-7772.162391,1838.629195
59270.050563,3182.885551,-10658.965565,3600.648841
59270.050873,370.102971,-12065.356855,1455.581446
59270.051183,-2368.659014,-12287.418637,536.266849
59270.051492,-3627.009116,-11103.089130,-383.047749
59270.051802,-2220.617826,-8364.327145,0.000000
59270.052111,0.000000,-4811.338623,306.438199
59270.052421,2664.741391,-5699.585753,3677.258390
59270.052730,4663.297435,-7105.977043,3600.648841
59270.053040,444.123565,-6587.832884,842.705048
59270.053349,0.000000,-10732.986159,1838.629195
59270.053659,-2960.823768,-13915.871710,1762.019645
59270.053968,-3627.009116,-12657.521608,-766.095498
59270.054278,-3552.988522,-10955.047942,-1072.533697
59270.054587,-740.205942,-8068.244768,-306.438199
59270.054897,1554.432478,-5995.668130,0.000000
59270.055206,1776.494261,-3034.844362,0.000000
59270.055516,3034.844362,-5995.668130,0.000000
59270.055825,3997.112087,-11621.233289,3064.381992
59270.056135,-666.185348,-12435.459826,-383.047749
59270.056444,-3849.070898,-13693.809927,0.000000
59270.056754,-4737.318029,-13693.809927,0.000000
59270.057064,-2442.679609,-10066.800811,-76.609550
59270.057373,444.123565,-6513.812290,1302.362347
59270.057683,3108.864956,-4737.318029,3677.258390
59270.057992,4367.215058,-2886.803174,3600.648841
59270.058302,3182.885551,-4737.318029,1915.238745
59270.058611,296.082377,-6883.915261,995.924147
59270.058921,-3552.988522,-10140.821405,612.876398
59270.059230,-3627.009116,-13027.624579,-689.485948
59270.059540,-7105.977043,-10732.986159,-995.924147
59270.059849,-3775.050304,-8364.327145,-2451.505594
59270.060159,-518.144159,-7846.182985,-383.047749
59270.060468,1406.391290,-7031.956449,536.266849
59270.060778,2294.638420,-7846.182985,842.705048
59270.061087,2220.617826,-10658.965565,2374.896044
59270.061397,1110.308913,-12731.542202,-76.609550
59270.061706,-3108.864956,-10732.986159,-2221.676944
59270.062016,-3256.906145,-12509.480420,1838.629195
59270.062326,-1850.514855,-8882.471304,-76.609550
59270.062635,0.000000,-5107.421000,1532.190996
59270.062945,1184.329507,-2442.679609,2451.505594
59270.063254,3701.029710,-4071.132681,3983.696590
59270.063564,3108.864956,-6587.832884,3524.039291
59270.063873,592.164754,-9474.636058,1762.019645
59270.064183,-2368.659014,-13027.624579,-76.609550
59270.064492,-3034.844362,-14211.954086,-76.609550
59270.064802,-5107.421000,-12435.459826,-1302.362347
59270.065111,-4737.318029,-7179.997637,-2451.505594
59270.065421,2294.638420,-9178.553681,1149.143247
59270.065730,1998.556043,-4663.297435,0.000000
59270.066040,1998.556043,-4811.338623,0.000000
59270.066349,2664.741391,-9844.739029,1838.629195
59270.066659,-74.020594,-12657.521608,612.876398
59270.066968,-3108.864956,-13619.789333,0.000000
59270.067278,-3627.009116,-14211.954086,-76.609550
59270.067587,-888.247130,-11843.295072,2987.772442
59270.067897,1406.391290,-7105.977043,2374.896044
59270.068207,592.164754,-2442.679609,2451.505594
59270.068516,5847.626942,-4737.318029,4519.963438
59270.068826,2146.597232,-4811.338623,1225.752797
59270.069135,-74.020594,-9030.512492,1149.143247
59270.069445,-3256.906145,-11917.315666,-459.657299
59270.069754,-6143.709319,-13397.727550,-2451.505594
59270.070064,-6217.729913,-12065.356855,-2757.943793
59270.070373,-2960.823768,-10140.821405,-1072.533697
59270.070683,592.164754,-9104.533087,2145.067394
59270.070992,3478.967927,-8290.306550,2374.896044
59270.071302,740.205942,-4219.173869,0.000000
59270.071611,4293.194464,-10584.944971,3064.381992
59270.071921,1702.473667,-11029.068536,76.609550
59270.072230,-666.185348,-13027.624579,-76.609550
59270.072540,-4441.235652,-12139.377449,-842.705048
59270.072849,-3108.864956,-9252.574275,-306.438199
59270.073159,-888.247130,-6883.915261,689.485948
59270.073468,1184.329507,-4219.173869,3677.258390
59270.073778,2368.659014,-4811.338623,4903.011187
59270.074088,4663.297435,-9474.636058,4826.401637
59270.074397,1110.308913,-8290.306550,1149.143247
59270.074707,-3256.906145,-9844.739029,0.000000
59270.075016,-2516.700203,-12879.583391,-76.609550
59270.075326,-1258.350101,-13027.624579,-689.485948
59270.075635,-1850.514855,-9400.615463,-1149.143247
59270.075945,296.082377,-7328.038826,229.828649
59270.076254,2886.803174,-5699.585753,612.876398
59270.076564,2368.659014,-4811.338623,0.000000
59270.076873,1184.329507,-7772.162391,1225.752797
59270.077183,0.000000,-11917.315666,1225.752797
59270.077492,-666.185348,-15396.283594,-76.609550
59270.077802,-5625.565159,-12213.398043,-1532.190996
59270.078111,-1850.514855,-11843.295072,-76.609550
59270.078421,1480.411884,-8142.265362,2987.772442
59270.078730,2590.720797,-4515.256246,3294.210641
59270.079040,4441.235652,-3108.864956,4290.134789
59270.079350,4441.235652,-5403.503377,4366.744339
59270.079659,0.000000,-7179.997637,153.219100
59270.079969,-4737.318029,-8364.327145,0.000000
59270.080278,-9474.636058,-10732.986159,-3677.258390
59270.080588,-5477.523971,-15100.201217,-1302.362347
59270.080897,-6513.812290,-9548.656652,-3524.039291
59270.081207,-370.102971,-9474.636058,-76.609550
59270.081516,1184.329507,-6883.915261,1378.971896
59270.081826,3108.864956,-6735.874072,1685.410096
59270.082135,2886.803174,-8882.471304,1608.800546
59270.082445,1406.391290,-11769.274478,2068.457845
59270.082754,-1258.350101,-11325.150913,-383.047749
59270.083064,-4589.276840,-9548.656652,-1762.019645
59270.083373,-5921.647536,-7179.997637,0.000000
59270.083683,0.000000,-8216.285956,2451.505594
59270.083992,518.144159,-3997.112087,1149.143247
59270.084302,3478.967927,-6513.812290,4826.401637
59270.084611,1332.370696,-5403.503377,2451.505594
59270.084921,1702.473667,-9474.636058,2451.505594
59270.085231,-1258.350101,-11769.274478,919.314598
59270.085540,-3627.009116,-13175.665768,-995.924147
59270.085850,-3034.844362,-13027.624579,-1302.362347
59270.086159,-2442.679609,-9474.636058,-2528.115143
59270.086469,-1480.411884,-5107.421000,-2068.457845
59270.086778,3552.988522,-6587.832884,2451.505594
59270.087088,4663.297435,-5921.647536,1455.581446
59270.087397,2960.823768,-8364.327145,2451.505594
59270.087707,0.000000,-10732.986159,0.000000
59270.088016,-2812.782580,-13397.727550,-919.314598
59270.088326,-4219.173869,-13915.871710,-995.924147
59270.088635,-3627.009116,-11029.068536,-153.219100
59270.088945,-74.020594,-9474.636058,2374.896044
59270.089254,3478.967927,-5921.647536,4826.401637
59270.089564,2590.720797,-1332.370696,2068.457845
59270.089873,4737.318029,-4811.338623,4903.011187
59270.090183,3478.967927,-9474.636058,3600.648841
59270.090493,-3552.988522,-9548.656652,0.000000
59270.090802,-5921.647536,-11325.150913,-2145.067394
59270.091112,-6661.853478,-12509.480420,-2298.286494
59270.091421,-6069.688724,-10807.006753,-2911.162892
59270.091731,-2664.741391,-7772.162391,-1608.800546
59270.092040,2294.638420,-8290.306550,3294.210641
59270.092350,5847.626942,-8290.306550,3600.648841
59270.092659,4663.297435,-8290.306550,1149.143247
59270.092969,0.000000,-9548.656652,612.876398
59270.093278,-74.020594,-13915.871710,2374.896044
59270.093588,-4737.318029,-10732.986159,-2451.505594
59270.093897,-3923.091493,-10732.986159,-536.266849
59270.094207,-1998.556043,-7772.162391,459.657299
59270.094516,518.144159,-5921.647536,2221.676944
59270.094826,2442.679609,-4885.359217,2911.162892
59270.095135,3552.988522,-5995.668130,4903.011187
59270.095445,4071.132681,-10288.862594,3677.258390
59270.095754,2294.638420,-13027.624579,2987.772442
59270.096064,-3034.844362,-11843.295072,-1302.362347
59270.096374,-5921.647536,-12509.480420,0.000000
59270.096683,-4663.297435,-9622.677246,-3370.820191
59270.096993,-666.185348,-8290.306550,-1302.362347
59270.097302,1036.288319,-5699.585753,0.000000
59270.097612,3627.009116,-5403.503377,1072.533697
59270.097921,4071.132681,-8068.244768,1608.800546
59270.098231,1184.329507,-11029.068536,3064.381992
59270.098540,-1184.329507,-13101.645173,0.000000
59270.098850,-2368.659014,-15322.262999,1685.410096
59270.099159,-3034.844362,-11251.130318,-995.924147
59270.099469,-1776.494261,-7772.162391,1225.752797
59270.099778,2294.638420,-5625.565159,2068.457845
59270.100088,4663.297435,-4441.235652,3600.648841
59270.100397,4441.235652,-4293.194464,3677.258390
59270.100707,2664.741391,-7402.059420,2987.772442
59270.101016,-444.123565,-10362.883188,919.314598
59270.101326,-5921.647536,-10732.986159,0.000000
59270.101635,-7105.977043,-10732.986159,-4903.011187
59270.101945,-4737.318029,-13101.645173,-612.876398
59270.102255,-1554.432478,-9178.553681,-1608.800546
59270.102564,0.000000,-6291.750507,0.000000
59270.102874,4663.297435,-7105.977043,2374.896044
59270.103183,4663.297435,-8882.471304,3294.210641
59270.103493,2590.720797,-10658.965565,2374.896044
59270.103802,-296.082377,-12139.377449,1455.581446
59270.104112,-2886.803174,-12435.459826,0.000000
59270.104421,-5921.647536,-9548.656652,-2451.505594
59270.104731,-4737.318029,-5995.668130,-2068.457845
59270.105040,0.000000,-4811.338623,1225.752797
59270.105350,3478.967927,-6513.812290,3600.648841
59270.105659,1998.556043,-3627.009116,0.000000
59270.105969,3775.050304,-9474.636058,4826.401637
59270.106278,296.082377,-11177.109724,2145.067394
59270.106588,-2590.720797,-12435.459826,-76.609550
59270.106897,-4145.153275,-12583.501014,-1149.143247
59270.107207,-3478.967927,-11029.068536,-1302.362347
59270.107517,-1998.556043,-7179.997637,-1915.238745
59270.107826,0.000000,-5329.482782,-76.609550
59270.108136,2368.659014,-4811.338623,1225.752797
59270.108445,5847.626942,-8882.471304,2681.334243
59270.108755,592.164754,-9548.656652,0.000000
59270.109064,-74.020594,-15396.283594,3294.210641
59270.109374,-4441.235652,-13989.892304,0.000000
59270.109683,-3552.988522,-12731.542202,-153.219100
59270.109993,-1924.535449,-8586.388927,919.314598
59270.110302,1036.288319,-6069.688724,2528.115143
59270.110612,4071.132681,-3552.988522,4213.525239
59270.110921,4071.132681,-4737.318029,4213.525239
59270.111231,1184.329507,-4811.338623,1915.238745
59270.111540,-1480.411884,-9548.656652,1532.190996
59270.111850,-3034.844362,-13027.624579,-76.609550
59270.112159,-6513.812290,-13397.727550,-919.314598
59270.112469,-7105.977043,-10732.986159,-3064.381992
59270.112778,-3552.988522,-8734.430116,-1991.848295
59270.113088,0.000000,-6883.915261,0.000000
59270.113398,2590.720797,-5847.626942,1072.533697
59270.113707,5847.626942,-8882.471304,3600.648841
59270.114017,4663.297435,-13027.624579,4213.525239
59270.114326,-1258.350101,-11103.089130,0.000000
59270.114636,-3552.988522,-12509.480420,0.000000
59270.114945,-3627.009116,-12435.459826,-76.609550
59270.115255,-3552.988522,-7476.080014,0.000000
59270.115564,-1184.329507,-4811.338623,459.657299
59270.115874,1480.411884,-3997.112087,2528.115143
59270.116183,2960.823768,-4219.173869,2681.334243
59270.116493,2590.720797,-7550.100608,2911.162892
59270.116802,3478.967927,-11547.212695,3600.648841
59270.117112,-74.020594,-14211.954086,2374.896044
59270.117421,-3034.844362,-13619.789333,-1608.800546
59270.117731,-5329.482782,-10732.986159,-2451.505594
59270.118040,-74.020594,-11843.295072,-76.609550
59270.118350,0.000000,-5995.668130,306.438199
59270.118660,1924.535449,-4811.338623,0.000000
59270.118969,3701.029710,-7772.162391,1532.190996
59270.119279,2664.741391,-10881.027347,1302.362347
59270.119588,-148.041188,-12657.521608,842.705048
59270.119898,-666.185348,-15396.283594,1149.143247
59270.120207,-666.185348,-13841.851115,2374.896044
59270.120517,-1258.350101,-8290.306550,-76.609550
59270.120826,0.000000,-4811.338623,2451.505594
59270.121136,5847.626942,-7105.977043,6665.030833
59270.121445,2368.659014,-1554.432478,2604.724693
59270.121755,3182.885551,-6809.894666,2451.505594
59270.122064,0.000000,-9918.759623,1225.752797
59270.122374,-3923.091493,-12583.501014,-612.876398
59270.122683,-6513.812290,-13693.809927,-2145.067394
59270.122993,-5625.565159,-13101.645173,-2145.067394
59270.123302,-3552.988522,-9548.656652,0.000000
59270.123612,-74.020594,-7105.977043,-76.609550
59270.123921,592.164754,-3627.009116,76.609550
59270.124231,4737.318029,-7179.997637,4903.011187
59270.124541,2368.659014,-7105.977043,0.000000
59270.124850,1406.391290,-12287.418637,1762.019645
59270.125160,-2738.761985,-12287.418637,153.219100
59270.125469,-4145.153275,-12287.418637,0.000000
59270.125779,-3330.926739,-9622.677246,-153.219100
59270.126088,-2368.659014,-5107.421000,1225.752797
59270.126398,0.000000,-3034.844362,1225.752797
59270.126707,4663.297435,-7105.977043,4519.963438
59270.127017,2886.803174,-7105.977043,2374.896044
59270.127326,0.000000,-7179.997637,1225.752797
59270.127636,-1258.350101,-11251.130318,-1608.800546
59270.127945,-2738.761985,-13619.789333,-76.609550
59270.128255,-4515.256246,-11695.253884,-1302.362347
59270.128564,-2294.638420,-9252.574275,-842.705048
59270.128874,666.185348,-7105.977043,229.828649
59270.129183,592.164754,-3034.844362,0.000000
59270.129493,0.000000,-4811.338623,0.000000
59270.129803,3552.988522,-11029.068536,2911.162892
59270.130112,-74.020594,-13619.789333,-76.609550
59270.130422,-4441.235652,-13101.645173,0.000000
59270.130731,-2442.679609,-14211.954086,-383.047749
59270.131041,-1702.473667,-10436.903782,919.314598
59270.131350,222.061783,-6439.791695,2145.067394
59270.131660,3256.906145,-3627.009116,3447.429741
59270.131970,4959.379811,-3404.947333,3830.477490
59270.132280,2368.659014,-3923.091493,2145.067394
59270.132589,0.000000,-6735.874072,76.609550
59270.132899,-4737.318029,-10732.986159,0.000000
59270.133209,-4811.338623,-14952.160028,-383.047749
59270.133518,-9474.636058,-9548.656652,-4903.011187
59270.133828,-2442.679609,-11843.295072,-1302.362347
59270.134138,-962.267725,-7920.203579,-459.657299
59270.134448,1702.473667,-5921.647536,612.876398
59270.134757,3256.906145,-6291.750507,1838.629195
59270.135067,3256.906145,-9104.533087,2451.505594
59270.135377,814.226536,-11251.130318,1762.019645
59270.135686,-2220.617826,-12805.562797,383.047749
59270.135996,-4737.318029,-11029.068536,-3370.820191
59270.136306,-2368.659014,-10436.903782,1838.629195
59270.136616,-666.185348,-6513.812290,-76.609550
59270.136925,2368.659014,-7031.956449,3983.696590
59270.137235,2368.659014,-3997.112087,2451.505594
59270.137545,3552.988522,-6809.894666,2911.162892
59270.137854,1850.514855,-9474.636058,2145.067394
59270.138164,-1332.370696,-11547.212695,689.485948
59270.138474,-2442.679609,-14211.954086,-76.609550
59270.138783,-2738.761985,-14211.954086,-76.609550
59270.139093,-3034.844362,-8882.471304,-2528.115143
59270.139403,0.000000,-7179.997637,0.000000
59270.139713,4663.297435,-7698.141797,2374.896044
59270.140022,3256.906145,-6883.915261,3217.601092
59270.140332,2368.659014,-7920.203579,1225.752797
59270.140642,814.226536,-11769.274478,1378.971896
59270.140951,-2294.638420,-13249.686362,229.828649
59270.141261,-3997.112087,-13175.665768,-306.438199
59270.141571,-1258.350101,-11843.295072,995.924147
59270.141881,3478.967927,-9474.636058,3600.648841
59270.142190,1036.288319,-3108.864956,1991.848295
59270.142500,4441.235652,-4219.173869,5362.668486
59270.142810,5847.626942,-7105.977043,2374.896044
59270.143119,0.000000,-7179.997637,2451.505594
59270.143429,-3108.864956,-10510.924376,-842.705048
59270.143739,-5329.482782,-13027.624579,-1378.971896
59270.144048,-6439.791695,-12953.603985,-2374.896044
59270.144358,-4293.194464,-9770.718434,-2145.067394
59270.144668,-148.041188,-9400.615463,0.000000
59270.144978,3997.112087,-7105.977043,3217.601092
59270.145287,4663.297435,-5329.482782,2374.896044
59270.145597,2812.782580,-7179.997637,0.000000
59270.145907,2368.659014,-12509.480420,3830.477490
59270.146216,-4737.318029,-11325.150913,0.000000
59270.146526,-5107.421000,-13915.871710,-1302.362347
59270.146836,-4441.235652,-10584.944971,-995.924147
59270.147146,-2516.700203,-8068.244768,306.438199
59270.147455,0.000000,-5033.400406,1762.019645
59270.147765,2664.741391,-3627.009116,3064.381992
59270.148075,3552.988522,-5403.503377,4290.134789
59270.148384,3775.050304,-9474.636058,4213.525239
59270.148694,-666.185348,-8364.327145,-842.705048
59270.149004,-2072.576638,-13101.645173,1532.190996
59270.149313,-5921.647536,-10436.903782,-1838.629195
59270.149623,-2590.720797,-10510.924376,-1378.971896
59270.149933,-1406.391290,-7772.162391,-766.095498
59270.150243,1554.432478,-6513.812290,0.000000
59270.150552,2368.659014,-6661.853478,536.266849
59270.150862,1184.329507,-7476.080014,306.438199
59270.151172,0.000000,-11029.068536,0.000000
59270.151481,-1924.535449,-14137.933492,766.095498
59270.151791,-3627.009116,-11917.315666,-3140.991542
59270.152101,-2368.659014,-11621.233289,2451.505594
59270.152411,-370.102971,-5625.565159,383.047749
59270.152720,4071.132681,-5329.482782,4213.525239
59270.153030,4959.379811,-2812.782580,4443.353888
59270.153340,4811.338623,-4959.379811,3983.696590
59270.153649,2442.679609,-8142.265362,2451.505594
59270.153959,-3552.988522,-10140.821405,-995.924147
59270.154269,-8290.306550,-11917.315666,-2451.505594
59270.154578,-7105.977043,-14285.974681,-2451.505594
59270.154888,-5403.503377,-10955.047942,-3753.867940
59270.155198,-2368.659014,-7772.162391,0.000000
59270.155508,2294.638420,-6513.812290,-689.485948
59270.155817,3552.988522,-5255.462188,2451.505594
59270.156127,4515.256246,-7698.141797,2451.505594
59270.156437,2664.741391,-11251.130318,2681.334243
59270.156746,-666.185348,-12361.439231,1302.362347
59270.157056,-4367.215058,-12139.377449,536.266849
59270.157366,-3923.091493,-10214.842000,-995.924147
59270.157676,-2368.659014,-7179.997637,612.876398
59270.157985,1998.556043,-7105.977043,2374.896044
59270.158295,0.000000,-3034.844362,2451.505594
59270.158605,4663.297435,-7105.977043,2374.896044
59270.158914,1480.411884,-7476.080014,2451.505594
59270.159224,296.082377,-10881.027347,1838.629195
59270.159534,-2960.823768,-12139.377449,-76.609550
59270.159843,-4737.318029,-12657.521608,-1302.362347
59270.160153,-2442.679609,-11251.130318,-76.609550
59270.160463,-370.102971,-7698.141797,-1915.238745
59270.160773,0.000000,-5995.668130,0.000000
59270.161082,5625.565159,-8734.430116,4213.525239
59270.161392,3478.967927,-8290.306550,-76.609550
59270.161702,2886.803174,-13027.624579,2374.896044
59270.162011,-2072.576638,-12805.562797,0.000000
59270.162321,-3330.926739,-13989.892304,229.828649
59270.162631,-3256.906145,-10807.006753,153.219100
59270.162941,-740.205942,-7402.059420,1608.800546
59270.163250,4071.132681,-5921.647536,4826.401637
59270.163560,5847.626942,-4441.235652,4519.963438
59270.163870,2442.679609,-2590.720797,2451.505594
59270.164179,4441.235652,-9696.697840,5362.668486
59270.164489,-74.020594,-11843.295072,-76.609550
59270.164799,-4441.235652,-14211.954086,-76.609550
59270.165108,-7105.977043,-13693.809927,-3064.381992
59270.165418,-5921.647536,-11621.233289,-2757.943793
59270.165728,-2072.576638,-8438.347739,-1072.533697
59270.166038,666.185348,-6217.729913,919.314598
59270.166347,4293.194464,-6587.832884,2757.943793
59270.166657,4663.297435,-9474.636058,3600.648841
59270.166967,1406.391290,-9696.697840,1455.581446
59270.167276,-2368.659014,-11917.315666,2451.505594
59270.167586,-1554.432478,-14211.954086,-76.609550
59270.167896,-4441.235652,-11621.233289,1532.190996
59270.168206,-2516.700203,-7105.977043,-76.609550
59270.168515,0.000000,-5329.482782,1608.800546
59270.168825,2368.659014,-4367.215058,2604.724693
59270.169135,3256.906145,-5181.441594,2911.162892
59270.169444,2960.823768,-8364.327145,1532.190996
59270.169754,2294.638420,-13027.624579,2987.772442
59270.170064,-2442.679609,-12435.459826,-689.485948
59270.170373,-7105.977043,-11917.315666,0.000000
59270.170683,-1850.514855,-13027.624579,-76.609550
59270.170993,-3552.988522,-7476.080014,0.000000
59270.171303,1554.432478,-6809.894666,919.314598
59270.171612,3108.864956,-5181.441594,1378.971896
59270.171922,3478.967927,-6883.915261,1762.019645
59270.172232,2146.597232,-10436.903782,1532.190996
59270.172541,-1184.329507,-11917.315666,0.000000
59270.172851,-3552.988522,-13101.645173,0.000000
59270.173161,-1850.514855,-13027.624579,-76.609550
59270.173471,-4737.318029,-5403.503377,0.000000
59270.173780,3478.967927,-7698.141797,3830.477490
59270.174090,2368.659014,-2442.679609,3217.601092
59270.174400,4663.297435,-5255.462188,3370.820191
59270.174709,2442.679609,-7476.080014,2298.286494
59270.175019,-592.164754,-10732.986159,842.705048
59270.175329,-4145.153275,-12361.439231,-1149.143247
59270.175638,-7105.977043,-12361.439231,-3447.429741
59270.175948,-7105.977043,-10732.986159,-2451.505594
59270.176258,-666.185348,-9474.636058,-76.609550
59270.176568,-666.185348,-3923.091493,-1149.143247
59270.176877,2960.823768,-4811.338623,3064.381992
59270.177187,3552.988522,-5625.565159,1838.629195
59270.177497,3034.844362,-10658.965565,2834.553343
59270.177806,-962.267725,-12879.583391,995.924147
59270.178116,-3849.070898,-13841.851115,-306.438199
59270.178426,-5181.441594,-12879.583391,-383.047749
59270.178736,-4515.256246,-7105.977043,-689.485948
59270.179045,-2812.782580,-4811.338623,0.000000
59270.179355,2368.659014,-4219.173869,2451.505594
59270.179665,7031.956449,-6513.812290,4826.401637
59270.179974,2294.638420,-5329.482782,2451.505594
59270.180284,814.226536,-8882.471304,0.000000
59270.180594,-1776.494261,-11769.274478,1072.533697
59270.180903,-3627.009116,-12731.542202,-842.705048
59270.181213,-4663.297435,-11473.192101,-2221.676944
59270.181523,-2960.823768,-9326.594869,-1302.362347
59270.181833,518.144159,-7698.141797,-76.609550
59270.182142,2146.597232,-5625.565159,-383.047749
59270.182452,1184.329507,-5995.668130,0.000000
59270.182762,3256.906145,-12879.583391,2911.162892
59270.183071,-74.020594,-12731.542202,-76.609550
59270.183381,-2442.679609,-13545.768739,-1072.533697
59270.183691,-3108.864956,-11547.212695,229.828649
59270.184001,-814.226536,-7846.182985,1685.410096
59270.184310,2368.659014,-5255.462188,2987.772442
59270.184620,4219.173869,-2960.823768,4826.401637
59270.184930,6735.874072,-5921.647536,5439.278036
59270.185239,3182.885551,-6957.935855,2068.457845
59270.185549,-1776.494261,-9548.656652,-3064.381992
59270.185859,-4145.153275,-14285.974681,0.000000
59270.186168,-5995.668130,-15988.448347,-2528.115143
59270.186478,-5107.421000,-12879.583391,-3753.867940
59270.186788,-4145.153275,-9252.574275,-2221.676944
59270.187098,814.226536,-7031.956449,689.485948
59270.187407,3478.967927,-5033.400406,2221.676944
59270.187717,4885.359217,-5995.668130,3983.696590
59270.188027,5847.626942,-10362.883188,4596.572988
59270.188336,2294.638420,-12435.459826,2374.896044
59270.188646,-3108.864956,-11325.150913,-2451.505594
59270.188956,-2442.679609,-14211.954086,1762.019645
59270.189266,-3034.844362,-9474.636058,-689.485948
59270.189575,-1776.494261,-5995.668130,-689.485948
59270.189885,148.041188,-4811.338623,1838.629195
59270.190195,2220.617826,-4811.338623,2911.162892
59270.190504,2368.659014,-6809.894666,3600.648841
59270.190814,1184.329507,-9326.594869,3294.210641
59270.191124,-74.020594,-12435.459826,2834.553343
59270.191433,-3034.844362,-13027.624579,-689.485948
59270.191743,-5921.647536,-9696.697840,-4903.011187
59270.192053,-444.123565,-11473.192101,-76.609550
59270.192363,-666.185348,-6069.688724,-1608.800546
59270.192672,2146.597232,-4959.379811,-842.705048
59270.192982,2738.761985,-6587.832884,919.314598
59270.193292,2294.638420,-10214.842000,995.924147
59270.193601,1110.308913,-12435.459826,1685.410096
59270.193911,-2442.679609,-14137.933492,1455.581446
59270.194221,-1258.350101,-15396.283594,1762.019645
59270.194531,-1258.350101,-9474.636058,995.924147
59270.194840,592.164754,-6587.832884,3677.258390
59270.195150,4663.297435,-4737.318029,2987.772442
59270.195460,2960.823768,-1850.514855,3064.381992
59270.195769,4071.132681,-5551.544565,2068.457845
59270.196079,1184.329507,-9104.533087,1838.629195
59270.196389,-3034.844362,-11843.295072,-153.219100
59270.196698,-6217.729913,-12731.542202,-1532.190996
59270.197008,-6661.853478,-12509.480420,-1608.800546
59270.197318,-2442.679609,-11547.212695,-1302.362347
59270.197628,-74.020594,-8290.306550,-76.609550
59270.197937,1184.329507,-4811.338623,0.000000
59270.198247,6439.791695,-8734.430116,4673.182538
59270.198557,3478.967927,-8882.471304,2374.896044
59270.198866,1702.473667,-11843.295072,1762.019645
59270.199176,-2960.823768,-12361.439231,0.000000
59270.199486,-4071.132681,-12805.562797,459.657299
59270.199796,-3775.050304,-9252.574275,-383.047749
59270.200105,-888.247130,-6587.832884,1838.629195
59270.200415,3182.885551,-5699.585753,4213.525239
59270.200725,4663.297435,-4737.318029,3600.648841
59270.201034,2368.659014,-4811.338623,0.000000
59270.201344,4071.132681,-11251.130318,4826.401637
59270.201654,-2590.720797,-10436.903782,-995.924147
59270.201963,-3108.864956,-14211.954086,-76.609550
59270.202273,-5107.421000,-12287.418637,-2374.896044
59270.202583,-3775.050304,-10658.965565,-1838.629195
59270.202893,-518.144159,-7254.018232,-1072.533697
59270.203202,1924.535449,-6291.750507,0.000000
59270.203512,3701.029710,-5995.668130,1838.629195
59270.203822,4367.215058,-10584.944971,2681.334243
59270.204131,518.144159,-11843.295072,-76.609550
59270.204441,-2368.659014,-12509.480420,1225.752797
59270.204751,-2442.679609,-13027.624579,-76.609550
59270.205061,-1184.329507,-11251.130318,2298.286494
59270.205370,518.144159,-6735.874072,1762.019645
59270.205680,3182.885551,-4145.153275,2681.334243
59270.205990,3849.070898,-4145.153275,3447.429741
59270.206299,3108.864956,-5995.668130,2451.505594
59270.206609,0.000000,-8364.327145,0.000000
59270.206919,-3552.988522,-12509.480420,0.000000
59270.207228,-4811.338623,-16580.613101,-76.609550
59270.207538,-9030.512492,-10732.986159,-4749.792088
59270.207848,-3849.070898,-10436.903782,-919.314598
59270.208158,-74.020594,-8290.306550,-76.609550
59270.208467,2072.576638,-4811.338623,1532.190996
59270.208777,4589.276840,-5329.482782,2987.772442
59270.209087,4663.297435,-7698.141797,3217.601092
59270.209396,1998.556043,-10881.027347,2451.505594
59270.209706,-1184.329507,-12509.480420,1532.190996
59270.210016,-2738.761985,-14211.954086,-76.609550
59270.210326,-4811.338623,-8808.450710,-3140.991542
59270.210635,-444.123565,-9474.636058,2374.896044
59270.210945,-666.185348,-4515.256246,689.485948
59270.211255,2960.823768,-5921.647536,4826.401637
59270.211564,3478.967927,-5773.606348,2987.772442
59270.211874,2294.638420,-8808.450710,2528.115143
59270.212184,-592.164754,-10732.986159,1532.190996
59270.212493,-3182.885551,-11843.295072,0.000000
59270.212803,-5921.647536,-10732.986159,0.000000
59270.213113,-2812.782580,-10658.965565,-1072.533697
59270.213423,-666.185348,-7994.224174,-1915.238745
59270.213732,0.000000,-5403.503377,0.000000
59270.214042,4515.256246,-8290.306550,2374.896044
59270.214352,2368.659014,-9918.759623,2298.286494
59270.214661,1406.391290,-11695.253884,995.924147
59270.214971,-1480.411884,-13175.665768,383.047749
59270.215281,-3182.885551,-13397.727550,229.828649
59270.215591,-2294.638420,-9548.656652,-919.314598
59270.215900,-2072.576638,-5403.503377,0.000000
59270.216210,2368.659014,-4219.173869,3677.258390
59270.216520,5847.626942,-6513.812290,6052.154434
59270.216829,4071.132681,-3552.988522,1455.581446
59270.217139,1184.329507,-7772.162391,1991.848295
59270.217449,-2368.659014,-11621.233289,306.438199
59270.217758,-5107.421000,-13619.789333,-2068.457845
59270.218068,-6587.832884,-13471.748144,-2604.724693
59270.218378,-4959.379811,-10955.047942,-2451.505594
59270.218688,-1702.473667,-7105.977043,-1302.362347
59270.218997,814.226536,-4811.338623,-1225.752797
59270.219307,2368.659014,-3923.091493,1532.190996
59270.219617,5329.482782,-9252.574275,4903.011187
59270.219926,3478.967927,-11843.295072,2374.896044
59270.220236,-2960.823768,-11325.150913,919.314598
59270.220546,-4589.276840,-11917.315666,0.000000
59270.220856,-3923.091493,-11029.068536,-153.219100
59270.221165,-2590.720797,-7920.203579,0.000000
59270.221475,0.000000,-5403.503377,1915.238745
59270.221785,2738.761985,-4737.318029,2987.772442
59270.222094,3478.967927,-4737.318029,2068.457845
59270.222404,1184.329507,-7179.997637,2451.505594
59270.222714,0.000000,-9548.656652,2451.505594
59270.223023,-1258.350101,-13619.789333,-76.609550
59270.223333,-6957.935855,-11621.233289,-2451.505594
59270.223643,-5921.647536,-8660.409521,-2451.505594
59270.223953,-2368.659014,-8586.388927,-1455.581446
59270.224262,518.144159,-6587.832884,153.219100
59270.224572,2738.761985,-5921.647536,919.314598
59270.224882,3775.050304,-9474.636058,3600.648841
59270.225191,3182.885551,-11843.295072,2374.896044
59270.225501,-1702.473667,-11843.295072,0.000000
59270.225811,-2368.659014,-14285.974681,2451.505594
59270.226121,-1258.350101,-10658.965565,-76.609550
59270.226430,0.000000,-7476.080014,1225.752797
59270.226740,1702.473667,-4737.318029,1302.362347
59270.227050,3256.906145,-3701.029710,2987.772442
59270.227359,4071.132681,-5107.421000,3064.381992
59270.227669,2146.597232,-8290.306550,2068.457845
59270.227979,-666.185348,-12361.439231,2068.457845
59270.228288,-3775.050304,-15396.283594,-76.609550
59270.228598,-6587.832884,-13619.789333,-2528.115143
59270.228908,-6513.812290,-9548.656652,-2451.505594
59270.229218,-74.020594,-9474.636058,-76.609550
59270.229527,296.082377,-4811.338623,0.000000
59270.229837,4663.297435,-4737.318029,2374.896044
59270.230147,4737.318029,-6735.874072,2451.505594
59270.230456,3108.864956,-10436.903782,2528.115143
59270.230766,-296.082377,-12361.439231,995.924147
59270.231076,-3552.988522,-14285.974681,1225.752797
59270.231386,-3627.009116,-13989.892304,1762.019645
59270.231695,-2442.679609,-9474.636058,-76.609550
59270.232005,-4145.153275,-3627.009116,0.000000
59270.232315,3849.070898,-5625.565159,4596.572988
59270.232624,4663.297435,-3108.864956,2374.896044
59270.232934,4663.297435,-7698.141797,3600.648841
59270.233244,0.000000,-9548.656652,1685.410096
59270.233554,-2220.617826,-11473.192101,306.438199
59270.233863,-3849.070898,-13249.686362,-919.314598
59270.234173,-4737.318029,-10140.821405,-2451.505594
59270.234483,-2368.659014,-9548.656652,0.000000
59270.234793,1702.473667,-8290.306550,2374.896044
59270.235103,3404.947333,-8290.306550,2374.896044
59270.235412,2886.803174,-7105.977043,383.047749
59270.235722,592.164754,-10140.821405,766.095498
59270.236032,-296.082377,-12213.398043,1225.752797
59270.236342,-3552.988522,-13101.645173,0.000000
59270.236651,-1850.514855,-13027.624579,1378.971896
59270.236961,-1258.350101,-7994.224174,1149.143247
59270.237271,1776.494261,-5403.503377,4290.134789
59270.237581,5477.523971,-5255.462188,5669.106685
59270.237891,5847.626942,-4737.318029,4213.525239
59270.238200,148.041188,-4811.338623,612.876398
59270.238510,444.123565,-11843.295072,2298.286494
59270.238820,-4811.338623,-11621.233289,-2528.115143
59270.239130,-5107.421000,-14211.954086,-1608.800546
59270.239439,-6365.771101,-11695.253884,-2987.772442
59270.239749,-2664.741391,-9326.594869,-1532.190996
59270.240059,888.247130,-6661.853478,383.047749
59270.240369,2368.659014,-4811.338623,1225.752797
59270.240679,4737.318029,-7179.997637,4903.011187
59270.240988,4663.297435,-11251.130318,3600.648841
59270.241298,-1850.514855,-9622.677246,0.000000
59270.241608,-2664.741391,-14285.974681,1532.190996
59270.241918,-3627.009116,-11843.295072,-76.609550
59270.242227,-1850.514855,-9474.636058,1149.143247
59270.242537,-1184.329507,-5921.647536,919.314598
59270.242847,1406.391290,-4737.318029,2604.724693
59270.243157,3478.967927,-4367.215058,3140.991542
59270.243467,1184.329507,-5995.668130,766.095498
59270.243776,0.000000,-7772.162391,1225.752797
59270.244086,-2368.659014,-12213.398043,0.000000
59270.244396,-2442.679609,-14211.954086,-689.485948
59270.244706,-5921.647536,-11325.150913,-1838.629195
59270.245016,-1258.350101,-9474.636058,-689.485948
59270.245325,1184.329507,-7920.203579,919.314598
59270.245635,2886.803174,-5847.626942,842.705048
59270.245945,3478.967927,-7105.977043,1608.800546
59270.246255,3256.906145,-10140.821405,2145.067394
59270.246564,-666.185348,-10140.821405,0.000000
59270.246874,-4737.318029,-10732.986159,0.000000
59270.247184,-3552.988522,-12509.480420,1225.752797
59270.247494,-74.020594,-9474.636058,-76.609550
59270.247804,148.041188,-6883.915261,2757.943793
59270.248113,4663.297435,-7105.977043,4826.401637
59270.248423,3552.988522,-3627.009116,3677.258390
59270.248733,3627.009116,-6957.935855,3217.601092
59270.249043,0.000000,-10066.800811,995.924147
59270.249352,-3701.029710,-11991.336260,-995.924147
59270.249662,-5403.503377,-13027.624579,-2528.115143
59270.249972,-7328.038826,-10140.821405,-4290.134789
59270.250282,-3552.988522,-9548.656652,-2451.505594
59270.250592,2738.761985,-9474.636058,2987.772442
59270.250901,2886.803174,-4589.276840,536.266849
59270.251211,4737.318029,-6587.832884,3370.820191
59270.251521,2960.823768,-8364.327145,1685.410096
59270.251831,518.144159,-11991.336260,1072.533697
59270.252141,-3182.885551,-13471.748144,-153.219100
59270.252450,-4589.276840,-13027.624579,-536.266849
59270.252760,-2442.679609,-9474.636058,-76.609550
59270.253070,-666.185348,-5625.565159,-76.609550
59270.253380,592.164754,-3034.844362,0.000000
59270.253689,4145.153275,-5107.421000,5515.887586
59270.253999,4663.297435,-7105.977043,3600.648841
59270.254309,0.000000,-7476.080014,2451.505594
59270.254619,-3256.906145,-10140.821405,0.000000
59270.254929,-4441.235652,-13101.645173,-1072.533697
59270.255238,-5107.421000,-12657.521608,-2068.457845
59270.255548,-4145.153275,-9696.697840,-2221.676944
59270.255858,-74.020594,-9474.636058,-76.609550
59270.256168,4663.297435,-7105.977043,-76.609550
59270.256477,2368.659014,-4441.235652,-842.705048
59270.256787,2960.823768,-10140.821405,3064.381992
59270.257097,1998.556043,-11843.295072,1149.143247
59270.257407,-4145.153275,-10732.986159,0.000000
59270.257717,-3701.029710,-12065.356855,0.000000
59270.258026,-1850.514855,-9548.656652,612.876398
59270.258336,444.123565,-7105.977043,2068.457845
59270.258646,2442.679609,-4515.256246,3064.381992
59270.258956,4959.379811,-5625.565159,4826.401637
59270.259265,5847.626942,-9178.553681,3600.648841
59270.259575,-74.020594,-10658.965565,-76.609550
59270.259885,-7105.977043,-10140.821405,-2451.505594
59270.260195,-4811.338623,-15396.283594,-689.485948
59270.260505,-7031.956449,-10732.986159,-4290.134789
59270.260814,-3330.926739,-8882.471304,-1608.800546
59270.261124,370.102971,-6587.832884,842.705048
59270.261434,3923.091493,-5329.482782,2681.334243
59270.261744,5847.626942,-5921.647536,2987.772442
59270.262054,5329.482782,-8956.491898,4903.011187
59270.262363,3478.967927,-14211.954086,4136.915689
59270.262673,-1258.350101,-16580.613101,-76.609550
59270.262983,-7105.977043,-11917.315666,-2451.505594
59270.263293,-3034.844362,-11843.295072,-229.828649
59270.263602,-3923.091493,-4959.379811,-1608.800546
59270.263912,1110.308913,-5921.647536,2221.676944
59270.264222,2590.720797,-3923.091493,2834.553343
59270.264532,3701.029710,-5477.523971,3830.477490
59270.264842,1776.494261,-8290.306550,2987.772442
59270.265151,-2368.659014,-9548.656652,2451.505594
59270.265461,-3552.988522,-11917.315666,1838.629195
59270.265771,-2442.679609,-14211.954086,-76.609550
59270.266081,-4959.379811,-8734.430116,-3447.429741
59270.266390,-1184.329507,-8068.244768,0.000000
59270.266700,2886.803174,-6513.812290,-76.609550
59270.267010,3478.967927,-7846.182985,1762.019645
59270.267320,2812.782580,-9252.574275,1302.362347
59270.267630,1184.329507,-11695.253884,1225.752797
59270.267939,-1332.370696,-12953.603985,612.876398
59270.268249,-4737.318029,-11029.068536,0.000000
59270.268559,-3552.988522,-9548.656652,306.438199
59270.268869,1184.329507,-8364.327145,4290.134789
59270.269178,3478.967927,-3552.988522,2374.896044
59270.269488,2960.823768,-2738.761985,3677.258390
59270.269798,7031.956449,-7105.977043,4826.401637
59270.270108,2146.597232,-9474.636058,2374.896044
59270.270418,-2442.679609,-11991.336260,-383.047749
59270.270727,-6069.688724,-13619.789333,-2145.067394
59270.271037,-6735.874072,-13101.645173,-2681.334243
59270.271347,-5551.544565,-8734.430116,-4596.572988
59270.271657,-3256.906145,-5995.668130,0.000000
59270.271967,2368.659014,-6587.832884,3677.258390
59270.272276,6439.791695,-6513.812290,2374.896044
59270.272586,2960.823768,-6587.832884,1532.190996
59270.272896,4663.297435,-14211.954086,4213.525239
59270.273206,-1776.494261,-13249.686362,229.828649
59270.273515,-4293.194464,-14211.954086,-536.266849
59270.273825,-3997.112087,-11103.089130,-689.485948
59270.274135,-1924.535449,-7550.100608,0.000000
59270.274445,1110.308913,-4737.318029,229.828649
59270.274755,1332.370696,-1850.514855,1455.581446
59270.275064,296.082377,-3034.844362,2451.505594
59270.275374,3256.906145,-9400.615463,4290.134789
59270.275684,-370.102971,-10066.800811,-76.609550
59270.275994,-4441.235652,-11917.315666,1225.752797
59270.276303,-6513.812290,-11621.233289,-1838.629195
59270.276613,-4145.153275,-10362.883188,-2145.067394
59270.276923,-1554.432478,-7994.224174,-1302.362347
59270.277233,888.247130,-6069.688724,459.657299
59270.277543,4071.132681,-7105.977043,1149.143247
59270.277852,2886.803174,-7698.141797,842.705048
59270.278162,0.000000,-9548.656652,0.000000
59270.278472,-1184.329507,-13989.892304,1532.190996
59270.278782,-2442.679609,-13915.871710,-76.609550
59270.279091,-4441.235652,-10140.821405,612.876398
59270.279401,-2072.576638,-6735.874072,612.876398
59270.279711,1628.453072,-5551.544565,2911.162892
59270.280021,3701.029710,-3701.029710,3370.820191
59270.280331,3775.050304,-5403.503377,3370.820191
59270.280640,4071.132681,-9474.636058,3600.648841
59270.280950,-74.020594,-11547.212695,-76.609550
59270.281260,-4811.338623,-11843.295072,-2528.115143
59270.281570,-7105.977043,-11917.315666,-1838.629195
59270.281880,-3034.844362,-11843.295072,-1302.362347
59270.282189,-3552.988522,-5995.668130,0.000000
59270.282499,1258.350101,-5255.462188,536.266849
59270.282809,3997.112087,-5477.523971,1838.629195
59270.283119,4293.194464,-7772.162391,2374.896044
59270.283428,1924.535449,-11177.109724,1991.848295
59270.283738,-148.041188,-14211.954086,2374.896044
59270.284048,-2442.679609,-15988.448347,-76.609550
59270.284358,-3627.009116,-11843.295072,-2528.115143
59270.284668,-4441.235652,-7179.997637,0.000000
59270.284977,1998.556043,-7105.977043,3294.210641
59270.285287,296.082377,-666.185348,306.438199
59270.285597,4663.297435,-5477.523971,3600.648841
59270.285907,3182.885551,-7772.162391,3294.210641
59270.286216,74.020594,-9992.780217,1225.752797
59270.286526,-3034.844362,-12583.501014,153.219100
59270.286836,-4737.318029,-13693.809927,-306.438199
59270.287146,-3182.885551,-12065.356855,-1225.752797
59270.287456,-74.020594,-9474.636058,-76.609550
59270.287765,-1480.411884,-4811.338623,0.000000
59270.288075,3478.967927,-6957.935855,2374.896044
59270.288385,2590.720797,-5699.585753,0.000000
59270.288695,3182.885551,-11547.212695,2068.457845
59270.289004,-592.164754,-12287.418637,919.314598
59270.289314,-2590.720797,-13397.727550,-229.828649
59270.289624,-2738.761985,-11769.274478,0.000000
59270.289934,0.000000,-7772.162391,1225.752797
59270.290244,1776.494261,-6587.832884,1225.752797
59270.290553,6439.791695,-7105.977043,4826.401637
59270.290863,2442.679609,-3034.844362,1302.362347
59270.291173,2368.659014,-8068.244768,5056.230287
59270.291483,-74.020594,-9474.636058,-76.609550
59270.291793,-3701.029710,-13471.748144,-76.609550
59270.292102,-6291.750507,-13249.686362,-2221.676944
59270.292412,-4441.235652,-10732.986159,-1608.800546
59270.292722,-814.226536,-8068.244768,76.609550
59270.293032,0.000000,-3627.009116,0.000000
59270.293341,3552.988522,-4811.338623,0.000000
59270.293651,6957.935855,-8882.471304,4749.792088
59270.293961,2886.803174,-10362.883188,536.266849
59270.294271,-2072.576638,-13101.645173,0.000000
59270.294581,-2442.679609,-15988.448347,-1302.362347
59270.294890,-5107.421000,-13619.789333,-1302.362347
59270.295200,-3478.967927,-9622.677246,-689.485948
59270.295510,-518.144159,-6513.812290,1762.019645
59270.295820,2368.659014,-4071.132681,3294.210641
59270.296129,2368.659014,-1258.350101,2757.943793
59270.296439,2368.659014,-3627.009116,1838.629195
59270.296749,0.000000,-9548.656652,3064.381992
59270.297059,-370.102971,-12731.542202,2068.457845
59270.297369,-6513.812290,-11325.150913,0.000000
59270.297678,-3034.844362,-13619.789333,-76.609550
59270.297988,-3552.988522,-8660.409521,-1838.629195
59270.298298,-296.082377,-7179.997637,-153.219100
59270.298608,1554.432478,-5995.668130,229.828649
59270.298917,2664.741391,-7772.162391,1149.143247
59270.299227,666.185348,-8808.450710,0.000000
59270.299537,-2072.576638,-10955.047942,-383.047749
59270.299847,-4737.318029,-11917.315666,0.000000
59270.300157,-1258.350101,-13619.789333,1762.019645
59270.300466,-2960.823768,-7179.997637,0.000000
59270.300776,2886.803174,-8882.471304,4826.401637
59270.301086,2664.741391,-3034.844362,3524.039291
59270.301396,4515.256246,-4145.153275,3677.258390
59270.301706,2886.803174,-7328.038826,2987.772442
59270.302015,-370.102971,-9844.739029,842.705048
59270.302325,-3627.009116,-11843.295072,-1302.362347
59270.302635,-6587.832884,-13619.789333,-2528.115143
59270.302945,-7105.977043,-10732.986159,-2451.505594
59270.303254,-370.102971,-10658.965565,-76.609550
59270.303564,0.000000,-5403.503377,0.000000
59270.303874,4737.318029,-7476.080014,4290.134789
59270.304184,4737.318029,-5995.668130,1838.629195
59270.304494,4145.153275,-9844.739029,2374.896044
59270.304803,148.041188,-12583.501014,612.876398
59270.305113,-3182.885551,-14063.912898,-612.876398
59270.305423,-2442.679609,-13619.789333,-76.609550
59270.305733,-666.185348,-11843.295072,-76.609550
59270.306042,-1258.350101,-4811.338623,0.000000
59270.306352,2368.659014,-3923.091493,3064.381992
59270.306662,5551.544565,-7105.977043,6052.154434
59270.306972,2368.659014,-5403.503377,4290.134789
59270.307282,0.000000,-8660.409521,1072.533697
59270.307591,-2960.823768,-11769.274478,76.609550
59270.307901,-5107.421000,-13101.645173,-1302.362347
59270.308211,-5107.421000,-11547.212695,-2068.457845
59270.308521,-1258.350101,-10658.965565,-689.485948
59270.308830,2294.638420,-9474.636058,2374.896044
59270.309140,1702.473667,-4589.276840,-842.705048
59270.309450,2368.659014,-5995.668130,1225.752797
59270.309760,4663.297435,-13027.624579,4213.525239
59270.310070,0.000000,-10140.821405,0.000000
59270.310379,-2442.679609,-13027.624579,-612.876398
59270.310689,-3552.988522,-12509.480420,0.000000
59270.310999,-2294.638420,-9622.677246,153.219100
59270.311309,296.082377,-7031.956449,1991.848295
59270.311619,4367.215058,-6143.709319,4060.306139
59270.311928,5847.626942,-5995.668130,6128.763984
59270.312238,4663.297435,-8290.306550,4213.525239
59270.312548,0.000000,-8364.327145,612.876398
59270.312858,-1554.432478,-14211.954086,3064.381992
59270.313167,-7624.121203,-11325.150913,-2451.505594
59270.313477,-4811.338623,-11695.253884,-1762.019645
59270.313787,-2960.823768,-9104.533087,-919.314598
59270.314097,444.123565,-6883.915261,842.705048
59270.314407,3404.947333,-5625.565159,2068.457845
59270.314716,4145.153275,-7179.997637,2451.505594
59270.315026,2960.823768,-10140.821405,3064.381992
59270.315336,-74.020594,-13619.789333,-76.609550
59270.315646,-5921.647536,-12805.562797,-1838.629195
59270.315955,-4219.173869,-15988.448347,-76.609550
59270.316265,-4959.379811,-7550.100608,-2451.505594
59270.316575,-74.020594,-7105.977043,2068.457845
59270.316885,2886.803174,-4441.235652,2987.772442
59270.317195,3997.112087,-3034.844362,3753.867940
59270.317504,4145.153275,-5181.441594,3753.867940
59270.317814,0.000000,-7179.997637,2451.505594
59270.318124,-4737.318029,-9548.656652,0.000000
59270.318434,-4293.194464,-13989.892304,-76.609550
59270.318743,-5995.668130,-11843.295072,-2528.115143
59270.319053,-4737.318029,-9548.656652,0.000000
59270.319363,-74.020594,-7698.141797,-1915.238745
59270.319673,1998.556043,-6439.791695,612.876398
59270.319983,3478.967927,-6513.812290,1685.410096
59270.320292,3923.091493,-9326.594869,2068.457845
59270.320602,1406.391290,-11917.315666,1455.581446
59270.320912,-3256.906145,-11029.068536,0.000000
59270.321222,-6513.812290,-10140.821405,0.000000
59270.321532,-1776.494261,-10732.986159,1838.629195
59270.321841,-74.020594,-7105.977043,995.924147
59270.322151,3552.988522,-4811.338623,4903.011187
59270.322461,6439.791695,-4737.318029,2374.896044
59270.322771,2812.782580,-6735.874072,3140.991542
59270.323080,444.123565,-9474.636058,1532.190996
59270.323390,-3404.947333,-12213.398043,-153.219100
59270.323700,-5625.565159,-13323.706956,-1762.019645
59270.324010,-6809.894666,-10807.006753,-3447.429741
59270.324320,-5403.503377,-5995.668130,-3677.258390
59270.324629,0.000000,-6587.832884,1225.752797
59270.324939,4663.297435,-5921.647536,2374.896044
59270.325249,1850.514855,-3034.844362,0.000000
59270.325559,5847.626942,-10658.965565,2987.772442
59270.325868,0.000000,-11991.336260,229.828649
59270.326178,-3182.885551,-14285.974681,-842.705048
59270.326488,-4885.359217,-14285.974681,-1302.362347
59270.326798,-3775.050304,-10362.883188,-689.485948
59270.327108,-74.020594,-7105.977043,1762.019645
59270.327417,2294.638420,-3552.988522,1762.019645
59270.327727,2960.823768,-3627.009116,4290.134789
59270.328037,5847.626942,-6957.935855,7277.907231
59270.328347,0.000000,-5995.668130,689.485948
59270.328656,-296.082377,-12435.459826,3294.210641
59270.328966,-5033.400406,-12065.356855,-1149.143247
59270.329276,-6217.729913,-11917.315666,-2221.676944
59270.329586,-4811.338623,-9474.636058,-2374.896044
59270.329896,-1776.494261,-7402.059420,-1532.190996
59270.330205,3182.885551,-7105.977043,1762.019645
59270.330515,4663.297435,-7698.141797,-76.609550
59270.330825,592.164754,-8068.244768,612.876398
59270.331135,1258.350101,-12509.480420,4519.963438
59270.331445,-1258.350101,-11843.295072,-76.609550
59270.331754,-4145.153275,-12805.562797,1225.752797
59270.332064,-2738.761985,-9474.636058,76.609550
59270.332374,-888.247130,-6809.894666,1685.410096
59270.332684,2072.576638,-4367.215058,2757.943793
59270.332993,3849.070898,-3849.070898,3447.429741
59270.333303,4663.297435,-7105.977043,3753.867940
59270.333613,3478.967927,-11843.295072,3600.648841
59270.333923,-4737.318029,-9844.739029,-1762.019645
59270.334233,-4737.318029,-14211.954086,-76.609550
59270.334543,-7179.997637,-10732.986159,-4060.306139
59270.334852,-4737.318029,-8364.327145,0.000000
59270.335162,-74.020594,-7476.080014,766.095498
59270.335472,2294.638420,-4145.153275,766.095498
59270.335782,5403.503377,-5699.585753,2681.334243
59270.336092,4515.256246,-8586.388927,2604.724693
59270.336401,2220.617826,-12805.562797,1532.190996
59270.336711,-1184.329507,-15544.324782,1532.190996
59270.337021,-4811.338623,-14211.954086,-1915.238745
59270.337331,-4737.318029,-11029.068536,0.000000
59270.337641,-74.020594,-9474.636058,-76.609550
59270.337950,0.000000,-3627.009116,2451.505594
59270.338260,4589.276840,-4515.256246,3907.087040
59270.338570,4441.235652,-5477.523971,3830.477490
59270.338880,2812.782580,-8216.285956,3524.039291
59270.339190,-518.144159,-10510.924376,1532.190996
59270.339499,-4145.153275,-11325.150913,0.000000
59270.339809,-5921.647536,-12509.480420,0.000000
59270.340119,-3034.844362,-10658.965565,-1915.238745
59270.340429,-2960.823768,-5995.668130,-4826.401637
59270.340739,2368.659014,-7179.997637,1838.629195
59270.341048,2368.659014,-5107.421000,0.000000
59270.341358,3701.029710,-9474.636058,1762.019645
59270.341668,1554.432478,-11547.212695,1072.533697
59270.341978,-1184.329507,-12953.603985,536.266849
59270.342288,-2960.823768,-13175.665768,229.828649
59270.342597,-4145.153275,-9548.656652,0.000000
59270.342907,-2368.659014,-5995.668130,612.876398
59270.343217,3478.967927,-6513.812290,3600.648841
59270.343527,3478.967927,-1258.350101,536.266849
59270.343837,2960.823768,-4811.338623,3064.381992
59270.344146,1998.556043,-8290.306550,0.000000
59270.344456,-1406.391290,-11177.109724,383.047749
59270.344766,-4811.338623,-13545.768739,-995.924147
59270.345076,-5477.523971,-13323.706956,-1685.410096
59270.345386,-3627.009116,-10436.903782,-1302.362347
59270.345695,-2368.659014,-6809.894666,-306.438199
59270.346005,0.000000,-3627.009116,0.000000
59270.346315,4737.318029,-6143.709319,3064.381992
59270.346625,4663.297435,-8290.306550,2374.896044
59270.346935,0.000000,-9548.656652,612.876398
59270.347244,-1258.350101,-13619.789333,-1608.800546
59270.347554,-5329.482782,-14730.098246,-1072.533697
59270.347864,-4737.318029,-11917.315666,-612.876398
59270.348174,-2368.659014,-8364.327145,459.657299
59270.348484,296.082377,-5699.585753,3600.648841
59270.348793,2590.720797,-3849.070898,3600.648841
59270.349103,2368.659014,-2442.679609,2451.505594
59270.349413,2368.659014,-7476.080014,4290.134789
59270.349723,1998.556043,-11843.295072,3600.648841
59270.350033,-6809.894666,-10140.821405,0.000000
59270.350343,-4811.338623,-13027.624579,-2528.115143
59270.350652,-6439.791695,-9992.780217,-2911.162892
59270.350962,-3256.906145,-8142.265362,-1762.019645
59270.351272,222.061783,-6735.874072,229.828649
59270.351582,2072.576638,-6439.791695,1838.629195
59270.351892,3478.967927,-8882.471304,2374.896044
59270.352201,2294.638420,-10658.965565,995.924147
59270.352511,-1184.329507,-11917.315666,1225.752797
59270.352821,-1850.514855,-13027.624579,-76.609550
59270.353131,-4737.318029,-10140.821405,306.438199
59270.353441,-74.020594,-9178.553681,2374.896044
59270.353750,1110.308913,-5255.462188,2068.457845
59270.354060,3330.926739,-3701.029710,3294.210641
59270.354370,3923.091493,-5181.441594,2757.943793
59270.354680,1850.514855,-8216.285956,1838.629195
59270.354990,-74.020594,-11843.295072,1455.581446
59270.355299,-2442.679609,-14211.954086,-689.485948
59270.355609,-7698.141797,-11917.315666,-2451.505594
59270.355919,-3034.844362,-13027.624579,-76.609550
59270.356229,-2368.659014,-5995.668130,-1838.629195
59270.356539,2516.700203,-6513.812290,2987.772442
59270.356848,4811.338623,-5181.441594,1991.848295
59270.357158,4811.338623,-7031.956449,1838.629195
59270.357468,2442.679609,-10732.986159,1378.971896
59270.357778,-1702.473667,-12509.480420,-2145.067394
59270.358088,-3256.906145,-15396.283594,-153.219100
59270.358397,-2442.679609,-14211.954086,-76.609550
59270.358707,-3478.967927,-7772.162391,-1532.190996
59270.359017,2442.679609,-8808.450710,4749.792088
59270.359327,2294.638420,-2220.617826,2068.457845
59270.359637,4737.318029,-5773.606348,5669.106685
59270.359946,4367.215058,-6957.935855,3907.087040
59270.360256,962.267725,-9992.780217,2374.896044
59270.360566,-2590.720797,-11695.253884,0.000000
59270.360876,-5107.421000,-11917.315666,-2451.505594
59270.361186,-4737.318029,-10140.821405,-2451.505594
59270.361495,-1480.411884,-10214.842000,-76.609550
59270.361805,-74.020594,-6513.812290,-689.485948
59270.362115,1184.329507,-4811.338623,612.876398
59270.362425,5477.523971,-9474.636058,3600.648841
59270.362735,1998.556043,-11621.233289,2451.505594
59270.363044,-74.020594,-12731.542202,1149.143247
59270.363354,-2516.700203,-14137.933492,689.485948
59270.363664,-3182.885551,-12361.439231,76.609550
59270.363974,-1924.535449,-7772.162391,229.828649
59270.364284,0.000000,-4811.338623,612.876398
59270.364593,2664.741391,-3627.009116,3983.696590
59270.364903,5255.462188,-5329.482782,4213.525239
59270.365213,0.000000,-4811.338623,1225.752797
59270.365523,-74.020594,-11843.295072,4213.525239
59270.365833,-4515.256246,-11917.315666,0.000000
59270.366143,-5995.668130,-13619.789333,-1378.971896
59270.366452,-5477.523971,-11177.109724,-1991.848295
59270.366762,-2738.761985,-8438.347739,-689.485948
59270.367072,1258.350101,-5921.647536,1149.143247
59270.367382,2368.659014,-3775.050304,536.266849
59270.367692,2960.823768,-5403.503377,1225.752797
59270.368001,3997.112087,-11695.253884,2987.772442
59270.368311,-4145.153275,-9548.656652,-2451.505594
59270.368621,-2442.679609,-15988.448347,1532.190996
59270.368931,-5921.647536,-11917.315666,-2145.067394
59270.369241,-2516.700203,-9696.697840,153.219100
59270.369550,444.123565,-6217.729913,1915.238745
59270.369860,3108.864956,-4515.256246,3370.820191
59270.370170,4737.318029,-4737.318029,4826.401637
59270.370480,3182.885551,-5181.441594,3294.210641
59270.370790,0.000000,-7476.080014,1225.752797
59270.371099,-2368.659014,-11917.315666,1225.752797
59270.371409,-6291.750507,-11251.130318,-3140.991542
59270.371719,-7105.977043,-10732.986159,-2451.505594
59270.372029,-4367.215058,-7624.121203,-2987.772442
59270.372339,-592.164754,-6883.915261,-919.314598
59270.372648,2368.659014,-6291.750507,689.485948
59270.372958,3627.009116,-7624.121203,1532.190996
59270.373268,3478.967927,-11843.295072,3447.429741
59270.373578,518.144159,-13619.789333,1762.019645
59270.373888,-4145.153275,-11991.336260,-1225.752797
59270.374197,-3849.070898,-12509.480420,2145.067394
59270.374507,-3701.029710,-6587.832884,-1838.629195
59270.374817,0.000000,-5995.668130,1225.752797
59270.375127,3478.967927,-2960.823768,2374.896044
59270.375437,3849.070898,-3404.947333,2757.943793
59270.375746,3330.926739,-7031.956449,2987.772442
59270.376056,296.082377,-9548.656652,919.314598
59270.376366,-2220.617826,-12657.521608,612.876398
59270.376676,-4811.338623,-15396.283594,-689.485948
59270.376986,-4811.338623,-11843.295072,-2528.115143
59270.377295,-4145.153275,-8364.327145,-2451.505594
59270.377605,3478.967927,-9474.636058,2374.896044
59270.377915,3182.885551,-3034.844362,-689.485948
59270.378225,5847.626942,-7105.977043,2374.896044
59270.378535,2960.823768,-9696.697840,1762.019645
59270.378844,0.000000,-12657.521608,919.314598
59270.379154,-3478.967927,-14137.933492,-76.609550
59270.379464,-4737.318029,-12213.398043,0.000000
59270.379774,-1258.350101,-11251.130318,2068.457845
59270.380084,-74.020594,-7105.977043,2068.457845
59270.380393,1776.494261,-3034.844362,1225.752797
59270.380703,7031.956449,-7105.977043,6665.030833
59270.381013,2886.803174,-4811.338623,2374.896044
59270.381323,3923.091493,-9474.636058,3600.648841
59270.381633,-2146.597232,-11177.109724,919.314598
59270.381942,-5847.626942,-12805.562797,-842.705048
59270.382252,-6365.771101,-11325.150913,-2068.457845
59270.382562,-5921.647536,-7772.162391,-3677.258390
59270.382872,-148.041188,-7179.997637,1225.752797
59270.383182,3478.967927,-6513.812290,1762.019645
59270.383492,2146.597232,-4811.338623,-995.924147
59270.383801,2368.659014,-9548.656652,2451.505594
59270.384111,1110.308913,-13619.789333,-76.609550
59270.384421,-1998.556043,-14804.118840,1072.533697
59270.384731,-4663.297435,-12953.603985,-689.485948
59270.385041,-2960.823768,-9770.718434,0.000000
59270.385350,-518.144159,-6883.915261,1608.800546
59270.385660,148.041188,-3034.844362,612.876398
59270.385970,2368.659014,-2442.679609,2451.505594
59270.386280,3849.070898,-7031.956449,3983.696590
59270.386590,2294.638420,-9474.636058,2374.896044
59270.386899,-4737.318029,-10140.821405,0.000000
59270.387209,-3034.844362,-15396.283594,-76.609550
59270.387519,-5329.482782,-12213.398043,-306.438199
59270.387829,-2590.720797,-9030.512492,-1149.143247
59270.388139,222.061783,-7031.956449,536.266849
59270.388448,3182.885551,-5329.482782,842.705048
59270.388758,4071.132681,-5625.565159,-76.609550
59270.389068,1184.329507,-8364.327145,0.000000
59270.389378,0.000000,-12583.501014,612.876398
59270.389688,-3034.844362,-13545.768739,-2834.553343
59270.389997,-4145.153275,-15026.180623,459.657299
59270.390307,-3034.844362,-11251.130318,-76.609550
59270.390617,0.000000,-6291.750507,1225.752797
59270.390927,3108.864956,-4885.359217,2987.772442
59270.391237,5403.503377,-3849.070898,4290.134789
59270.391546,5699.585753,-5255.462188,4136.915689
59270.391856,4663.297435,-8882.471304,3600.648841
59270.392166,-1924.535449,-9548.656652,0.000000
59270.392476,-4737.318029,-12213.398043,-1225.752797
59270.392786,-4811.338623,-14211.954086,-76.609550
59270.393095,-6809.894666,-7772.162391,-3677.258390
59270.393405,-74.020594,-9104.533087,1838.629195
59270.393715,0.000000,-5107.421000,0.000000
59270.394025,3182.885551,-6291.750507,1072.533697
59270.394335,3108.864956,-9770.718434,1532.190996
59270.394644,962.267725,-11917.315666,1302.362347
59270.394954,-370.102971,-14211.954086,2374.896044
59270.395264,-3627.009116,-12435.459826,-76.609550
59270.395574,-4145.153275,-8660.409521,0.000000
59270.395884,1702.473667,-9474.636058,4443.353888
59270.396193,1554.432478,-2812.782580,1455.581446
59270.396503,2368.659014,-2442.679609,3677.258390
59270.396813,2516.700203,-5107.421000,2451.505594
59270.397123,888.247130,-9030.512492,2298.286494
59270.397433,-2368.659014,-11103.089130,-76.609550
59270.397742,-5255.462188,-13545.768739,-766.095498
59270.398052,-4811.338623,-14211.954086,-76.609550
59270.398362,-1850.514855,-10658.965565,-1302.362347
59270.398672,-2072.576638,-6439.791695,0.000000
59270.398982,2368.659014,-6587.832884,3677.258390
59270.399292,4071.132681,-5329.482782,-76.609550
59270.399601,0.000000,-5995.668130,0.000000
59270.399911,666.185348,-11251.130318,536.266849
59270.400221,-3256.906145,-13101.645173,0.000000
59270.400531,-4663.297435,-13915.871710,-383.047749
59270.400841,-3923.091493,-10658.965565,-229.828649
59270.401150,-592.164754,-8068.244768,2757.943793
59270.401460,3478.967927,-7105.977043,4213.525239
59270.401770,3330.926739,-3108.864956,3370.820191
59270.402080,2960.823768,-4811.338623,4903.011187
59270.402390,3478.967927,-9474.636058,3600.648841
59270.402699,-4663.297435,-8364.327145,0.000000
59270.403009,-3627.009116,-13323.706956,-383.047749
59270.403319,-5625.565159,-12361.439231,-1838.629195
59270.403629,-4663.297435,-9696.697840,-1532.190996
59270.403939,-1406.391290,-7179.997637,-612.876398
59270.404248,1184.329507,-5403.503377,612.876398
59270.404558,4959.379811,-7105.977043,3447.429741
59270.404868,4663.297435,-9474.636058,2374.896044
59270.405178,0.000000,-9548.656652,0.000000
59270.405488,-74.020594,-14211.954086,2298.286494
59270.405797,-3923.091493,-11843.295072,-1915.238745
59270.406107,-2738.761985,-11843.295072,-76.609550
59270.406417,-1554.432478,-7698.141797,0.000000
59270.406727,1184.329507,-5477.523971,1685.410096
59270.407037,3330.926739,-4071.132681,2451.505594
59270.407346,1184.329507,-3627.009116,2451.505594
59270.407656,2368.659014,-8956.491898,3064.381992
59270.407966,-74.020594,-11843.295072,2374.896044
59270.408276,-7105.977043,-9548.656652,-3064.381992
59270.408586,-2738.761985,-13915.871710,-76.609550
59270.408895,-3627.009116,-9474.636058,-1302.362347
59270.409205,814.226536,-8290.306550,689.485948
59270.409515,2590.720797,-5847.626942,842.705048
59270.409825,3997.112087,-5107.421000,1685.410096
59270.410135,3923.091493,-8290.306550,1149.143247
59270.410444,0.000000,-9548.656652,0.000000
59270.410754,-4145.153275,-13397.727550,0.000000
59270.411064,-4071.132681,-15692.365970,-76.609550
59270.411374,-4811.338623,-10066.800811,-2834.553343
59270.411684,-592.164754,-9400.615463,1991.848295
59270.411993,3478.967927,-7105.977043,4213.525239
59270.412303,4737.318029,-3627.009116,4443.353888
59270.412613,6143.709319,-4737.318029,5132.839837
59270.412923,4441.235652,-7328.038826,4443.353888
59270.413233,518.144159,-9770.718434,1838.629195
59270.413542,-3923.091493,-11029.068536,-2068.457845
59270.413852,-7698.141797,-11325.150913,-2451.505594
59270.414162,-5921.647536,-11029.068536,-2451.505594
59270.414472,-2442.679609,-8882.471304,-1915.238745
59270.414782,0.000000,-5995.668130,0.000000
59270.415092,5255.462188,-9474.636058,4060.306139
59270.415401,2368.659014,-7920.203579,1225.752797
59270.415711,1406.391290,-11473.192101,2451.505594
59270.416021,-1776.494261,-12435.459826,689.485948
59270.416331,-3701.029710,-12583.501014,0.000000
59270.416641,-2442.679609,-10658.965565,-76.609550
59270.416950,-3404.947333,-5403.503377,0.000000
59270.417260,296.082377,-4811.338623,3677.258390
59270.417570,5847.626942,-4737.318029,4213.525239
59270.417880,1184.329507,-2590.720797,1225.752797
59270.418190,3256.906145,-9474.636058,6052.154434
59270.418499,-2368.659014,-9844.739029,0.000000
59270.418809,-4663.297435,-13471.748144,-306.438199
59270.419119,-5995.668130,-13619.789333,-1762.019645
59270.419429,-4811.338623,-10955.047942,-1991.848295
59270.419739,-74.020594,-8882.471304,-689.485948
59270.420048,1406.391290,-4959.379811,-383.047749
59270.420358,2368.659014,-4219.173869,0.000000
59270.420668,7031.956449,-9474.636058,4213.525239
59270.420978,0.000000,-9548.656652,612.876398
59270.421288,-1184.329507,-13101.645173,2451.505594
59270.421597,-4737.318029,-13249.686362,-1225.752797
59270.421907,-4071.132681,-12213.398043,-689.485948
59270.422217,-1850.514855,-8438.347739,459.657299
59270.422527,814.226536,-6291.750507,2068.457845
59270.422837,5847.626942,-6513.812290,4826.401637
59270.423146,5255.462188,-5329.482782,3447.429741
59270.423456,2590.720797,-5403.503377,153.219100
59270.423766,0.000000,-9844.739029,2451.505594
59270.424076,-2442.679609,-12435.459826,-383.047749
59270.424386,-7105.977043,-10732.986159,0.000000
59270.424695,-4737.318029,-10066.800811,-2528.115143
59270.425005,-2368.659014,-7920.203579,-1302.362347
59270.425315,962.267725,-6291.750507,0.000000
59270.425625,2960.823768,-5625.565159,1378.971896
59270.425935,4959.379811,-9474.636058,4213.525239
59270.426244,3478.967927,-11251.130318,2374.896044
59270.426554,-1628.453072,-11103.089130,-1915.238745
59270.426864,-2960.823768,-14285.974681,1225.752797
59270.427174,-3034.844362,-11843.295072,-689.485948
59270.427484,-4737.318029,-5995.668130,0.000000
59270.427793,1406.391290,-5921.647536,2068.457845
59270.428103,3034.844362,-3701.029710,2681.334243
59270.428413,4293.194464,-4441.235652,3294.210641
59270.428723,3404.947333,-7550.100608,3140.991542
59270.429033,296.082377,-11325.150913,2911.162892
59270.429342,-1998.556043,-13619.789333,-76.609550
59270.429652,-4811.338623,-11843.295072,-3140.991542
59270.429962,-4737.318029,-12509.480420,0.000000
59270.430272,-1258.350101,-8882.471304,-1302.362347
59270.430582,0.000000,-4811.338623,-2451.505594
59270.430892,4071.132681,-6513.812290,2068.457845
59270.431201,3849.070898,-7624.121203,1762.019645
59270.431511,2072.576638,-10955.047942,2068.457845
59270.431821,-1480.411884,-12879.583391,536.266849
59270.432131,-4737.318029,-13101.645173,306.438199
59270.432441,-3256.906145,-12805.562797,919.314598
59270.432750,-74.020594,-11251.130318,3600.648841
59270.433060,0.000000,-3701.029710,1149.143247
59270.433370,3552.988522,-3627.009116,3983.696590
59270.433680,5847.626942,-4145.153275,3600.648841
59270.433990,4663.297435,-7994.224174,4060.306139
59270.434299,0.000000,-10288.862594,2221.676944
59270.434609,-3701.029710,-12657.521608,0.000000
59270.434919,-5995.668130,-13249.686362,-2145.067394
59270.435228,-7105.977043,-10140.821405,-3064.381992
59270.435538,-3552.988522,-8660.409521,-1838.629195
59270.435848,0.000000,-5995.668130,0.000000
59270.436157,3997.112087,-6957.935855,2834.553343
59270.436467,3478.967927,-7105.977043,1762.019645
59270.436777,3182.885551,-10658.965565,2221.676944
59270.437087,-74.020594,-12435.459826,-76.609550
59270.437396,-4737.318029,-11917.315666,0.000000
59270.437706,-2738.761985,-12879.583391,1149.143247
59270.438016,-2146.597232,-8586.388927,383.047749
59270.438325,0.000000,-4811.338623,2451.505594
59270.438635,2664.741391,-5107.421000,3830.477490
59270.438945,5847.626942,-7698.141797,6052.154434
59270.439254,2294.638420,-6957.935855,1608.800546
59270.439564,0.000000,-10140.821405,1838.629195
59270.439874,-1258.350101,-13027.624579,-1302.362347
59270.440183,-4515.256246,-14063.912898,-1378.971896
59270.440493,-5181.441594,-11769.274478,-1991.848295
59270.440803,-2220.617826,-8660.409521,-1838.629195
59270.441112,592.164754,-6809.894666,76.609550
59270.441422,1184.329507,-3627.009116,306.438199
59270.441732,2960.823768,-6587.832884,1838.629195
59270.442042,4441.235652,-12361.439231,4749.792088
59270.442351,-1702.473667,-10807.006753,-766.095498
59270.442661,-3552.988522,-14434.015869,153.219100
59270.442971,-1258.350101,-13619.789333,-76.609550
59270.443280,-2294.638420,-9548.656652,612.876398
59270.443590,740.205942,-6365.771101,2604.724693
59270.443900,2664.741391,-3997.112087,3140.991542
59270.444209,4589.276840,-3849.070898,3370.820191
59270.444519,2516.700203,-4219.173869,2451.505594
59270.444829,148.041188,-8660.409521,1532.190996
59270.445138,-1332.370696,-13693.809927,2451.505594
59270.445448,-5995.668130,-12435.459826,-2834.553343
59270.445758,-5625.565159,-11917.315666,-2145.067394
59270.446067,-74.020594,-12731.542202,-76.609550
59270.446377,0.000000,-7179.997637,0.000000
59270.446687,2886.803174,-5847.626942,1762.019645
59270.446996,3849.070898,-6661.853478,2451.505594
59270.447306,3034.844362,-9770.718434,2374.896044
59270.447616,1110.308913,-11547.212695,229.828649
59270.447926,-3256.906145,-12213.398043,0.000000
59270.448235,-1924.535449,-14211.954086,2911.162892
59270.448545,-4219.173869,-7179.997637,-1378.971896
59270.448855,0.000000,-7031.956449,2451.505594
59270.449164,1628.453072,-2886.803174,2145.067394
59270.449474,3478.967927,-3997.112087,2681.334243
59270.449784,2368.659014,-6883.915261,2528.115143
59270.450093,148.041188,-9622.677246,1378.971896
59270.450403,-2960.823768,-12065.356855,-229.828649
59270.450713,-5329.482782,-14730.098246,995.924147
59270.451022,-4811.338623,-13027.624579,-76.609550
59270.451332,-4367.215058,-7254.018232,-3064.381992
59270.451642,888.247130,-7772.162391,1378.971896
59270.451951,4071.132681,-4737.318029,1149.143247
59270.452261,5773.606348,-5921.647536,2681.334243
59270.452571,2960.823768,-9548.656652,2451.505594
59270.452881,518.144159,-12139.377449,1149.143247
59270.453190,-3478.967927,-14211.954086,-536.266849
59270.453500,-4811.338623,-13767.830521,-842.705048
59270.453810,-4515.256246,-8734.430116,-1838.629195
59270.454119,-888.247130,-6291.750507,0.000000
59270.454429,4293.194464,-6587.832884,5209.449386
59270.454739,5847.626942,-4145.153275,3600.648841
59270.455048,3552.988522,-4811.338623,2451.505594
59270.455358,1480.411884,-8364.327145,3064.381992
59270.455668,-666.185348,-11769.274478,1149.143247
59270.455977,-4811.338623,-12805.562797,-1532.190996
59270.456287,-5921.647536,-12287.418637,-2604.724693
59270.456597,-4441.235652,-9622.677246,-2451.505594
59270.456906,-222.061783,-9178.553681,-76.609550
59270.457216,4071.132681,-8882.471304,2374.896044
59270.457526,2294.638420,-5329.482782,0.000000
59270.457835,2368.659014,-8956.491898,1838.629195
59270.458145,1406.391290,-13027.624579,-76.609550
59270.458455,-1850.514855,-13323.706956,-689.485948
59270.458765,-4441.235652,-12213.398043,0.000000
59270.459074,-2960.823768,-9622.677246,459.657299
59270.459384,-666.185348,-6809.894666,995.924147
59270.459694,1776.494261,-4071.132681,3907.087040
59270.460003,1776.494261,-2146.597232,1991.848295
59270.460313,0.000000,-3034.844362,612.876398
59270.460623,2294.638420,-10658.965565,2987.772442
59270.460932,-3627.009116,-10807.006753,-1455.581446
59270.461242,-4811.338623,-15396.283594,-76.609550
59270.461552,-7105.977043,-13397.727550,-919.314598
59270.461861,-3330.926739,-10288.862594,-1762.019645
59270.462171,222.061783,-7698.141797,-76.609550
59270.462481,2738.761985,-5699.585753,1225.752797
59270.462790,4737.318029,-4811.338623,919.314598
59270.463100,5033.400406,-9474.636058,3370.820191
59270.463410,3478.967927,-14211.954086,3600.648841
59270.463720,-3182.885551,-12213.398043,-995.924147
59270.464029,-4737.318029,-13397.727550,1149.143247
59270.464339,-2442.679609,-9474.636058,-2068.457845
59270.464649,-1850.514855,-5995.668130,0.000000
59270.464958,1480.411884,-4959.379811,2451.505594
59270.465268,3849.070898,-4293.194464,3064.381992
59270.465578,4219.173869,-5995.668130,3447.429741
59270.465887,3775.050304,-10140.821405,4749.792088
59270.466197,-2368.659014,-9548.656652,-76.609550
59270.466507,-7105.977043,-10732.986159,-2451.505594
59270.466816,-4219.173869,-14211.954086,-459.657299
59270.467126,-4737.318029,-7772.162391,-4749.792088
59270.467436,0.000000,-8364.327145,919.314598
59270.467745,2886.803174,-6809.894666,2604.724693
59270.468055,3923.091493,-5551.544565,2374.896044
59270.468365,3627.009116,-8142.265362,2145.067394
59270.468675,1480.411884,-11029.068536,1991.848295
59270.468984,-3627.009116,-11029.068536,-1532.190996
59270.469294,-3330.926739,-13989.892304,919.314598
59270.469604,-1258.350101,-12435.459826,-76.609550
59270.469913,-2294.638420,-6143.709319,0.000000
59270.470223,2368.659014,-6883.915261,5209.449386
59270.470533,2886.803174,-4293.194464,2528.115143
59270.470842,2294.638420,-4219.173869,2068.457845
59270.471152,1258.350101,-8882.471304,2298.286494
59270.471462,-1776.494261,-11029.068536,383.047749
59270.471771,-4885.359217,-12805.562797,-612.876398
59270.472081,-3849.070898,-14211.954086,-76.609550
59270.472391,-4219.173869,-9474.636058,-1915.238745
59270.472700,-3256.906145,-5995.668130,0.000000
59270.473010,2738.761985,-7105.977043,3217.601092
59270.473320,4663.297435,-4441.235652,-76.609550
59270.473629,3552.988522,-7550.100608,842.705048
59270.473939,2220.617826,-12435.459826,2374.896044
59270.474249,-1628.453072,-13545.768739,-76.609550
59270.474559,-3849.070898,-13767.830521,-306.438199
59270.474868,-3478.967927,-11621.233289,-383.047749
59270.475178,-3108.864956,-5403.503377,0.000000
59270.475488,1850.514855,-5699.585753,3217.601092
59270.475797,4663.297435,-4737.318029,3907.087040
59270.476107,3256.906145,-2442.679609,995.924147
59270.476417,4441.235652,-9104.533087,5515.887586
59270.476726,0.000000,-9548.656652,1838.629195
59270.477036,-4663.297435,-11177.109724,-1838.629195
59270.477346,-5107.421000,-12583.501014,-1991.848295
59270.477655,-4663.297435,-10732.986159,-2451.505594
59270.477965,-1702.473667,-8364.327145,-995.924147
59270.478275,3478.967927,-8290.306550,2374.896044
59270.478584,3108.864956,-5403.503377,536.266849
59270.478894,2368.659014,-7772.162391,1225.752797
59270.479204,3182.885551,-14211.954086,4826.401637
59270.479514,-3923.091493,-10732.986159,0.000000
59270.479823,-1554.432478,-14211.954086,-76.609550
59270.480133,-2146.597232,-11843.295072,995.924147
59270.480443,-1480.411884,-7179.997637,1302.362347
59270.480752,1184.329507,-4737.318029,2451.505594
59270.481062,3552.988522,-3404.947333,3217.601092
59270.481372,1776.494261,-2442.679609,2451.505594
59270.481681,2368.659014,-8364.327145,2451.505594
59270.481991,-74.020594,-11843.295072,1762.019645
59270.482301,-7105.977043,-10732.986159,0.000000
59270.482610,-4219.173869,-14211.954086,-689.485948
59270.482920,-6957.935855,-10436.903782,-1225.752797
59270.483230,-2664.741391,-6587.832884,-1532.190996
59270.483539,888.247130,-6069.688724,995.924147
59270.483849,3034.844362,-5181.441594,1532.190996
59270.484159,3478.967927,-7846.182985,2068.457845
59270.484468,4071.132681,-11843.295072,2987.772442
59270.484778,-2368.659014,-11917.315666,229.828649
59270.485088,-4219.173869,-13915.871710,-229.828649
59270.485398,-3627.009116,-11547.212695,76.609550
59270.485707,-1258.350101,-8142.265362,766.095498
59270.486017,592.164754,-4811.338623,2451.505594
59270.486327,3330.926739,-4589.276840,4826.401637
59270.486636,1998.556043,-2738.761985,1378.971896
59270.486946,3849.070898,-8660.409521,4596.572988
59270.487256,-74.020594,-11251.130318,1762.019645
59270.487565,-1258.350101,-14211.954086,-76.609550
59270.487875,-5921.647536,-13101.645173,-1838.629195
59270.488185,-4515.256246,-11325.150913,-1991.848295
59270.488494,-2072.576638,-8290.306550,-1072.533697
59270.488804,1036.288319,-5995.668130,459.657299
59270.489114,2368.659014,-4811.338623,1532.190996
59270.489423,3849.070898,-7179.997637,1838.629195
59270.489733,4663.297435,-11843.295072,2374.896044
59270.490043,-2960.823768,-10732.986159,0.000000
59270.490353,-3256.906145,-13397.727550,0.000000
59270.490662,-2442.679609,-12361.439231,-76.609550
59270.490972,-2368.659014,-8216.285956,0.000000
59270.491282,444.123565,-6143.709319,1991.848295
59270.491591,3552.988522,-4737.318029,4136.915689
59270.491901,3330.926739,-4811.338623,3217.601092
59270.492211,2368.659014,-7179.997637,1838.629195
59270.492520,-1036.288319,-10140.821405,2528.115143
59270.492830,-2442.679609,-11843.295072,-689.485948
59270.493140,-7105.977043,-10732.986159,-2451.505594
59270.493449,-3627.009116,-12361.439231,-306.438199
59270.493759,-74.020594,-8290.306550,-689.485948
59270.494069,1036.288319,-5921.647536,0.000000
59270.494378,2664.741391,-5403.503377,1225.752797
59270.494688,4663.297435,-8290.306550,1149.143247
59270.494998,0.000000,-10732.986159,1225.752797
59270.495308,-1406.391290,-12435.459826,0.000000
59270.495617,-3330.926739,-14804.118840,-459.657299
59270.495927,-4219.173869,-12435.459826,-536.266849
59270.496237,-1998.556043,-9030.512492,536.266849
59270.496546,740.205942,-6365.771101,2757.943793
59270.496856,2368.659014,-2442.679609,2451.505594
59270.497166,4737.318029,-3330.926739,3983.696590
59270.497475,2960.823768,-5403.503377,4903.011187
59270.497785,2886.803174,-10658.965565,3294.210641
59270.498095,-4145.153275,-10436.903782,0.000000
59270.498404,-6217.729913,-11917.315666,-1838.629195
59270.498714,-5847.626942,-10510.924376,-2757.943793
59270.499024,-2664.741391,-8808.450710,-1762.019645
59270.499333,148.041188,-7328.038826,153.219100
59270.499643,3478.967927,-5921.647536,842.705048
59270.499953,5847.626942,-9474.636058,3294.210641
59270.500262,1480.411884,-10140.821405,919.314598
59270.500572,-666.185348,-13397.727550,1455.581446
59270.500882,-3330.926739,-13471.748144,0.000000
59270.501192,-4219.173869,-11843.295072,0.000000
59270.501501,-4145.153275,-6883.915261,612.876398
59270.501811,0.000000,-5403.503377,3064.381992
