#time,accel_x,accel_y,accel_z
59545.339545,-370.102971,-9178.553681,689.485948
59545.339854,-370.102971,-8882.471304,1762.019645
59545.340164,-1480.411884,-7476.080014,-689.485948
59545.340474,-2368.659014,-7476.080014,0.000000
59545.340783,814.226536,-10288.862594,2374.896044
59545.341093,-2960.823768,-6587.832884,0.000000
59545.341402,1480.411884,-10584.944971,3064.381992
59545.341712,-1480.411884,-7179.997637,0.000000
59545.342022,0.000000,-9400.615463,1225.752797
59545.342331,-296.082377,-9104.533087,919.314598
59545.342641,-518.144159,-9030.512492,459.657299
59545.342950,-74.020594,-10658.965565,1762.019645
59545.343260,-518.144159,-7846.182985,-76.609550
59545.343570,-1776.494261,-7772.162391,0.000000
59545.343879,0.000000,-9252.574275,1838.629195
59545.344189,-74.020594,-9474.636058,-76.609550
59545.344499,-2368.659014,-7772.162391,0.000000
59545.344808,2294.638420,-10658.965565,689.485948
59545.345118,2294.638420,-11251.130318,-76.609550
59545.345427,-740.205942,-8364.327145,459.657299
59545.345737,-666.185348,-8882.471304,689.485948
59545.346047,-296.082377,-8808.450710,0.000000
59545.346356,1406.391290,-10362.883188,2604.724693
59545.346666,1702.473667,-10658.965565,2374.896044
59545.346976,-1776.494261,-8068.244768,0.000000
59545.347285,518.144159,-11843.295072,3294.210641
59545.347595,-1998.556043,-7179.997637,0.000000
59545.347904,0.000000,-10658.965565,2987.772442
59545.348214,-370.102971,-9178.553681,1072.533697
59545.348524,-296.082377,-8808.450710,842.705048
59545.348833,-296.082377,-9252.574275,1149.143247
59545.349143,-370.102971,-8660.409521,0.000000
59545.349453,0.000000,-9548.656652,0.000000
59545.349762,888.247130,-10510.924376,2221.676944
59545.350072,-74.020594,-8882.471304,-76.609550
59545.350381,0.000000,-7772.162391,1225.752797
59545.350691,-74.020594,-9474.636058,-76.609550
59545.351001,-1184.329507,-9548.656652,2145.067394
59545.351310,-74.020594,-9326.594869,995.924147
59545.351620,-592.164754,-8882.471304,383.047749
59545.351930,-222.061783,-9326.594869,919.314598
59545.352239,-296.082377,-7772.162391,0.000000
59545.352549,0.000000,-8364.327145,0.000000
59545.352858,0.000000,-8660.409521,1225.752797
59545.353168,-74.020594,-9474.636058,1149.143247
59545.353478,-3552.988522,-7179.997637,0.000000
59545.353787,1702.473667,-10658.965565,2374.896044
59545.354097,-1702.473667,-8364.327145,1225.752797
59545.354407,-74.020594,-9474.636058,1149.143247
59545.354716,-148.041188,-9178.553681,689.485948
59545.355026,-518.144159,-8956.491898,612.876398
59545.355335,-444.123565,-8734.430116,-76.609550
59545.355645,-1776.494261,-7772.162391,-1608.800546
59545.355955,-1776.494261,-7772.162391,0.000000
59545.356264,-74.020594,-9474.636058,1455.581446
59545.356574,296.082377,-10140.821405,2604.724693
59545.356883,-666.185348,-7994.224174,1149.143247
59545.357193,-1184.329507,-7772.162391,0.000000
59545.357503,148.041188,-9252.574275,1149.143247
59545.357812,-222.061783,-9030.512492,766.095498
59545.358122,-148.041188,-8956.491898,919.314598
59545.358432,-74.020594,-9474.636058,1149.143247
59545.358741,-1406.391290,-7476.080014,-76.609550
59545.359051,-2368.659014,-7179.997637,0.000000
59545.359360,148.041188,-9992.780217,3370.820191
59545.359670,-1850.514855,-7179.997637,-1072.533697
59545.359980,0.000000,-9844.739029,1838.629195
59545.360289,-1184.329507,-7254.018232,0.000000
59545.360599,-592.164754,-8956.491898,612.876398
59545.360909,-370.102971,-9030.512492,842.705048
59545.361218,-592.164754,-8956.491898,766.095498
59545.361528,-74.020594,-10066.800811,2068.457845
59545.361837,-666.185348,-8290.306550,1762.019645
59545.362147,-1258.350101,-8142.265362,-383.047749
59545.362457,444.123565,-10066.800811,2374.896044
59545.362766,-2960.823768,-5995.668130,0.000000
59545.363076,296.082377,-9548.656652,1225.752797
59545.363386,-74.020594,-8290.306550,-689.485948
59545.363695,0.000000,-8956.491898,842.705048
59545.364005,888.247130,-8512.368333,1378.971896
59545.364314,740.205942,-8808.450710,1149.143247
59545.364624,2294.638420,-10288.862594,2987.772442
59545.364934,1702.473667,-9474.636058,2374.896044
59545.365243,2886.803174,-9474.636058,1149.143247
59545.365553,592.164754,-7772.162391,0.000000
59545.365863,4663.297435,-11843.295072,3294.210641
59545.366172,1924.535449,-7476.080014,0.000000
59545.366482,3478.967927,-9474.636058,-76.609550
59545.366791,2516.700203,-9104.533087,766.095498
59545.367101,2368.659014,-9326.594869,306.438199
59545.367411,2664.741391,-9474.636058,383.047749
59545.367720,3552.988522,-9252.574275,2451.505594
59545.368030,5551.544565,-11251.130318,2681.334243
59545.368339,5847.626942,-9474.636058,1762.019645
59545.368649,3701.029710,-7179.997637,0.000000
59545.368959,8216.285956,-10658.965565,2374.896044
59545.369268,4737.318029,-5995.668130,0.000000
59545.369578,7031.956449,-9474.636058,2068.457845
59545.369888,5329.482782,-8364.327145,459.657299
59545.370197,5699.585753,-8882.471304,0.000000
59545.370507,5995.668130,-9104.533087,153.219100
59545.370816,4737.318029,-8364.327145,0.000000
59545.371126,7624.121203,-11029.068536,1225.752797
59545.371436,7031.956449,-12731.542202,-76.609550
59545.371745,2368.659014,-11325.150913,0.000000
59545.372055,4663.297435,-14211.954086,-76.609550
59545.372365,888.247130,-10955.047942,459.657299
59545.372674,4663.297435,-11843.295072,1762.019645
59545.372984,3182.885551,-8068.244768,995.924147
59545.373293,3923.091493,-6513.812290,1762.019645
59545.373603,5107.421000,-4663.297435,2451.505594
59545.373913,5329.482782,-2442.679609,306.438199
59545.374222,8290.306550,-3627.009116,3064.381992
59545.374532,9622.677246,-6661.853478,3524.039291
59545.374842,7328.038826,-7624.121203,0.000000
59545.375151,5625.565159,-14211.954086,2298.286494
59545.375461,-814.226536,-15988.448347,-2528.115143
59545.375770,-1776.494261,-16136.489536,-2145.067394
59545.376080,-3997.112087,-16506.592507,-2528.115143
59545.376390,-2960.823768,-10732.986159,-2604.724693
59545.376699,-2368.659014,-8142.265362,-842.705048
59545.377009,0.000000,-3701.029710,229.828649
59545.377319,2368.659014,-2442.679609,2451.505594
59545.377628,4737.318029,-4811.338623,4903.011187
59545.377938,4663.297435,-4737.318029,4213.525239
59545.378247,0.000000,-3034.844362,3064.381992
59545.378557,4663.297435,-7105.977043,4826.401637
59545.378867,2960.823768,-3627.009116,2451.505594
59545.379176,3701.029710,-4737.318029,842.705048
59545.379486,962.267725,-8660.409521,-995.924147
59545.379796,-2294.638420,-14359.995275,-2681.334243
59545.380105,-4811.338623,-18949.272115,-3753.867940
59545.380415,-8364.327145,-16062.468941,-6128.763984
59545.380724,-7105.977043,-14285.974681,-4290.134789
59545.381034,-666.185348,-9474.636058,-76.609550
59545.381344,0.000000,-3627.009116,0.000000
59545.381653,5847.626942,-5921.647536,6052.154434
59545.381963,2960.823768,-3034.844362,3677.258390
59545.382272,6069.688724,-5403.503377,5975.544884
59545.382582,7920.203579,-4219.173869,5898.935335
59545.382892,9030.512492,-3478.967927,6128.763984
59545.383201,8216.285956,-4737.318029,4826.401637
59545.383511,2294.638420,-7105.977043,536.266849
59545.383821,-1702.473667,-12509.480420,-2451.505594
59545.384130,-2368.659014,-14285.974681,-3064.381992
59545.384440,-74.020594,-18357.107362,-2834.553343
59545.384749,-4737.318029,-12509.480420,-4290.134789
59545.385059,-5921.647536,-12657.521608,-4290.134789
59545.385369,-2368.659014,-9844.739029,-2451.505594
59545.385678,2294.638420,-8438.347739,1225.752797
59545.385988,10066.800811,-2738.761985,4903.011187
59545.386298,14137.933492,-4145.153275,8503.660028
59545.386607,13545.768739,-3552.988522,7277.907231
59545.386917,9696.697840,-5773.606348,4826.401637
59545.387226,7105.977043,-9548.656652,6128.763984
59545.387536,2886.803174,-7698.141797,-842.705048
59545.387846,-4737.318029,-9548.656652,-3677.258390
59545.388155,-4219.173869,-13175.665768,-5286.058936
59545.388465,-1776.494261,-15174.221811,-3907.087040
59545.388775,3775.050304,-12953.603985,-1762.019645
59545.389084,4959.379811,-10510.924376,995.924147
59545.389394,4071.132681,-13027.624579,2987.772442
59545.389703,4663.297435,-11843.295072,-76.609550
59545.390013,7031.956449,-7846.182985,3294.210641
59545.390323,5921.647536,-2442.679609,4903.011187
59545.390632,7031.956449,-6513.812290,3600.648841
59545.390942,592.164754,-3627.009116,0.000000
59545.391252,6291.750507,-8290.306550,1149.143247
59545.391561,6365.771101,-10140.821405,2604.724693
59545.391871,2368.659014,-11177.109724,1532.190996
59545.392180,-1480.411884,-12065.356855,-1762.019645
59545.392490,-2072.576638,-12213.398043,-1838.629195
59545.392800,-74.020594,-11843.295072,-995.924147
59545.393109,-74.020594,-10066.800811,-76.609550
59545.393419,518.144159,-5107.421000,-1608.800546
59545.393728,7105.977043,-5995.668130,3064.381992
59545.394038,7624.121203,-3552.988522,1149.143247
59545.394348,6143.709319,-8290.306550,3907.087040
59545.394657,2368.659014,-6957.935855,2451.505594
59545.394967,1776.494261,-7105.977043,842.705048
59545.395277,2812.782580,-7994.224174,0.000000
59545.395586,592.164754,-9548.656652,1225.752797
59545.395896,888.247130,-12213.398043,1838.629195
59545.396205,444.123565,-13619.789333,-76.609550
59545.396515,-666.185348,-13027.624579,-3753.867940
59545.396825,-4737.318029,-11917.315666,-1838.629195
59545.397134,-74.020594,-9474.636058,-76.609550
59545.397444,4663.297435,-8290.306550,3294.210641
59545.397754,5847.626942,-6439.791695,4136.915689
59545.398063,5921.647536,-5625.565159,4673.182538
59545.398373,6143.709319,-5625.565159,4136.915689
59545.398682,592.164754,-4811.338623,1225.752797
59545.398992,592.164754,-8956.491898,1225.752797
59545.399302,2294.638420,-11103.089130,1762.019645
59545.399611,0.000000,-8364.327145,-1838.629195
59545.399921,296.082377,-11769.274478,919.314598
59545.400231,-74.020594,-13027.624579,-1302.362347
59545.400540,-296.082377,-12509.480420,-612.876398
59545.400850,888.247130,-10510.924376,-76.609550
59545.401159,3701.029710,-7920.203579,1532.190996
59545.401469,5847.626942,-7179.997637,2757.943793
59545.401779,4145.153275,-5995.668130,612.876398
59545.402088,4737.318029,-5995.668130,2451.505594
59545.402398,3997.112087,-9548.656652,3064.381992
59545.402708,2886.803174,-7994.224174,-383.047749
59545.403017,1184.329507,-10140.821405,612.876398
59545.403327,3478.967927,-14211.954086,2374.896044
59545.403636,-1628.453072,-10732.986159,0.000000
59545.403946,-1036.288319,-11029.068536,-536.266849
59545.404256,814.226536,-9178.553681,0.000000
59545.404565,3775.050304,-6069.688724,995.924147
59545.404875,4663.297435,-6217.729913,0.000000
59545.405185,2960.823768,-5403.503377,766.095498
59545.405494,4737.318029,-7179.997637,2451.505594
59545.405804,5847.626942,-9474.636058,-76.609550
59545.406113,4737.318029,-8956.491898,766.095498
59545.406423,7031.956449,-11843.295072,2987.772442
59545.406733,1184.329507,-11029.068536,0.000000
59545.407042,1406.391290,-11399.171507,-1455.581446
59545.407352,1480.411884,-12805.562797,-383.047749
59545.407662,3256.906145,-10807.006753,306.438199
59545.407971,3478.967927,-10658.965565,-76.609550
59545.408281,1850.514855,-7179.997637,0.000000
59545.408591,1776.494261,-7179.997637,1225.752797
59545.408900,7031.956449,-7105.977043,2374.896044
59545.409210,6513.812290,-5107.421000,3983.696590
59545.409520,5329.482782,-7179.997637,4903.011187
59545.409830,2812.782580,-6809.894666,0.000000
59545.410139,0.000000,-9548.656652,0.000000
59545.410449,2886.803174,-11251.130318,-76.609550
59545.410759,1628.453072,-12213.398043,-612.876398
59545.411068,1110.308913,-10658.965565,-2528.115143
59545.411378,0.000000,-10732.986159,-2451.505594
59545.411688,1480.411884,-11029.068536,0.000000
59545.411997,8216.285956,-11843.295072,2374.896044
59545.412307,1184.329507,-9548.656652,1225.752797
59545.412617,4663.297435,-9252.574275,4213.525239
59545.412926,1184.329507,-8068.244768,1532.190996
59545.413236,5477.523971,-5403.503377,2834.553343
59545.413546,5107.421000,-6069.688724,2528.115143
59545.413856,3108.864956,-5995.668130,1991.848295
59545.414165,2294.638420,-9474.636058,-689.485948
59545.414475,1702.473667,-9770.718434,-919.314598
59545.414785,1184.329507,-9548.656652,0.000000
59545.415094,2220.617826,-14211.954086,2681.334243
59545.415404,-2812.782580,-8956.491898,-2757.943793
59545.415714,0.000000,-11917.315666,2451.505594
59545.416023,3108.864956,-6587.832884,689.485948
59545.416333,3997.112087,-8956.491898,3370.820191
59545.416643,3997.112087,-6069.688724,1915.238745
59545.416953,3182.885551,-9252.574275,1685.410096
59545.417262,7031.956449,-9474.636058,2987.772442
59545.417572,2294.638420,-9474.636058,842.705048
59545.417882,-2220.617826,-7179.997637,-2451.505594
59545.418191,1110.308913,-11843.295072,1149.143247
59545.418501,0.000000,-8438.347739,-1838.629195
59545.418811,592.164754,-9548.656652,2451.505594
59545.419120,0.000000,-9548.656652,612.876398
59545.419430,1554.432478,-10288.862594,1685.410096
59545.419740,2294.638420,-9770.718434,1455.581446
59545.420050,444.123565,-9844.739029,1532.190996
59545.420359,-370.102971,-9474.636058,2374.896044
59545.420669,-3034.844362,-7105.977043,-842.705048
59545.420979,-3404.947333,-5995.668130,-4290.134789
59545.421288,-74.020594,-9474.636058,-76.609550
59545.421598,-3256.906145,-6587.832884,0.000000
59545.421908,-2368.659014,-7772.162391,306.438199
59545.422217,-1702.473667,-8882.471304,-612.876398
59545.422527,-1258.350101,-10881.027347,536.266849
59545.422837,-1702.473667,-10807.006753,229.828649
59545.423147,-1850.514855,-9252.574275,766.095498
59545.423456,-74.020594,-11251.130318,3294.210641
59545.423766,-74.020594,-9474.636058,1762.019645
59545.424076,-1036.288319,-8364.327145,0.000000
59545.424385,1776.494261,-11177.109724,4443.353888
59545.424695,-1258.350101,-8290.306550,842.705048
59545.425005,-8882.471304,-4811.338623,-2451.505594
59545.425314,-6587.832884,-10658.965565,-689.485948
59545.425624,-2368.659014,-4885.359217,459.657299
59545.425934,-1480.411884,-9622.677246,3064.381992
59545.426244,148.041188,-5699.585753,1608.800546
59545.426553,-1776.494261,-12139.377449,3983.696590
59545.426863,-74.020594,-9474.636058,2374.896044
59545.427173,-666.185348,-13027.624579,-76.609550
59545.427482,-5921.647536,-7772.162391,0.000000
59545.427792,-4811.338623,-9474.636058,-1915.238745
59545.428102,-5921.647536,-5995.668130,-3064.381992
59545.428411,814.226536,-9178.553681,536.266849
59545.428721,0.000000,-8142.265362,1838.629195
59545.429031,148.041188,-8956.491898,1608.800546
59545.429340,2220.617826,-8586.388927,1838.629195
59545.429650,592.164754,-7476.080014,3677.258390
59545.429960,-1258.350101,-11399.171507,2145.067394
59545.430270,-2442.679609,-8882.471304,-689.485948
59545.430579,0.000000,-8364.327145,0.000000
59545.430889,2886.803174,-10658.965565,2374.896044
59545.431199,0.000000,-6587.832884,0.000000
59545.431508,3330.926739,-11251.130318,2987.772442
59545.431818,2812.782580,-8734.430116,2068.457845
59545.432128,0.000000,-10436.903782,1302.362347
59545.432437,-2146.597232,-9770.718434,-153.219100
59545.432747,-4737.318029,-8364.327145,0.000000
59545.433057,592.164754,-7476.080014,306.438199
59545.433367,3478.967927,-8290.306550,-76.609550
59545.433676,1184.329507,-5995.668130,1225.752797
59545.433986,5847.626942,-9474.636058,2987.772442
59545.434296,3478.967927,-8586.388927,-76.609550
59545.434605,1702.473667,-11695.253884,459.657299
59545.434915,-1776.494261,-11991.336260,-229.828649
59545.435225,-888.247130,-10362.883188,-612.876398
59545.435534,666.185348,-9400.615463,383.047749
59545.435844,0.000000,-5995.668130,0.000000
59545.436154,2368.659014,-8956.491898,2451.505594
59545.436464,7031.956449,-10658.965565,6052.154434
59545.436773,1258.350101,-5995.668130,0.000000
59545.437083,1702.473667,-9992.780217,2374.896044
59545.437393,-74.020594,-9474.636058,-76.609550
59545.437702,-1036.288319,-8660.409521,0.000000
59545.438012,-740.205942,-8808.450710,-229.828649
59545.438322,-444.123565,-8956.491898,153.219100
59545.438631,1036.288319,-10140.821405,459.657299
59545.438941,592.164754,-7179.997637,306.438199
59545.439251,0.000000,-9548.656652,1225.752797
59545.439561,-2960.823768,-11917.315666,2451.505594
59545.439870,-5699.585753,-8512.368333,-2451.505594
59545.440180,-2294.638420,-10066.800811,-76.609550
59545.440490,-74.020594,-9474.636058,-76.609550
59545.440799,-1184.329507,-7179.997637,1225.752797
59545.441109,1036.288319,-8068.244768,2451.505594
59545.441419,3034.844362,-6809.894666,2528.115143
59545.441728,296.082377,-8512.368333,2528.115143
59545.442038,-4811.338623,-7328.038826,-1838.629195
59545.442348,-6365.771101,-9548.656652,-1225.752797
59545.442657,-2368.659014,-10140.821405,1838.629195
59545.442967,-3923.091493,-9178.553681,-1455.581446
59545.443277,-2368.659014,-10288.862594,1225.752797
59545.443587,2294.638420,-13619.789333,4826.401637
59545.443896,2368.659014,-8364.327145,3064.381992
59545.444206,814.226536,-9474.636058,3370.820191
59545.444516,-4071.132681,-8068.244768,842.705048
59545.444825,-4959.379811,-8660.409521,306.438199
59545.445135,-1850.514855,-5921.647536,-1838.629195
59545.445445,-3256.906145,-7772.162391,153.219100
59545.445754,-2368.659014,-8364.327145,1225.752797
59545.446064,3478.967927,-9474.636058,2374.896044
59545.446374,1776.494261,-7179.997637,1225.752797
59545.446684,0.000000,-7179.997637,0.000000
59545.446993,-3182.885551,-11547.212695,-76.609550
59545.447303,-3552.988522,-10214.842000,-919.314598
59545.447613,-1258.350101,-9844.739029,-153.219100
59545.447922,222.061783,-8512.368333,995.924147
59545.448232,592.164754,-10658.965565,2987.772442
59545.448542,3478.967927,-7994.224174,3600.648841
59545.448851,4071.132681,-7698.141797,-76.609550
59545.449161,0.000000,-7179.997637,1225.752797
59545.449471,-74.020594,-9474.636058,1762.019645
59545.449781,-74.020594,-8290.306550,1149.143247
59545.450090,-2368.659014,-8438.347739,-842.705048
59545.450400,-1628.453072,-9474.636058,-383.047749
59545.450710,1036.288319,-9474.636058,842.705048
59545.451019,6291.750507,-7920.203579,3524.039291
59545.451329,4145.153275,-7179.997637,1838.629195
59545.451639,-1406.391290,-7179.997637,-2451.505594
59545.451948,-4145.153275,-11917.315666,612.876398
59545.452258,-74.020594,-9474.636058,-76.609550
59545.452568,-2368.659014,-8956.491898,0.000000
59545.452878,-1184.329507,-7772.162391,0.000000
59545.453187,518.144159,-9770.718434,-76.609550
59545.453497,4441.235652,-6735.874072,1225.752797
59545.453807,3182.885551,-9622.677246,2604.724693
59545.454116,-740.205942,-9104.533087,612.876398
59545.454426,-2368.659014,-11695.253884,-306.438199
59545.454736,-1258.350101,-13027.624579,-76.609550
59545.455045,-3552.988522,-8364.327145,-2451.505594
59545.455355,-74.020594,-12435.459826,1608.800546
59545.455665,0.000000,-8660.409521,0.000000
59545.455974,4663.297435,-9252.574275,842.705048
59545.456284,2664.741391,-7476.080014,3064.381992
59545.456594,0.000000,-8142.265362,2757.943793
59545.456904,-2072.576638,-7624.121203,1455.581446
59545.457213,-2886.803174,-7846.182985,-76.609550
59545.457523,-4145.153275,-7476.080014,-1685.410096
59545.457833,-5921.647536,-6587.832884,-2451.505594
59545.458142,1776.494261,-11029.068536,2987.772442
59545.458452,2590.720797,-7402.059420,1149.143247
59545.458762,1184.329507,-10732.986159,4290.134789
59545.459071,-1776.494261,-12731.542202,3907.087040
59545.459381,-2516.700203,-8882.471304,1149.143247
59545.459691,-3256.906145,-9474.636058,0.000000
59545.460001,-2442.679609,-8882.471304,-76.609550
59545.460310,-1110.308913,-8956.491898,0.000000
59545.460620,3478.967927,-8882.471304,4213.525239
59545.460930,4663.297435,-8882.471304,3600.648841
59545.461239,-2368.659014,-5403.503377,153.219100
59545.461549,-2664.741391,-9548.656652,1225.752797
59545.461859,-74.020594,-9474.636058,-76.609550
59545.462168,-4145.153275,-8364.327145,-2451.505594
59545.462478,-2146.597232,-9548.656652,153.219100
59545.462788,1480.411884,-10140.821405,1685.410096
59545.463098,4515.256246,-8956.491898,2911.162892
59545.463407,3478.967927,-10362.883188,4213.525239
59545.463717,-1184.329507,-9548.656652,612.876398
59545.464027,-3552.988522,-9548.656652,1225.752797
59545.464336,-370.102971,-9178.553681,-76.609550
59545.464646,-3552.988522,-8660.409521,766.095498
59545.464956,-666.185348,-8290.306550,-689.485948
59545.465265,1110.308913,-9474.636058,1762.019645
59545.465575,2886.803174,-7994.224174,1149.143247
59545.465885,2368.659014,-8808.450710,1762.019645
59545.466195,-296.082377,-8734.430116,919.314598
59545.466504,-2368.659014,-9548.656652,0.000000
59545.466814,-74.020594,-10658.965565,-76.609550
59545.467124,-1258.350101,-11843.295072,-383.047749
59545.467433,-3552.988522,-9548.656652,-1838.629195
59545.467743,2590.720797,-13027.624579,3600.648841
59545.468053,3627.009116,-7179.997637,2221.676944
59545.468362,592.164754,-6587.832884,1532.190996
59545.468672,962.267725,-8808.450710,2451.505594
59545.468982,0.000000,-9030.512492,1455.581446
59545.469292,-888.247130,-8142.265362,612.876398
59545.469601,-1258.350101,-10658.965565,-76.609550
59545.469911,-4737.318029,-8068.244768,-2451.505594
59545.470221,0.000000,-9844.739029,919.314598
59545.470530,2886.803174,-8882.471304,1072.533697
59545.470840,3552.988522,-9696.697840,4903.011187
59545.471150,3182.885551,-9474.636058,1149.143247
59545.471459,1702.473667,-9178.553681,1762.019645
59545.471769,-1702.473667,-9548.656652,0.000000
59545.472079,-2368.659014,-8808.450710,-995.924147
59545.472388,-3182.885551,-10214.842000,-919.314598
59545.472698,0.000000,-7179.997637,0.000000
59545.473008,3182.885551,-10658.965565,2068.457845
59545.473318,2294.638420,-8290.306550,995.924147
59545.473627,0.000000,-9548.656652,2451.505594
59545.473937,2294.638420,-8290.306550,-76.609550
59545.474247,-2368.659014,-8364.327145,1225.752797
59545.474556,-3552.988522,-9548.656652,0.000000
59545.474866,-1036.288319,-11029.068536,689.485948
59545.475176,1998.556043,-9474.636058,1302.362347
59545.475485,2368.659014,-9326.594869,1762.019645
59545.475795,2294.638420,-9474.636058,-76.609550
59545.476105,-2368.659014,-9548.656652,0.000000
59545.476415,-740.205942,-8660.409521,1838.629195
59545.476724,-2738.761985,-7476.080014,-1608.800546
59545.477034,-2664.741391,-10881.027347,1838.629195
59545.477344,-4515.256246,-7846.182985,-3370.820191
59545.477653,814.226536,-8290.306550,1149.143247
59545.477963,1628.453072,-7402.059420,2451.505594
59545.478273,1332.370696,-6661.853478,2604.724693
59545.478582,-296.082377,-8364.327145,1762.019645
59545.478892,-2072.576638,-8364.327145,2451.505594
59545.479202,-2442.679609,-11251.130318,-76.609550
59545.479512,-5181.441594,-10140.821405,-1455.581446
59545.479821,-1258.350101,-12435.459826,-76.609550
59545.480131,0.000000,-7179.997637,0.000000
59545.480441,1184.329507,-10658.965565,3600.648841
59545.480750,-2368.659014,-7920.203579,1225.752797
59545.481060,-1554.432478,-9992.780217,2298.286494
59545.481370,888.247130,-5995.668130,1225.752797
59545.481679,-2294.638420,-10658.965565,1915.238745
59545.481989,-2442.679609,-6217.729913,-1915.238745
59545.482299,-1554.432478,-10510.924376,1608.800546
59545.482609,3923.091493,-7105.977043,2451.505594
59545.482918,1776.494261,-8142.265362,2757.943793
59545.483228,-1258.350101,-9474.636058,842.705048
59545.483538,-74.020594,-10362.883188,1762.019645
59545.483847,-370.102971,-10214.842000,842.705048
59545.484157,-4737.318029,-7179.997637,0.000000
59545.484467,-3034.844362,-13619.789333,-76.609550
59545.484776,-1850.514855,-8068.244768,-2298.286494
59545.485086,3478.967927,-10066.800811,842.705048
59545.485396,2886.803174,-7328.038826,2451.505594
59545.485705,666.185348,-9474.636058,2374.896044
59545.486015,1850.514855,-6735.874072,2145.067394
59545.486325,1628.453072,-9400.615463,1838.629195
59545.486635,666.185348,-8956.491898,2451.505594
59545.486944,-962.267725,-9474.636058,2374.896044
59545.487254,2294.638420,-9474.636058,-76.609550
59545.487564,0.000000,-8364.327145,0.000000
59545.487873,2294.638420,-10658.965565,1915.238745
59545.488183,-74.020594,-9474.636058,-689.485948
59545.488493,-2368.659014,-8512.368333,0.000000
59545.488802,-1184.329507,-10140.821405,0.000000
59545.489112,-74.020594,-11843.295072,-76.609550
59545.489422,-2368.659014,-8364.327145,0.000000
59545.489732,1110.308913,-7254.018232,0.000000
59545.490041,2294.638420,-8734.430116,1455.581446
59545.490351,370.102971,-7920.203579,306.438199
59545.490661,-370.102971,-9548.656652,919.314598
59545.490970,148.041188,-8660.409521,766.095498
59545.491280,-2072.576638,-9992.780217,1532.190996
59545.491590,-2146.597232,-9474.636058,-536.266849
59545.491899,-1998.556043,-10436.903782,-229.828649
59545.492209,444.123565,-8586.388927,689.485948
59545.492519,1036.288319,-9104.533087,2068.457845
59545.492829,74.020594,-6809.894666,0.000000
59545.493138,0.000000,-8364.327145,1225.752797
59545.493448,-74.020594,-9474.636058,-76.609550
59545.493758,-4145.153275,-7772.162391,0.000000
59545.494067,-1480.411884,-10658.965565,842.705048
59545.494377,-2368.659014,-8660.409521,612.876398
59545.494687,1702.473667,-9178.553681,1149.143247
59545.494996,592.164754,-8808.450710,1608.800546
59545.495306,-592.164754,-8956.491898,1532.190996
59545.495616,-444.123565,-8808.450710,1455.581446
59545.495926,-74.020594,-8586.388927,76.609550
59545.496235,-2368.659014,-7179.997637,0.000000
59545.496545,-2072.576638,-11029.068536,2451.505594
59545.496855,-74.020594,-8882.471304,-76.609550
59545.497164,0.000000,-9548.656652,1225.752797
59545.497474,0.000000,-7476.080014,1838.629195
59545.497784,-222.061783,-8586.388927,1608.800546
59545.498093,296.082377,-7254.018232,919.314598
59545.498403,222.061783,-8290.306550,842.705048
59545.498713,-1924.535449,-9622.677246,229.828649
59545.499022,-1258.350101,-10658.965565,-76.609550
59545.499332,-1702.473667,-9474.636058,-689.485948
59545.499642,1184.329507,-9844.739029,2451.505594
59545.499952,2294.638420,-8290.306550,1149.143247
59545.500261,0.000000,-8364.327145,1302.362347
59545.500571,0.000000,-5995.668130,0.000000
59545.500881,222.061783,-9770.718434,842.705048
59545.501190,-962.267725,-8586.388927,-459.657299
59545.501500,-1776.494261,-10510.924376,229.828649
59545.501810,0.000000,-8808.450710,-153.219100
59545.502119,-74.020594,-11103.089130,-76.609550
59545.502429,-74.020594,-8364.327145,-2451.505594
59545.502739,3182.885551,-11843.295072,4213.525239
59545.503049,1184.329507,-5995.668130,536.266849
59545.503358,888.247130,-8808.450710,2145.067394
59545.503668,-3256.906145,-7772.162391,-1685.410096
59545.503978,-1776.494261,-11547.212695,0.000000
59545.504287,518.144159,-10732.986159,0.000000
59545.504597,0.000000,-9918.759623,689.485948
59545.504907,-592.164754,-9178.553681,383.047749
59545.505216,2294.638420,-9474.636058,2374.896044
59545.505526,1184.329507,-6291.750507,0.000000
59545.505836,-74.020594,-10214.842000,3370.820191
59545.506146,-2442.679609,-8882.471304,-76.609550
59545.506455,-2368.659014,-8660.409521,0.000000
59545.506765,0.000000,-8142.265362,0.000000
59545.507075,74.020594,-8882.471304,1072.533697
59545.507385,-1184.329507,-8290.306550,229.828649
59545.507694,592.164754,-8216.285956,1072.533697
59545.508004,1702.473667,-8290.306550,1608.800546
59545.508314,1258.350101,-9474.636058,2374.896044
59545.508623,-1850.514855,-11251.130318,-76.609550
59545.508933,-3552.988522,-8364.327145,0.000000
59545.509243,1110.308913,-12287.418637,1762.019645
59545.509553,-1258.350101,-8512.368333,766.095498
59545.509862,518.144159,-7105.977043,0.000000
59545.510172,2294.638420,-5329.482782,0.000000
59545.510482,3330.926739,-7179.997637,2528.115143
59545.510792,666.185348,-8512.368333,1762.019645
59545.511101,-2442.679609,-11473.192101,842.705048
59545.511411,-740.205942,-11843.295072,919.314598
59545.511721,-666.185348,-11843.295072,-76.609550
59545.512031,-2368.659014,-9548.656652,612.876398
59545.512340,-74.020594,-9474.636058,-76.609550
59545.512650,0.000000,-6587.832884,612.876398
59545.512960,2886.803174,-8882.471304,842.705048
59545.513270,-740.205942,-8956.491898,1225.752797
59545.513579,-2220.617826,-10658.965565,842.705048
59545.513889,-1480.411884,-9400.615463,1072.533697
59545.514199,-1480.411884,-9252.574275,2298.286494
59545.514509,-2960.823768,-8364.327145,1225.752797
59545.514818,-148.041188,-9474.636058,2374.896044
59545.515128,0.000000,-5403.503377,1225.752797
59545.515438,2294.638420,-9474.636058,2374.896044
59545.515747,-2442.679609,-9104.533087,0.000000
59545.516057,-1998.556043,-11103.089130,-76.609550
59545.516367,-1036.288319,-9548.656652,0.000000
59545.516677,-666.185348,-9252.574275,1225.752797
59545.516986,-1332.370696,-8882.471304,766.095498
59545.517296,-296.082377,-8586.388927,1532.190996
59545.517606,0.000000,-7179.997637,1225.752797
59545.517916,2294.638420,-10658.965565,4213.525239
59545.518225,-2442.679609,-8142.265362,-689.485948
59545.518535,-1184.329507,-9548.656652,1685.410096
59545.518845,1110.308913,-9474.636058,842.705048
59545.519155,-222.061783,-9178.553681,-76.609550
59545.519464,-2072.576638,-9252.574275,76.609550
59545.519774,888.247130,-7846.182985,1225.752797
59545.520084,2812.782580,-7624.121203,1149.143247
59545.520394,1258.350101,-8068.244768,1532.190996
59545.520703,-2960.823768,-9548.656652,1225.752797
59545.521013,0.000000,-10732.986159,2451.505594
59545.521323,1702.473667,-10658.965565,-76.609550
59545.521633,-2368.659014,-8956.491898,0.000000
59545.521942,-1554.432478,-9474.636058,-383.047749
59545.522252,888.247130,-8290.306550,1455.581446
59545.522562,2146.597232,-8438.347739,995.924147
59545.522872,962.267725,-8586.388927,1302.362347
59545.523181,-1110.308913,-11621.233289,1072.533697
59545.523491,-1258.350101,-8660.409521,0.000000
59545.523801,-4145.153275,-9844.739029,0.000000
59545.524110,0.000000,-9548.656652,2451.505594
59545.524420,2294.638420,-9474.636058,1762.019645
59545.524730,1184.329507,-4811.338623,1225.752797
59545.525040,2146.597232,-7994.224174,1762.019645
59545.525349,-1332.370696,-10066.800811,2374.896044
59545.525659,-1406.391290,-10214.842000,-153.219100
59545.525969,-1776.494261,-10658.965565,-383.047749
59545.526279,-2072.576638,-10732.986159,-459.657299
59545.526588,-2146.597232,-9844.739029,-1838.629195
59545.526898,0.000000,-7179.997637,0.000000
59545.527208,0.000000,-5995.668130,1225.752797
59545.527518,3478.967927,-10658.965565,3600.648841
59545.527827,-2146.597232,-6439.791695,-536.266849
59545.528137,-3552.988522,-12213.398043,2451.505594
59545.528447,1776.494261,-9474.636058,3217.601092
59545.528757,-74.020594,-9400.615463,2298.286494
59545.529066,-2220.617826,-8216.285956,766.095498
59545.529376,-2442.679609,-6957.935855,-459.657299
59545.529686,-296.082377,-7179.997637,0.000000
59545.529996,814.226536,-6513.812290,-1838.629195
59545.530305,-7105.977043,-9548.656652,0.000000
59545.530615,1110.308913,-10955.047942,1608.800546
59545.530925,-74.020594,-11251.130318,1149.143247
59545.531234,0.000000,-7328.038826,1072.533697
59545.531544,-3849.070898,-10140.821405,1225.752797
59545.531854,-666.185348,-6809.894666,229.828649
59545.532164,1776.494261,-9326.594869,1302.362347
59545.532473,1332.370696,-8216.285956,2528.115143
59545.532783,-1036.288319,-8586.388927,842.705048
59545.533093,-74.020594,-10658.965565,2068.457845
59545.533403,-666.185348,-7179.997637,-995.924147
59545.533712,-1184.329507,-10436.903782,2451.505594
59545.534022,-2442.679609,-9474.636058,-76.609550
59545.534332,-3256.906145,-6883.915261,306.438199
59545.534642,-1184.329507,-7179.997637,612.876398
59545.534951,2294.638420,-9178.553681,2298.286494
59545.535261,2590.720797,-9104.533087,2681.334243
59545.535571,2886.803174,-8364.327145,2298.286494
59545.535881,-74.020594,-10658.965565,-76.609550
59545.536190,-1258.350101,-10955.047942,-536.266849
59545.536500,-2442.679609,-11843.295072,-76.609550
59545.536810,-3849.070898,-7179.997637,-1838.629195
59545.537120,1110.308913,-9474.636058,1762.019645
59545.537429,-370.102971,-9178.553681,612.876398
59545.537739,148.041188,-7179.997637,306.438199
59545.538049,2960.823768,-8734.430116,2451.505594
59545.538359,1184.329507,-8956.491898,2374.896044
59545.538668,-1480.411884,-9326.594869,229.828649
59545.538978,-1924.535449,-11251.130318,-76.609550
59545.539288,1998.556043,-8882.471304,0.000000
59545.539597,2294.638420,-8882.471304,1762.019645
59545.539907,0.000000,-7772.162391,1532.190996
59545.540217,1998.556043,-10066.800811,1762.019645
59545.540527,0.000000,-8068.244768,0.000000
59545.540836,-3256.906145,-8364.327145,0.000000
59545.541146,-3330.926739,-9548.656652,0.000000
59545.541456,-2664.741391,-9400.615463,-459.657299
59545.541766,-888.247130,-7698.141797,-536.266849
59545.542075,-74.020594,-9178.553681,1762.019645
59545.542385,1628.453072,-9474.636058,1225.752797
59545.542695,4663.297435,-9474.636058,2374.896044
59545.543005,296.082377,-8364.327145,1225.752797
59545.543314,-74.020594,-10362.883188,2374.896044
59545.543624,-2368.659014,-8956.491898,0.000000
59545.543934,-370.102971,-7846.182985,-383.047749
59545.544244,1184.329507,-8364.327145,995.924147
59545.544553,888.247130,-7402.059420,1225.752797
59545.544863,0.000000,-9622.677246,612.876398
59545.545173,2072.576638,-10288.862594,2451.505594
59545.545483,-592.164754,-11325.150913,383.047749
59545.545792,-74.020594,-11843.295072,-76.609550
59545.546102,-4737.318029,-9548.656652,0.000000
59545.546412,-74.020594,-9474.636058,2221.676944
59545.546721,0.000000,-7179.997637,0.000000
59545.547031,1702.473667,-7994.224174,1149.143247
59545.547341,1184.329507,-8956.491898,1838.629195
59545.547651,2220.617826,-8660.409521,2145.067394
59545.547960,-222.061783,-9178.553681,1072.533697
59545.548270,-2664.741391,-9844.739029,1225.752797
59545.548580,-4737.318029,-9844.739029,153.219100
59545.548890,-1776.494261,-8364.327145,612.876398
59545.549199,-74.020594,-8290.306550,-76.609550
59545.549509,-1184.329507,-8068.244768,1532.190996
59545.549819,-74.020594,-9622.677246,536.266849
59545.550129,3478.967927,-10658.965565,2374.896044
59545.550438,888.247130,-9844.739029,1991.848295
59545.550748,-1258.350101,-8586.388927,766.095498
59545.551058,-2294.638420,-9474.636058,536.266849
59545.551368,0.000000,-5995.668130,0.000000
59545.551677,0.000000,-5995.668130,0.000000
59545.551987,592.164754,-10140.821405,2451.505594
59545.552297,-1258.350101,-9178.553681,-536.266849
59545.552607,1184.329507,-9992.780217,3370.820191
59545.552916,-74.020594,-9474.636058,1762.019645
59545.553226,-1258.350101,-9474.636058,-76.609550
59545.553536,-3330.926739,-8586.388927,-536.266849
59545.553846,-3108.864956,-8290.306550,-1762.019645
59545.554155,-1036.288319,-10658.965565,612.876398
59545.554465,0.000000,-7179.997637,153.219100
59545.554775,1184.329507,-7179.997637,1225.752797
59545.555084,4737.318029,-8068.244768,3983.696590
59545.555394,-74.020594,-10658.965565,1762.019645
59545.555704,-3552.988522,-7920.203579,919.314598
59545.556014,-3034.844362,-10658.965565,-76.609550
59545.556323,-74.020594,-9474.636058,-76.609550
59545.556633,-962.267725,-9178.553681,-536.266849
59545.556943,-814.226536,-9400.615463,306.438199
59545.557253,1702.473667,-8882.471304,1378.971896
59545.557562,0.000000,-6587.832884,536.266849
59545.557872,-1258.350101,-8438.347739,1149.143247
59545.558182,-4737.318029,-9548.656652,0.000000
59545.558492,-1258.350101,-9770.718434,536.266849
59545.558801,-74.020594,-9992.780217,-2374.896044
59545.559111,1184.329507,-9474.636058,1762.019645
59545.559421,2516.700203,-10732.986159,2911.162892
59545.559731,3478.967927,-8586.388927,2068.457845
59545.560040,1702.473667,-9252.574275,2068.457845
59545.560350,-814.226536,-9474.636058,1762.019645
59545.560660,-3330.926739,-8882.471304,842.705048
59545.560970,-1554.432478,-8882.471304,1149.143247
59545.561279,-2516.700203,-7476.080014,-1378.971896
59545.561589,-888.247130,-9474.636058,1455.581446
59545.561899,-1776.494261,-8660.409521,0.000000
59545.562208,3182.885551,-11547.212695,3600.648841
59545.562518,2368.659014,-8956.491898,3064.381992
59545.562828,-666.185348,-8734.430116,1455.581446
59545.563138,-3108.864956,-9178.553681,0.000000
59545.563447,-2812.782580,-9030.512492,-1225.752797
59545.563757,-1258.350101,-8882.471304,-383.047749
59545.564067,-74.020594,-8808.450710,1302.362347
59545.564377,592.164754,-8290.306550,842.705048
59545.564686,2368.659014,-9252.574275,1991.848295
59545.564996,518.144159,-9178.553681,-76.609550
59545.565306,-1924.535449,-10140.821405,1838.629195
59545.565616,-3552.988522,-7772.162391,0.000000
59545.565925,-814.226536,-8068.244768,76.609550
59545.566235,-888.247130,-8660.409521,153.219100
59545.566545,-888.247130,-9770.718434,1378.971896
59545.566855,2886.803174,-11251.130318,2374.896044
59545.567164,3404.947333,-7179.997637,1991.848295
59545.567474,2294.638420,-9178.553681,2374.896044
59545.567784,-2960.823768,-7179.997637,0.000000
59545.568094,-74.020594,-11547.212695,2374.896044
59545.568403,-1480.411884,-9104.533087,153.219100
59545.568713,-4441.235652,-8364.327145,-2145.067394
59545.569023,-1998.556043,-10288.862594,-306.438199
59545.569333,1702.473667,-8956.491898,919.314598
59545.569642,2664.741391,-8734.430116,1532.190996
59545.569952,1702.473667,-10658.965565,2374.896044
59545.570262,-1776.494261,-9252.574275,842.705048
59545.570571,-74.020594,-9474.636058,-76.609550
59545.570881,-2368.659014,-7772.162391,0.000000
59545.571191,-74.020594,-11843.295072,2374.896044
59545.571501,0.000000,-9548.656652,306.438199
59545.571810,1850.514855,-7179.997637,383.047749
59545.572120,2146.597232,-9326.594869,1915.238745
59545.572430,-1036.288319,-8956.491898,995.924147
59545.572740,-3997.112087,-9770.718434,0.000000
59545.573049,-222.061783,-10288.862594,1225.752797
59545.573359,-1184.329507,-8734.430116,0.000000
59545.573669,-74.020594,-11103.089130,2068.457845
59545.573979,0.000000,-7254.018232,0.000000
59545.574288,4663.297435,-10288.862594,4826.401637
59545.574598,0.000000,-7179.997637,0.000000
59545.574908,-3034.844362,-9104.533087,0.000000
59545.575218,-3997.112087,-9252.574275,-1072.533697
59545.575527,-2368.659014,-9474.636058,-842.705048
59545.575837,-1554.432478,-9474.636058,536.266849
59545.576147,-592.164754,-9104.533087,1378.971896
59545.576457,222.061783,-8142.265362,1608.800546
59545.576766,4367.215058,-8660.409521,3217.601092
59545.577076,2294.638420,-8734.430116,2068.457845
59545.577386,1036.288319,-10732.986159,4290.134789
59545.577695,-2146.597232,-8364.327145,0.000000
59545.578005,-74.020594,-9178.553681,-995.924147
59545.578315,-1480.411884,-9548.656652,0.000000
59545.578625,-592.164754,-9326.594869,1072.533697
59545.578934,1998.556043,-8586.388927,1685.410096
59545.579244,1776.494261,-7476.080014,1225.752797
59545.579554,0.000000,-8364.327145,2451.505594
59545.579864,-74.020594,-11251.130318,1149.143247
59545.580173,-4145.153275,-7772.162391,0.000000
59545.580483,-74.020594,-11251.130318,2374.896044
59545.580793,-1258.350101,-6735.874072,-1608.800546
59545.581103,-74.020594,-9474.636058,842.705048
59545.581412,1776.494261,-8068.244768,1302.362347
59545.581722,2590.720797,-8660.409521,1685.410096
59545.582032,1036.288319,-9548.656652,1991.848295
59545.582342,-2960.823768,-8956.491898,0.000000
59545.582651,-814.226536,-9178.553681,-229.828649
59545.582961,-2368.659014,-9844.739029,0.000000
59545.583271,-1258.350101,-9474.636058,-76.609550
59545.583581,-2368.659014,-9548.656652,1225.752797
59545.583890,3478.967927,-8882.471304,2374.896044
59545.584200,4071.132681,-9474.636058,2987.772442
59545.584510,666.185348,-9992.780217,2068.457845
59545.584820,-1850.514855,-7624.121203,842.705048
59545.585129,-3330.926739,-9474.636058,536.266849
59545.585439,-1184.329507,-6291.750507,-995.924147
59545.585749,-1406.391290,-9474.636058,536.266849
59545.586058,-2368.659014,-8364.327145,0.000000
59545.586368,2072.576638,-10362.883188,2987.772442
59545.586678,74.020594,-7550.100608,0.000000
59545.586988,1406.391290,-10362.883188,2374.896044
59545.587297,-1998.556043,-11251.130318,1532.190996
59545.587607,-1406.391290,-8290.306550,-689.485948
59545.587917,-2886.803174,-10288.862594,459.657299
59545.588227,-444.123565,-8438.347739,0.000000
59545.588536,0.000000,-8290.306550,1762.019645
59545.588846,2664.741391,-6513.812290,2145.067394
59545.589156,1184.329507,-8364.327145,1378.971896
59545.589466,1406.391290,-9178.553681,2987.772442
59545.589775,-3627.009116,-7476.080014,-1762.019645
59545.590085,-518.144159,-11103.089130,-76.609550
59545.590395,-2812.782580,-10140.821405,-536.266849
59545.590705,-2220.617826,-10732.986159,-153.219100
59545.591014,592.164754,-9400.615463,919.314598
59545.591324,1850.514855,-8290.306550,1762.019645
59545.591634,1702.473667,-8290.306550,2145.067394
59545.591944,-740.205942,-9252.574275,1838.629195
59545.592253,-2146.597232,-7550.100608,0.000000
59545.592563,-2960.823768,-8660.409521,1225.752797
59545.592873,-74.020594,-8290.306550,-689.485948
59545.593182,-74.020594,-9474.636058,2374.896044
59545.593492,1480.411884,-8660.409521,1838.629195
59545.593802,1998.556043,-9252.574275,1149.143247
59545.594112,1036.288319,-9326.594869,1838.629195
59545.594421,-222.061783,-10214.842000,1378.971896
59545.594731,370.102971,-8882.471304,-76.609550
59545.595041,-1554.432478,-10436.903782,459.657299
59545.595351,-3923.091493,-8364.327145,-1225.752797
59545.595660,-814.226536,-10436.903782,1762.019645
59545.595970,74.020594,-5995.668130,0.000000
59545.596280,3923.091493,-8290.306550,3600.648841
59545.596590,2220.617826,-8364.327145,4060.306139
59545.596899,1036.288319,-8586.388927,2681.334243
59545.597209,0.000000,-7920.203579,1302.362347
59545.597519,-2294.638420,-9326.594869,-536.266849
59545.597829,-3627.009116,-9474.636058,-2528.115143
59545.598138,-2516.700203,-8734.430116,-1915.238745
59545.598448,1480.411884,-9548.656652,1838.629195
59545.598758,2886.803174,-9474.636058,2068.457845
59545.599068,0.000000,-7179.997637,1225.752797
59545.599377,-74.020594,-11843.295072,-76.609550
59545.599687,814.226536,-8882.471304,842.705048
59545.599997,-2960.823768,-8956.491898,-383.047749
59545.600307,-3627.009116,-8660.409521,-1072.533697
59545.600616,-1628.453072,-9696.697840,0.000000
59545.600926,0.000000,-7328.038826,0.000000
59545.601236,0.000000,-7328.038826,0.000000
59545.601545,0.000000,-8956.491898,1838.629195
59545.601855,-370.102971,-9474.636058,536.266849
59545.602165,-3552.988522,-8364.327145,0.000000
59545.602475,-1258.350101,-11251.130318,-76.609550
59545.602784,-2146.597232,-11547.212695,-76.609550
59545.603094,148.041188,-8216.285956,1378.971896
59545.603404,2516.700203,-7772.162391,2374.896044
59545.603714,3108.864956,-8142.265362,2374.896044
59545.604023,0.000000,-8068.244768,1762.019645
59545.604333,-74.020594,-8882.471304,1149.143247
59545.604643,-3552.988522,-8364.327145,0.000000
59545.604953,-3256.906145,-10658.965565,-76.609550
59545.605262,-6809.894666,-7179.997637,-3677.258390
59545.605572,-74.020594,-10658.965565,1762.019645
59545.605882,2294.638420,-9918.759623,1455.581446
59545.606192,444.123565,-8956.491898,1225.752797
59545.606501,444.123565,-9104.533087,1838.629195
59545.606811,1998.556043,-8586.388927,2987.772442
59545.607121,-1776.494261,-7179.997637,1302.362347
59545.607431,-1406.391290,-8660.409521,1378.971896
59545.607740,-3256.906145,-7772.162391,0.000000
59545.608050,888.247130,-9030.512492,2374.896044
59545.608360,518.144159,-7105.977043,-689.485948
59545.608669,1110.308913,-9474.636058,-76.609550
59545.608979,-592.164754,-10658.965565,1225.752797
59545.609289,666.185348,-9474.636058,766.095498
59545.609598,-740.205942,-9918.759623,689.485948
59545.609908,-1332.370696,-9474.636058,76.609550
59545.610217,-74.020594,-10955.047942,1762.019645
59545.610527,3478.967927,-9400.615463,3370.820191
59545.610837,1924.535449,-9918.759623,3064.381992
59545.611146,1702.473667,-8290.306550,2068.457845
59545.611456,0.000000,-9548.656652,3677.258390
59545.611765,2738.761985,-7476.080014,1838.629195
59545.612075,-3256.906145,-10214.842000,0.000000
59545.612385,-1850.514855,-13027.624579,-76.609550
59545.612694,-2738.761985,-10140.821405,-1225.752797
59545.613004,-518.144159,-9104.533087,0.000000
59545.613314,-74.020594,-9474.636058,-76.609550
59545.613623,-370.102971,-7920.203579,689.485948
59545.613933,1110.308913,-6809.894666,0.000000
59545.614242,0.000000,-8956.491898,1532.190996
59545.614552,-74.020594,-9474.636058,-76.609550
59545.614862,-3552.988522,-9548.656652,306.438199
59545.615171,-1480.411884,-7476.080014,0.000000
59545.615481,2072.576638,-8586.388927,612.876398
59545.615790,1332.370696,-8882.471304,1455.581446
59545.616100,592.164754,-9770.718434,766.095498
59545.616410,2886.803174,-11843.295072,2068.457845
59545.616719,0.000000,-8808.450710,0.000000
59545.617029,-1258.350101,-10658.965565,-76.609550
59545.617339,-4737.318029,-8660.409521,-1685.410096
59545.617648,-74.020594,-11843.295072,-76.609550
59545.617958,0.000000,-7179.997637,612.876398
59545.618267,1110.308913,-6735.874072,1762.019645
59545.618577,740.205942,-7179.997637,2451.505594
59545.618887,1776.494261,-7105.977043,2298.286494
59545.619196,0.000000,-7920.203579,1072.533697
59545.619506,-1258.350101,-10066.800811,1378.971896
59545.619815,-4589.276840,-9400.615463,-1455.581446
59545.620125,-370.102971,-11843.295072,-76.609550
59545.620435,0.000000,-8512.368333,0.000000
59545.620744,1998.556043,-11843.295072,2374.896044
59545.621054,-1776.494261,-7179.997637,0.000000
59545.621363,1258.350101,-7550.100608,689.485948
59545.621673,296.082377,-8660.409521,612.876398
59545.621983,-1036.288319,-8734.430116,459.657299
59545.622292,-1406.391290,-9918.759623,689.485948
59545.622602,592.164754,-7254.018232,612.876398
59545.622912,0.000000,-9548.656652,2451.505594
59545.623221,2294.638420,-9474.636058,2987.772442
59545.623531,0.000000,-7476.080014,1225.752797
59545.623840,1998.556043,-9474.636058,3600.648841
59545.624150,-3034.844362,-7550.100608,-1915.238745
59545.624460,-2442.679609,-10362.883188,-689.485948
59545.624769,-2516.700203,-11473.192101,0.000000
59545.625079,814.226536,-9696.697840,689.485948
59545.625388,592.164754,-9252.574275,1072.533697
59545.625698,0.000000,-7476.080014,0.000000
59545.626008,0.000000,-7179.997637,0.000000
59545.626317,3849.070898,-9326.594869,3294.210641
59545.626627,-1332.370696,-7624.121203,306.438199
59545.626937,-2294.638420,-13027.624579,2374.896044
59545.627246,-2738.761985,-8882.471304,-2528.115143
59545.627556,-370.102971,-11251.130318,-76.609550
59545.627865,-1184.329507,-9474.636058,612.876398
59545.628175,0.000000,-8438.347739,1302.362347
59545.628485,1776.494261,-7920.203579,1991.848295
59545.628794,592.164754,-7772.162391,0.000000
59545.629104,-1036.288319,-7550.100608,383.047749
59545.629413,-2368.659014,-10140.821405,1225.752797
59545.629723,2886.803174,-9474.636058,2374.896044
59545.630033,592.164754,-8364.327145,1225.752797
59545.630342,-74.020594,-8882.471304,-76.609550
59545.630652,-1258.350101,-10214.842000,1762.019645
59545.630961,-592.164754,-8290.306550,842.705048
59545.631271,1184.329507,-9400.615463,1455.581446
59545.631581,0.000000,-7698.141797,1302.362347
59545.631890,-2368.659014,-9030.512492,536.266849
59545.632200,592.164754,-9474.636058,919.314598
59545.632510,-1776.494261,-8364.327145,0.000000
59545.632819,-74.020594,-9474.636058,1685.410096
59545.633129,0.000000,-7179.997637,1225.752797
59545.633438,2886.803174,-8882.471304,2374.896044
59545.633748,740.205942,-9992.780217,1532.190996
59545.634058,-888.247130,-8882.471304,995.924147
59545.634367,-1554.432478,-10807.006753,76.609550
59545.634677,-370.102971,-9178.553681,229.828649
59545.634986,-740.205942,-9474.636058,-76.609550
59545.635296,-1554.432478,-9178.553681,1072.533697
59545.635606,-1998.556043,-7920.203579,0.000000
59545.635915,1850.514855,-8290.306550,2528.115143
59545.636225,-1850.514855,-7179.997637,0.000000
59545.636535,-74.020594,-11843.295072,3600.648841
59545.636844,-1480.411884,-10732.986159,1225.752797
59545.637154,-74.020594,-9178.553681,76.609550
59545.637463,-1628.453072,-9844.739029,0.000000
59545.637773,-2812.782580,-9770.718434,306.438199
59545.638083,1110.308913,-9474.636058,1455.581446
59545.638392,3108.864956,-7772.162391,2604.724693
59545.638702,-666.185348,-6735.874072,306.438199
59545.639011,-2368.659014,-9548.656652,1225.752797
59545.639321,-74.020594,-11843.295072,-76.609550
59545.639631,-1036.288319,-10140.821405,1762.019645
59545.639940,-3849.070898,-8364.327145,0.000000
59545.640250,-2220.617826,-8734.430116,306.438199
59545.640559,592.164754,-7772.162391,766.095498
59545.640869,1628.453072,-8364.327145,1149.143247
59545.641179,-74.020594,-9474.636058,1149.143247
59545.641488,-74.020594,-11547.212695,2374.896044
59545.641798,2294.638420,-9474.636058,1455.581446
59545.642108,0.000000,-8364.327145,1225.752797
59545.642417,-74.020594,-11843.295072,2374.896044
59545.642727,-2368.659014,-7920.203579,919.314598
59545.643036,-2368.659014,-8068.244768,0.000000
59545.643346,3108.864956,-9252.574275,1149.143247
59545.643656,1406.391290,-7772.162391,1685.410096
59545.643965,-444.123565,-10214.842000,1455.581446
59545.644275,814.226536,-10066.800811,689.485948
59545.644584,-1628.453072,-10955.047942,306.438199
59545.644894,-74.020594,-9474.636058,-76.609550
59545.645204,-4293.194464,-9548.656652,1225.752797
59545.645513,1998.556043,-5329.482782,-76.609550
59545.645823,0.000000,-7179.997637,2451.505594
59545.646132,1332.370696,-5995.668130,1532.190996
59545.646442,814.226536,-10436.903782,2528.115143
59545.646752,1554.432478,-8216.285956,1685.410096
59545.647061,0.000000,-10214.842000,383.047749
59545.647371,-1332.370696,-9548.656652,0.000000
59545.647681,-3552.988522,-9844.739029,0.000000
59545.647990,-74.020594,-9474.636058,-76.609550
59545.648300,0.000000,-7772.162391,0.000000
59545.648609,2886.803174,-11843.295072,3600.648841
59545.648919,0.000000,-7179.997637,1225.752797
59545.649229,1554.432478,-7328.038826,1608.800546
59545.649538,0.000000,-9400.615463,1838.629195
59545.649848,-1998.556043,-8438.347739,766.095498
59545.650157,-1776.494261,-9622.677246,306.438199
59545.650467,-1184.329507,-7179.997637,306.438199
59545.650777,-2368.659014,-8364.327145,306.438199
59545.651086,-74.020594,-10658.965565,-76.609550
59545.651396,0.000000,-9548.656652,0.000000
59545.651706,2812.782580,-11325.150913,3447.429741
59545.652015,-3404.947333,-8364.327145,0.000000
59545.652325,-2738.761985,-10362.883188,-383.047749
59545.652634,-1480.411884,-9326.594869,0.000000
59545.652944,518.144159,-8660.409521,995.924147
59545.653254,-370.102971,-8216.285956,1072.533697
59545.653563,-1776.494261,-8364.327145,383.047749
59545.653873,0.000000,-7179.997637,1225.752797
59545.654182,3478.967927,-10362.883188,3600.648841
59545.654492,-1998.556043,-7476.080014,612.876398
59545.654802,-74.020594,-11251.130318,-76.609550
59545.655111,-666.185348,-6661.853478,-1608.800546
59545.655421,2146.597232,-9474.636058,1608.800546
59545.655730,-296.082377,-8142.265362,1149.143247
59545.656040,-1480.411884,-9770.718434,536.266849
59545.656350,444.123565,-9178.553681,842.705048
59545.656659,-1924.535449,-9844.739029,1072.533697
59545.656969,-1998.556043,-9326.594869,842.705048
59545.657279,-3552.988522,-8660.409521,0.000000
59545.657588,1110.308913,-7994.224174,-76.609550
59545.657898,0.000000,-7179.997637,612.876398
59545.658207,2294.638420,-7105.977043,1762.019645
59545.658517,1998.556043,-9326.594869,2068.457845
59545.658827,888.247130,-8438.347739,766.095498
59545.659136,-1850.514855,-11029.068536,-76.609550
59545.659446,-3701.029710,-11399.171507,-919.314598
59545.659755,-2442.679609,-11103.089130,-76.609550
59545.660065,1406.391290,-7994.224174,383.047749
59545.660375,296.082377,-7179.997637,612.876398
59545.660684,1998.556043,-8290.306550,-76.609550
59545.660994,0.000000,-7179.997637,612.876398
59545.661304,3478.967927,-9474.636058,2374.896044
59545.661613,-370.102971,-10658.965565,1608.800546
59545.661923,-4145.153275,-9030.512492,-306.438199
59545.662232,-1850.514855,-9622.677246,-306.438199
59545.662542,1554.432478,-6291.750507,689.485948
59545.662852,1110.308913,-8438.347739,1149.143247
59545.663161,222.061783,-8808.450710,612.876398
59545.663471,0.000000,-9844.739029,306.438199
59545.663780,3478.967927,-13619.789333,3600.648841
59545.664090,-1258.350101,-11843.295072,-76.609550
59545.664400,-1258.350101,-10510.924376,-76.609550
59545.664709,-1184.329507,-9252.574275,689.485948
59545.665019,1850.514855,-6957.935855,1225.752797
59545.665328,740.205942,-7624.121203,1532.190996
59545.665638,148.041188,-8216.285956,1608.800546
59545.665948,2146.597232,-9326.594869,2911.162892
59545.666257,888.247130,-9474.636058,1685.410096
59545.666567,-3034.844362,-8882.471304,-76.609550
59545.666877,-2960.823768,-10732.986159,1838.629195
59545.667186,-74.020594,-8882.471304,-76.609550
59545.667496,2368.659014,-10955.047942,2068.457845
59545.667805,0.000000,-8364.327145,1225.752797
59545.668115,1406.391290,-10658.965565,2068.457845
59545.668425,2368.659014,-8660.409521,1762.019645
59545.668734,-296.082377,-10066.800811,1225.752797
59545.669044,-2738.761985,-9474.636058,0.000000
59545.669353,-4737.318029,-9548.656652,-919.314598
59545.669663,-2442.679609,-9178.553681,-689.485948
59545.669973,0.000000,-7179.997637,0.000000
59545.670282,2294.638420,-8882.471304,2374.896044
59545.670592,1776.494261,-9992.780217,4596.572988
59545.670902,1332.370696,-6291.750507,1532.190996
59545.671211,-888.247130,-10807.006753,1838.629195
59545.671521,-2664.741391,-9400.615463,383.047749
59545.671830,-4663.297435,-9992.780217,153.219100
59545.672140,-1628.453072,-7476.080014,0.000000
59545.672450,-592.164754,-7772.162391,842.705048
59545.672759,1702.473667,-8882.471304,1762.019645
59545.673069,0.000000,-7179.997637,612.876398
59545.673378,2294.638420,-9474.636058,2374.896044
59545.673688,-2368.659014,-9548.656652,612.876398
59545.673998,-4589.276840,-8512.368333,-1225.752797
59545.674307,-2368.659014,-9474.636058,-612.876398
59545.674617,0.000000,-8216.285956,-153.219100
59545.674926,0.000000,-7698.141797,-306.438199
59545.675236,296.082377,-10140.821405,459.657299
59545.675546,1628.453072,-9252.574275,1685.410096
59545.675855,2664.741391,-9178.553681,3370.820191
59545.676165,-74.020594,-9474.636058,1149.143247
59545.676475,-3552.988522,-7772.162391,0.000000
59545.676784,0.000000,-7772.162391,0.000000
59545.677094,518.144159,-7698.141797,536.266849
59545.677403,-444.123565,-7920.203579,306.438199
59545.677713,-1110.308913,-8882.471304,-76.609550
59545.678023,-370.102971,-9104.533087,383.047749
59545.678332,296.082377,-9252.574275,536.266849
59545.678642,0.000000,-9548.656652,2451.505594
59545.678951,1110.308913,-10362.883188,2374.896044
59545.679261,-3256.906145,-5403.503377,0.000000
59545.679571,962.267725,-9770.718434,689.485948
59545.679880,-3552.988522,-7179.997637,-2145.067394
59545.680190,-74.020594,-10955.047942,536.266849
59545.680499,2368.659014,-9326.594869,1685.410096
59545.680809,2146.597232,-9770.718434,2451.505594
59545.681119,0.000000,-9326.594869,1991.848295
59545.681428,-1850.514855,-9178.553681,1149.143247
59545.681738,-1184.329507,-6587.832884,306.438199
59545.682048,-74.020594,-8882.471304,2374.896044
59545.682357,-4441.235652,-4811.338623,-2451.505594
59545.682667,2294.638420,-11251.130318,3140.991542
59545.682976,1702.473667,-5477.523971,0.000000
59545.683286,1110.308913,-10510.924376,1685.410096
59545.683596,-2516.700203,-9844.739029,0.000000
59545.683905,-3108.864956,-10658.965565,-1149.143247
59545.684215,-1554.432478,-9622.677246,-459.657299
59545.684524,-1258.350101,-10658.965565,-76.609550
59545.684834,-1480.411884,-7550.100608,0.000000
59545.685144,1184.329507,-9918.759623,2451.505594
59545.685453,3478.967927,-7105.977043,842.705048
59545.685763,0.000000,-7772.162391,1225.752797
59545.686073,-2442.679609,-8290.306550,-383.047749
59545.686382,-2220.617826,-8956.491898,306.438199
59545.686692,-148.041188,-7994.224174,76.609550
59545.687001,-1554.432478,-9622.677246,536.266849
59545.687311,-296.082377,-9030.512492,995.924147
59545.687621,3775.050304,-11843.295072,3294.210641
59545.687930,3775.050304,-8882.471304,2451.505594
59545.688240,0.000000,-8364.327145,0.000000
59545.688549,-74.020594,-12731.542202,2374.896044
59545.688859,-4515.256246,-7920.203579,-1532.190996
59545.689169,-1554.432478,-9178.553681,-383.047749
59545.689478,-3256.906145,-9548.656652,0.000000
59545.689788,-740.205942,-7105.977043,76.609550
59545.690097,1332.370696,-8586.388927,1915.238745
59545.690407,2960.823768,-6883.915261,2298.286494
59545.690717,1998.556043,-10288.862594,4136.915689
59545.691026,-74.020594,-7698.141797,842.705048
59545.691336,-2368.659014,-8660.409521,0.000000
59545.691646,-74.020594,-10658.965565,-689.485948
59545.691955,-4737.318029,-8364.327145,-1838.629195
59545.692265,2294.638420,-11843.295072,2374.896044
59545.692574,2960.823768,-7994.224174,1838.629195
59545.692884,2738.761985,-8660.409521,2298.286494
59545.693194,0.000000,-8586.388927,1915.238745
59545.693503,-592.164754,-9622.677246,1225.752797
59545.693813,1480.411884,-8364.327145,1532.190996
59545.694122,-1332.370696,-9622.677246,306.438199
59545.694432,-2442.679609,-7179.997637,-3064.381992
59545.694742,1332.370696,-11843.295072,2757.943793
59545.695051,3478.967927,-8290.306550,1762.019645
59545.695361,2886.803174,-10362.883188,3447.429741
59545.695671,-1702.473667,-8068.244768,76.609550
59545.695980,-2516.700203,-10214.842000,-153.219100
59545.696290,-2072.576638,-9992.780217,-383.047749
59545.696599,-2812.782580,-10584.944971,-536.266849
59545.696909,-2368.659014,-8660.409521,0.000000
59545.697219,1998.556043,-11251.130318,1762.019645
59545.697528,2220.617826,-5403.503377,0.000000
59545.697838,2442.679609,-10362.883188,3677.258390
59545.698147,-1850.514855,-7698.141797,689.485948
59545.698457,-1184.329507,-9992.780217,2757.943793
59545.698767,-444.123565,-7698.141797,0.000000
59545.699076,-2146.597232,-9844.739029,306.438199
59545.699386,-1702.473667,-9252.574275,76.609550
59545.699695,666.185348,-9548.656652,689.485948
59545.700005,1184.329507,-7772.162391,0.000000
59545.700315,0.000000,-9252.574275,1378.971896
59545.700624,-74.020594,-11843.295072,3600.648841
59545.700934,-1258.350101,-7698.141797,-689.485948
59545.701244,0.000000,-8364.327145,0.000000
59545.701553,-1776.494261,-9400.615463,1838.629195
59545.701863,-1850.514855,-9178.553681,229.828649
59545.702172,1406.391290,-8660.409521,1455.581446
59545.702482,2738.761985,-8290.306550,2298.286494
59545.702792,814.226536,-8808.450710,2451.505594
59545.703101,-2368.659014,-7772.162391,0.000000
59545.703411,-1480.411884,-9548.656652,612.876398
59545.703720,-370.102971,-11843.295072,-76.609550
59545.704030,-6513.812290,-7179.997637,0.000000
59545.704340,-74.020594,-11251.130318,1149.143247
59545.704649,0.000000,-7476.080014,2451.505594
59545.704959,3182.885551,-8882.471304,2681.334243
59545.705269,1554.432478,-7772.162391,3217.601092
59545.705578,0.000000,-8216.285956,1378.971896
59545.705888,-1480.411884,-8142.265362,0.000000
59545.706197,-4737.318029,-8068.244768,-3677.258390
59545.706507,-3552.988522,-9326.594869,-2068.457845
59545.706817,-74.020594,-14211.954086,-76.609550
59545.707126,0.000000,-6587.832884,0.000000
59545.707436,3627.009116,-11547.212695,3447.429741
59545.707745,0.000000,-7179.997637,1225.752797
59545.708055,814.226536,-10066.800811,2068.457845
59545.708365,-296.082377,-7772.162391,689.485948
59545.708674,-1702.473667,-9474.636058,383.047749
59545.708984,-2294.638420,-9326.594869,0.000000
59545.709293,-370.102971,-9474.636058,-689.485948
59545.709603,0.000000,-6587.832884,306.438199
59545.709913,1406.391290,-11843.295072,3600.648841
59545.710222,-2960.823768,-5995.668130,0.000000
59545.710532,1406.391290,-10584.944971,2374.896044
59545.710842,-592.164754,-7476.080014,229.828649
59545.711151,-1554.432478,-10955.047942,459.657299
59545.711461,-1702.473667,-9844.739029,-229.828649
59545.711771,444.123565,-10214.842000,153.219100
59545.712080,2294.638420,-8586.388927,995.924147
59545.712390,1702.473667,-9474.636058,2374.896044
59545.712700,-1480.411884,-7179.997637,842.705048
59545.713010,-2960.823768,-7179.997637,0.000000
59545.713319,-148.041188,-10288.862594,1762.019645
59545.713629,-3034.844362,-9400.615463,-689.485948
59545.713939,-2590.720797,-9696.697840,-229.828649
59545.714248,1998.556043,-9474.636058,-76.609550
59545.714558,1332.370696,-7179.997637,1225.752797
59545.714868,2368.659014,-8290.306550,3370.820191
59545.715177,1332.370696,-8364.327145,2451.505594
59545.715487,-666.185348,-7402.059420,-383.047749
59545.715797,-3034.844362,-9548.656652,-1532.190996
59545.716107,-3552.988522,-9548.656652,612.876398
59545.716416,-1850.514855,-11251.130318,-689.485948
59545.716726,0.000000,-8364.327145,1225.752797
59545.717036,444.123565,-7476.080014,459.657299
59545.717345,1110.308913,-7105.977043,1685.410096
59545.717655,-666.185348,-8142.265362,1149.143247
59545.717965,-444.123565,-7846.182985,612.876398
59545.718274,-1480.411884,-10584.944971,536.266849
59545.718584,-74.020594,-10066.800811,-76.609550
59545.718894,-1702.473667,-9696.697840,842.705048
59545.719204,1776.494261,-9252.574275,3064.381992
59545.719513,814.226536,-8142.265362,383.047749
59545.719823,0.000000,-6587.832884,612.876398
59545.720133,518.144159,-8290.306550,0.000000
59545.720442,1332.370696,-8586.388927,1762.019645
59545.720752,-1332.370696,-10140.821405,383.047749
59545.721062,-3775.050304,-10807.006753,-995.924147
59545.721371,-2220.617826,-10955.047942,-153.219100
59545.721681,2294.638420,-9474.636058,-76.609550
59545.721991,1110.308913,-8290.306550,995.924147
59545.722301,0.000000,-7179.997637,2451.505594
59545.722610,-74.020594,-9474.636058,2068.457845
59545.722920,-2664.741391,-8364.327145,0.000000
59545.723230,-2146.597232,-10066.800811,-1685.410096
59545.723539,-3256.906145,-9918.759623,0.000000
59545.723849,-740.205942,-9400.615463,689.485948
59545.724159,2072.576638,-7179.997637,1225.752797
59545.724468,1850.514855,-7846.182985,3600.648841
59545.724778,2886.803174,-9474.636058,4213.525239
59545.725088,1110.308913,-7550.100608,1762.019645
59545.725398,-2368.659014,-5995.668130,0.000000
59545.725707,-1332.370696,-11547.212695,1149.143247
59545.726017,-4219.173869,-10658.965565,-1302.362347
59545.726327,-1850.514855,-11547.212695,-1302.362347
59545.726636,-1776.494261,-10436.903782,-306.438199
59545.726946,-1998.556043,-9474.636058,919.314598
59545.727256,-1554.432478,-8660.409521,1532.190996
59545.727565,-814.226536,-7031.956449,3524.039291
59545.727875,-1480.411884,-10658.965565,3064.381992
59545.728185,-4811.338623,-10510.924376,1762.019645
59545.728495,-8512.368333,-8068.244768,-2068.457845
59545.728804,-3256.906145,-10436.903782,2145.067394
59545.729114,-370.102971,-8290.306550,1762.019645
59545.729424,-74.020594,-6957.935855,2374.896044
59545.729733,-2368.659014,-6587.832884,1685.410096
59545.730043,-3849.070898,-8364.327145,842.705048
59545.730353,-6291.750507,-10732.986159,-1302.362347
59545.730662,-9548.656652,-12805.562797,-1838.629195
59545.730972,-11547.212695,-13101.645173,-1225.752797
59545.731282,-7920.203579,-13027.624579,-76.609550
59545.731592,-2442.679609,-8290.306550,-76.609550
59545.731901,-2960.823768,-7179.997637,3983.696590
59545.732211,-74.020594,-5255.462188,5439.278036
59545.732521,-1258.350101,-6957.935855,4826.401637
59545.732830,-2146.597232,-5107.421000,2145.067394
59545.733140,-6217.729913,-7772.162391,612.876398
59545.733450,-9548.656652,-11547.212695,-1532.190996
59545.733759,-11029.068536,-10436.903782,-4903.011187
59545.734069,-10658.965565,-11917.315666,-2451.505594
59545.734379,-3849.070898,-8808.450710,-76.609550
59545.734689,-3034.844362,-11251.130318,1149.143247
59545.734998,-4737.318029,-4811.338623,612.876398
59545.735308,-3034.844362,-11473.192101,3600.648841
59545.735618,-888.247130,-8882.471304,4826.401637
59545.735927,-3330.926739,-8142.265362,2681.334243
59545.736237,-5181.441594,-7994.224174,1838.629195
59545.736547,-6439.791695,-8068.244768,-153.219100
59545.736856,-4811.338623,-9548.656652,0.000000
59545.737166,-2368.659014,-5403.503377,612.876398
59545.737476,-888.247130,-8068.244768,2451.505594
59545.737786,-74.020594,-9474.636058,2374.896044
59545.738095,-4737.318029,-7772.162391,-1455.581446
59545.738405,-3997.112087,-10881.027347,-766.095498
59545.738715,-2960.823768,-13323.706956,1149.143247
59545.739024,-2812.782580,-10140.821405,-689.485948
59545.739334,-4515.256246,-11399.171507,-2068.457845
59545.739644,-4737.318029,-11103.089130,-995.924147
59545.739953,-3034.844362,-9844.739029,0.000000
59545.740263,0.000000,-7179.997637,2451.505594
59545.740573,2368.659014,-4959.379811,3677.258390
59545.740883,4663.297435,-8290.306550,6052.154434
59545.741192,0.000000,-5403.503377,1225.752797
59545.741502,-1776.494261,-8068.244768,2145.067394
59545.741812,-3404.947333,-11177.109724,1532.190996
59545.742121,-2146.597232,-8586.388927,-1302.362347
59545.742431,-3182.885551,-10066.800811,-1455.581446
59545.742741,-4219.173869,-11177.109724,-1991.848295
59545.743050,-5847.626942,-10140.821405,-4060.306139
59545.743360,-6883.915261,-11621.233289,-3983.696590
59545.743670,-4145.153275,-9548.656652,0.000000
59545.743980,0.000000,-7179.997637,3064.381992
59545.744289,4663.297435,-7105.977043,4826.401637
59545.744599,592.164754,-4811.338623,5132.839837
59545.744909,0.000000,-5995.668130,3064.381992
59545.745218,-962.267725,-8882.471304,2221.676944
59545.745528,-2442.679609,-8660.409521,459.657299
59545.745838,-3627.009116,-9252.574275,-1225.752797
59545.746147,-5477.523971,-11843.295072,-1302.362347
59545.746457,-7179.997637,-11251.130318,-5286.058936
59545.746767,-10658.965565,-12435.459826,-4979.620737
59545.747077,-11843.295072,-11325.150913,-2451.505594
59545.747386,-5699.585753,-11547.212695,1685.410096
59545.747696,-666.185348,-7105.977043,4826.401637
59545.748006,2072.576638,-4219.173869,6128.763984
59545.748315,2368.659014,-3627.009116,6052.154434
59545.748625,-1480.411884,-6661.853478,3753.867940
59545.748935,-3701.029710,-7476.080014,1608.800546
59545.749244,-5551.544565,-8290.306550,-383.047749
59545.749554,-5403.503377,-9474.636058,-2528.115143
59545.749864,-5773.606348,-8290.306550,-3753.867940
59545.750174,-5329.482782,-11917.315666,-306.438199
59545.750483,-7179.997637,-12435.459826,-3753.867940
59545.750793,-10658.965565,-14285.974681,-2451.505594
59545.751103,-9474.636058,-10140.821405,-2451.505594
59545.751412,-5551.544565,-11843.295072,1915.238745
59545.751722,-2368.659014,-7994.224174,3294.210641
59545.752032,-444.123565,-5403.503377,6281.983084
59545.752341,4071.132681,-4737.318029,9116.536426
59545.752651,6439.791695,-3552.988522,6665.030833
59545.752961,-1554.432478,-4885.359217,2681.334243
59545.753271,-7105.977043,-7179.997637,1225.752797
59545.753580,-4811.338623,-9474.636058,-1915.238745
59545.753890,-9326.594869,-10140.821405,-4903.011187
59545.754200,-12065.356855,-10732.986159,-5822.325785
59545.754509,-7328.038826,-12213.398043,-3370.820191
59545.754819,-1924.535449,-11621.233289,-612.876398
59545.755129,-1998.556043,-12213.398043,766.095498
59545.755438,-3627.009116,-13323.706956,2374.896044
59545.755748,-74.020594,-13027.624579,4826.401637
59545.756058,1702.473667,-8290.306550,4826.401637
59545.756368,0.000000,-3627.009116,3677.258390
59545.756677,-444.123565,-7105.977043,5439.278036
59545.756987,-666.185348,-4441.235652,919.314598
59545.757297,1110.308913,-3849.070898,1149.143247
59545.757606,1036.288319,-5995.668130,1225.752797
59545.757916,-4441.235652,-8364.327145,-536.266849
59545.758226,-7920.203579,-12213.398043,-2987.772442
59545.758535,-6143.709319,-12953.603985,-3677.258390
59545.758845,-4589.276840,-15988.448347,-383.047749
59545.759155,-3997.112087,-13249.686362,766.095498
59545.759465,-4811.338623,-13027.624579,-76.609550
59545.759774,-5477.523971,-8364.327145,0.000000
59545.760084,1406.391290,-7772.162391,2451.505594
59545.760394,5847.626942,-5625.565159,8197.221829
59545.760703,5995.668130,-2220.617826,6511.811733
59545.761013,1702.473667,-4589.276840,3600.648841
59545.761323,-3108.864956,-9918.759623,919.314598
59545.761632,-5181.441594,-11917.315666,0.000000
59545.761942,-6217.729913,-13397.727550,-612.876398
59545.762252,-5551.544565,-12953.603985,-1915.238745
59545.762562,-9548.656652,-11843.295072,-5592.497135
59545.762871,-9474.636058,-13101.645173,-2451.505594
59545.763181,-4589.276840,-12213.398043,842.705048
59545.763491,-74.020594,-9474.636058,3600.648841
59545.763800,592.164754,-4367.215058,4903.011187
59545.764110,3775.050304,-2738.761985,6435.202183
59545.764420,5773.606348,-2664.741391,6511.811733
59545.764729,1776.494261,-5995.668130,4903.011187
59545.765039,-4737.318029,-9548.656652,1225.752797
59545.765349,-8734.430116,-14285.974681,-1225.752797
59545.765659,-7772.162391,-15988.448347,-3753.867940
59545.765968,-10362.883188,-9548.656652,-5515.887586
59545.766278,-9178.553681,-9992.780217,-4060.306139
59545.766588,-6587.832884,-13027.624579,-1915.238745
59545.766897,-6735.874072,-13619.789333,-842.705048
59545.767207,-5477.523971,-13101.645173,1608.800546
59545.767517,-3330.926739,-8660.409521,3830.477490
59545.767826,0.000000,-3034.844362,4903.011187
59545.768136,2368.659014,-74.020594,7354.516781
59545.768446,5329.482782,1110.308913,9806.022374
59545.768756,6735.874072,0.000000,4826.401637
59545.769065,0.000000,-4811.338623,1838.629195
59545.769375,-3627.009116,-14211.954086,-76.609550
59545.769685,-10288.862594,-17764.942608,-4519.963438
59545.769994,-15618.345376,-21169.889941,-7431.126331
59545.770304,-16136.489536,-19615.457463,-7431.126331
59545.770614,-12583.501014,-16432.571912,-5286.058936
59545.770923,-9474.636058,-9548.656652,-3983.696590
59545.771233,-4737.318029,-3034.844362,0.000000
59545.771543,0.000000,-666.185348,4903.011187
59545.771853,6809.894666,-2146.597232,10418.898773
59545.772162,8216.285956,0.000000,9729.412825
59545.772472,5033.400406,-2368.659014,9116.536426
59545.772782,1776.494261,-5699.585753,7354.516781
59545.773091,-3627.009116,-8882.471304,1915.238745
59545.773401,-8290.306550,-12139.377449,-2681.334243
59545.773711,-11917.315666,-18283.086767,-5439.278036
59545.774020,-13989.892304,-18209.066173,-8044.002729
59545.774330,-13989.892304,-16062.468941,-8044.002729
59545.774640,-11843.295072,-10732.986159,-6128.763984
59545.774950,-3701.029710,-11177.109724,1608.800546
59545.775259,1702.473667,-5033.400406,3600.648841
59545.775569,5921.647536,-3034.844362,8273.831378
59545.775879,6513.812290,-74.020594,7967.393179
59545.776188,7031.956449,-1776.494261,7890.783629
59545.776498,4663.297435,-3404.947333,5515.887586
59545.776808,2146.597232,-6069.688724,2911.162892
59545.777117,-1850.514855,-10658.965565,-1302.362347
59545.777427,-7179.997637,-10955.047942,-6205.373534
59545.777737,-12879.583391,-14285.974681,-9422.974625
59545.778047,-10658.965565,-20503.704593,-5515.887586
59545.778356,-8364.327145,-21317.931130,-4366.744339
59545.778666,-6661.853478,-17838.963202,-1225.752797
59545.778976,-4441.235652,-11917.315666,612.876398
59545.779285,1628.453072,-6587.832884,4826.401637
59545.779595,4589.276840,-3256.906145,7277.907231
59545.779905,5107.421000,222.061783,9039.926876
59545.780214,6439.791695,0.000000,9729.412825
59545.780524,4663.297435,-2368.659014,7277.907231
59545.780834,-666.185348,-2442.679609,1915.238745
59545.781144,-2960.823768,-8956.491898,3064.381992
59545.781453,-5403.503377,-11843.295072,-1915.238745
59545.781763,-9474.636058,-14285.974681,-3677.258390
59545.782073,-11177.109724,-14878.139434,-5515.887586
59545.782382,-8142.265362,-17838.963202,-3370.820191
59545.782692,-4959.379811,-15396.283594,-1225.752797
59545.783002,-1850.514855,-11917.315666,1915.238745
59545.783311,4071.132681,-9474.636058,7277.907231
59545.783621,10584.944971,-4737.318029,9729.412825
59545.783931,9400.615463,0.000000,9729.412825
59545.784241,7105.977043,-74.020594,9806.022374
59545.784550,8808.450710,-2960.823768,10342.289223
59545.784860,592.164754,-2442.679609,4903.011187
59545.785170,-1554.432478,-8364.327145,3294.210641
59545.785479,-5255.462188,-12805.562797,1225.752797
59545.785789,-7846.182985,-14063.912898,-1072.533697
59545.786099,-7476.080014,-18135.045579,-383.047749
59545.786408,-1850.514855,-18209.066173,4136.915689
59545.786718,-666.185348,-18949.272115,4903.011187
59545.787028,-74.020594,-13027.624579,7277.907231
59545.787338,0.000000,-7179.997637,6128.763984
59545.787647,6587.832884,-5921.647536,10801.946522
59545.787957,3108.864956,-1258.350101,6741.640382
59545.788267,5847.626942,0.000000,8503.660028
59545.788576,3923.091493,-814.226536,9346.365076
59545.788886,4737.318029,-2812.782580,9193.145976
59545.789196,2590.720797,-7994.224174,8044.002729
59545.789505,0.000000,-11917.315666,7354.516781
59545.789815,-1924.535449,-15470.304188,3677.258390
59545.790125,-2812.782580,-18801.230927,5515.887586
59545.790435,-6587.832884,-20133.601622,3600.648841
59545.790744,-10288.862594,-15470.304188,306.438199
59545.791054,-5921.647536,-10140.821405,3677.258390
59545.791364,3478.967927,-6809.894666,9729.412825
59545.791673,6439.791695,148.041188,12180.918418
59545.791983,7698.141797,2294.638420,13942.938064
59545.792293,5255.462188,-666.185348,12180.918418
59545.792602,2960.823768,-1850.514855,9806.022374
59545.792912,0.000000,-5995.668130,6741.640382
59545.793222,-2442.679609,-10066.800811,6665.030833
59545.793532,-5699.585753,-8290.306550,1455.581446
59545.793841,-3552.988522,-10140.821405,2451.505594
59545.794151,-74.020594,-12731.542202,3294.210641
59545.794461,-2738.761985,-15396.283594,4213.525239
59545.794770,-5107.421000,-16950.716072,2068.457845
59545.795080,-5329.482782,-17912.983796,4290.134789
59545.795390,-1776.494261,-11251.130318,4826.401637
59545.795699,0.000000,-3627.009116,5515.887586
59545.796009,2960.823768,-74.020594,6741.640382
59545.796319,4737.318029,-370.102971,9806.022374
59545.796629,4663.297435,0.000000,6052.154434
59545.796938,2368.659014,-2442.679609,5515.887586
59545.797248,2294.638420,-8882.471304,4826.401637
59545.797558,-370.102971,-13471.748144,3600.648841
59545.797867,-4441.235652,-15248.242405,-383.047749
59545.798177,-7846.182985,-19023.292709,-1991.848295
59545.798487,-10214.842000,-20355.663405,-3217.601092
59545.798796,-9474.636058,-14285.974681,-5209.449386
59545.799106,-5921.647536,-12509.480420,-1915.238745
59545.799416,0.000000,-6587.832884,612.876398
59545.799726,2960.823768,-5995.668130,5209.449386
59545.800035,6439.791695,-1628.453072,3907.087040
59545.800345,9400.615463,-2368.659014,7277.907231
59545.800655,6217.729913,-3997.112087,5515.887586
59545.800964,2294.638420,-7698.141797,3294.210641
59545.801274,-740.205942,-10807.006753,919.314598
59545.801584,-1332.370696,-11917.315666,-306.438199
59545.801893,-2590.720797,-9548.656652,-3753.867940
59545.802203,-5699.585753,-10066.800811,-2834.553343
59545.802513,-6439.791695,-9548.656652,-4443.353888
59545.802823,-2368.659014,-13989.892304,-1838.629195
59545.803132,-74.020594,-13027.624579,-689.485948
59545.803442,-74.020594,-16580.613101,2987.772442
59545.803752,0.000000,-12213.398043,2604.724693
59545.804061,2886.803174,-8290.306550,3217.601092
59545.804371,4663.297435,-3627.009116,4213.525239
59545.804681,5477.523971,74.020594,4443.353888
59545.804990,4367.215058,0.000000,3294.210641
59545.805300,2294.638420,-4737.318029,3600.648841
59545.805610,0.000000,-5107.421000,0.000000
59545.805920,-888.247130,-13693.809927,919.314598
59545.806229,-4811.338623,-18949.272115,-76.609550
59545.806539,-7105.977043,-20207.622217,1225.752797
59545.806849,-4737.318029,-12509.480420,-2145.067394
59545.807158,-2220.617826,-9992.780217,0.000000
59545.807468,222.061783,-6217.729913,2528.115143
59545.807778,4515.256246,-4071.132681,4596.572988
59545.808087,4663.297435,-6513.812290,6052.154434
59545.808397,2294.638420,-11251.130318,7277.907231
59545.808707,-2442.679609,-9548.656652,4366.744339
59545.809017,-592.164754,-10140.821405,6741.640382
59545.809326,-74.020594,-7179.997637,2987.772442
59545.809636,-2368.659014,-6587.832884,5515.887586
59545.809949,-1776.494261,-5403.503377,3677.258390
59545.810259,148.041188,-8956.491898,5209.449386
59545.810568,-370.102971,-9770.718434,4213.525239
59545.810878,-4071.132681,-12065.356855,2451.505594
59545.811188,-1850.514855,-15988.448347,4826.401637
59545.811498,3478.967927,-13619.789333,8503.660028
59545.811807,3182.885551,-9474.636058,7584.345430
59545.812117,-74.020594,-5921.647536,5439.278036
59545.812427,-2368.659014,-4811.338623,4903.011187
59545.812737,2960.823768,-8956.491898,9806.022374
59545.813047,1184.329507,-8068.244768,7048.078582
59545.813356,-1776.494261,-11029.068536,9193.145976
59545.813666,-2146.597232,-9474.636058,5975.544884
59545.813976,-1036.288319,-9696.697840,6128.763984
59545.814286,-74.020594,-11251.130318,7890.783629
59545.814595,-74.020594,-9474.636058,6971.469032
59545.814905,-1850.514855,-5921.647536,3600.648841
59545.815215,1184.329507,-5995.668130,6741.640382
59545.815525,4663.297435,-8290.306550,9116.536426
59545.815834,0.000000,-7179.997637,5822.325785
59545.816144,-3552.988522,-9548.656652,3983.696590
59545.816454,-2146.597232,-11769.274478,4749.792088
59545.816764,-740.205942,-11325.150913,4826.401637
59545.817073,-1628.453072,-10436.903782,5362.668486
59545.817383,-74.020594,-9474.636058,6665.030833
59545.817693,2294.638420,-10658.965565,8044.002729
59545.818003,-74.020594,-7994.224174,4213.525239
59545.818312,-3552.988522,-7772.162391,3064.381992
59545.818622,2886.803174,-11843.295072,7277.907231
59545.818932,0.000000,-5995.668130,4903.011187
59545.819242,0.000000,-6883.915261,3983.696590
59545.819551,296.082377,-6291.750507,3524.039291
59545.819861,-148.041188,-6957.935855,3600.648841
59545.820171,1110.308913,-9474.636058,4673.182538
59545.820481,2886.803174,-11843.295072,6052.154434
59545.820790,1702.473667,-13323.706956,6741.640382
59545.821100,-666.185348,-11251.130318,3294.210641
59545.821410,-2368.659014,-8660.409521,3064.381992
59545.821720,2294.638420,-12287.418637,6435.202183
59545.822030,-3256.906145,-5995.668130,2757.943793
59545.822339,-1258.350101,-7846.182985,2068.457845
59545.822649,444.123565,-8068.244768,2757.943793
59545.822959,0.000000,-9400.615463,3447.429741
59545.823269,814.226536,-7772.162391,2911.162892
59545.823578,592.164754,-9252.574275,3064.381992
59545.823888,-1184.329507,-9548.656652,3677.258390
59545.824198,-74.020594,-9474.636058,2987.772442
59545.824508,-2146.597232,-8808.450710,1838.629195
59545.824817,3256.906145,-10288.862594,6281.983084
59545.825127,-1332.370696,-7179.997637,1225.752797
59545.825437,518.144159,-8882.471304,2681.334243
59545.825747,-518.144159,-9104.533087,2221.676944
59545.826056,666.185348,-9548.656652,2757.943793
59545.826366,-296.082377,-10066.800811,2757.943793
59545.826676,-2368.659014,-10140.821405,1225.752797
59545.826986,-4145.153275,-7179.997637,0.000000
59545.827295,-74.020594,-10955.047942,2987.772442
59545.827605,0.000000,-3627.009116,0.000000
59545.827915,-74.020594,-11325.150913,4749.792088
59545.828225,518.144159,-5921.647536,-383.047749
59545.828534,1110.308913,-13619.789333,3294.210641
59545.828844,444.123565,-11399.171507,3753.867940
59545.829154,-1406.391290,-12879.583391,3524.039291
59545.829464,-1850.514855,-11769.274478,3983.696590
59545.829773,-2368.659014,-7179.997637,1532.190996
59545.830083,0.000000,-4811.338623,2451.505594
59545.830393,2960.823768,-5107.421000,4903.011187
59545.830703,1702.473667,-5329.482782,3600.648841
59545.831013,0.000000,-4811.338623,2451.505594
59545.831322,-74.020594,-13027.624579,3294.210641
59545.831632,-962.267725,-14211.954086,3294.210641
59545.831942,-3775.050304,-14508.036463,2068.457845
59545.832252,-2664.741391,-9030.512492,2145.067394
59545.832561,-814.226536,-4441.235652,1532.190996
59545.832871,0.000000,-2590.720797,1225.752797
59545.833181,0.000000,-3330.926739,1838.629195
59545.833491,0.000000,-8364.327145,2757.943793
59545.833800,1110.308913,-14730.098246,6052.154434
59545.834110,-4145.153275,-12509.480420,1225.752797
59545.834420,-666.185348,-13619.789333,4519.963438
59545.834730,-888.247130,-8956.491898,3983.696590
59545.835039,74.020594,-1332.370696,1762.019645
59545.835349,740.205942,-1332.370696,1685.410096
59545.835659,1480.411884,-3627.009116,2987.772442
59545.835969,1110.308913,-6587.832884,2068.457845
59545.836278,-74.020594,-10658.965565,1762.019645
59545.836588,-5181.441594,-14285.974681,0.000000
59545.836898,-4441.235652,-13767.830521,2374.896044
59545.837208,-4219.173869,-9548.656652,0.000000
59545.837517,2294.638420,-7105.977043,2374.896044
59545.837827,592.164754,-3627.009116,766.095498
59545.838137,1406.391290,-3849.070898,1378.971896
59545.838447,2590.720797,-7698.141797,842.705048
59545.838757,370.102971,-11843.295072,612.876398
59545.839066,-3034.844362,-15396.283594,-76.609550
59545.839376,-2442.679609,-15396.283594,-1302.362347
59545.839686,-4145.153275,-9548.656652,0.000000
59545.839996,1924.535449,-6069.688724,2911.162892
59545.840305,2294.638420,-1776.494261,-1302.362347
59545.840615,4441.235652,-5477.523971,1838.629195
59545.840925,3256.906145,-8364.327145,1225.752797
59545.841235,1998.556043,-13915.871710,1225.752797
59545.841544,-2368.659014,-17320.819043,383.047749
59545.841854,-2664.741391,-16136.489536,383.047749
59545.842164,-74.020594,-11547.212695,-76.609550
59545.842474,2886.803174,-6513.812290,-76.609550
59545.842783,222.061783,-1998.556043,-1302.362347
59545.843093,2368.659014,-3627.009116,-76.609550
59545.843403,222.061783,-6957.935855,-2221.676944
59545.843713,0.000000,-13101.645173,612.876398
59545.844022,-4737.318029,-14582.057057,-2451.505594
59545.844332,-4441.235652,-13397.727550,-2298.286494
59545.844642,-3182.885551,-9104.533087,-2834.553343
59545.844952,-1406.391290,-6439.791695,-2221.676944
59545.845261,2294.638420,-6809.894666,-76.609550
59545.845571,3997.112087,-7550.100608,766.095498
59545.845881,2294.638420,-9474.636058,-1302.362347
59545.846191,-1776.494261,-12509.480420,0.000000
59545.846500,-666.185348,-18357.107362,-76.609550
59545.846810,-4145.153275,-13397.727550,-1225.752797
59545.847120,-2812.782580,-8068.244768,-2451.505594
59545.847430,-370.102971,-4367.215058,-1915.238745
59545.847740,888.247130,-2442.679609,-536.266849
59545.848049,2664.741391,-4071.132681,-612.876398
59545.848359,3775.050304,-10288.862594,1532.190996
59545.848669,-74.020594,-16506.592507,2221.676944
59545.848979,-1258.350101,-17764.942608,-76.609550
59545.849288,-4071.132681,-12731.542202,-3140.991542
59545.849598,-592.164754,-8068.244768,612.876398
59545.849908,0.000000,-3034.844362,0.000000
59545.850218,2294.638420,-1850.514855,1072.533697
59545.850527,4219.173869,-4515.256246,1608.800546
59545.850837,3330.926739,-7105.977043,1762.019645
59545.851147,148.041188,-11917.315666,1378.971896
59545.851457,-2220.617826,-13397.727550,1838.629195
59545.851766,-2368.659014,-11917.315666,1225.752797
59545.852076,-74.020594,-9474.636058,1149.143247
59545.852386,-1036.288319,-4441.235652,-1608.800546
59545.852696,0.000000,-2442.679609,0.000000
59545.853005,2368.659014,-4811.338623,612.876398
59545.853315,4071.132681,-8290.306550,2068.457845
59545.853625,148.041188,-14656.077652,2451.505594
59545.853935,-1406.391290,-16062.468941,2681.334243
59545.854244,-3330.926739,-15618.345376,2221.676944
59545.854554,-3552.988522,-9548.656652,1532.190996
59545.854864,-2368.659014,-4811.338623,3064.381992
59545.855174,3478.967927,-1776.494261,3600.648841
59545.855484,2072.576638,-74.020594,0.000000
59545.855793,3627.009116,-7698.141797,4826.401637
59545.856103,-3330.926739,-12805.562797,612.876398
59545.856413,-4219.173869,-18653.189738,1915.238745
59545.856723,-6291.750507,-16284.530724,536.266849
59545.857032,-5773.606348,-9844.739029,229.828649
59545.857342,-2812.782580,-5255.462188,1762.019645
59545.857652,0.000000,-74.020594,1685.410096
59545.857962,592.164754,-3034.844362,3677.258390
59545.858271,4071.132681,-9474.636058,6052.154434
59545.858581,-666.185348,-14211.954086,4826.401637
59545.858891,-5921.647536,-11917.315666,2451.505594
59545.859201,-2442.679609,-9178.553681,2068.457845
59545.859510,-1924.535449,-5699.585753,3140.991542
59545.859820,444.123565,-2220.617826,3294.210641
59545.860130,3478.967927,-2590.720797,4136.915689
59545.860440,4589.276840,-6661.853478,5132.839837
59545.860749,666.185348,-11251.130318,4366.744339
59545.861059,-2368.659014,-12361.439231,2068.457845
59545.861369,-4145.153275,-13693.809927,1532.190996
59545.861679,-2442.679609,-13915.871710,3600.648841
59545.861988,-4145.153275,-5847.626942,-995.924147
59545.862298,-74.020594,-5329.482782,-76.609550
59545.862608,1480.411884,-4367.215058,1608.800546
59545.862918,2294.638420,-6069.688724,1762.019645
59545.863227,592.164754,-9622.677246,1991.848295
59545.863537,-1258.350101,-11029.068536,1225.752797
59545.863847,-2442.679609,-11843.295072,-76.609550
59545.864157,-2442.679609,-8882.471304,-995.924147
59545.864467,-2960.823768,-7920.203579,0.000000
59545.864776,3478.967927,-10658.965565,3294.210641
59545.865086,4663.297435,-8290.306550,-76.609550
59545.865396,4663.297435,-9474.636058,-76.609550
59545.865706,740.205942,-11917.315666,612.876398
59545.866015,148.041188,-13323.706956,612.876398
59545.866325,-1332.370696,-13397.727550,-229.828649
59545.866635,-1998.556043,-9474.636058,-1455.581446
59545.866945,-666.185348,-7105.977043,-689.485948
59545.867254,-74.020594,-4737.318029,-1915.238745
59545.867564,592.164754,-4811.338623,-2221.676944
59545.867874,2886.803174,-10955.047942,1762.019645
59545.868184,-666.185348,-11843.295072,-2068.457845
59545.868493,-74.020594,-15100.201217,-76.609550
59545.868803,-2368.659014,-11621.233289,-919.314598
59545.869113,-2220.617826,-8364.327145,-1915.238745
59545.869423,-1628.453072,-6587.832884,-1838.629195
59545.869732,222.061783,-5847.626942,-2374.896044
59545.870042,2886.803174,-8290.306550,-76.609550
59545.870352,2294.638420,-11843.295072,-995.924147
59545.870662,-3404.947333,-12213.398043,-1532.190996
59545.870971,-74.020594,-15988.448347,2374.896044
59545.871281,-1850.514855,-6883.915261,-2528.115143
59545.871591,-592.164754,-7624.121203,-76.609550
59545.871901,-740.205942,-4737.318029,-1991.848295
59545.872210,2072.576638,-7254.018232,-689.485948
59545.872520,2960.823768,-9474.636058,689.485948
59545.872830,296.082377,-13249.686362,383.047749
59545.873140,-296.082377,-13619.789333,1225.752797
59545.873450,-74.020594,-13027.624579,-76.609550
59545.873759,-1850.514855,-6365.771101,-1915.238745
59545.874069,-1776.494261,-7179.997637,1225.752797
59545.874379,-74.020594,-7105.977043,-76.609550
59545.874689,1184.329507,-9030.512492,1838.629195
59545.874998,1110.308913,-8956.491898,459.657299
59545.875308,-1036.288319,-11473.192101,766.095498
59545.875618,-1184.329507,-9918.759623,1225.752797
59545.875928,296.082377,-8364.327145,919.314598
59545.876237,592.164754,-5995.668130,612.876398
59545.876547,-74.020594,-9474.636058,2757.943793
59545.876857,1702.473667,-7994.224174,1455.581446
59545.877167,1184.329507,-9548.656652,3677.258390
59545.877476,4663.297435,-10658.965565,3600.648841
59545.877786,0.000000,-10140.821405,3064.381992
59545.878096,814.226536,-10510.924376,3447.429741
59545.878406,296.082377,-10066.800811,3064.381992
59545.878715,-666.185348,-7624.121203,1762.019645
59545.879025,-3330.926739,-8586.388927,1072.533697
59545.879335,-2368.659014,-5107.421000,0.000000
59545.879645,0.000000,-8364.327145,2451.505594
59545.879954,2294.638420,-11251.130318,3600.648841
59545.880264,-2368.659014,-10732.986159,2451.505594
59545.880574,-74.020594,-13027.624579,3600.648841
59545.880884,-2368.659014,-8660.409521,2145.067394
59545.881194,-2442.679609,-8290.306550,1455.581446
59545.881503,-4219.173869,-7402.059420,612.876398
59545.881813,-2516.700203,-8660.409521,1072.533697
59545.882123,-370.102971,-9474.636058,2068.457845
59545.882433,0.000000,-9548.656652,1072.533697
59545.882742,-2960.823768,-9548.656652,2451.505594
59545.883052,-74.020594,-10066.800811,4826.401637
59545.883362,-2442.679609,-5255.462188,536.266849
59545.883672,-740.205942,-7476.080014,3370.820191
59545.883981,-2368.659014,-5403.503377,2145.067394
59545.884291,1110.308913,-7254.018232,2374.896044
59545.884601,2664.741391,-6735.874072,2834.553343
59545.884911,1850.514855,-8808.450710,2987.772442
59545.885220,1554.432478,-9770.718434,3907.087040
59545.885530,370.102971,-9696.697840,2068.457845
59545.885840,0.000000,-9548.656652,1838.629195
59545.886150,-370.102971,-11843.295072,2374.896044
59545.886459,-4737.318029,-4811.338623,0.000000
59545.886769,3478.967927,-8216.285956,2374.896044
59545.887079,1998.556043,-4071.132681,1532.190996
59545.887389,2516.700203,-8660.409521,2451.505594
59545.887698,1036.288319,-11103.089130,2604.724693
59545.888008,-370.102971,-12583.501014,1685.410096
59545.888318,-1998.556043,-9178.553681,229.828649
59545.888628,-3330.926739,-8882.471304,-76.609550
59545.888937,-3552.988522,-4811.338623,-1838.629195
59545.889247,1998.556043,-9178.553681,-76.609550
59545.889557,-666.185348,-6809.894666,-2068.457845
59545.889867,962.267725,-14211.954086,1838.629195
59545.890177,-74.020594,-12731.542202,0.000000
59545.890486,0.000000,-12583.501014,995.924147
59545.890796,-1776.494261,-8660.409521,-459.657299
59545.891106,-3552.988522,-8216.285956,-995.924147
59545.891416,-1702.473667,-5921.647536,-1302.362347
59545.891725,1554.432478,-6661.853478,-76.609550
59545.892035,0.000000,-6883.915261,-995.924147
59545.892345,0.000000,-11029.068536,1225.752797
59545.892655,-74.020594,-14211.954086,2374.896044
59545.892964,-2738.761985,-9622.677246,-1608.800546
59545.893274,-4145.153275,-8290.306550,-3677.258390
59545.893584,-3849.070898,-8216.285956,-1455.581446
59545.893894,-1406.391290,-7105.977043,-1762.019645
59545.894203,370.102971,-7772.162391,-459.657299
59545.894513,666.185348,-8808.450710,-153.219100
59545.894823,-370.102971,-10066.800811,-76.609550
59545.895133,0.000000,-9548.656652,612.876398
59545.895442,1702.473667,-9474.636058,1762.019645
59545.895752,-3552.988522,-4811.338623,-3447.429741
59545.896062,0.000000,-6587.832884,1225.752797
59545.896372,2368.659014,-5625.565159,0.000000
59545.896681,3256.906145,-8142.265362,1838.629195
59545.896991,1998.556043,-10955.047942,919.314598
59545.897301,592.164754,-11547.212695,919.314598
59545.897611,1480.411884,-11917.315666,1455.581446
59545.897920,0.000000,-7179.997637,-1378.971896
59545.898230,-4145.153275,-8364.327145,0.000000
59545.898540,-370.102971,-9474.636058,1072.533697
59545.898850,-74.020594,-9178.553681,-1915.238745
59545.899160,0.000000,-8364.327145,919.314598
59545.899469,-888.247130,-9548.656652,919.314598
59545.899779,222.061783,-9030.512492,919.314598
59545.900089,740.205942,-10140.821405,1378.971896
59545.900399,74.020594,-8586.388927,1149.143247
59545.900708,-1628.453072,-9400.615463,459.657299
59545.901018,-2072.576638,-5995.668130,0.000000
59545.901328,0.000000,-8660.409521,919.314598
59545.901638,2886.803174,-9474.636058,1762.019645
59545.901947,0.000000,-9548.656652,0.000000
59545.902257,2294.638420,-11843.295072,2374.896044
59545.902567,-888.247130,-9548.656652,0.000000
59545.902877,-1258.350101,-10362.883188,-76.609550
59545.903186,-3775.050304,-10510.924376,0.000000
59545.903496,-2368.659014,-8956.491898,-536.266849
59545.903806,-74.020594,-10066.800811,1072.533697
59545.904116,-1036.288319,-6291.750507,383.047749
59545.904425,-2368.659014,-7179.997637,612.876398
59545.904735,1702.473667,-9326.594869,2987.772442
59545.905045,0.000000,-5995.668130,0.000000
59545.905355,-74.020594,-9474.636058,2374.896044
59545.905664,-3627.009116,-8142.265362,-1225.752797
59545.905974,-1850.514855,-9992.780217,76.609550
59545.906284,-1332.370696,-10288.862594,153.219100
59545.906594,-962.267725,-10362.883188,76.609550
59545.906904,-444.123565,-9770.718434,842.705048
59545.907213,0.000000,-7105.977043,1149.143247
59545.907523,0.000000,-6587.832884,306.438199
59545.907833,518.144159,-10140.821405,4826.401637
59545.908143,-1554.432478,-7105.977043,229.828649
59545.908452,0.000000,-8364.327145,2451.505594
59545.908762,1406.391290,-6661.853478,0.000000
59545.909072,296.082377,-6587.832884,1838.629195
59545.909381,1776.494261,-6809.894666,2528.115143
59545.909691,2886.803174,-7772.162391,2757.943793
59545.910001,1480.411884,-8364.327145,2528.115143
59545.910311,-1258.350101,-11251.130318,1149.143247
59545.910620,-4219.173869,-9326.594869,-1915.238745
59545.910930,-3849.070898,-10732.986159,0.000000
59545.911240,-74.020594,-11843.295072,-76.609550
59545.911549,-2960.823768,-7476.080014,0.000000
59545.911859,2294.638420,-7698.141797,1378.971896
59545.912169,4663.297435,-7698.141797,2221.676944
59545.912478,3330.926739,-7105.977043,3600.648841
59545.912788,-518.144159,-8956.491898,2068.457845
59545.913098,-814.226536,-9548.656652,2374.896044
59545.913408,-74.020594,-13027.624579,3600.648841
59545.913717,-666.185348,-9326.594869,536.266849
59545.914027,0.000000,-10288.862594,2451.505594
59545.914337,4071.132681,-10658.965565,2374.896044
59545.914646,370.102971,-6883.915261,383.047749
59545.914956,962.267725,-8142.265362,-76.609550
59545.915266,-3404.947333,-10288.862594,0.000000
59545.915575,-2590.720797,-11029.068536,459.657299
59545.915885,-1332.370696,-11769.274478,842.705048
59545.916195,-962.267725,-9992.780217,2374.896044
59545.916505,-370.102971,-9474.636058,4213.525239
59545.916814,1110.308913,-6513.812290,1762.019645
59545.917124,0.000000,-5107.421000,1225.752797
59545.917434,3478.967927,-8882.471304,2374.896044
59545.917743,-3627.009116,-7476.080014,0.000000
59545.918053,-1258.350101,-11473.192101,-76.609550
59545.918363,-2516.700203,-11769.274478,-612.876398
59545.918672,-2886.803174,-10288.862594,-919.314598
59545.918982,-2442.679609,-12583.501014,1455.581446
59545.919292,-666.185348,-8290.306550,306.438199
59545.919602,1184.329507,-7402.059420,1991.848295
59545.919911,2294.638420,-8882.471304,1762.019645
59545.920221,-1184.329507,-6513.812290,-76.609550
59545.920531,0.000000,-7179.997637,306.438199
59545.920840,2294.638420,-9474.636058,1762.019645
59545.921150,1480.411884,-9918.759623,-76.609550
59545.921460,518.144159,-8290.306550,689.485948
59545.921769,2738.761985,-7698.141797,995.924147
59545.922079,2886.803174,-6217.729913,536.266849
59545.922389,74.020594,-8956.491898,0.000000
59545.922699,-1776.494261,-9548.656652,0.000000
59545.923008,-74.020594,-14211.954086,-689.485948
59545.923318,-1850.514855,-13027.624579,-1302.362347
59545.923628,-3552.988522,-11325.150913,0.000000
59545.923937,1702.473667,-9474.636058,-76.609550
59545.924247,2664.741391,-8734.430116,2374.896044
59545.924557,2812.782580,-4663.297435,536.266849
59545.924866,1258.350101,-8142.265362,995.924147
59545.925176,148.041188,-9474.636058,306.438199
59545.925486,296.082377,-11547.212695,0.000000
59545.925796,-1776.494261,-9548.656652,0.000000
59545.926105,-74.020594,-11843.295072,-76.609550
59545.926415,-1036.288319,-5403.503377,-3677.258390
59545.926725,4071.132681,-9474.636058,-76.609550
59545.927034,0.000000,-5625.565159,-1762.019645
59545.927344,-2368.659014,-11769.274478,-153.219100
59545.927654,-2146.597232,-13841.851115,-689.485948
59545.927963,-2072.576638,-14434.015869,153.219100
59545.928273,-1702.473667,-11547.212695,689.485948
59545.928583,-1258.350101,-7772.162391,0.000000
59545.928893,0.000000,-1258.350101,0.000000
59545.929202,2368.659014,-3034.844362,2451.505594
59545.929512,2886.803174,-4737.318029,-76.609550
59545.929822,0.000000,-8956.491898,1838.629195
59545.930131,-74.020594,-13027.624579,-76.609550
59545.930441,-3552.988522,-14285.974681,0.000000
59545.930751,-4219.173869,-12879.583391,-842.705048
59545.931060,-3849.070898,-10658.965565,459.657299
59545.931370,-444.123565,-7105.977043,1149.143247
59545.931680,1702.473667,-3775.050304,1149.143247
59545.931990,0.000000,-3923.091493,0.000000
59545.932299,0.000000,-8364.327145,3064.381992
59545.932609,3478.967927,-13619.789333,5745.716235
59545.932919,-1628.453072,-9844.739029,919.314598
59545.933228,-592.164754,-11473.192101,4749.792088
59545.933538,-1258.350101,-7772.162391,1225.752797
59545.933848,1036.288319,-7105.977043,1838.629195
59545.934157,2220.617826,-4811.338623,1532.190996
59545.934467,592.164754,-6513.812290,1072.533697
59545.934777,-370.102971,-7698.141797,1149.143247
59545.935086,-666.185348,-9622.677246,-1302.362347
59545.935396,-2960.823768,-11917.315666,1225.752797
59545.935706,-222.061783,-16358.551318,3600.648841
59545.936016,-2368.659014,-9548.656652,0.000000
59545.936325,1480.411884,-9548.656652,3677.258390
59545.936635,2368.659014,-3034.844362,1838.629195
59545.936945,1480.411884,-5255.462188,2298.286494
59545.937254,666.185348,-6143.709319,1762.019645
59545.937564,518.144159,-9104.533087,1302.362347
59545.937874,-962.267725,-12731.542202,1762.019645
59545.938183,-2442.679609,-13027.624579,-76.609550
59545.938493,-4145.153275,-10140.821405,0.000000
59545.938803,-74.020594,-11843.295072,2987.772442
59545.939113,-1406.391290,-3923.091493,-1302.362347
59545.939422,-1776.494261,-6587.832884,0.000000
59545.939732,-1110.308913,-7328.038826,-995.924147
59545.940042,592.164754,-11473.192101,1378.971896
59545.940351,-1110.308913,-11547.212695,383.047749
59545.940661,-3182.885551,-11769.274478,76.609550
59545.940971,-1258.350101,-9474.636058,1149.143247
59545.941280,1702.473667,-8290.306550,2374.896044
59545.941590,-740.205942,-4959.379811,0.000000
59545.941900,-1184.329507,-7179.997637,2451.505594
59545.942210,-74.020594,-9178.553681,-76.609550
59545.942519,-2072.576638,-8364.327145,0.000000
59545.942829,-2442.679609,-9030.512492,-1762.019645
59545.943139,-3997.112087,-10732.986159,0.000000
59545.943448,-1258.350101,-9400.615463,0.000000
59545.943758,444.123565,-7476.080014,612.876398
59545.944068,1406.391290,-7624.121203,2374.896044
59545.944377,1628.453072,-8290.306550,2374.896044
59545.944687,2294.638420,-7105.977043,536.266849
59545.944997,0.000000,-7179.997637,0.000000
59545.945307,-74.020594,-13915.871710,2374.896044
59545.945616,-3034.844362,-10732.986159,-2451.505594
59545.945926,-74.020594,-10066.800811,-383.047749
59545.946236,222.061783,-7105.977043,0.000000
59545.946545,74.020594,-6587.832884,76.609550
59545.946855,444.123565,-5847.626942,153.219100
59545.947165,1776.494261,-9548.656652,1838.629195
59545.947474,2294.638420,-13027.624579,3447.429741
59545.947784,-666.185348,-13915.871710,-76.609550
59545.948094,-4737.318029,-9548.656652,0.000000
59545.948404,2294.638420,-11251.130318,-76.609550
59545.948713,592.164754,-4811.338623,0.000000
59545.949023,2294.638420,-8290.306550,-76.609550
59545.949333,1110.308913,-7179.997637,0.000000
59545.949642,2146.597232,-10955.047942,919.314598
59545.949952,666.185348,-11473.192101,1378.971896
59545.950262,-2368.659014,-11917.315666,0.000000
59545.950571,-1776.494261,-10881.027347,1991.848295
59545.950881,-74.020594,-10362.883188,-76.609550
59545.951191,-2368.659014,-5403.503377,0.000000
59545.951501,-74.020594,-8290.306550,-76.609550
59545.951810,0.000000,-5625.565159,0.000000
59545.952120,3478.967927,-10658.965565,2068.457845
59545.952430,-814.226536,-10362.883188,919.314598
59545.952739,-3034.844362,-12065.356855,842.705048
59545.953049,-2368.659014,-10066.800811,0.000000
59545.953359,-2368.659014,-5995.668130,0.000000
59545.953668,-1776.494261,-4811.338623,1225.752797
59545.953978,296.082377,-6883.915261,1838.629195
59545.954288,-1258.350101,-4811.338623,-1685.410096
59545.954598,0.000000,-11029.068536,2145.067394
59545.954907,-1258.350101,-13027.624579,-76.609550
59545.955217,-2442.679609,-13989.892304,1072.533697
59545.955527,-2220.617826,-9474.636058,76.609550
59545.955836,-962.267725,-5847.626942,383.047749
59545.956146,-444.123565,-5551.544565,689.485948
59545.956456,0.000000,-4811.338623,0.000000
59545.956765,0.000000,-7179.997637,1225.752797
59545.957075,1776.494261,-11029.068536,2451.505594
59545.957385,-74.020594,-13027.624579,1762.019645
59545.957695,-2960.823768,-8512.368333,612.876398
59545.958004,-74.020594,-9474.636058,-76.609550
59545.958314,148.041188,-7476.080014,612.876398
59545.958624,-666.185348,-8660.409521,229.828649
59545.958933,888.247130,-7698.141797,306.438199
59545.959243,1258.350101,-10881.027347,1225.752797
59545.959553,-222.061783,-8586.388927,383.047749
59545.959862,-3552.988522,-8364.327145,0.000000
59545.960172,-1184.329507,-8364.327145,1225.752797
59545.960482,2294.638420,-9474.636058,-76.609550
59545.960792,-1184.329507,-7772.162391,612.876398
59545.961101,-74.020594,-11251.130318,2374.896044
59545.961411,1184.329507,-7179.997637,1225.752797
59545.961721,3997.112087,-7402.059420,1455.581446
59545.962030,1850.514855,-7105.977043,842.705048
59545.962340,-1110.308913,-11843.295072,842.705048
59545.962650,-74.020594,-13027.624579,-76.609550
59545.962959,-3330.926739,-12139.377449,-1608.800546
59545.963269,-3256.906145,-10732.986159,0.000000
59545.963579,-74.020594,-11547.212695,-76.609550
59545.963889,0.000000,-3627.009116,0.000000
59545.964198,4663.297435,-7772.162391,3983.696590
59545.964508,0.000000,-5403.503377,459.657299
59545.964818,-1628.453072,-11547.212695,1455.581446
59545.965127,-1776.494261,-12731.542202,842.705048
59545.965437,-2590.720797,-11695.253884,383.047749
59545.965747,-2442.679609,-9474.636058,-76.609550
59545.966056,-2442.679609,-5625.565159,-689.485948
59545.966366,0.000000,-3627.009116,-2145.067394
59545.966676,2664.741391,-7772.162391,3983.696590
59545.966986,1702.473667,-10658.965565,2374.896044
59545.967295,-2368.659014,-10732.986159,2451.505594
59545.967605,-3256.906145,-9844.739029,0.000000
59545.967915,-2072.576638,-8956.491898,919.314598
59545.968224,-2072.576638,-7179.997637,536.266849
59545.968534,74.020594,-5699.585753,842.705048
59545.968844,4071.132681,-8290.306550,3600.648841
59545.969153,4663.297435,-8882.471304,2374.896044
59545.969463,-962.267725,-10066.800811,-76.609550
59545.969773,-4737.318029,-10140.821405,612.876398
59545.970082,-74.020594,-12435.459826,1762.019645
59545.970392,-3478.967927,-5995.668130,0.000000
59545.970702,-2960.823768,-6587.832884,-919.314598
59545.971012,0.000000,-6661.853478,76.609550
59545.971321,1554.432478,-8142.265362,153.219100
59545.971631,1110.308913,-8660.409521,842.705048
59545.971941,-74.020594,-13027.624579,2528.115143
59545.972250,-74.020594,-13915.871710,2374.896044
59545.972560,-74.020594,-8734.430116,-1608.800546
59545.972870,0.000000,-8364.327145,1225.752797
59545.973179,-1258.350101,-7698.141797,-689.485948
59545.973489,0.000000,-5403.503377,0.000000
59545.973799,2886.803174,-8882.471304,842.705048
59545.974109,1998.556043,-9844.739029,842.705048
59545.974418,-592.164754,-11917.315666,766.095498
59545.974728,-592.164754,-11843.295072,612.876398
59545.975038,0.000000,-12065.356855,1838.629195
59545.975347,-74.020594,-10955.047942,1149.143247
59545.975657,-2442.679609,-8882.471304,-1302.362347
59545.975967,0.000000,-4811.338623,0.000000
59545.976276,4071.132681,-8882.471304,2374.896044
59545.976586,0.000000,-5403.503377,0.000000
59545.976896,-74.020594,-10658.965565,1762.019645
59545.977206,-1628.453072,-11251.130318,383.047749
59545.977515,-1406.391290,-9844.739029,306.438199
59545.977825,-2590.720797,-9104.533087,-689.485948
59545.978135,-2960.823768,-7772.162391,0.000000
59545.978444,1776.494261,-7476.080014,1225.752797
59545.978754,3478.967927,-11251.130318,3600.648841
59545.979064,-814.226536,-8142.265362,-689.485948
59545.979373,-2072.576638,-11473.192101,1532.190996
59545.979683,-1258.350101,-10362.883188,-383.047749
59545.979993,-1406.391290,-9474.636058,-76.609550
59545.980303,-3034.844362,-7624.121203,-383.047749
59545.980612,-1258.350101,-7624.121203,536.266849
59545.980922,2220.617826,-6883.915261,1378.971896
59545.981232,1184.329507,-4811.338623,1225.752797
59545.981541,592.164754,-7772.162391,1838.629195
59545.981851,888.247130,-11473.192101,3907.087040
59545.982161,-74.020594,-12435.459826,-76.609550
59545.982470,-2960.823768,-10732.986159,0.000000
59545.982780,-1258.350101,-13027.624579,-76.609550
59545.983090,-74.020594,-9474.636058,1149.143247
59545.983400,1702.473667,-7624.121203,1072.533697
59545.983709,2738.761985,-6291.750507,2068.457845
59545.984019,1332.370696,-8734.430116,2298.286494
59545.984329,-2220.617826,-7772.162391,612.876398
59545.984638,0.000000,-10140.821405,1225.752797
59545.984948,-2072.576638,-9548.656652,1838.629195
59545.985258,-666.185348,-9474.636058,-76.609550
59545.985567,0.000000,-6291.750507,306.438199
59545.985877,4663.297435,-9474.636058,3600.648841
59545.986187,2738.761985,-7920.203579,2604.724693
59545.986497,-74.020594,-10881.027347,1302.362347
59545.986806,-1036.288319,-11917.315666,1915.238745
59545.987116,-296.082377,-11399.171507,1225.752797
59545.987426,-2590.720797,-7328.038826,-2451.505594
59545.987735,-5329.482782,-7179.997637,-2145.067394
59545.988045,-2368.659014,-5995.668130,0.000000
59545.988355,4663.297435,-10658.965565,2987.772442
59545.988664,0.000000,-7179.997637,766.095498
59545.988974,1628.453072,-12435.459826,5515.887586
59545.989284,0.000000,-9548.656652,1838.629195
59545.989594,-592.164754,-9030.512492,1455.581446
59545.989903,-2516.700203,-8216.285956,76.609550
59545.990213,-3627.009116,-8734.430116,-383.047749
59545.990523,-666.185348,-8290.306550,-1302.362347
59545.990832,74.020594,-7254.018232,76.609550
59545.991142,-3552.988522,-7179.997637,0.000000
59545.991452,-148.041188,-10732.986159,3370.820191
59545.991761,-74.020594,-9474.636058,1149.143247
59545.992071,-1184.329507,-9548.656652,3064.381992
59545.992381,-3849.070898,-9548.656652,153.219100
59545.992691,-2368.659014,-9104.533087,306.438199
59545.993000,-370.102971,-7550.100608,383.047749
59545.993310,1110.308913,-6365.771101,1225.752797
59545.993620,2294.638420,-7698.141797,1149.143247
59545.993929,1110.308913,-7105.977043,1149.143247
59545.994239,-1776.494261,-8364.327145,0.000000
59545.994549,-1184.329507,-11325.150913,1532.190996
59545.994858,-2442.679609,-12879.583391,-76.609550
59545.995168,-2368.659014,-8364.327145,1225.752797
59545.995478,592.164754,-4811.338623,0.000000
59545.995788,2442.679609,-5847.626942,842.705048
59545.996097,1702.473667,-7698.141797,1302.362347
59545.996407,1406.391290,-10732.986159,1455.581446
59545.996717,3478.967927,-14211.954086,2987.772442
59545.997026,-666.185348,-11547.212695,-76.609550
59545.997336,-6439.791695,-7476.080014,-3677.258390
59545.997646,-740.205942,-8586.388927,-229.828649
59545.997955,814.226536,-6217.729913,-995.924147
59545.998265,0.000000,-5403.503377,1225.752797
59545.998575,0.000000,-9326.594869,0.000000
59545.998885,0.000000,-10955.047942,459.657299
59545.999194,222.061783,-11547.212695,842.705048
59545.999504,-1258.350101,-10140.821405,306.438199
59545.999814,-74.020594,-11251.130318,2068.457845
59546.000123,2294.638420,-9474.636058,-76.609550
59546.000433,2886.803174,-8290.306550,-76.609550
59546.000743,0.000000,-7179.997637,306.438199
59546.001052,888.247130,-11473.192101,2987.772442
59546.001362,-2368.659014,-7772.162391,0.000000
59546.001672,-1258.350101,-8882.471304,-383.047749
59546.001982,-3849.070898,-9252.574275,-766.095498
59546.002291,-3330.926739,-8586.388927,-306.438199
59546.002601,0.000000,-8068.244768,689.485948
59546.002911,2368.659014,-10362.883188,3983.696590
59546.003220,1406.391290,-10658.965565,3294.210641
59546.003530,-74.020594,-9474.636058,-76.609550
59546.003840,0.000000,-8364.327145,1225.752797
59546.004149,1110.308913,-9178.553681,2374.896044
59546.004459,-5625.565159,-5995.668130,-2451.505594
59546.004769,-1850.514855,-8290.306550,-383.047749
59546.005078,-740.205942,-7698.141797,0.000000
59546.005388,370.102971,-8586.388927,842.705048
59546.005698,-592.164754,-8956.491898,766.095498
59546.006008,0.000000,-10140.821405,3064.381992
59546.006317,2516.700203,-10732.986159,2451.505594
59546.006627,2886.803174,-11251.130318,2374.896044
59546.006937,-4737.318029,-7476.080014,0.000000
59546.007246,-1258.350101,-9474.636058,1608.800546
59546.007556,-74.020594,-7698.141797,-995.924147
59546.007866,2590.720797,-8290.306550,1149.143247
59546.008175,370.102971,-8512.368333,1072.533697
59546.008485,814.226536,-8586.388927,1455.581446
59546.008795,1554.432478,-10214.842000,1685.410096
59546.009105,-2368.659014,-9548.656652,1225.752797
59546.009414,-4145.153275,-10732.986159,0.000000
59546.009724,-74.020594,-11843.295072,-76.609550
59546.010034,-2072.576638,-7772.162391,0.000000
59546.010343,2294.638420,-9178.553681,2374.896044
59546.010653,1110.308913,-8290.306550,-76.609550
59546.010963,2664.741391,-10362.883188,2757.943793
59546.011272,1332.370696,-9918.759623,1991.848295
59546.011582,-1110.308913,-8734.430116,766.095498
59546.011892,-2738.761985,-9844.739029,383.047749
59546.012201,-2368.659014,-5995.668130,0.000000
59546.012511,1184.329507,-8364.327145,1225.752797
59546.012821,592.164754,-8364.327145,2451.505594
59546.013130,-74.020594,-11251.130318,1762.019645
59546.013440,0.000000,-9548.656652,612.876398
59546.013749,2294.638420,-10658.965565,2068.457845
59546.014059,-1998.556043,-8364.327145,0.000000
59546.014369,-2294.638420,-9474.636058,1072.533697
59546.014678,-888.247130,-8512.368333,76.609550
59546.014988,222.061783,-8512.368333,842.705048
59546.015298,0.000000,-8956.491898,2757.943793
59546.015607,592.164754,-9992.780217,3524.039291
59546.015917,2294.638420,-11843.295072,3600.648841
59546.016227,-1258.350101,-6513.812290,0.000000
59546.016536,-2368.659014,-9696.697840,1072.533697
59546.016846,-2738.761985,-6809.894666,-2528.115143
59546.017155,-74.020594,-9178.553681,-76.609550
59546.017465,592.164754,-7105.977043,306.438199
59546.017775,0.000000,-9918.759623,919.314598
59546.018084,740.205942,-11103.089130,2145.067394
59546.018394,0.000000,-10140.821405,1838.629195
59546.018704,0.000000,-9548.656652,1225.752797
59546.019013,-2738.761985,-10510.924376,1608.800546
59546.019323,-2960.823768,-4811.338623,-1685.410096
59546.019633,296.082377,-7920.203579,1378.971896
59546.019942,2294.638420,-8882.471304,-76.609550
59546.020252,-74.020594,-11843.295072,2374.896044
59546.020561,814.226536,-11547.212695,2221.676944
59546.020871,814.226536,-10732.986159,2221.676944
59546.021181,-666.185348,-8290.306550,1685.410096
59546.021490,-4441.235652,-5995.668130,0.000000
59546.021800,-2368.659014,-5403.503377,0.000000
59546.022110,1702.473667,-11547.212695,2987.772442
59546.022419,-74.020594,-7698.141797,-383.047749
59546.022729,444.123565,-11325.150913,2451.505594
59546.023038,3478.967927,-13027.624579,3600.648841
59546.023348,1258.350101,-10584.944971,2834.553343
59546.023658,-1554.432478,-10214.842000,1072.533697
59546.023967,-2516.700203,-10436.903782,842.705048
59546.024277,-962.267725,-8438.347739,842.705048
59546.024587,74.020594,-6661.853478,-1685.410096
59546.024896,0.000000,-4811.338623,0.000000
59546.025206,0.000000,-7179.997637,2451.505594
59546.025516,4367.215058,-11547.212695,3600.648841
59546.025825,-2072.576638,-9548.656652,0.000000
59546.026135,-1628.453072,-13027.624579,2374.896044
59546.026444,-3256.906145,-9844.739029,306.438199
59546.026754,-1998.556043,-8438.347739,-536.266849
59546.027064,-1110.308913,-7476.080014,-383.047749
59546.027373,-1628.453072,-8068.244768,306.438199
59546.027683,-74.020594,-8142.265362,-383.047749
59546.027993,0.000000,-8364.327145,689.485948
59546.028302,-3552.988522,-6587.832884,0.000000
59546.028612,-1036.288319,-9844.739029,2298.286494
59546.028922,-1850.514855,-6439.791695,-383.047749
59546.029231,0.000000,-7179.997637,1838.629195
59546.029541,-1184.329507,-7179.997637,0.000000
59546.029850,-74.020594,-9844.739029,536.266849
59546.030160,740.205942,-10510.924376,1149.143247
59546.030470,740.205942,-11177.109724,1149.143247
59546.030779,-74.020594,-9178.553681,-76.609550
59546.031089,-2442.679609,-8882.471304,-1608.800546
59546.031399,-4737.318029,-5995.668130,-2757.943793
59546.031708,1036.288319,-11251.130318,1378.971896
59546.032018,518.144159,-8882.471304,-153.219100
59546.032328,0.000000,-9548.656652,2451.505594
59546.032637,1332.370696,-6587.832884,1225.752797
59546.032947,2960.823768,-8290.306550,2374.896044
59546.033256,814.226536,-7994.224174,995.924147
59546.033566,-1924.535449,-10510.924376,-459.657299
59546.033876,-74.020594,-11843.295072,-76.609550
59546.034185,-74.020594,-11843.295072,-689.485948
59546.034495,-3256.906145,-5995.668130,-3370.820191
59546.034805,296.082377,-9400.615463,1532.190996
59546.035114,2294.638420,-7105.977043,536.266849
59546.035424,0.000000,-7179.997637,2451.505594
59546.035733,-666.185348,-9548.656652,919.314598
59546.036043,-1480.411884,-10807.006753,1532.190996
59546.036353,-1184.329507,-9992.780217,306.438199
59546.036662,0.000000,-9178.553681,919.314598
59546.036972,1702.473667,-9178.553681,-76.609550
59546.037282,-74.020594,-9474.636058,3600.648841
59546.037591,0.000000,-5995.668130,0.000000
59546.037901,592.164754,-8364.327145,2451.505594
59546.038211,-666.185348,-9474.636058,1149.143247
59546.038520,-6513.812290,-7772.162391,0.000000
59546.038830,-3701.029710,-10214.842000,-1378.971896
59546.039139,-2664.741391,-10436.903782,76.609550
59546.039449,-1480.411884,-8956.491898,612.876398
59546.039759,-296.082377,-8512.368333,2298.286494
59546.040068,3404.947333,-9326.594869,4826.401637
59546.040378,4367.215058,-8882.471304,5132.839837
59546.040688,-74.020594,-8290.306550,2374.896044
59546.040997,-2960.823768,-7772.162391,1225.752797
59546.041307,-1258.350101,-10510.924376,-76.609550
59546.041617,-4145.153275,-7179.997637,0.000000
59546.041926,-666.185348,-11103.089130,842.705048
59546.042236,-814.226536,-9104.533087,1455.581446
59546.042545,74.020594,-9474.636058,1455.581446
59546.042855,814.226536,-7402.059420,1225.752797
59546.043165,0.000000,-10140.821405,3064.381992
59546.043474,1332.370696,-9474.636058,2757.943793
59546.043784,2294.638420,-11843.295072,-76.609550
59546.044094,0.000000,-7772.162391,306.438199
59546.044403,1110.308913,-11251.130318,2987.772442
59546.044713,-962.267725,-5403.503377,0.000000
59546.045022,2294.638420,-7994.224174,2681.334243
59546.045332,1702.473667,-6439.791695,1685.410096
59546.045642,518.144159,-8956.491898,1532.190996
59546.045951,-1258.350101,-9992.780217,689.485948
59546.046261,-3256.906145,-10732.986159,0.000000
59546.046571,-2368.659014,-11029.068536,0.000000
59546.046880,-74.020594,-11843.295072,2374.896044
59546.047190,-2368.659014,-5995.668130,0.000000
59546.047500,2590.720797,-8216.285956,3294.210641
59546.047809,1702.473667,-5921.647536,536.266849
59546.048119,1110.308913,-10362.883188,2681.334243
59546.048428,-370.102971,-9918.759623,1149.143247
59546.048738,0.000000,-9696.697840,383.047749
59546.049048,-740.205942,-9622.677246,306.438199
59546.049357,-2368.659014,-7772.162391,0.000000
59546.049667,0.000000,-7772.162391,0.000000
59546.049977,3108.864956,-11547.212695,3600.648841
59546.050286,-74.020594,-9474.636058,-76.609550
59546.050596,-3256.906145,-9548.656652,919.314598
59546.050906,-74.020594,-11843.295072,-76.609550
59546.051215,-148.041188,-9474.636058,1225.752797
59546.051525,-1554.432478,-9622.677246,459.657299
59546.051834,-1036.288319,-8734.430116,1455.581446
59546.052144,444.123565,-7624.121203,1685.410096
59546.052454,0.000000,-3627.009116,0.000000
59546.052763,0.000000,-2442.679609,0.000000
59546.053073,296.082377,-7179.997637,2451.505594
59546.053383,-74.020594,-10658.965565,-383.047749
59546.053692,-1184.329507,-12213.398043,2145.067394
59546.054002,-74.020594,-14211.954086,-76.609550
59546.054312,-2368.659014,-11917.315666,0.000000
59546.054621,74.020594,-7994.224174,0.000000
59546.054931,1184.329507,-5255.462188,306.438199
59546.055240,962.267725,-6735.874072,612.876398
59546.055550,-666.185348,-5477.523971,-995.924147
59546.055860,0.000000,-9548.656652,-1302.362347
59546.056169,0.000000,-10732.986159,1225.752797
59546.056479,-74.020594,-13027.624579,1149.143247
59546.056789,0.000000,-8956.491898,1762.019645
59546.057098,3478.967927,-9474.636058,3600.648841
59546.057408,1184.329507,-5847.626942,612.876398
59546.057717,740.205942,-8882.471304,536.266849
59546.058027,740.205942,-9104.533087,612.876398
59546.058337,222.061783,-12139.377449,229.828649
59546.058646,-370.102971,-12435.459826,-76.609550
59546.058956,-2442.679609,-13027.624579,-76.609550
59546.059266,0.000000,-10732.986159,2451.505594
59546.059575,2886.803174,-8586.388927,2374.896044
59546.059885,148.041188,-3923.091493,0.000000
59546.060195,2368.659014,-7698.141797,4596.572988
59546.060504,0.000000,-5551.544565,612.876398
59546.060814,148.041188,-9844.739029,995.924147
59546.061123,-2368.659014,-11991.336260,536.266849
59546.061433,-4219.173869,-13841.851115,76.609550
59546.061743,-666.185348,-11843.295072,-76.609550
59546.062052,-74.020594,-9474.636058,-76.609550
59546.062362,-3256.906145,-3034.844362,0.000000
59546.062672,-74.020594,-5625.565159,2145.067394
59546.062981,-444.123565,-5403.503377,-1991.848295
59546.063291,0.000000,-10732.986159,3677.258390
59546.063601,-2960.823768,-12213.398043,766.095498
59546.063910,-2812.782580,-12805.562797,1608.800546
59546.064220,-1554.432478,-9474.636058,1302.362347
59546.064529,-666.185348,-4293.194464,842.705048
59546.064839,2294.638420,-4737.318029,2374.896044
59546.065149,-74.020594,-7105.977043,3294.210641
59546.065458,-666.185348,-6365.771101,-995.924147
59546.065768,0.000000,-11917.315666,612.876398
59546.066078,-1850.514855,-15988.448347,-76.609550
59546.066387,-4145.153275,-11917.315666,612.876398
59546.066697,-1258.350101,-9696.697840,766.095498
59546.067007,1554.432478,-5181.441594,1455.581446
59546.067316,1406.391290,-5329.482782,1608.800546
59546.067626,2442.679609,-5403.503377,1608.800546
59546.067935,4663.297435,-11843.295072,3907.087040
59546.068245,2886.803174,-12435.459826,3983.696590
59546.068555,-74.020594,-14211.954086,-76.609550
59546.068864,-2368.659014,-10140.821405,0.000000
59546.069174,1110.308913,-11251.130318,-76.609550
59546.069484,0.000000,-4811.338623,0.000000
59546.069793,74.020594,-5847.626942,76.609550
59546.070103,740.205942,-6587.832884,153.219100
59546.070412,814.226536,-9400.615463,0.000000
59546.070722,0.000000,-10732.986159,0.000000
59546.071032,-148.041188,-15174.221811,1838.629195
59546.071341,1332.370696,-14285.974681,3830.477490
59546.071651,1998.556043,-9474.636058,1149.143247
59546.071961,0.000000,-5403.503377,612.876398
59546.072270,2294.638420,-8290.306550,3600.648841
59546.072580,0.000000,-2442.679609,0.000000
59546.072890,962.267725,-9474.636058,536.266849
59546.073199,-2368.659014,-12139.377449,229.828649
59546.073509,-2960.823768,-13323.706956,-459.657299
59546.073818,-2664.741391,-13175.665768,-76.609550
59546.074128,-1776.494261,-8956.491898,0.000000
59546.074438,-1776.494261,-6587.832884,1225.752797
59546.074747,-74.020594,-4737.318029,-76.609550
59546.075057,0.000000,-4811.338623,612.876398
59546.075367,2294.638420,-8882.471304,2374.896044
59546.075676,-2886.803174,-9548.656652,0.000000
59546.075986,-1998.556043,-13027.624579,1762.019645
59546.076296,-1998.556043,-11103.089130,766.095498
59546.076605,-1776.494261,-8956.491898,459.657299
59546.076915,-1184.329507,-7328.038826,306.438199
59546.077224,0.000000,-4811.338623,0.000000
59546.077534,0.000000,-7179.997637,1225.752797
59546.077844,2590.720797,-9474.636058,2374.896044
59546.078153,-1258.350101,-12435.459826,-76.609550
59546.078463,-2368.659014,-11029.068536,2451.505594
59546.078773,-74.020594,-10658.965565,-76.609550
59546.079082,148.041188,-7476.080014,1991.848295
59546.079392,0.000000,-6069.688724,1225.752797
59546.079701,2368.659014,-4071.132681,1149.143247
59546.080011,2664.741391,-8068.244768,2145.067394
59546.080321,0.000000,-6587.832884,0.000000
59546.080630,-4737.318029,-10732.986159,0.000000
59546.080940,-444.123565,-14952.160028,2604.724693
59546.081250,-962.267725,-11547.212695,153.219100
59546.081559,-74.020594,-9474.636058,-76.609550
59546.081869,-74.020594,-7105.977043,-76.609550
59546.082179,1628.453072,-4515.256246,1532.190996
59546.082488,3182.885551,-5847.626942,1762.019645
59546.082798,1332.370696,-8068.244768,1838.629195
59546.083107,-740.205942,-11325.150913,1685.410096
59546.083417,-2368.659014,-12509.480420,0.000000
59546.083727,-4145.153275,-9844.739029,0.000000
59546.084036,-1776.494261,-9844.739029,1378.971896
59546.084346,-666.185348,-6513.812290,-76.609550
59546.084656,0.000000,-3627.009116,1225.752797
59546.084965,4663.297435,-9474.636058,2374.896044
59546.085275,0.000000,-10436.903782,1225.752797
59546.085585,-2220.617826,-14582.057057,1302.362347
59546.085894,-2368.659014,-13101.645173,689.485948
59546.086204,-3182.885551,-10140.821405,229.828649
59546.086513,-3108.864956,-5773.606348,-1302.362347
59546.086823,-2442.679609,-2220.617826,-1915.238745
59546.087133,0.000000,-4811.338623,612.876398
