#time,accel_x,accel_y,accel_z
163532.290382,-740.205942,-9622.677246,-612.876398
163532.290701,-666.185348,-9770.718434,-612.876398
163532.291021,-74.020594,-8956.491898,-1302.362347
163532.291340,-74.020594,-9474.636058,-1149.143247
163532.291660,-74.020594,-10066.800811,-76.609550
163532.291979,-2368.659014,-7179.997637,-2451.505594
163532.292298,0.000000,-9548.656652,153.219100
163532.292618,0.000000,-9548.656652,0.000000
163532.292937,-370.102971,-8882.471304,-612.876398
163532.293257,0.000000,-9474.636058,-383.047749
163532.293576,0.000000,-9030.512492,0.000000
163532.293896,0.000000,-8068.244768,-1532.190996
163532.294215,-74.020594,-8512.368333,-689.485948
163532.294534,518.144159,-9474.636058,-76.609550
163532.294854,-74.020594,-7994.224174,-306.438199
163532.295173,-1184.329507,-8364.327145,0.000000
163532.295493,-74.020594,-10658.965565,1149.143247
163532.295812,-2368.659014,-8364.327145,0.000000
163532.296132,-444.123565,-9548.656652,-153.219100
163532.296451,-1332.370696,-9548.656652,0.000000
163532.296770,-370.102971,-9474.636058,0.000000
163532.297090,-74.020594,-8290.306550,-689.485948
163532.297409,-74.020594,-8956.491898,0.000000
163532.297729,-74.020594,-10658.965565,-76.609550
163532.298048,-1554.432478,-8660.409521,-1455.581446
163532.298368,-3256.906145,-8364.327145,-1838.629195
163532.298687,740.205942,-11621.233289,1532.190996
163532.299006,-1184.329507,-8438.347739,-919.314598
163532.299326,-222.061783,-9252.574275,-459.657299
163532.299645,-370.102971,-9400.615463,-1225.752797
163532.299965,0.000000,-8734.430116,-153.219100
163532.300284,-74.020594,-8808.450710,-1685.410096
163532.300604,-1184.329507,-8660.409521,0.000000
163532.300923,814.226536,-9474.636058,306.438199
163532.301242,2294.638420,-9474.636058,-76.609550
163532.301562,-1184.329507,-7772.162391,0.000000
163532.301881,296.082377,-9844.739029,3140.991542
163532.302201,0.000000,-8586.388927,153.219100
163532.302520,666.185348,-8882.471304,229.828649
163532.302840,0.000000,-8882.471304,0.000000
163532.303159,-2812.782580,-7772.162391,0.000000
163532.303478,-2368.659014,-8068.244768,-2145.067394
163532.303798,-1110.308913,-9474.636058,-383.047749
163532.304117,-2368.659014,-8068.244768,0.000000
163532.304437,-518.144159,-10140.821405,612.876398
163532.304756,-74.020594,-11251.130318,-76.609550
163532.305076,0.000000,-9548.656652,153.219100
163532.305395,-740.205942,-9474.636058,-766.095498
163532.305714,-592.164754,-9326.594869,-459.657299
163532.306034,-1110.308913,-9474.636058,-842.705048
163532.306353,-2220.617826,-7476.080014,-1991.848295
163532.306673,-74.020594,-11843.295072,-76.609550
163532.306992,-666.185348,-8734.430116,-1455.581446
163532.307312,0.000000,-9548.656652,0.000000
163532.307631,740.205942,-10140.821405,1532.190996
163532.307950,2294.638420,-11843.295072,1762.019645
163532.308270,0.000000,-8956.491898,0.000000
163532.308589,-148.041188,-9178.553681,-76.609550
163532.308909,148.041188,-8882.471304,76.609550
163532.309228,148.041188,-9178.553681,306.438199
163532.309548,814.226536,-8586.388927,612.876398
163532.309867,296.082377,-9474.636058,1225.752797
163532.310186,518.144159,-9178.553681,612.876398
163532.310506,1998.556043,-11251.130318,-76.609550
163532.310825,-962.267725,-7698.141797,-383.047749
163532.311145,-74.020594,-11547.212695,1762.019645
163532.311464,-740.205942,-8364.327145,0.000000
163532.311784,-518.144159,-8956.491898,-229.828649
163532.312103,-888.247130,-9178.553681,0.000000
163532.312422,-2960.823768,-7772.162391,0.000000
163532.312742,-1776.494261,-7476.080014,-919.314598
163532.313061,-1184.329507,-9548.656652,0.000000
163532.313381,-74.020594,-11547.212695,-76.609550
163532.313700,-2368.659014,-8956.491898,-1838.629195
163532.314020,-74.020594,-10658.965565,-76.609550
163532.314339,-148.041188,-10436.903782,-306.438199
163532.314658,-296.082377,-9548.656652,-919.314598
163532.314978,0.000000,-9474.636058,-612.876398
163532.315297,74.020594,-9104.533087,-229.828649
163532.315617,-2368.659014,-7179.997637,0.000000
163532.315936,296.082377,-9474.636058,-76.609550
163532.316256,-2368.659014,-8364.327145,0.000000
163532.316575,592.164754,-9696.697840,306.438199
163532.316894,814.226536,-11843.295072,-76.609550
163532.317214,0.000000,-10436.903782,2451.505594
163532.317533,148.041188,-8808.450710,0.000000
163532.317853,0.000000,-8216.285956,306.438199
163532.318172,814.226536,-8734.430116,383.047749
163532.318492,0.000000,-7179.997637,0.000000
163532.318811,592.164754,-8068.244768,0.000000
163532.319130,592.164754,-8956.491898,919.314598
163532.319450,1110.308913,-9326.594869,-76.609550
163532.319769,-2294.638420,-7179.997637,-2145.067394
163532.320089,0.000000,-9548.656652,0.000000
163532.320408,518.144159,-8808.450710,-1532.190996
163532.320728,2072.576638,-10140.821405,-383.047749
163532.321047,2442.679609,-9474.636058,76.609550
163532.321366,2960.823768,-9030.512492,-229.828649
163532.321686,5255.462188,-9474.636058,-76.609550
163532.322005,3849.070898,-8660.409521,0.000000
163532.322325,4959.379811,-9474.636058,383.047749
163532.322644,4959.379811,-9474.636058,76.609550
163532.322964,4959.379811,-9474.636058,459.657299
163532.323283,3552.988522,-8364.327145,0.000000
163532.323602,1184.329507,-7772.162391,-2451.505594
163532.323922,5847.626942,-11547.212695,-995.924147
163532.324241,4959.379811,-9104.533087,-1838.629195
163532.324561,6957.935855,-8364.327145,-1608.800546
163532.324880,10584.944971,-11843.295072,-76.609550
163532.325200,8290.306550,-8734.430116,383.047749
163532.325519,8142.265362,-9548.656652,536.266849
163532.325838,6809.894666,-10288.862594,536.266849
163532.326158,3552.988522,-11325.150913,0.000000
163532.326477,2516.700203,-12583.501014,1072.533697
163532.326797,2294.638420,-11103.089130,306.438199
163532.327116,2146.597232,-9696.697840,0.000000
163532.327436,5551.544565,-9474.636058,2374.896044
163532.327755,4663.297435,-5921.647536,-76.609550
163532.328074,4811.338623,-5181.441594,536.266849
163532.328394,3997.112087,-4959.379811,-1915.238745
163532.328713,3849.070898,-6069.688724,-2451.505594
163532.329033,3330.926739,-8586.388927,-2681.334243
163532.329352,2664.741391,-11769.274478,-1532.190996
163532.329672,1776.494261,-14285.974681,-2374.896044
163532.329991,3478.967927,-18949.272115,1762.019645
163532.330310,2886.803174,-15396.283594,1149.143247
163532.330630,2664.741391,-11325.150913,3064.381992
163532.330949,5847.626942,-8882.471304,-76.609550
163532.331269,2368.659014,-4515.256246,-306.438199
163532.331588,1702.473667,-4071.132681,-1915.238745
163532.331908,2664.741391,-5551.544565,-383.047749
163532.332227,4367.215058,-9104.533087,1225.752797
163532.332546,888.247130,-9548.656652,1838.629195
163532.332866,-4737.318029,-9548.656652,0.000000
163532.333185,-2664.741391,-10140.821405,153.219100
163532.333505,-74.020594,-10362.883188,0.000000
163532.333824,666.185348,-7328.038826,-842.705048
163532.334144,3478.967927,-11251.130318,1762.019645
163532.334463,2368.659014,-9622.677246,2374.896044
163532.334782,2368.659014,-9178.553681,2145.067394
163532.335102,1036.288319,-8660.409521,229.828649
163532.335421,-2368.659014,-6291.750507,-3677.258390
163532.335741,-2886.803174,-7994.224174,-5745.716235
163532.336060,-3849.070898,-10140.821405,-5362.668486
163532.336380,148.041188,-11917.315666,-2451.505594
163532.336699,3923.091493,-14211.954086,4826.401637
163532.337018,1110.308913,-8586.388927,536.266849
163532.337338,1110.308913,-7994.224174,536.266849
163532.337657,1184.329507,-7179.997637,-689.485948
163532.337977,3775.050304,-8734.430116,1608.800546
163532.338296,6957.935855,-7920.203579,4826.401637
163532.338616,6735.874072,-7994.224174,4826.401637
163532.338935,3404.947333,-7105.977043,-689.485948
163532.339254,-2146.597232,-8882.471304,-7431.126331
163532.339574,-4737.318029,-11029.068536,-7814.174080
163532.339893,-1776.494261,-14285.974681,-4903.011187
163532.340213,-74.020594,-14211.954086,-4060.306139
163532.340532,1332.370696,-12805.562797,-1762.019645
163532.340852,4515.256246,-10732.986159,1225.752797
163532.341171,10362.883188,-8512.368333,5592.497135
163532.341490,15322.262999,-6513.812290,11568.042020
163532.341810,13027.624579,-2368.659014,9499.584175
163532.342129,8290.306550,-1258.350101,3677.258390
163532.342449,5625.565159,-6513.812290,-76.609550
163532.342768,2664.741391,-11843.295072,-76.609550
163532.343088,-1628.453072,-11917.315666,-4903.011187
163532.343407,-2442.679609,-14211.954086,-5286.058936
163532.343726,-3997.112087,-15026.180623,-8120.612279
163532.344046,-2664.741391,-14656.077652,-7507.735880
163532.344365,222.061783,-12361.439231,-3217.601092
163532.344685,5329.482782,-9400.615463,1532.190996
163532.345004,7476.080014,-7105.977043,1149.143247
163532.345324,7698.141797,-4811.338623,3064.381992
163532.345643,9474.636058,-4959.379811,4903.011187
163532.345962,9474.636058,-5033.400406,7584.345430
163532.346282,5255.462188,-4219.173869,1838.629195
163532.346601,6291.750507,-6809.894666,2451.505594
163532.346921,2812.782580,-8956.491898,-2451.505594
163532.347240,-888.247130,-12583.501014,-5362.668486
163532.347560,-2442.679609,-15988.448347,-6205.373534
163532.347879,-2812.782580,-16580.613101,-4366.744339
163532.348198,-666.185348,-14804.118840,-5286.058936
163532.348518,-370.102971,-14211.954086,-2528.115143
163532.348837,1184.329507,-8512.368333,229.828649
163532.349157,5329.482782,-5403.503377,3677.258390
163532.349476,6735.874072,-3182.885551,3524.039291
163532.349796,7846.182985,-4145.153275,6128.763984
163532.350115,6143.709319,-4219.173869,5132.839837
163532.350434,4441.235652,-5921.647536,3447.429741
163532.350754,3478.967927,-9474.636058,2374.896044
163532.351073,-1110.308913,-11843.295072,-2528.115143
163532.351393,-3108.864956,-14730.098246,-3140.991542
163532.351712,-5403.503377,-14211.954086,-7431.126331
163532.352032,-4737.318029,-12805.562797,-5975.544884
163532.352351,-3552.988522,-10732.986159,-2451.505594
163532.352670,2146.597232,-10362.883188,459.657299
163532.352990,5107.421000,-6587.832884,3140.991542
163532.353309,6439.791695,-4811.338623,4519.963438
163532.353629,5699.585753,-4737.318029,4290.134789
163532.353948,6957.935855,-7994.224174,4136.915689
163532.354268,592.164754,-5107.421000,0.000000
163532.354587,2072.576638,-9992.780217,-229.828649
163532.354906,-370.102971,-10658.965565,-2528.115143
163532.355226,-1258.350101,-11843.295072,-6971.469032
163532.355545,-74.020594,-13619.789333,-5592.497135
163532.355865,148.041188,-13175.665768,-3140.991542
163532.356184,3034.844362,-11843.295072,-842.705048
163532.356504,4959.379811,-10584.944971,1685.410096
163532.356823,6735.874072,-9770.718434,6052.154434
163532.357142,7624.121203,-7105.977043,6052.154434
163532.357462,9400.615463,-6365.771101,6665.030833
163532.357781,5921.647536,-4737.318029,4826.401637
163532.358101,2368.659014,-3923.091493,919.314598
163532.358420,2294.638420,-8290.306550,-1302.362347
163532.358740,-1776.494261,-9252.574275,-4749.792088
163532.359059,-2886.803174,-11621.233289,-6741.640382
163532.359378,-2146.597232,-12953.603985,-6894.859482
163532.359698,-370.102971,-14508.036463,-4290.134789
163532.360018,0.000000,-10732.986159,-3677.258390
163532.360338,4219.173869,-12361.439231,536.266849
163532.360658,6513.812290,-9918.759623,4749.792088
163532.360977,9178.553681,-7328.038826,5056.230287
163532.361297,9548.656652,-5921.647536,5745.716235
163532.361617,7624.121203,-4737.318029,1608.800546
163532.361937,2960.823768,-5995.668130,612.876398
163532.362257,3256.906145,-8216.285956,-1608.800546
163532.362576,1702.473667,-11843.295072,-2528.115143
163532.362896,296.082377,-11325.150913,-4290.134789
163532.363216,-3552.988522,-11325.150913,-7354.516781
163532.363536,74.020594,-14656.077652,-2911.162892
163532.363856,1036.288319,-13101.645173,-689.485948
163532.364175,4589.276840,-11103.089130,2681.334243
163532.364495,5403.503377,-6513.812290,3294.210641
163532.364815,5107.421000,-5329.482782,1608.800546
163532.365135,3997.112087,-4145.153275,842.705048
163532.365455,3552.988522,-5551.544565,3064.381992
163532.365774,6365.771101,-6291.750507,3677.258390
163532.366094,3552.988522,-6587.832884,612.876398
163532.366414,2886.803174,-10066.800811,-995.924147
163532.366734,1480.411884,-11917.315666,-1072.533697
163532.367054,-444.123565,-13027.624579,-1532.190996
163532.367373,-2368.659014,-10807.006753,-4596.572988
163532.367693,-518.144159,-12435.459826,-4366.744339
163532.368013,-1110.308913,-9548.656652,-3064.381992
163532.368333,962.267725,-8068.244768,-1915.238745
163532.368653,1184.329507,-6291.750507,0.000000
163532.368972,1628.453072,-8956.491898,2374.896044
163532.369292,0.000000,-5995.668130,612.876398
163532.369612,1332.370696,-8142.265362,842.705048
163532.369932,-1110.308913,-9548.656652,842.705048
163532.370252,-1998.556043,-8290.306550,0.000000
163532.370571,-74.020594,-10510.924376,-76.609550
163532.370891,2294.638420,-7994.224174,-76.609550
163532.371211,-74.020594,-10362.883188,-1915.238745
163532.371531,-3182.885551,-11843.295072,-1608.800546
163532.371851,-296.082377,-11843.295072,-76.609550
163532.372170,-1480.411884,-10140.821405,1838.629195
163532.372490,-5921.647536,-7772.162391,-2451.505594
163532.372810,-5033.400406,-8808.450710,-1225.752797
163532.373130,-3552.988522,-8956.491898,536.266849
163532.373450,-370.102971,-7179.997637,1225.752797
163532.373769,-74.020594,-8290.306550,-76.609550
163532.374089,-2368.659014,-8956.491898,2145.067394
163532.374409,-666.185348,-11251.130318,1991.848295
163532.374729,-518.144159,-10658.965565,-76.609550
163532.375049,-3627.009116,-7846.182985,-1915.238745
163532.375368,-7105.977043,-8956.491898,-612.876398
163532.375688,-6661.853478,-8364.327145,-3447.429741
163532.376008,-3404.947333,-8956.491898,-2374.896044
163532.376328,-2442.679609,-9844.739029,-689.485948
163532.376647,-1628.453072,-9326.594869,0.000000
163532.376967,-2738.761985,-8364.327145,-2451.505594
163532.377287,-1998.556043,-9548.656652,0.000000
163532.377607,-1776.494261,-9548.656652,0.000000
163532.377927,-2738.761985,-10658.965565,-76.609550
163532.378246,-1998.556043,-10658.965565,-76.609550
163532.378566,2368.659014,-8364.327145,3064.381992
163532.378886,5921.647536,-6957.935855,3294.210641
163532.379206,4367.215058,-5847.626942,1915.238745
163532.379526,1628.453072,-8586.388927,229.828649
163532.379845,0.000000,-8512.368333,-2451.505594
163532.380165,-1258.350101,-9548.656652,-1915.238745
163532.380485,-2442.679609,-10658.965565,-3753.867940
163532.380805,-5699.585753,-10214.842000,-3677.258390
163532.381125,-2960.823768,-11325.150913,-2451.505594
163532.381444,5847.626942,-9474.636058,2374.896044
163532.381764,3849.070898,-7328.038826,1838.629195
163532.382084,4663.297435,-8290.306550,2987.772442
163532.382404,4367.215058,-8216.285956,1991.848295
163532.382724,3627.009116,-8660.409521,2451.505594
163532.383043,814.226536,-8290.306550,-1302.362347
163532.383363,-74.020594,-10066.800811,-1302.362347
163532.383683,-370.102971,-10658.965565,-1608.800546
163532.384003,1924.535449,-8734.430116,-1302.362347
163532.384323,1776.494261,-9548.656652,-1838.629195
163532.384642,4663.297435,-13027.624579,-76.609550
163532.384962,740.205942,-10140.821405,-1991.848295
163532.385282,2220.617826,-10732.986159,-766.095498
163532.385602,1554.432478,-10066.800811,-1455.581446
163532.385922,-2368.659014,-9548.656652,0.000000
163532.386241,-2960.823768,-9548.656652,0.000000
163532.386561,518.144159,-8290.306550,76.609550
163532.386881,4663.297435,-10658.965565,2374.896044
163532.387201,4663.297435,-7994.224174,1149.143247
163532.387521,3478.967927,-7994.224174,1149.143247
163532.387840,3627.009116,-9474.636058,3294.210641
163532.388160,740.205942,-9030.512492,0.000000
163532.388480,-3034.844362,-9844.739029,-1838.629195
163532.388800,-4515.256246,-10362.883188,-2451.505594
163532.389120,-5921.647536,-9548.656652,-2451.505594
163532.389439,-1924.535449,-9548.656652,-2145.067394
163532.389759,-3182.885551,-7772.162391,-2451.505594
163532.390079,-1480.411884,-10140.821405,766.095498
163532.390399,-814.226536,-9474.636058,1762.019645
163532.390719,-74.020594,-8290.306550,-76.609550
163532.391038,-3256.906145,-7994.224174,-306.438199
163532.391358,-3701.029710,-8438.347739,-383.047749
163532.391678,-2368.659014,-7476.080014,-229.828649
163532.391998,-370.102971,-7920.203579,1149.143247
163532.392318,-2368.659014,-6587.832884,0.000000
163532.392637,-1258.350101,-8660.409521,-1608.800546
163532.392957,-1776.494261,-9548.656652,0.000000
163532.393277,-740.205942,-10362.883188,-3677.258390
163532.393597,-4737.318029,-13323.706956,-1991.848295
163532.393917,-4737.318029,-11917.315666,-1838.629195
163532.394236,-4145.153275,-10732.986159,-1991.848295
163532.394556,444.123565,-9030.512492,459.657299
163532.394876,1554.432478,-7254.018232,995.924147
163532.395196,592.164754,-5107.421000,0.000000
163532.395516,2664.741391,-7476.080014,2451.505594
163532.395835,4737.318029,-8734.430116,4060.306139
163532.396155,2294.638420,-10658.965565,3600.648841
163532.396475,-1258.350101,-9474.636058,-383.047749
163532.396795,-4737.318029,-10140.821405,-1225.752797
163532.397115,-1702.473667,-10214.842000,-1149.143247
163532.397434,-962.267725,-9474.636058,-1532.190996
163532.397754,-2294.638420,-10066.800811,-2068.457845
163532.398074,-2368.659014,-11325.150913,-1532.190996
163532.398394,2294.638420,-10658.965565,-689.485948
163532.398714,-592.164754,-9918.759623,-612.876398
163532.399033,-3330.926739,-8808.450710,-1302.362347
163532.399353,-2146.597232,-8142.265362,-1991.848295
163532.399673,-74.020594,-8808.450710,1225.752797
163532.399993,4145.153275,-7179.997637,3064.381992
163532.400313,2368.659014,-6587.832884,1838.629195
163532.400632,4367.215058,-10658.965565,2068.457845
163532.400952,4219.173869,-10066.800811,1762.019645
163532.401272,1184.329507,-8364.327145,-1762.019645
163532.401592,-74.020594,-11843.295072,-1302.362347
163532.401911,-4219.173869,-11103.089130,-3753.867940
163532.402231,-2960.823768,-11621.233289,-2374.896044
163532.402551,222.061783,-9918.759623,-1225.752797
163532.402871,0.000000,-8068.244768,1149.143247
163532.403191,2368.659014,-7254.018232,1072.533697
163532.403510,2886.803174,-6365.771101,1762.019645
163532.403830,4663.297435,-7105.977043,1762.019645
163532.404150,0.000000,-6587.832884,153.219100
163532.404470,-2442.679609,-7698.141797,-2604.724693
163532.404790,-2590.720797,-11103.089130,-842.705048
163532.405109,-1776.494261,-11325.150913,-1302.362347
163532.405429,-1184.329507,-10584.944971,-383.047749
163532.405749,-592.164754,-10140.821405,-76.609550
163532.406069,1554.432478,-11177.109724,2298.286494
163532.406389,962.267725,-9030.512492,1762.019645
163532.406708,-74.020594,-11251.130318,-76.609550
163532.407028,-3627.009116,-8956.491898,-1915.238745
163532.407348,-3701.029710,-9548.656652,-1838.629195
163532.407668,-1258.350101,-7550.100608,-1608.800546
163532.407988,740.205942,-8290.306550,919.314598
163532.408307,740.205942,-7254.018232,1072.533697
163532.408627,666.185348,-8290.306550,459.657299
163532.408947,2294.638420,-11843.295072,2068.457845
163532.409267,-888.247130,-11177.109724,-2451.505594
163532.409587,-4145.153275,-11621.233289,-919.314598
163532.409906,-2442.679609,-12287.418637,-1608.800546
163532.410226,-74.020594,-11991.336260,919.314598
163532.410546,0.000000,-6587.832884,0.000000
163532.410866,814.226536,-7698.141797,76.609550
163532.411186,2146.597232,-7624.121203,689.485948
163532.411505,2664.741391,-8364.327145,1915.238745
163532.411825,1998.556043,-8882.471304,1378.971896
163532.412145,-1184.329507,-8290.306550,1455.581446
163532.412465,-3108.864956,-9548.656652,-766.095498
163532.412785,-2368.659014,-9992.780217,0.000000
163532.413104,0.000000,-9548.656652,919.314598
163532.413424,-370.102971,-9474.636058,-76.609550
163532.413744,-3256.906145,-6291.750507,-2451.505594
163532.414064,-518.144159,-9474.636058,-766.095498
163532.414384,0.000000,-10362.883188,-1225.752797
163532.414703,-2072.576638,-10436.903782,-1608.800546
163532.415023,-3034.844362,-10066.800811,-1915.238745
163532.415343,-2442.679609,-10658.965565,-76.609550
163532.415663,-1258.350101,-9622.677246,-383.047749
163532.415983,0.000000,-5995.668130,-2145.067394
163532.416302,2516.700203,-9252.574275,2068.457845
163532.416622,4737.318029,-8808.450710,3064.381992
163532.416942,1776.494261,-6587.832884,0.000000
163532.417262,2146.597232,-8956.491898,536.266849
163532.417582,-888.247130,-10510.924376,-612.876398
163532.417901,-2590.720797,-11029.068536,-2221.676944
163532.418221,-1258.350101,-11251.130318,-1302.362347
163532.418541,-74.020594,-10955.047942,-76.609550
163532.418861,2294.638420,-11251.130318,-76.609550
163532.419181,3182.885551,-8734.430116,842.705048
163532.419500,2516.700203,-6587.832884,1072.533697
163532.419820,1184.329507,-5995.668130,1225.752797
163532.420140,-1184.329507,-7179.997637,-766.095498
163532.420460,-962.267725,-8956.491898,-766.095498
163532.420780,-1184.329507,-9252.574275,-689.485948
163532.421099,-370.102971,-9474.636058,229.828649
163532.421419,1702.473667,-11251.130318,-76.609550
163532.421739,0.000000,-8364.327145,0.000000
163532.422059,518.144159,-10066.800811,-153.219100
163532.422379,1702.473667,-12139.377449,-76.609550
163532.422698,-1258.350101,-11251.130318,-2068.457845
163532.423018,-3552.988522,-10140.821405,0.000000
163532.423338,-2812.782580,-10362.883188,-612.876398
163532.423658,518.144159,-8290.306550,0.000000
163532.423978,1554.432478,-7624.121203,1149.143247
163532.424297,1110.308913,-6735.874072,-689.485948
163532.424617,1110.308913,-7920.203579,-383.047749
163532.424937,0.000000,-8364.327145,-1532.190996
163532.425257,-2368.659014,-9548.656652,0.000000
163532.425577,-74.020594,-13915.871710,-76.609550
163532.425896,-1258.350101,-12139.377449,1149.143247
163532.426216,-2368.659014,-8660.409521,0.000000
163532.426536,-370.102971,-8734.430116,-153.219100
163532.426856,0.000000,-8808.450710,229.828649
163532.427175,-222.061783,-8364.327145,1302.362347
163532.427495,2294.638420,-6957.935855,76.609550
163532.427815,-148.041188,-7624.121203,459.657299
163532.428135,-4367.215058,-6143.709319,-2068.457845
163532.428455,-4441.235652,-9548.656652,0.000000
163532.428774,-1554.432478,-10584.944971,306.438199
163532.429094,-5625.565159,-7772.162391,-2451.505594
163532.429414,-3330.926739,-9474.636058,-2987.772442
163532.429734,-4737.318029,-10066.800811,-1838.629195
163532.430054,2590.720797,-9178.553681,2298.286494
163532.430373,2812.782580,-7105.977043,-76.609550
163532.430693,-592.164754,-9992.780217,153.219100
163532.431013,-4441.235652,-9548.656652,-1225.752797
163532.431333,-666.185348,-10955.047942,1149.143247
163532.431653,-148.041188,-9474.636058,-1302.362347
163532.431972,-2960.823768,-7179.997637,-2451.505594
163532.432292,-370.102971,-10658.965565,-689.485948
163532.432612,2146.597232,-8734.430116,1838.629195
163532.432932,4367.215058,-8438.347739,306.438199
163532.433252,1406.391290,-8586.388927,0.000000
163532.433571,296.082377,-11769.274478,-76.609550
163532.433891,-962.267725,-10584.944971,-76.609550
163532.434211,814.226536,-11103.089130,-995.924147
163532.434531,-666.185348,-8142.265362,-1915.238745
163532.434851,0.000000,-8364.327145,689.485948
163532.435170,4663.297435,-9474.636058,4213.525239
163532.435490,4737.318029,-6957.935855,1532.190996
163532.435810,888.247130,-8660.409521,0.000000
163532.436130,-1258.350101,-8808.450710,-1685.410096
163532.436450,-2516.700203,-9548.656652,-1608.800546
163532.436769,-4145.153275,-7772.162391,-4596.572988
163532.437089,-2294.638420,-11103.089130,-2221.676944
163532.437409,-1998.556043,-10732.986159,-2221.676944
163532.437729,296.082377,-9696.697840,-383.047749
163532.438049,3478.967927,-10362.883188,-383.047749
163532.438368,518.144159,-7994.224174,-1915.238745
163532.438688,1110.308913,-9474.636058,-76.609550
163532.439008,-296.082377,-9474.636058,-76.609550
163532.439328,3478.967927,-10658.965565,-689.485948
163532.439648,0.000000,-9548.656652,612.876398
163532.439967,-2146.597232,-8808.450710,-1225.752797
163532.440287,74.020594,-9178.553681,-459.657299
163532.440607,2442.679609,-9696.697840,383.047749
163532.440927,1702.473667,-9178.553681,-689.485948
163532.441247,-370.102971,-8586.388927,-995.924147
163532.441566,-1184.329507,-9474.636058,-919.314598
163532.441886,-1184.329507,-8512.368333,-1685.410096
163532.442206,-1776.494261,-9548.656652,0.000000
163532.442526,-2072.576638,-8660.409521,306.438199
163532.442846,0.000000,-9548.656652,3064.381992
163532.443165,1332.370696,-7772.162391,995.924147
163532.443485,1110.308913,-8808.450710,919.314598
163532.443805,-1332.370696,-8068.244768,383.047749
163532.444125,-2368.659014,-8364.327145,-2145.067394
163532.444445,-2442.679609,-9104.533087,-2987.772442
163532.444764,-1776.494261,-8364.327145,-3370.820191
163532.445084,-4737.318029,-9548.656652,-1225.752797
163532.445404,-2146.597232,-11251.130318,-76.609550
163532.445724,-74.020594,-11251.130318,2068.457845
163532.446044,0.000000,-7179.997637,0.000000
163532.446363,-1406.391290,-8142.265362,-766.095498
163532.446683,-1776.494261,-8808.450710,-306.438199
163532.447003,-814.226536,-9474.636058,766.095498
163532.447323,222.061783,-8142.265362,383.047749
163532.447643,-74.020594,-10362.883188,-76.609550
163532.447962,-1554.432478,-9474.636058,-1302.362347
163532.448282,-592.164754,-8808.450710,-1072.533697
163532.448602,1110.308913,-8364.327145,0.000000
163532.448922,1554.432478,-10658.965565,2374.896044
163532.449242,0.000000,-8512.368333,0.000000
163532.449561,-444.123565,-9696.697840,-459.657299
163532.449881,222.061783,-9400.615463,-612.876398
163532.450201,-1406.391290,-9400.615463,-459.657299
163532.450521,-814.226536,-9474.636058,306.438199
163532.450841,1480.411884,-9400.615463,1532.190996
163532.451160,3182.885551,-8290.306550,1915.238745
163532.451480,0.000000,-5403.503377,0.000000
163532.451800,-1184.329507,-7920.203579,0.000000
163532.452120,-74.020594,-11843.295072,-76.609550
163532.452439,-1406.391290,-9844.739029,-1762.019645
163532.452759,-2220.617826,-10658.965565,-2757.943793
163532.453079,-3478.967927,-10510.924376,-2298.286494
163532.453399,-2960.823768,-9844.739029,-2451.505594
163532.453719,0.000000,-7179.997637,0.000000
163532.454038,2368.659014,-7179.997637,0.000000
163532.454358,740.205942,-8808.450710,919.314598
163532.454678,-74.020594,-8142.265362,-1915.238745
163532.454998,2146.597232,-10362.883188,-76.609550
163532.455318,2960.823768,-11621.233289,2298.286494
163532.455637,0.000000,-9178.553681,-383.047749
163532.455957,-2664.741391,-10881.027347,-842.705048
163532.456277,-740.205942,-10066.800811,-153.219100
163532.456597,0.000000,-6291.750507,-2451.505594
163532.456917,-2072.576638,-7994.224174,-1302.362347
163532.457236,-2146.597232,-8290.306550,-2604.724693
163532.457556,-888.247130,-9548.656652,0.000000
163532.457876,4367.215058,-11251.130318,3600.648841
163532.458196,2294.638420,-9474.636058,1762.019645
163532.458516,-1776.494261,-8956.491898,536.266849
163532.458835,370.102971,-8586.388927,1915.238745
163532.459155,2960.823768,-8364.327145,1149.143247
163532.459475,148.041188,-8586.388927,2834.553343
163532.459795,1554.432478,-9178.553681,383.047749
163532.460115,-74.020594,-9474.636058,-383.047749
163532.460434,-1258.350101,-10066.800811,-1455.581446
163532.460754,-4219.173869,-8290.306550,-4519.963438
163532.461074,-4737.318029,-10732.986159,-3677.258390
163532.461394,-74.020594,-13027.624579,-689.485948
163532.461714,518.144159,-9548.656652,0.000000
163532.462033,0.000000,-7624.121203,383.047749
163532.462353,1332.370696,-7254.018232,919.314598
163532.462673,1184.329507,-7179.997637,1378.971896
163532.462992,1184.329507,-8364.327145,766.095498
163532.463312,-814.226536,-10066.800811,-306.438199
163532.463631,-2442.679609,-11547.212695,-1302.362347
163532.463951,-2368.659014,-10140.821405,0.000000
163532.464271,1406.391290,-9474.636058,-1302.362347
163532.464590,1702.473667,-9474.636058,-76.609550
163532.464910,-2146.597232,-8586.388927,-1302.362347
163532.465230,-1110.308913,-9474.636058,-1532.190996
163532.465549,74.020594,-9326.594869,-229.828649
163532.465869,0.000000,-8364.327145,0.000000
163532.466189,-1184.329507,-8660.409521,0.000000
163532.466508,1776.494261,-10807.006753,2145.067394
163532.466828,1702.473667,-8290.306550,1762.019645
163532.467147,0.000000,-6957.935855,-76.609550
163532.467467,-592.164754,-10658.965565,2374.896044
163532.467787,-2072.576638,-9400.615463,-2374.896044
163532.468106,-1924.535449,-10214.842000,-919.314598
163532.468426,-222.061783,-9474.636058,-1685.410096
163532.468746,-4737.318029,-9548.656652,-2451.505594
163532.469065,-2442.679609,-11399.171507,-1378.971896
163532.469385,-740.205942,-11103.089130,-383.047749
163532.469705,0.000000,-7031.956449,0.000000
163532.470024,0.000000,-5995.668130,0.000000
163532.470344,5255.462188,-10214.842000,3983.696590
163532.470664,296.082377,-7179.997637,766.095498
163532.470983,1924.535449,-7994.224174,1378.971896
163532.471303,-962.267725,-9918.759623,-1532.190996
163532.471622,-1702.473667,-11695.253884,-1378.971896
163532.471942,-74.020594,-12435.459826,-1302.362347
163532.472262,740.205942,-10732.986159,1072.533697
163532.472581,222.061783,-8808.450710,-459.657299
163532.472901,1110.308913,-8216.285956,-383.047749
163532.473221,962.267725,-7994.224174,-76.609550
163532.473540,2368.659014,-8364.327145,2604.724693
163532.473860,1184.329507,-8956.491898,1225.752797
163532.474180,1702.473667,-11251.130318,842.705048
163532.474499,-1184.329507,-10140.821405,0.000000
163532.474819,0.000000,-9030.512492,766.095498
163532.475138,-74.020594,-8882.471304,-76.609550
163532.475458,-1184.329507,-9474.636058,0.000000
163532.475778,-148.041188,-8734.430116,-689.485948
163532.476097,0.000000,-8438.347739,0.000000
163532.476417,0.000000,-9474.636058,-766.095498
163532.476737,-1406.391290,-10658.965565,-995.924147
163532.477056,-2960.823768,-9548.656652,-1532.190996
163532.477376,-518.144159,-7179.997637,-2221.676944
163532.477696,-2368.659014,-7772.162391,0.000000
163532.478015,-1406.391290,-7179.997637,-2145.067394
163532.478335,1110.308913,-8290.306550,-536.266849
163532.478654,0.000000,-8438.347739,229.828649
163532.478974,962.267725,-9770.718434,-459.657299
163532.479294,0.000000,-10732.986159,-383.047749
163532.479613,1110.308913,-11843.295072,1149.143247
163532.479933,1258.350101,-10436.903782,1608.800546
163532.480253,0.000000,-8956.491898,0.000000
163532.480572,1406.391290,-9474.636058,-76.609550
163532.480892,-74.020594,-9178.553681,-689.485948
163532.481212,-1998.556043,-5995.668130,-2451.505594
163532.481531,592.164754,-9326.594869,-76.609550
163532.481851,-1776.494261,-9252.574275,-383.047749
163532.482171,-1258.350101,-10436.903782,-229.828649
163532.482490,-148.041188,-10658.965565,-76.609550
163532.482810,1110.308913,-11843.295072,3294.210641
163532.483129,-1258.350101,-10658.965565,-76.609550
163532.483449,-1554.432478,-8290.306550,-1915.238745
163532.483769,-3404.947333,-7179.997637,-1838.629195
163532.484088,0.000000,-9548.656652,612.876398
163532.484408,-222.061783,-7476.080014,-1915.238745
163532.484728,-592.164754,-9844.739029,76.609550
163532.485047,-1702.473667,-9178.553681,-842.705048
163532.485367,-1776.494261,-9696.697840,-1762.019645
163532.485687,-1258.350101,-10658.965565,-2221.676944
163532.486006,-3256.906145,-8956.491898,-2145.067394
163532.486326,0.000000,-10140.821405,306.438199
163532.486645,4293.194464,-9918.759623,2604.724693
163532.486965,5847.626942,-10658.965565,2374.896044
163532.487285,0.000000,-5995.668130,0.000000
163532.487604,222.061783,-8290.306550,-459.657299
163532.487924,148.041188,-9844.739029,1149.143247
163532.488244,-296.082377,-9548.656652,-459.657299
163532.488563,-2146.597232,-9548.656652,-76.609550
163532.488883,-1776.494261,-8364.327145,-1302.362347
163532.489203,0.000000,-8068.244768,0.000000
163532.489522,2442.679609,-7179.997637,-2451.505594
163532.489842,0.000000,-8364.327145,612.876398
163532.490162,-222.061783,-10066.800811,-76.609550
163532.490481,-3552.988522,-9548.656652,0.000000
163532.490801,-74.020594,-10436.903782,-842.705048
163532.491120,-2220.617826,-9104.533087,-689.485948
163532.491440,-1406.391290,-8882.471304,-766.095498
163532.491760,1110.308913,-8586.388927,-76.609550
163532.492079,4663.297435,-8882.471304,-76.609550
163532.492399,0.000000,-7994.224174,-689.485948
163532.492719,-2368.659014,-8364.327145,-1225.752797
163532.493038,-1184.329507,-10732.986159,-536.266849
163532.493358,74.020594,-11843.295072,-76.609550
163532.493678,-4737.318029,-8364.327145,-3064.381992
163532.493997,-2516.700203,-10066.800811,-1608.800546
163532.494317,-2368.659014,-8808.450710,-995.924147
163532.494636,1554.432478,-8364.327145,536.266849
163532.494956,3478.967927,-8290.306550,-76.609550
163532.495276,3256.906145,-9548.656652,3064.381992
163532.495595,1998.556043,-10584.944971,1762.019645
163532.495915,2294.638420,-10658.965565,2374.896044
163532.496235,-1554.432478,-7550.100608,-2528.115143
163532.496554,-4145.153275,-9548.656652,306.438199
163532.496874,-3775.050304,-9178.553681,-2451.505594
163532.497194,370.102971,-9696.697840,153.219100
163532.497513,1036.288319,-8068.244768,0.000000
163532.497833,222.061783,-8364.327145,0.000000
163532.498152,1258.350101,-9030.512492,0.000000
163532.498472,0.000000,-8364.327145,306.438199
163532.498792,-740.205942,-9030.512492,-1838.629195
163532.499111,-1406.391290,-10066.800811,-76.609550
163532.499431,-3627.009116,-10658.965565,-1302.362347
163532.499751,0.000000,-9548.656652,1225.752797
163532.500070,814.226536,-8142.265362,-919.314598
163532.500390,0.000000,-9178.553681,459.657299
163532.500710,222.061783,-10066.800811,-153.219100
163532.501029,74.020594,-9548.656652,-1838.629195
163532.501349,222.061783,-8512.368333,-1915.238745
163532.501669,-4441.235652,-7179.997637,-4366.744339
163532.501988,-3552.988522,-10140.821405,-1072.533697
163532.502308,1110.308913,-10288.862594,-383.047749
163532.502627,5847.626942,-10658.965565,2374.896044
163532.502947,1184.329507,-7772.162391,612.876398
163532.503267,518.144159,-9622.677246,153.219100
163532.503586,-444.123565,-10658.965565,-459.657299
163532.503906,814.226536,-9992.780217,-536.266849
163532.504226,-3330.926739,-8734.430116,-1915.238745
163532.504545,-1554.432478,-11843.295072,-76.609550
163532.504865,-1776.494261,-7772.162391,0.000000
163532.505185,4737.318029,-7179.997637,2451.505594
163532.505504,592.164754,-5403.503377,919.314598
163532.505824,0.000000,-6291.750507,0.000000
163532.506143,-1036.288319,-10288.862594,-1149.143247
163532.506463,-1480.411884,-11177.109724,-1072.533697
163532.506783,-4441.235652,-9548.656652,-3140.991542
163532.507102,-5995.668130,-10066.800811,-3753.867940
163532.507422,-3849.070898,-9844.739029,-2145.067394
163532.507742,592.164754,-7179.997637,306.438199
163532.508061,2886.803174,-7179.997637,0.000000
163532.508381,3923.091493,-8290.306550,2987.772442
163532.508701,-1628.453072,-7328.038826,0.000000
163532.509020,2294.638420,-9474.636058,536.266849
163532.509340,-2368.659014,-9178.553681,-1532.190996
163532.509659,-5329.482782,-10140.821405,-1685.410096
163532.509979,-4959.379811,-9770.718434,-3064.381992
163532.510299,740.205942,-11843.295072,1762.019645
163532.510618,296.082377,-8290.306550,-1225.752797
163532.510938,1406.391290,-9992.780217,1532.190996
163532.511258,2368.659014,-8956.491898,153.219100
163532.511577,2664.741391,-9104.533087,1225.752797
163532.511897,0.000000,-8364.327145,0.000000
163532.512217,-1258.350101,-8882.471304,-1302.362347
163532.512536,-3997.112087,-8068.244768,0.000000
163532.512856,1110.308913,-8882.471304,1225.752797
163532.513176,2886.803174,-8290.306550,-76.609550
163532.513495,2960.823768,-9326.594869,3140.991542
163532.513815,1702.473667,-9104.533087,383.047749
163532.514134,296.082377,-9326.594869,-536.266849
163532.514454,-2738.761985,-9474.636058,-2987.772442
163532.514774,-8290.306550,-10214.842000,-4213.525239
163532.515093,-7031.956449,-11621.233289,-3753.867940
163532.515413,-1850.514855,-10658.965565,-689.485948
163532.515733,1036.288319,-6587.832884,-995.924147
163532.516052,2368.659014,-6291.750507,1378.971896
163532.516372,6439.791695,-8290.306550,3600.648841
163532.516692,2664.741391,-8068.244768,2451.505594
163532.517011,1036.288319,-8882.471304,306.438199
163532.517331,-3182.885551,-10140.821405,-1685.410096
163532.517650,-3552.988522,-11399.171507,-2068.457845
163532.517970,-2960.823768,-9844.739029,-1225.752797
163532.518290,1184.329507,-9548.656652,153.219100
163532.518609,518.144159,-10658.965565,-76.609550
163532.518929,1998.556043,-8734.430116,-689.485948
163532.519249,1184.329507,-8364.327145,0.000000
163532.519568,4663.297435,-11843.295072,3600.648841
163532.519888,-2072.576638,-9252.574275,-919.314598
163532.520208,-3552.988522,-9992.780217,-76.609550
163532.520527,-3552.988522,-9104.533087,-1302.362347
163532.520847,296.082377,-8216.285956,2451.505594
163532.521167,0.000000,-5995.668130,306.438199
163532.521486,0.000000,-7772.162391,2451.505594
163532.521806,3478.967927,-10362.883188,1149.143247
163532.522125,1110.308913,-9474.636058,1149.143247
163532.522445,-2738.761985,-8364.327145,-3447.429741
163532.522765,-4811.338623,-11843.295072,-2528.115143
163532.523084,-6513.812290,-10510.924376,-4443.353888
163532.523404,-2368.659014,-10436.903782,-689.485948
163532.523724,1998.556043,-7920.203579,76.609550
163532.524043,1480.411884,-6291.750507,1225.752797
163532.524363,5551.544565,-7402.059420,1762.019645
163532.524683,2516.700203,-6957.935855,689.485948
163532.525002,888.247130,-8364.327145,-3677.258390
163532.525322,-4293.194464,-11621.233289,-842.705048
163532.525641,-5107.421000,-11547.212695,-4979.620737
163532.525961,-3552.988522,-11769.274478,-1608.800546
163532.526281,1850.514855,-9252.574275,459.657299
163532.526600,3108.864956,-7328.038826,1762.019645
163532.526920,5625.565159,-7476.080014,2987.772442
163532.527240,4219.173869,-8142.265362,2834.553343
163532.527559,2886.803174,-8586.388927,842.705048
163532.527879,-3552.988522,-9474.636058,-1302.362347
163532.528199,-7105.977043,-9548.656652,-2451.505594
163532.528518,-4145.153275,-10436.903782,-2145.067394
163532.528838,-74.020594,-9474.636058,-76.609550
163532.529157,0.000000,-8364.327145,0.000000
163532.529477,592.164754,-7550.100608,-153.219100
163532.529797,1480.411884,-9548.656652,76.609550
163532.530116,4515.256246,-10140.821405,2987.772442
163532.530436,0.000000,-9844.739029,612.876398
163532.530756,-4145.153275,-10140.821405,0.000000
163532.531075,-2442.679609,-11251.130318,-1915.238745
163532.531395,-962.267725,-9474.636058,-76.609550
163532.531715,-2072.576638,-5995.668130,-3370.820191
163532.532034,1110.308913,-9474.636058,-76.609550
163532.532354,148.041188,-8956.491898,-383.047749
163532.532674,2072.576638,-10140.821405,1302.362347
163532.532993,592.164754,-8512.368333,-1302.362347
163532.533313,-2368.659014,-10436.903782,-612.876398
163532.533632,-5625.565159,-8364.327145,-3677.258390
163532.533952,-592.164754,-11547.212695,919.314598
163532.534272,1850.514855,-9178.553681,1455.581446
163532.534591,2294.638420,-9326.594869,2068.457845
163532.534911,0.000000,-5551.544565,0.000000
163532.535231,4293.194464,-9474.636058,2834.553343
163532.535550,2664.741391,-8660.409521,689.485948
163532.535870,-2960.823768,-9548.656652,-689.485948
163532.536190,-4811.338623,-11251.130318,-1915.238745
163532.536509,-4145.153275,-12731.542202,-76.609550
163532.536829,-370.102971,-7994.224174,-1608.800546
163532.537148,-2072.576638,-8142.265362,-383.047749
163532.537468,0.000000,-6587.832884,0.000000
163532.537788,1184.329507,-7772.162391,0.000000
163532.538107,370.102971,-7179.997637,-1225.752797
163532.538427,-3997.112087,-8956.491898,-1685.410096
163532.538747,-5477.523971,-10732.986159,-1915.238745
163532.539066,-2812.782580,-10881.027347,-1608.800546
163532.539386,2294.638420,-11843.295072,-76.609550
163532.539706,518.144159,-9326.594869,1149.143247
163532.540025,3256.906145,-10658.965565,2987.772442
163532.540345,2886.803174,-9474.636058,-76.609550
163532.540665,3552.988522,-8216.285956,0.000000
163532.540984,0.000000,-7179.997637,0.000000
163532.541304,-1850.514855,-10510.924376,-1455.581446
163532.541623,-2590.720797,-10436.903782,-1915.238745
163532.541943,-444.123565,-9918.759623,0.000000
163532.542263,-592.164754,-7550.100608,-306.438199
163532.542582,4663.297435,-9178.553681,1762.019645
163532.542902,1776.494261,-7179.997637,306.438199
163532.543222,4663.297435,-10658.965565,2834.553343
163532.543541,-518.144159,-7698.141797,-995.924147
163532.543861,-4219.173869,-8438.347739,-2451.505594
163532.544181,-3034.844362,-10658.965565,-3140.991542
163532.544500,-1628.453072,-11029.068536,0.000000
163532.544820,370.102971,-9030.512492,689.485948
163532.545139,888.247130,-7920.203579,1838.629195
163532.545459,3404.947333,-9178.553681,1762.019645
163532.545779,1998.556043,-8808.450710,536.266849
163532.546098,-370.102971,-8882.471304,-1915.238745
163532.546418,-4441.235652,-7476.080014,-4903.011187
163532.546738,-4441.235652,-11917.315666,-2145.067394
163532.547057,-666.185348,-11843.295072,-76.609550
163532.547377,444.123565,-10140.821405,612.876398
163532.547697,0.000000,-7698.141797,766.095498
163532.548016,1850.514855,-7920.203579,0.000000
163532.548336,3108.864956,-8438.347739,919.314598
163532.548655,1184.329507,-5995.668130,0.000000
163532.548975,0.000000,-8438.347739,0.000000
163532.549295,-2442.679609,-10955.047942,-1225.752797
163532.549614,-3034.844362,-10066.800811,-1762.019645
163532.549934,-1258.350101,-9104.533087,-1302.362347
163532.550254,1702.473667,-9474.636058,-76.609550
163532.550573,3478.967927,-11251.130318,-76.609550
163532.550893,814.226536,-8660.409521,766.095498
163532.551213,2072.576638,-7179.997637,842.705048
163532.551532,-592.164754,-8068.244768,1838.629195
163532.551852,-2960.823768,-7772.162391,0.000000
163532.552172,-666.185348,-9474.636058,612.876398
163532.552491,1406.391290,-9474.636058,2221.676944
163532.552811,-1554.432478,-7402.059420,-306.438199
163532.553130,-962.267725,-9400.615463,-229.828649
163532.553450,-1406.391290,-8586.388927,-1915.238745
163532.553770,1480.411884,-11251.130318,-383.047749
163532.554089,-1850.514855,-11843.295072,-1302.362347
163532.554409,-3627.009116,-11251.130318,-3447.429741
163532.554729,-4737.318029,-10732.986159,-2451.505594
163532.555048,-3108.864956,-9548.656652,-1685.410096
163532.555368,0.000000,-7698.141797,-229.828649
163532.555688,1480.411884,-7920.203579,1149.143247
163532.556007,4145.153275,-8068.244768,2298.286494
163532.556327,5551.544565,-6143.709319,2604.724693
163532.556646,2516.700203,-6069.688724,995.924147
163532.556966,-1184.329507,-8364.327145,1225.752797
163532.557286,-1258.350101,-11843.295072,-1915.238745
163532.557605,-2590.720797,-11843.295072,-1378.971896
163532.557925,-3552.988522,-10140.821405,-1225.752797
163532.558245,-3923.091493,-11177.109724,-1608.800546
163532.558564,-740.205942,-10214.842000,-1685.410096
163532.558884,1480.411884,-8734.430116,612.876398
163532.559204,2220.617826,-5107.421000,0.000000
163532.559523,-74.020594,-6513.812290,-76.609550
163532.559843,-74.020594,-9474.636058,-76.609550
163532.560162,-2368.659014,-8364.327145,612.876398
163532.560482,740.205942,-9252.574275,0.000000
163532.560802,-74.020594,-10658.965565,2374.896044
163532.561123,0.000000,-9548.656652,0.000000
163532.561442,370.102971,-8660.409521,-383.047749
163532.561762,1184.329507,-8734.430116,-1072.533697
163532.562082,-2960.823768,-10436.903782,-3753.867940
163532.562401,-2738.761985,-11843.295072,-4060.306139
163532.562721,-2812.782580,-12139.377449,-2068.457845
163532.563040,-74.020594,-11251.130318,-76.609550
163532.563360,-370.102971,-8882.471304,-1302.362347
163532.563680,0.000000,-6883.915261,0.000000
163532.563999,5329.482782,-9474.636058,5286.058936
163532.564319,6217.729913,-6883.915261,3524.039291
163532.564639,3701.029710,-7328.038826,2298.286494
163532.564958,518.144159,-9918.759623,536.266849
163532.565278,-2738.761985,-9844.739029,-2451.505594
163532.565597,-2220.617826,-10214.842000,-2451.505594
163532.565917,-3034.844362,-9178.553681,-4366.744339
163532.566237,-1258.350101,-11695.253884,-1302.362347
163532.566556,0.000000,-8364.327145,-2451.505594
163532.566876,2368.659014,-7772.162391,3064.381992
163532.567196,3478.967927,-6513.812290,-76.609550
163532.567515,-1480.411884,-8364.327145,-306.438199
163532.567835,-2590.720797,-9030.512492,-2298.286494
163532.568154,-1332.370696,-10955.047942,919.314598
163532.568474,0.000000,-8660.409521,612.876398
163532.568794,-2960.823768,-7772.162391,1225.752797
163532.569113,-592.164754,-9696.697840,0.000000
163532.569433,2516.700203,-9030.512492,1838.629195
163532.569752,3182.885551,-8882.471304,-1302.362347
163532.570072,-2442.679609,-8882.471304,-3140.991542
163532.570392,-1850.514855,-11843.295072,-3294.210641
163532.570711,-3330.926739,-11325.150913,-1455.581446
163532.571031,-296.082377,-10066.800811,-1225.752797
163532.571351,-2590.720797,-8956.491898,-1915.238745
163532.571670,-2368.659014,-8364.327145,0.000000
163532.571990,1184.329507,-6957.935855,1149.143247
163532.572309,2960.823768,-6291.750507,1225.752797
163532.572629,592.164754,-8364.327145,1532.190996
163532.572949,-1850.514855,-11843.295072,-76.609550
163532.573268,-666.185348,-10362.883188,-689.485948
163532.573588,2072.576638,-9844.739029,689.485948
163532.573908,-592.164754,-8882.471304,459.657299
163532.574227,-296.082377,-9844.739029,0.000000
163532.574547,444.123565,-8956.491898,1149.143247
163532.574866,148.041188,-7920.203579,612.876398
163532.575186,-74.020594,-8290.306550,-1302.362347
163532.575506,-2738.761985,-8956.491898,-1915.238745
163532.575825,-4737.318029,-7772.162391,0.000000
163532.576145,-296.082377,-11029.068536,612.876398
163532.576464,-666.185348,-8290.306550,-1915.238745
163532.576784,-2960.823768,-9918.759623,-153.219100
163532.577104,-962.267725,-8290.306550,-306.438199
163532.577423,2590.720797,-8364.327145,1608.800546
163532.577743,3034.844362,-8512.368333,2681.334243
163532.578063,0.000000,-8364.327145,612.876398
163532.578382,-370.102971,-10066.800811,-76.609550
163532.578702,-74.020594,-10658.965565,-1302.362347
163532.579021,-1776.494261,-9548.656652,-1532.190996
163532.579341,-3997.112087,-9548.656652,-3524.039291
163532.579661,-74.020594,-10658.965565,-76.609550
163532.579980,2368.659014,-8660.409521,459.657299
163532.580300,3182.885551,-7476.080014,76.609550
163532.580620,-888.247130,-8956.491898,0.000000
163532.580939,0.000000,-10658.965565,-76.609550
163532.581259,0.000000,-9622.677246,0.000000
163532.581578,3108.864956,-10658.965565,1149.143247
163532.581898,-1850.514855,-9326.594869,229.828649
163532.582218,0.000000,-7772.162391,0.000000
163532.582537,4071.132681,-7994.224174,1762.019645
163532.582857,2368.659014,-7476.080014,229.828649
163532.583176,-2294.638420,-7920.203579,-2298.286494
163532.583496,-3108.864956,-10436.903782,-3064.381992
163532.583816,-148.041188,-12435.459826,-229.828649
163532.584135,0.000000,-10955.047942,-76.609550
163532.584455,-3923.091493,-8438.347739,-2604.724693
163532.584775,-2368.659014,-9696.697840,0.000000
163532.585094,3478.967927,-10658.965565,2987.772442
163532.585414,4663.297435,-5921.647536,1149.143247
163532.585733,2146.597232,-8882.471304,2068.457845
163532.586053,-74.020594,-8290.306550,-995.924147
163532.586373,-1110.308913,-9178.553681,-1455.581446
163532.586692,-666.185348,-11103.089130,-1378.971896
163532.587012,-4737.318029,-9548.656652,-1838.629195
163532.587332,-2294.638420,-12509.480420,-612.876398
163532.587651,814.226536,-10288.862594,0.000000
163532.587971,3478.967927,-11547.212695,1762.019645
163532.588290,-74.020594,-8142.265362,-689.485948
163532.588610,592.164754,-10066.800811,2221.676944
163532.588930,74.020594,-8808.450710,0.000000
163532.589249,2294.638420,-9178.553681,2451.505594
163532.589569,0.000000,-8438.347739,1225.752797
163532.589889,-1332.370696,-9252.574275,1225.752797
163532.590208,-1258.350101,-7402.059420,-1608.800546
163532.590528,814.226536,-8660.409521,842.705048
163532.590847,-1480.411884,-7402.059420,-1302.362347
163532.591167,-2812.782580,-9770.718434,-919.314598
163532.591487,-74.020594,-11103.089130,-1838.629195
163532.591806,-74.020594,-11251.130318,-76.609550
163532.592126,-3256.906145,-9548.656652,-1838.629195
163532.592445,-2664.741391,-10732.986159,0.000000
163532.592765,0.000000,-9548.656652,0.000000
163532.593085,0.000000,-6587.832884,0.000000
163532.593404,2294.638420,-7698.141797,536.266849
163532.593724,-888.247130,-7402.059420,-306.438199
163532.594044,518.144159,-9474.636058,-612.876398
163532.594363,518.144159,-9252.574275,306.438199
163532.594683,666.185348,-9474.636058,-76.609550
163532.595002,-2220.617826,-10066.800811,-1608.800546
163532.595322,-1258.350101,-10955.047942,-1915.238745
163532.595642,0.000000,-9548.656652,0.000000
163532.595961,2368.659014,-8660.409521,1225.752797
163532.596281,-3552.988522,-4811.338623,0.000000
163532.596601,-222.061783,-9252.574275,-842.705048
163532.596920,0.000000,-9326.594869,-459.657299
163532.597240,1702.473667,-9252.574275,306.438199
163532.597559,-962.267725,-9178.553681,-689.485948
163532.597879,-74.020594,-11251.130318,-76.609550
163532.598199,-666.185348,-9474.636058,-76.609550
163532.598518,0.000000,-8364.327145,612.876398
163532.598838,148.041188,-8956.491898,-306.438199
163532.599157,-592.164754,-9844.739029,766.095498
163532.599477,-2960.823768,-7179.997637,-2298.286494
163532.599797,1184.329507,-9622.677246,-536.266849
163532.600116,-1036.288319,-9474.636058,-1072.533697
163532.600436,-2812.782580,-9474.636058,-1608.800546
163532.600756,-1850.514855,-11547.212695,-1302.362347
163532.601075,-888.247130,-9844.739029,0.000000
163532.601395,-74.020594,-8882.471304,-1302.362347
163532.601714,-1258.350101,-9474.636058,-76.609550
163532.602034,-1258.350101,-7550.100608,-2834.553343
163532.602354,0.000000,-8660.409521,612.876398
163532.602673,1110.308913,-7476.080014,0.000000
163532.602993,740.205942,-10140.821405,306.438199
163532.603313,518.144159,-10436.903782,1149.143247
163532.603632,518.144159,-9474.636058,2068.457845
163532.603952,814.226536,-7179.997637,153.219100
163532.604271,-2368.659014,-7179.997637,-1225.752797
163532.604591,592.164754,-8364.327145,0.000000
163532.604911,370.102971,-9548.656652,1685.410096
163532.605230,2960.823768,-9474.636058,1149.143247
163532.605550,-2368.659014,-9548.656652,612.876398
163532.605869,-1924.535449,-10510.924376,-1608.800546
163532.606189,-2738.761985,-10658.965565,-1762.019645
163532.606509,-1554.432478,-9844.739029,-689.485948
163532.606828,-2738.761985,-8734.430116,-2221.676944
163532.607148,-666.185348,-8216.285956,-1302.362347
163532.607468,0.000000,-7254.018232,-689.485948
163532.607787,592.164754,-7772.162391,1225.752797
163532.608107,2294.638420,-8882.471304,-76.609550
163532.608426,814.226536,-10584.944971,2068.457845
163532.608746,-2368.659014,-9844.739029,612.876398
163532.609066,-370.102971,-9770.718434,-1225.752797
163532.609385,-2516.700203,-9844.739029,-1302.362347
163532.609705,-1628.453072,-8734.430116,-1991.848295
163532.610025,-1258.350101,-8290.306550,-2834.553343
163532.610344,2590.720797,-10584.944971,-76.609550
163532.610664,1110.308913,-10658.965565,-1302.362347
163532.610983,-370.102971,-11695.253884,-76.609550
163532.611303,-74.020594,-11251.130318,-76.609550
163532.611623,2220.617826,-11843.295072,3907.087040
163532.611942,0.000000,-7402.059420,0.000000
163532.612262,518.144159,-7328.038826,1149.143247
163532.612581,1184.329507,-7402.059420,1225.752797
163532.612901,2960.823768,-7402.059420,1225.752797
163532.613221,1998.556043,-9030.512492,0.000000
163532.613540,-2220.617826,-10436.903782,612.876398
163532.613860,-1998.556043,-11251.130318,-1225.752797
163532.614180,-74.020594,-11843.295072,-76.609550
163532.614499,-1850.514855,-10658.965565,-2528.115143
163532.614819,-2368.659014,-10140.821405,-76.609550
163532.615138,-2442.679609,-8364.327145,-2374.896044
163532.615458,0.000000,-8068.244768,-383.047749
163532.615778,1406.391290,-7772.162391,-612.876398
163532.616097,0.000000,-6587.832884,0.000000
163532.616417,518.144159,-9104.533087,76.609550
163532.616737,148.041188,-10140.821405,0.000000
163532.617056,888.247130,-11399.171507,1149.143247
163532.617376,-1998.556043,-9474.636058,-2068.457845
163532.617695,-74.020594,-11251.130318,-1915.238745
163532.618015,-1776.494261,-9844.739029,-2145.067394
163532.618335,74.020594,-9622.677246,-1532.190996
163532.618654,0.000000,-9696.697840,0.000000
163532.618974,1628.453072,-9400.615463,689.485948
163532.619293,0.000000,-7179.997637,612.876398
163532.619613,2368.659014,-8290.306550,1149.143247
163532.619933,-2368.659014,-6291.750507,0.000000
163532.620252,-1036.288319,-8660.409521,0.000000
163532.620572,-666.185348,-9474.636058,-76.609550
163532.620892,592.164754,-9548.656652,2451.505594
163532.621211,814.226536,-10066.800811,-383.047749
163532.621531,888.247130,-11029.068536,689.485948
163532.621850,-592.164754,-10658.965565,-306.438199
163532.622170,-2442.679609,-9918.759623,-1608.800546
163532.622490,-3256.906145,-7772.162391,-2451.505594
163532.622809,-888.247130,-9178.553681,612.876398
163532.623129,1702.473667,-7698.141797,-76.609550
163532.623449,0.000000,-5995.668130,306.438199
163532.623768,0.000000,-7476.080014,0.000000
163532.624088,-1258.350101,-9474.636058,-995.924147
163532.624407,-1554.432478,-11769.274478,-1608.800546
163532.624727,-1184.329507,-11917.315666,-689.485948
163532.625047,-2664.741391,-10732.986159,-1991.848295
163532.625366,-814.226536,-13027.624579,-76.609550
163532.625686,-2072.576638,-7772.162391,-2145.067394
163532.626006,518.144159,-8808.450710,306.438199
163532.626325,2368.659014,-7105.977043,0.000000
163532.626645,2294.638420,-8956.491898,1838.629195
163532.626964,0.000000,-7772.162391,0.000000
163532.627284,222.061783,-8808.450710,0.000000
163532.627604,0.000000,-9548.656652,1225.752797
163532.627923,-2442.679609,-10362.883188,-76.609550
163532.628243,-2812.782580,-7994.224174,-2528.115143
163532.628562,-74.020594,-11547.212695,-76.609550
163532.628882,1332.370696,-8364.327145,76.609550
163532.629202,444.123565,-8586.388927,0.000000
163532.629521,0.000000,-8660.409521,-536.266849
163532.629841,-2368.659014,-9548.656652,0.000000
163532.630161,-1184.329507,-8660.409521,0.000000
163532.630480,-3627.009116,-8290.306550,-2528.115143
163532.630800,-3701.029710,-7772.162391,-4596.572988
163532.631119,148.041188,-10955.047942,689.485948
163532.631439,3478.967927,-9474.636058,1762.019645
163532.631759,2738.761985,-9474.636058,1991.848295
163532.632078,2368.659014,-9474.636058,766.095498
163532.632398,370.102971,-9918.759623,-153.219100
163532.632718,-518.144159,-9918.759623,153.219100
163532.633037,-4145.153275,-9548.656652,-2451.505594
163532.633357,-4441.235652,-9696.697840,-2451.505594
163532.633676,-1554.432478,-9474.636058,-2528.115143
163532.633996,296.082377,-7772.162391,1225.752797
163532.634316,2960.823768,-7476.080014,1608.800546
163532.634635,4071.132681,-9474.636058,1762.019645
163532.634955,296.082377,-9474.636058,-612.876398
163532.635274,518.144159,-11769.274478,459.657299
163532.635594,-2072.576638,-10362.883188,-1762.019645
163532.635914,-3034.844362,-12805.562797,536.266849
163532.636233,-2960.823768,-10140.821405,0.000000
163532.636553,0.000000,-8364.327145,1225.752797
163532.636873,4663.297435,-8882.471304,1762.019645
163532.637192,2072.576638,-7476.080014,689.485948
163532.637512,518.144159,-7179.997637,0.000000
163532.637831,3478.967927,-11843.295072,2374.896044
163532.638151,-1332.370696,-9030.512492,-1225.752797
163532.638471,-4737.318029,-9400.615463,-1685.410096
163532.638790,-4959.379811,-9326.594869,-3064.381992
163532.639110,-2368.659014,-8660.409521,0.000000
163532.639430,814.226536,-6587.832884,-1532.190996
163532.639749,0.000000,-8660.409521,459.657299
163532.640069,518.144159,-10510.924376,-1838.629195
163532.640388,888.247130,-11695.253884,1685.410096
163532.640708,-666.185348,-7550.100608,-2528.115143
163532.641028,-3627.009116,-10658.965565,-1302.362347
163532.641347,-3478.967927,-9252.574275,-2145.067394
163532.641667,0.000000,-8956.491898,0.000000
163532.641986,4293.194464,-8438.347739,1838.629195
163532.642306,2220.617826,-7772.162391,2987.772442
163532.642626,1850.514855,-9474.636058,1149.143247
163532.642945,1332.370696,-9474.636058,-76.609550
163532.643265,148.041188,-7772.162391,306.438199
163532.643585,-2368.659014,-9548.656652,0.000000
163532.643904,-3034.844362,-8734.430116,-1915.238745
163532.644224,-2516.700203,-8734.430116,-612.876398
163532.644543,666.185348,-7994.224174,-306.438199
163532.644863,-518.144159,-7550.100608,-1455.581446
163532.645183,2294.638420,-11843.295072,1762.019645
163532.645502,2072.576638,-11399.171507,1762.019645
163532.645822,1332.370696,-10732.986159,2451.505594
163532.646142,-1258.350101,-9474.636058,-1915.238745
163532.646461,-4737.318029,-10436.903782,-1838.629195
163532.646781,-4441.235652,-7179.997637,-4290.134789
163532.647100,1110.308913,-8882.471304,-76.609550
163532.647420,1184.329507,-7179.997637,-689.485948
163532.647740,1036.288319,-9252.574275,536.266849
163532.648059,2220.617826,-9474.636058,536.266849
163532.648379,3849.070898,-10881.027347,2757.943793
163532.648698,-2368.659014,-7476.080014,-2451.505594
163532.649018,-5921.647536,-10140.821405,-1991.848295
163532.649338,-3256.906145,-11251.130318,-2145.067394
163532.649657,-74.020594,-10510.924376,-76.609550
163532.649977,0.000000,-6587.832884,0.000000
163532.650297,666.185348,-9474.636058,995.924147
163532.650616,3034.844362,-8808.450710,459.657299
163532.650936,3182.885551,-9104.533087,2451.505594
163532.651255,1702.473667,-8882.471304,1149.143247
163532.651575,-3478.967927,-9474.636058,-76.609550
163532.651895,-2886.803174,-9252.574275,-689.485948
163532.652214,0.000000,-8364.327145,0.000000
163532.652534,592.164754,-8956.491898,1225.752797
163532.652854,-888.247130,-8512.368333,1225.752797
163532.653173,-1480.411884,-7179.997637,-1532.190996
163532.653493,1110.308913,-9770.718434,153.219100
163532.653812,0.000000,-10362.883188,-612.876398
163532.654132,-5107.421000,-10436.903782,-2068.457845
163532.654452,-2442.679609,-11843.295072,-1302.362347
163532.654771,-1406.391290,-9474.636058,-76.609550
163532.655091,1110.308913,-9178.553681,-76.609550
163532.655411,0.000000,-5403.503377,0.000000
163532.655730,2368.659014,-8956.491898,1838.629195
163532.656050,2368.659014,-7772.162391,1225.752797
163532.656369,1480.411884,-9326.594869,-995.924147
163532.656689,-3330.926739,-10881.027347,-2451.505594
163532.657009,-4737.318029,-12213.398043,-2604.724693
163532.657328,-3034.844362,-11473.192101,-2834.553343
163532.657648,2294.638420,-13027.624579,-76.609550
163532.657967,2368.659014,-9252.574275,2145.067394
163532.658287,3330.926739,-8290.306550,1762.019645
163532.658607,2072.576638,-6513.812290,536.266849
163532.658926,1480.411884,-7179.997637,1225.752797
163532.659246,1110.308913,-7105.977043,-76.609550
163532.659566,-2664.741391,-9474.636058,76.609550
163532.659885,-4219.173869,-10214.842000,-2374.896044
163532.660205,-2516.700203,-10362.883188,-1225.752797
163532.660524,-74.020594,-11251.130318,-76.609550
163532.660844,370.102971,-10658.965565,-76.609550
163532.661164,740.205942,-7920.203579,-1685.410096
163532.661483,740.205942,-8364.327145,0.000000
163532.661803,0.000000,-8956.491898,0.000000
163532.662123,-1850.514855,-10362.883188,-1302.362347
163532.662442,-3404.947333,-10584.944971,-1608.800546
163532.662762,-3108.864956,-9474.636058,-1225.752797
163532.663081,740.205942,-8956.491898,383.047749
163532.663401,962.267725,-7402.059420,1685.410096
163532.663721,0.000000,-6587.832884,1225.752797
163532.664040,2590.720797,-9474.636058,536.266849
163532.664360,1554.432478,-9400.615463,-1302.362347
163532.664679,-4219.173869,-11029.068536,-2451.505594
163532.664999,-4811.338623,-11177.109724,-3753.867940
163532.665319,-3034.844362,-11843.295072,-3677.258390
163532.665638,1702.473667,-12435.459826,1762.019645
163532.665958,1702.473667,-7624.121203,229.828649
163532.666278,4663.297435,-11251.130318,4519.963438
163532.666597,5255.462188,-7772.162391,2757.943793
163532.666917,5033.400406,-8660.409521,3983.696590
163532.667236,-2368.659014,-7179.997637,612.876398
163532.667556,-2442.679609,-10214.842000,-459.657299
163532.667876,-3404.947333,-11103.089130,-1225.752797
163532.668195,-1850.514855,-9918.759623,-1225.752797
163532.668515,-3256.906145,-7772.162391,-2451.505594
163532.668835,-1850.514855,-9178.553681,-1072.533697
163532.669154,-1184.329507,-7772.162391,-4290.134789
163532.669474,0.000000,-8512.368333,0.000000
163532.669793,-74.020594,-11843.295072,-76.609550
163532.670113,-3552.988522,-9548.656652,0.000000
163532.670433,-2664.741391,-9104.533087,-1991.848295
163532.670752,74.020594,-9400.615463,1302.362347
163532.671072,1036.288319,-7698.141797,766.095498
163532.671392,592.164754,-7179.997637,1225.752797
163532.671711,3108.864956,-8290.306550,536.266849
163532.672031,5847.626942,-11843.295072,3600.648841
163532.672350,814.226536,-7698.141797,-1915.238745
163532.672670,-3552.988522,-10955.047942,-2374.896044
163532.672990,-1554.432478,-14211.954086,-2528.115143
163532.673309,-3552.988522,-12139.377449,-2451.505594
163532.673629,-1480.411884,-9844.739029,-1455.581446
163532.673948,0.000000,-8660.409521,229.828649
163532.674268,3552.988522,-7179.997637,1838.629195
163532.674588,4737.318029,-5995.668130,3064.381992
163532.674907,3552.988522,-5995.668130,3064.381992
163532.675227,-74.020594,-9474.636058,1149.143247
163532.675547,-3775.050304,-9844.739029,-2757.943793
163532.675866,-4959.379811,-9992.780217,-3753.867940
163532.676186,-1850.514855,-11843.295072,-1302.362347
163532.676505,-3552.988522,-9696.697840,-1608.800546
163532.676825,296.082377,-9622.677246,-229.828649
163532.677145,1702.473667,-8956.491898,306.438199
163532.677464,0.000000,-7179.997637,0.000000
163532.677784,-1850.514855,-8586.388927,-1608.800546
163532.678104,-5625.565159,-9548.656652,-3064.381992
163532.678423,-4293.194464,-10436.903782,-1225.752797
163532.678743,-74.020594,-12435.459826,2374.896044
163532.679062,-74.020594,-7994.224174,-1302.362347
163532.679382,1480.411884,-9178.553681,1838.629195
163532.679702,2072.576638,-7772.162391,76.609550
163532.680021,2812.782580,-8586.388927,919.314598
163532.680341,0.000000,-8660.409521,-76.609550
163532.680661,-1554.432478,-11251.130318,229.828649
163532.680980,-814.226536,-11251.130318,-1608.800546
163532.681300,-1628.453072,-9474.636058,-76.609550
163532.681619,-2368.659014,-9548.656652,0.000000
163532.681939,0.000000,-9548.656652,612.876398
163532.682259,2294.638420,-7105.977043,-383.047749
163532.682578,3478.967927,-8660.409521,2911.162892
163532.682898,1850.514855,-7179.997637,536.266849
163532.683217,-666.185348,-10066.800811,919.314598
163532.683537,-814.226536,-10881.027347,-76.609550
163532.683857,-1776.494261,-11917.315666,919.314598
163532.684176,-592.164754,-11029.068536,766.095498
163532.684496,-1258.350101,-10066.800811,-1608.800546
163532.684816,592.164754,-8216.285956,-1685.410096
163532.685135,888.247130,-7772.162391,0.000000
163532.685455,4071.132681,-9474.636058,1149.143247
163532.685774,-148.041188,-9548.656652,0.000000
163532.686094,-592.164754,-9770.718434,-1838.629195
163532.686414,-1998.556043,-9770.718434,-842.705048
163532.686733,0.000000,-8956.491898,0.000000
163532.687053,-1110.308913,-8068.244768,-1915.238745
163532.687373,0.000000,-8660.409521,-1762.019645
163532.687692,666.185348,-9178.553681,0.000000
163532.688012,2960.823768,-9474.636058,1149.143247
163532.688331,-1554.432478,-7179.997637,-3677.258390
163532.688651,296.082377,-10140.821405,-383.047749
163532.688971,-3330.926739,-9844.739029,-1149.143247
163532.689290,-1184.329507,-10288.862594,-229.828649
163532.689610,1110.308913,-9474.636058,-76.609550
163532.689930,2072.576638,-8882.471304,3600.648841
163532.690249,1998.556043,-5699.585753,229.828649
163532.690569,2368.659014,-6735.874072,1149.143247
163532.690888,-2368.659014,-7772.162391,0.000000
163532.691208,-3552.988522,-10140.821405,0.000000
163532.691528,-6143.709319,-9622.677246,-4979.620737
163532.691847,-4219.173869,-12657.521608,-1608.800546
163532.692167,-2368.659014,-9548.656652,-1915.238745
163532.692486,-1850.514855,-9252.574275,459.657299
163532.692806,2294.638420,-9474.636058,-76.609550
163532.693126,2738.761985,-8808.450710,2068.457845
163532.693445,2294.638420,-9178.553681,2145.067394
163532.693765,-370.102971,-9474.636058,-76.609550
163532.694085,-4145.153275,-9548.656652,-1225.752797
163532.694404,-4737.318029,-9548.656652,0.000000
163532.694724,-1554.432478,-9252.574275,-1608.800546
163532.695043,-2220.617826,-9918.759623,-306.438199
163532.695363,74.020594,-9696.697840,-1608.800546
163532.695683,1184.329507,-9844.739029,1149.143247
163532.696002,4663.297435,-10658.965565,-76.609550
163532.696322,-3552.988522,-7772.162391,0.000000
163532.696642,-370.102971,-10658.965565,-689.485948
163532.696961,-1406.391290,-8734.430116,-459.657299
163532.697281,-1628.453072,-6587.832884,0.000000
163532.697600,-74.020594,-7105.977043,-689.485948
163532.697920,666.185348,-8882.471304,1302.362347
163532.698240,2664.741391,-8586.388927,2528.115143
163532.698559,3923.091493,-7994.224174,1838.629195
163532.698879,1036.288319,-9474.636058,2374.896044
163532.699199,-2146.597232,-9178.553681,-1915.238745
163532.699518,-3034.844362,-10658.965565,-2834.553343
163532.699838,-1776.494261,-10732.986159,-3677.258390
163532.700157,-1480.411884,-11473.192101,-536.266849
163532.700477,-74.020594,-11251.130318,-76.609550
163532.700797,2072.576638,-9474.636058,1225.752797
163532.701116,4071.132681,-7920.203579,995.924147
163532.701436,1406.391290,-7624.121203,-383.047749
163532.701755,-1184.329507,-9622.677246,-1072.533697
163532.702075,-4737.318029,-8364.327145,-3677.258390
163532.702395,-370.102971,-11621.233289,-76.609550
163532.702714,-2146.597232,-9918.759623,-766.095498
163532.703034,-1702.473667,-10362.883188,0.000000
163532.703354,814.226536,-8882.471304,-995.924147
163532.703673,5551.544565,-8290.306550,1072.533697
163532.703993,4663.297435,-8882.471304,-76.609550
163532.704312,-1258.350101,-8364.327145,-1072.533697
163532.704632,-1924.535449,-8660.409521,-3447.429741
163532.704952,-592.164754,-12509.480420,842.705048
163532.705271,-4737.318029,-9548.656652,-3370.820191
163532.705591,-3034.844362,-10658.965565,-766.095498
163532.705911,-1110.308913,-9844.739029,0.000000
163532.706230,2738.761985,-8512.368333,2528.115143
163532.706550,3182.885551,-7105.977043,1762.019645
163532.706869,-592.164754,-6735.874072,1225.752797
163532.707189,-74.020594,-8586.388927,536.266849
163532.707509,-148.041188,-11325.150913,3600.648841
163532.707828,-74.020594,-9474.636058,-76.609550
163532.708148,-4737.318029,-9844.739029,0.000000
163532.708468,-4145.153275,-8956.491898,-2374.896044
163532.708787,-444.123565,-9770.718434,-1149.143247
163532.709107,0.000000,-9474.636058,-1455.581446
163532.709426,-2664.741391,-8660.409521,-1991.848295
163532.709746,-2442.679609,-8512.368333,-3447.429741
163532.710066,-2368.659014,-10732.986159,-919.314598
163532.710385,0.000000,-8512.368333,0.000000
163532.710705,-2368.659014,-9548.656652,1225.752797
163532.711024,962.267725,-9474.636058,2298.286494
163532.711344,2368.659014,-7772.162391,3677.258390
163532.711664,5329.482782,-7698.141797,2068.457845
163532.711983,814.226536,-7402.059420,0.000000
163532.712303,-962.267725,-10436.903782,-612.876398
163532.712623,-2368.659014,-8660.409521,-3447.429741
163532.712942,-1258.350101,-11399.171507,-1302.362347
163532.713262,-3034.844362,-11843.295072,-2528.115143
163532.713581,-6513.812290,-10732.986159,-2145.067394
163532.713901,-3701.029710,-9844.739029,0.000000
163532.714221,2294.638420,-11103.089130,4213.525239
163532.714540,-2368.659014,-5403.503377,1838.629195
163532.714860,-2886.803174,-7105.977043,2528.115143
163532.715180,-1184.329507,-6883.915261,2145.067394
163532.715499,-518.144159,-8142.265362,3064.381992
163532.715819,-2442.679609,-7105.977043,-383.047749
163532.716138,-7624.121203,-10658.965565,-919.314598
163532.716458,-7179.997637,-10658.965565,-5592.497135
163532.716778,-9474.636058,-11473.192101,-4979.620737
163532.717097,-8882.471304,-10436.903782,-4903.011187
163532.717417,-8956.491898,-11843.295072,-2528.115143
163532.717737,-8882.471304,-10436.903782,-3217.601092
163532.718056,-5995.668130,-8586.388927,-1378.971896
163532.718376,-2442.679609,-9400.615463,2451.505594
163532.718695,-2146.597232,-5995.668130,3677.258390
163532.719015,-2664.741391,-5995.668130,3677.258390
163532.719335,-1998.556043,-6291.750507,2528.115143
163532.719654,-1776.494261,-7328.038826,4903.011187
163532.719974,-74.020594,-8290.306550,2681.334243
163532.720294,-5107.421000,-7698.141797,-76.609550
163532.720613,-6069.688724,-11843.295072,-2834.553343
163532.720933,-11177.109724,-12213.398043,-7277.907231
163532.721252,-9326.594869,-15174.221811,-4366.744339
163532.721572,-8808.450710,-11843.295072,-3064.381992
163532.721892,-9474.636058,-9844.739029,0.000000
163532.722211,-8882.471304,-5403.503377,-1838.629195
163532.722531,-2442.679609,-6513.812290,1149.143247
163532.722850,0.000000,-5403.503377,3677.258390
163532.723170,2960.823768,-4219.173869,4903.011187
163532.723490,2886.803174,-5921.647536,4826.401637
163532.723809,-3256.906145,-5995.668130,1915.238745
163532.724129,-5921.647536,-8438.347739,-3753.867940
163532.724449,-8216.285956,-13989.892304,-4443.353888
163532.724768,-5625.565159,-14285.974681,-3753.867940
163532.725088,-8216.285956,-11917.315666,-6511.811733
163532.725407,-5995.668130,-14211.954086,-3753.867940
163532.725727,-6291.750507,-10510.924376,-5439.278036
163532.726047,-3849.070898,-9030.512492,-2528.115143
163532.726366,0.000000,-5995.668130,2451.505594
163532.726686,7031.956449,-7105.977043,4826.401637
163532.727006,4737.318029,-5107.421000,5898.935335
163532.727325,3034.844362,-3701.029710,3217.601092
163532.727645,370.102971,-7328.038826,1685.410096
163532.727964,-592.164754,-9696.697840,1532.190996
163532.728284,-1258.350101,-12065.356855,0.000000
163532.728604,-1998.556043,-14211.954086,-689.485948
163532.728923,-3627.009116,-15396.283594,-1302.362347
163532.729243,-4811.338623,-13027.624579,-3140.991542
163532.729563,-4663.297435,-9548.656652,-3753.867940
163532.729882,-370.102971,-9474.636058,-383.047749
163532.730202,-2368.659014,-6883.915261,0.000000
163532.730521,296.082377,-6365.771101,1378.971896
163532.730841,1480.411884,-6217.729913,2757.943793
163532.731161,0.000000,-5403.503377,2451.505594
163532.731480,-2072.576638,-6291.750507,-612.876398
163532.731800,-4737.318029,-9548.656652,-1225.752797
163532.732119,-2960.823768,-13027.624579,-1302.362347
163532.732439,-3923.091493,-13619.789333,-689.485948
163532.732759,-4219.173869,-12879.583391,-1608.800546
163532.733078,-4293.194464,-12065.356855,-612.876398
163532.733398,-5033.400406,-9326.594869,-2221.676944
163532.733718,-4959.379811,-7772.162391,-1838.629195
163532.734037,-3923.091493,-7254.018232,-153.219100
163532.734357,-3552.988522,-5995.668130,612.876398
163532.734676,-1850.514855,-4811.338623,229.828649
163532.734996,-2368.659014,-7179.997637,1838.629195
163532.735316,-1554.432478,-8586.388927,1838.629195
163532.735635,-2886.803174,-8142.265362,-76.609550
163532.735955,-4811.338623,-11547.212695,-1608.800546
163532.736275,-7105.977043,-11621.233289,-4366.744339
163532.736594,-6661.853478,-13397.727550,-2374.896044
163532.736914,-6661.853478,-12657.521608,-76.609550
163532.737233,-7105.977043,-9548.656652,0.000000
163532.737553,-3552.988522,-9252.574275,1762.019645
163532.737873,-518.144159,-7402.059420,2911.162892
163532.738192,-1554.432478,-4737.318029,2374.896044
163532.738512,-5107.421000,-3627.009116,-1455.581446
163532.738832,-4441.235652,-8956.491898,1149.143247
163532.739151,-5921.647536,-8364.327145,-1225.752797
163532.739471,-5847.626942,-10881.027347,-1302.362347
163532.739790,-6957.935855,-11991.336260,-2374.896044
163532.740110,-6587.832884,-12509.480420,-2374.896044
163532.740430,-4811.338623,-9474.636058,-3140.991542
163532.740749,-3404.947333,-8734.430116,76.609550
163532.741069,-4885.359217,-6883.915261,-995.924147
163532.741388,-4589.276840,-6735.874072,-1685.410096
163532.741708,-2442.679609,-10214.842000,-76.609550
163532.742028,-592.164754,-10955.047942,2987.772442
163532.742347,-2368.659014,-10732.986159,3370.820191
163532.742667,-2738.761985,-10658.965565,1149.143247
163532.742987,-3627.009116,-11547.212695,-383.047749
163532.743306,-3552.988522,-9548.656652,0.000000
163532.743626,-74.020594,-9474.636058,-76.609550
163532.743945,0.000000,-8142.265362,1149.143247
163532.744265,-962.267725,-6513.812290,-536.266849
163532.744585,-2590.720797,-7476.080014,-2834.553343
163532.744904,-3849.070898,-11547.212695,-2604.724693
163532.745224,-3182.885551,-12953.603985,-689.485948
163532.745544,-5033.400406,-10881.027347,1225.752797
163532.745863,-6143.709319,-8364.327145,306.438199
163532.746183,-4737.318029,-7179.997637,0.000000
163532.746502,-3997.112087,-5403.503377,-2451.505594
163532.746822,1850.514855,-7624.121203,2068.457845
163532.747142,2442.679609,-8734.430116,3447.429741
163532.747461,0.000000,-8808.450710,2374.896044
163532.747781,-3552.988522,-8068.244768,-689.485948
163532.748101,-4811.338623,-9474.636058,-3753.867940
163532.748420,-4663.297435,-8586.388927,-5898.935335
163532.748740,-6809.894666,-8068.244768,-7354.516781
163532.749059,-4737.318029,-11917.315666,-4136.915689
163532.749379,-4885.359217,-14137.933492,-1532.190996
163532.749699,-5921.647536,-10732.986159,0.000000
163532.750018,-2442.679609,-11769.274478,2681.334243
163532.750338,-592.164754,-8512.368333,4060.306139
163532.750657,592.164754,-4145.153275,3907.087040
163532.750977,2886.803174,-4737.318029,4826.401637
163532.751297,3478.967927,-5921.647536,3677.258390
163532.751616,592.164754,-7328.038826,3524.039291
163532.751936,-1554.432478,-9474.636058,-229.828649
163532.752256,-5995.668130,-11547.212695,-2528.115143
163532.752575,-9474.636058,-13101.645173,-4290.134789
163532.752895,-10658.965565,-12805.562797,-6128.763984
163532.753214,-9548.656652,-12065.356855,-5286.058936
163532.753534,-6365.771101,-9696.697840,-3983.696590
163532.753854,-2960.823768,-7624.121203,-1608.800546
163532.754173,-74.020594,-7031.956449,1685.410096
163532.754493,-2368.659014,-5995.668130,2145.067394
163532.754813,-2368.659014,-9252.574275,3983.696590
163532.755132,-1480.411884,-11843.295072,5975.544884
163532.755452,-1258.350101,-11843.295072,4213.525239
163532.755771,-4737.318029,-8364.327145,4903.011187
163532.756091,-2738.761985,-8882.471304,2068.457845
163532.756411,-3849.070898,-7179.997637,-995.924147
163532.756730,-6069.688724,-6809.894666,-4673.182538
163532.757050,-8142.265362,-7179.997637,-7660.954980
163532.757370,-8956.491898,-9770.718434,-8656.879127
163532.757689,-9474.636058,-11103.089130,-6741.640382
163532.758009,-8290.306550,-9548.656652,-4903.011187
163532.758328,-4145.153275,-9548.656652,1225.752797
163532.758648,3478.967927,-9474.636058,6052.154434
163532.758968,2368.659014,-6587.832884,6128.763984
163532.759287,4515.256246,-7031.956449,7124.688131
163532.759607,2886.803174,-7031.956449,5669.106685
163532.759926,-444.123565,-8068.244768,3370.820191
163532.760246,-3034.844362,-9770.718434,-1302.362347
163532.760566,-5995.668130,-11251.130318,-2834.553343
163532.760885,-7179.997637,-12435.459826,-4366.744339
163532.761205,-8734.430116,-10510.924376,-5669.106685
163532.761525,-7105.977043,-8956.491898,-6205.373534
163532.761844,-3552.988522,-10140.821405,-76.609550
163532.762164,-1776.494261,-7179.997637,459.657299
163532.762484,666.185348,-7624.121203,3447.429741
163532.762803,1924.535449,-7402.059420,4366.744339
163532.763123,1480.411884,-7624.121203,4136.915689
163532.763443,1702.473667,-9474.636058,3600.648841
163532.763763,-1776.494261,-9548.656652,2604.724693
163532.764082,-518.144159,-11399.171507,1455.581446
163532.764402,-74.020594,-13027.624579,-76.609550
163532.764722,-74.020594,-11399.171507,-995.924147
163532.765042,1184.329507,-11917.315666,1991.848295
163532.765361,2146.597232,-10658.965565,383.047749
163532.765681,2738.761985,-10436.903782,2451.505594
163532.766001,3701.029710,-9326.594869,3677.258390
163532.766321,2368.659014,-7772.162391,2451.505594
163532.766640,3552.988522,-7179.997637,6128.763984
163532.766960,3849.070898,-8438.347739,7354.516781
163532.767280,3849.070898,-8364.327145,8580.269578
163532.767600,4071.132681,-8882.471304,6665.030833
163532.767919,888.247130,-9474.636058,6665.030833
163532.768239,-2960.823768,-9548.656652,4903.011187
163532.768559,-3330.926739,-9474.636058,2528.115143
163532.768879,-3627.009116,-10658.965565,2298.286494
163532.769198,-2368.659014,-11251.130318,3064.381992
163532.769518,-3182.885551,-8956.491898,3064.381992
163532.769838,0.000000,-8956.491898,7277.907231
163532.770158,0.000000,-4811.338623,5515.887586
163532.770478,3256.906145,-5551.544565,7584.345430
163532.770797,2294.638420,-4737.318029,6052.154434
163532.771117,0.000000,-4811.338623,3677.258390
163532.771437,-74.020594,-9992.780217,3600.648841
163532.771757,-1184.329507,-13027.624579,3983.696590
163532.772076,-2072.576638,-15396.283594,5515.887586
163532.772396,-2294.638420,-14878.139434,5439.278036
163532.772716,-962.267725,-15692.365970,8580.269578
163532.773036,-2368.659014,-10140.821405,8886.707777
163532.773355,-74.020594,-5921.647536,8197.221829
163532.773675,-592.164754,-74.020594,3600.648841
163532.773995,0.000000,-74.020594,4903.011187
163532.774315,1702.473667,-4145.153275,3447.429741
163532.774634,0.000000,-8808.450710,5439.278036
163532.774954,-1110.308913,-10510.924376,5592.497135
163532.775274,-2220.617826,-12361.439231,5439.278036
163532.775594,-2442.679609,-14804.118840,6052.154434
163532.775913,-4811.338623,-11547.212695,3370.820191
163532.776233,-3330.926739,-9622.677246,4826.401637
163532.776553,-74.020594,-9474.636058,3600.648841
163532.776873,148.041188,-8438.347739,4290.134789
163532.777192,2294.638420,-9474.636058,5745.716235
163532.777512,148.041188,-9178.553681,5132.839837
163532.777832,-2368.659014,-7846.182985,2451.505594
163532.778152,-3923.091493,-7550.100608,689.485948
163532.778471,-2442.679609,-7698.141797,995.924147
163532.778791,0.000000,-5995.668130,2451.505594
163532.779111,2886.803174,-8586.388927,2834.553343
163532.779431,2368.659014,-9992.780217,1072.533697
163532.779750,-814.226536,-11547.212695,-306.438199
163532.780070,-2738.761985,-13027.624579,-1608.800546
163532.780390,-1258.350101,-13249.686362,-459.657299
163532.780710,-1480.411884,-11917.315666,383.047749
163532.781030,-74.020594,-9474.636058,2374.896044
163532.781349,2294.638420,-8882.471304,-76.609550
163532.781669,3552.988522,-9844.739029,4596.572988
163532.781989,1184.329507,-6587.832884,2145.067394
163532.782309,2294.638420,-5699.585753,842.705048
163532.782628,1036.288319,-6587.832884,-1149.143247
163532.782948,2590.720797,-9770.718434,-383.047749
163532.783268,4441.235652,-9696.697840,1455.581446
163532.783588,3775.050304,-9030.512492,2911.162892
163532.783907,740.205942,-9474.636058,766.095498
163532.784227,-2442.679609,-11843.295072,-3140.991542
163532.784547,-5107.421000,-11843.295072,-3830.477490
163532.784867,-4737.318029,-11917.315666,612.876398
163532.785186,-2072.576638,-8586.388927,1302.362347
163532.785506,666.185348,-7698.141797,2298.286494
163532.785826,2516.700203,-6661.853478,1838.629195
163532.786146,2368.659014,-4811.338623,612.876398
163532.786465,518.144159,-4219.173869,0.000000
163532.786785,0.000000,-7254.018232,-1915.238745
163532.787105,0.000000,-10140.821405,0.000000
163532.787425,0.000000,-12361.439231,766.095498
163532.787744,-592.164754,-14211.954086,2068.457845
163532.788064,-2368.659014,-12509.480420,1302.362347
163532.788384,-1480.411884,-11621.233289,229.828649
163532.788704,-1480.411884,-8956.491898,842.705048
163532.789023,-2220.617826,-7550.100608,76.609550
163532.789343,-2442.679609,-7179.997637,-1302.362347
163532.789663,2886.803174,-10214.842000,4519.963438
163532.789983,4071.132681,-8586.388927,4826.401637
163532.790302,1776.494261,-7772.162391,4366.744339
163532.790622,1036.288319,-10436.903782,4290.134789
163532.790942,-74.020594,-11843.295072,2987.772442
163532.791262,-2960.823768,-10881.027347,919.314598
163532.791582,-1850.514855,-12657.521608,1685.410096
163532.791901,-2146.597232,-11843.295072,2068.457845
163532.792221,-1702.473667,-10510.924376,2528.115143
163532.792541,-962.267725,-9104.533087,1838.629195
163532.792861,-1332.370696,-8364.327145,3753.867940
163532.793180,-1702.473667,-7105.977043,3677.258390
163532.793500,-74.020594,-8290.306550,4519.963438
163532.793820,518.144159,-6217.729913,3217.601092
163532.794140,4663.297435,-11251.130318,8503.660028
163532.794459,3404.947333,-8956.491898,6435.202183
163532.794779,2294.638420,-10288.862594,5439.278036
163532.795099,-1554.432478,-11843.295072,3064.381992
163532.795419,-4737.318029,-11917.315666,612.876398
163532.795738,-5921.647536,-9548.656652,0.000000
163532.796058,-4293.194464,-9548.656652,0.000000
163532.796378,-3552.988522,-9548.656652,1225.752797
163532.796698,814.226536,-9770.718434,4826.401637
163532.797017,2886.803174,-7698.141797,6052.154434
163532.797337,1554.432478,-6957.935855,6052.154434
163532.797657,518.144159,-5477.523971,5439.278036
163532.797977,2664.741391,-7179.997637,5745.716235
163532.798296,5329.482782,-7476.080014,5975.544884
163532.798616,1184.329507,-7179.997637,4903.011187
163532.798936,740.205942,-12435.459826,7277.907231
163532.799256,-1776.494261,-11325.150913,4903.011187
163532.799575,-2960.823768,-12805.562797,3983.696590
163532.799895,-2738.761985,-13027.624579,4826.401637
163532.800215,-4811.338623,-9474.636058,-76.609550
163532.800535,-5329.482782,-7179.997637,689.485948
163532.800854,-1628.453072,-6587.832884,1072.533697
163532.801174,1258.350101,-7402.059420,2681.334243
163532.801494,814.226536,-7550.100608,4826.401637
163532.801814,518.144159,-7994.224174,2987.772442
163532.802134,1702.473667,-11547.212695,4826.401637
163532.802453,666.185348,-11325.150913,5056.230287
163532.802773,0.000000,-11917.315666,6435.202183
163532.803093,0.000000,-9548.656652,4290.134789
163532.803413,-74.020594,-10658.965565,4213.525239
163532.803732,-2960.823768,-8364.327145,2451.505594
163532.804052,-3182.885551,-6809.894666,-1225.752797
163532.804372,-2960.823768,-9104.533087,-153.219100
163532.804692,0.000000,-8364.327145,153.219100
163532.805011,296.082377,-9548.656652,612.876398
163532.805331,1702.473667,-11251.130318,2451.505594
163532.805651,2294.638420,-11843.295072,7277.907231
163532.805971,2294.638420,-11843.295072,5439.278036
163532.806290,814.226536,-6957.935855,3294.210641
163532.806610,1036.288319,-8882.471304,4136.915689
163532.806930,-1480.411884,-7476.080014,2987.772442
163532.807250,518.144159,-7772.162391,2528.115143
163532.807569,592.164754,-9252.574275,842.705048
163532.807889,-2368.659014,-9548.656652,0.000000
163532.808209,-2664.741391,-11325.150913,-2528.115143
163532.808529,-4737.318029,-11917.315666,1225.752797
163532.808848,-666.185348,-11547.212695,1149.143247
163532.809168,-3034.844362,-6513.812290,-383.047749
163532.809488,444.123565,-11843.295072,4826.401637
163532.809808,2220.617826,-6735.874072,2451.505594
163532.810127,3256.906145,-9474.636058,4596.572988
163532.810447,2146.597232,-7624.121203,2604.724693
163532.810767,-3256.906145,-7476.080014,0.000000
163532.811087,-370.102971,-9844.739029,-612.876398
163532.811407,-666.185348,-11547.212695,-995.924147
163532.811726,-962.267725,-11251.130318,-76.609550
163532.812046,-3330.926739,-8364.327145,-3064.381992
163532.812366,0.000000,-10510.924376,2451.505594
163532.812686,0.000000,-6143.709319,-1225.752797
163532.813005,222.061783,-6957.935855,-1838.629195
163532.813325,-1480.411884,-8882.471304,-2604.724693
163532.813645,1776.494261,-10362.883188,0.000000
163532.813965,4663.297435,-11843.295072,1149.143247
163532.814284,2220.617826,-9548.656652,2987.772442
163532.814604,-2368.659014,-8364.327145,-383.047749
163532.814924,-3627.009116,-7105.977043,-1302.362347
163532.815244,-296.082377,-5699.585753,-2528.115143
163532.815563,2368.659014,-7772.162391,229.828649
163532.815883,592.164754,-9548.656652,-1838.629195
163532.816203,1110.308913,-13915.871710,-689.485948
163532.816523,-1406.391290,-13323.706956,-995.924147
163532.816842,-3034.844362,-11991.336260,-4290.134789
163532.817162,-4811.338623,-9474.636058,-6205.373534
163532.817482,-3849.070898,-9104.533087,-4213.525239
163532.817802,0.000000,-6513.812290,-3140.991542
163532.818121,5033.400406,-7105.977043,536.266849
163532.818441,5033.400406,-7476.080014,306.438199
163532.818761,2590.720797,-9918.759623,919.314598
163532.819081,-1776.494261,-9548.656652,-2451.505594
163532.819400,-74.020594,-11325.150913,-3677.258390
163532.819720,-1332.370696,-11473.192101,-4290.134789
163532.820040,-3552.988522,-10140.821405,-4136.915689
163532.820360,1110.308913,-9474.636058,-2528.115143
163532.820679,2590.720797,-8364.327145,0.000000
163532.820999,2368.659014,-6439.791695,-3294.210641
163532.821319,0.000000,-9474.636058,-2068.457845
163532.821639,814.226536,-12435.459826,-76.609550
163532.821959,1702.473667,-10584.944971,1149.143247
163532.822278,-814.226536,-9474.636058,-689.485948
163532.822598,-4737.318029,-8364.327145,-1532.190996
163532.822918,-1406.391290,-8068.244768,-536.266849
163532.823238,222.061783,-5255.462188,-2451.505594
163532.823557,2220.617826,-6735.874072,-1838.629195
163532.823877,-2442.679609,-9474.636058,-2757.943793
163532.824197,-1776.494261,-11991.336260,-2298.286494
163532.824517,-666.185348,-13619.789333,-76.609550
163532.824836,-74.020594,-11843.295072,-76.609550
163532.825156,-5699.585753,-10732.986159,-1838.629195
163532.825476,-3330.926739,-9474.636058,-3753.867940
163532.825796,0.000000,-8734.430116,0.000000
163532.826115,2368.659014,-7179.997637,612.876398
163532.826435,222.061783,-9548.656652,1149.143247
163532.826755,814.226536,-10732.986159,1991.848295
163532.827075,1480.411884,-10732.986159,1915.238745
163532.827394,2516.700203,-9252.574275,1915.238745
163532.827714,-1258.350101,-8586.388927,-76.609550
163532.828034,-5921.647536,-6291.750507,-1532.190996
163532.828354,-2072.576638,-7476.080014,0.000000
163532.828673,4071.132681,-9326.594869,1608.800546
163532.828993,2294.638420,-11251.130318,1762.019645
163532.829313,-4145.153275,-9548.656652,2451.505594
163532.829633,-74.020594,-9696.697840,2068.457845
163532.829952,814.226536,-8216.285956,2374.896044
163532.830272,-592.164754,-7846.182985,76.609550
163532.830592,-1554.432478,-9252.574275,1149.143247
163532.830912,1776.494261,-8660.409521,3294.210641
163532.831231,1628.453072,-6883.915261,3064.381992
163532.831551,0.000000,-5995.668130,-2451.505594
163532.831871,-5921.647536,-10140.821405,0.000000
163532.832191,-1924.535449,-11029.068536,1608.800546
163532.832511,0.000000,-10140.821405,0.000000
163532.832830,-74.020594,-9474.636058,229.828649
163532.833150,-4515.256246,-11251.130318,0.000000
163532.833470,-2294.638420,-9696.697840,1225.752797
163532.833790,2294.638420,-7105.977043,1762.019645
163532.834109,4367.215058,-7105.977043,-76.609550
163532.834429,518.144159,-8882.471304,-76.609550
163532.834749,0.000000,-7179.997637,0.000000
163532.835069,2664.741391,-10732.986159,2834.553343
163532.835388,2368.659014,-11325.150913,1838.629195
163532.835708,-4737.318029,-10732.986159,0.000000
163532.836028,-4441.235652,-10881.027347,-229.828649
163532.836348,-1258.350101,-9548.656652,0.000000
163532.836667,1924.535449,-7476.080014,229.828649
163532.836987,3478.967927,-9474.636058,2374.896044
163532.837307,2812.782580,-8364.327145,4290.134789
163532.837627,4071.132681,-9474.636058,2987.772442
163532.837946,444.123565,-7772.162391,536.266849
163532.838266,-5921.647536,-9548.656652,0.000000
163532.838586,-6513.812290,-9844.739029,612.876398
163532.838906,-3034.844362,-9400.615463,76.609550
163532.839225,962.267725,-7105.977043,1302.362347
163532.839545,-814.226536,-6365.771101,-1532.190996
163532.839865,0.000000,-8364.327145,-1762.019645
163532.840185,1480.411884,-9622.677246,-1915.238745
163532.840504,296.082377,-10436.903782,0.000000
163532.840824,-2738.761985,-11547.212695,-2451.505594
163532.841144,-3627.009116,-13027.624579,-1915.238745
163532.841464,-3627.009116,-9474.636058,-2528.115143
163532.841783,0.000000,-7179.997637,0.000000
163532.842103,2368.659014,-7550.100608,-1991.848295
163532.842423,814.226536,-8956.491898,-153.219100
163532.842743,2368.659014,-10732.986159,0.000000
163532.843063,2590.720797,-9622.677246,0.000000
163532.843382,-74.020594,-9326.594869,-2834.553343
163532.843702,-5181.441594,-11251.130318,-2528.115143
163532.844022,-3552.988522,-7179.997637,-4290.134789
163532.844342,2590.720797,-9474.636058,-689.485948
163532.844661,4589.276840,-9474.636058,-76.609550
163532.844981,0.000000,-9548.656652,0.000000
163532.845301,222.061783,-10510.924376,-766.095498
163532.845621,518.144159,-10807.006753,-536.266849
163532.845940,0.000000,-11177.109724,-1762.019645
163532.846260,-3034.844362,-9844.739029,-1302.362347
163532.846580,-74.020594,-9474.636058,1762.019645
163532.846900,-74.020594,-4737.318029,-995.924147
163532.847219,1776.494261,-4367.215058,-2298.286494
163532.847539,-2368.659014,-5403.503377,-2451.505594
163532.847859,0.000000,-5995.668130,0.000000
163532.848179,2146.597232,-11325.150913,842.705048
163532.848498,-518.144159,-9918.759623,-1378.971896
163532.848818,-6513.812290,-9770.718434,-3983.696590
163532.849138,-2442.679609,-10362.883188,-3140.991542
163532.849458,-666.185348,-7920.203579,-2528.115143
163532.849777,1184.329507,-7179.997637,0.000000
163532.850097,888.247130,-7476.080014,-2451.505594
163532.850417,1776.494261,-10214.842000,1838.629195
163532.850737,888.247130,-7476.080014,0.000000
163532.851056,2886.803174,-10066.800811,-229.828649
163532.851376,-1480.411884,-10732.986159,-1608.800546
163532.851696,-2220.617826,-11251.130318,-229.828649
163532.852016,-1480.411884,-10214.842000,-689.485948
163532.852335,888.247130,-10362.883188,2068.457845
163532.852655,-1924.535449,-7179.997637,-2068.457845
163532.852975,-740.205942,-9326.594869,0.000000
163532.853295,1850.514855,-8290.306550,-306.438199
163532.853615,1776.494261,-9696.697840,306.438199
163532.853934,-1924.535449,-8364.327145,-3064.381992
163532.854254,-3627.009116,-11103.089130,-995.924147
163532.854574,-3552.988522,-8364.327145,0.000000
163532.854894,-666.185348,-9474.636058,2374.896044
163532.855213,-74.020594,-8290.306550,-383.047749
163532.855533,-888.247130,-8808.450710,1838.629195
163532.855853,1406.391290,-8808.450710,995.924147
163532.856173,1110.308913,-9918.759623,1762.019645
163532.856492,-666.185348,-9548.656652,-536.266849
163532.856812,-4367.215058,-9548.656652,-766.095498
163532.857132,-2072.576638,-8068.244768,0.000000
163532.857452,-74.020594,-8586.388927,536.266849
163532.857771,518.144159,-7105.977043,-76.609550
163532.858091,0.000000,-7179.997637,612.876398
163532.858411,5847.626942,-11843.295072,4826.401637
163532.858731,2368.659014,-10732.986159,3064.381992
163532.859050,1406.391290,-10732.986159,1762.019645
163532.859370,-3701.029710,-10362.883188,-536.266849
163532.859690,-2368.659014,-9104.533087,0.000000
163532.860010,-1776.494261,-7179.997637,0.000000
163532.860329,1406.391290,-7846.182985,919.314598
163532.860649,2294.638420,-10658.965565,3294.210641
163532.860969,1998.556043,-9178.553681,2374.896044
163532.861289,296.082377,-7920.203579,995.924147
163532.861608,2294.638420,-11843.295072,2987.772442
163532.861928,-2960.823768,-10140.821405,-919.314598
163532.862248,-2072.576638,-10436.903782,536.266849
163532.862568,-1332.370696,-8586.388927,0.000000
163532.862887,0.000000,-7772.162391,612.876398
163532.863207,-3552.988522,-5995.668130,-2451.505594
163532.863527,-4441.235652,-7772.162391,-1838.629195
163532.863847,0.000000,-9548.656652,0.000000
163532.864167,1406.391290,-11769.274478,2374.896044
163532.864486,-74.020594,-10658.965565,-1302.362347
163532.864806,-74.020594,-11843.295072,2068.457845
163532.865126,0.000000,-9252.574275,0.000000
163532.865446,148.041188,-7105.977043,383.047749
163532.865765,-1258.350101,-6069.688724,-1838.629195
163532.866085,-2368.659014,-7179.997637,-2145.067394
163532.866405,1554.432478,-9548.656652,-612.876398
163532.866725,2294.638420,-10732.986159,1532.190996
163532.867045,296.082377,-10436.903782,1149.143247
163532.867364,-2664.741391,-9844.739029,1378.971896
163532.867684,-1554.432478,-7994.224174,-3294.210641
163532.868004,-962.267725,-8364.327145,-1608.800546
163532.868324,0.000000,-5995.668130,-2451.505594
163532.868644,-592.164754,-9548.656652,766.095498
163532.868964,2960.823768,-9326.594869,842.705048
163532.869283,2220.617826,-9474.636058,1072.533697
163532.869603,-666.185348,-8364.327145,-1991.848295
163532.869923,-4441.235652,-8956.491898,-6128.763984
163532.870243,-2368.659014,-11325.150913,-1838.629195
163532.870563,-148.041188,-10362.883188,-1225.752797
163532.870882,-1406.391290,-7254.018232,-2681.334243
163532.871202,-2368.659014,-8734.430116,-1838.629195
163532.871522,74.020594,-8364.327145,-2068.457845
163532.871842,1702.473667,-9844.739029,-1149.143247
163532.872162,4663.297435,-11251.130318,2068.457845
163532.872481,-74.020594,-11251.130318,-766.095498
163532.872801,-1184.329507,-12213.398043,612.876398
163532.873121,-74.020594,-10066.800811,-1915.238745
163532.873441,0.000000,-8512.368333,-1915.238745
163532.873761,-3552.988522,-7179.997637,-3677.258390
163532.874080,1702.473667,-10362.883188,-536.266849
163532.874400,2886.803174,-10214.842000,1149.143247
163532.874720,2738.761985,-8808.450710,995.924147
163532.875040,-222.061783,-9030.512492,-689.485948
163532.875360,-74.020594,-10955.047942,1149.143247
163532.875679,-2368.659014,-6587.832884,0.000000
163532.875999,1184.329507,-9252.574275,1378.971896
163532.876319,-74.020594,-8290.306550,-76.609550
163532.876639,-74.020594,-11843.295072,1762.019645
163532.876959,-2368.659014,-7179.997637,0.000000
163532.877278,1110.308913,-8882.471304,1149.143247
163532.877598,-1776.494261,-7846.182985,-1685.410096
163532.877918,-4071.132681,-9622.677246,-1915.238745
163532.878238,-2516.700203,-9178.553681,-1608.800546
163532.878558,-1776.494261,-10658.965565,1149.143247
163532.878877,-2960.823768,-8364.327145,-1991.848295
163532.879197,-3552.988522,-8364.327145,-3064.381992
163532.879517,0.000000,-9696.697840,1225.752797
163532.879837,1184.329507,-8364.327145,612.876398
163532.880157,222.061783,-6587.832884,-1838.629195
163532.880476,-1258.350101,-10436.903782,-689.485948
163532.880796,-666.185348,-10214.842000,0.000000
163532.881116,-888.247130,-11029.068536,-842.705048
163532.881436,2294.638420,-9474.636058,-76.609550
163532.881756,-1110.308913,-10510.924376,-842.705048
163532.882075,1110.308913,-11843.295072,1762.019645
163532.882395,2886.803174,-9474.636058,229.828649
163532.882715,2960.823768,-8956.491898,2451.505594
163532.883035,0.000000,-9548.656652,1838.629195
163532.883355,-666.185348,-9622.677246,459.657299
163532.883674,-962.267725,-8882.471304,459.657299
163532.883994,592.164754,-7994.224174,919.314598
163532.884314,-2738.761985,-7328.038826,-1762.019645
163532.884634,2294.638420,-11843.295072,2068.457845
163532.884954,0.000000,-8364.327145,1225.752797
163532.885273,3552.988522,-10066.800811,3600.648841
163532.885593,-1998.556043,-7994.224174,229.828649
163532.885913,-3775.050304,-7698.141797,0.000000
163532.886233,-74.020594,-8290.306550,-76.609550
163532.886553,1406.391290,-7994.224174,536.266849
163532.886872,0.000000,-8364.327145,-995.924147
163532.887192,-592.164754,-10288.862594,383.047749
163532.887512,1184.329507,-10732.986159,2757.943793
163532.887832,518.144159,-9474.636058,919.314598
163532.888152,-666.185348,-9474.636058,-3140.991542
163532.888471,-5033.400406,-10436.903782,-2451.505594
163532.888791,-1184.329507,-10140.821405,0.000000
163532.889111,4071.132681,-13027.624579,2987.772442
163532.889431,0.000000,-7772.162391,0.000000
163532.889751,-1628.453072,-9474.636058,-383.047749
163532.890071,148.041188,-8956.491898,-383.047749
163532.890390,1998.556043,-9030.512492,689.485948
163532.890710,666.185348,-7179.997637,-2145.067394
163532.891030,-1332.370696,-11251.130318,229.828649
163532.891350,-1628.453072,-9992.780217,76.609550
163532.891670,-1036.288319,-8956.491898,-229.828649
163532.891989,-518.144159,-8068.244768,-1915.238745
163532.892309,-2442.679609,-11843.295072,-1378.971896
163532.892629,-592.164754,-11325.150913,1225.752797
163532.892949,1110.308913,-9326.594869,229.828649
163532.893269,444.123565,-8364.327145,612.876398
163532.893588,-3256.906145,-8364.327145,-1225.752797
163532.893908,-3182.885551,-6365.771101,-2987.772442
163532.894228,444.123565,-7994.224174,-459.657299
163532.894548,1258.350101,-7031.956449,-995.924147
163532.894868,-1406.391290,-8882.471304,-1225.752797
163532.895187,-74.020594,-11695.253884,383.047749
163532.895507,0.000000,-9252.574275,306.438199
163532.895827,1184.329507,-9104.533087,0.000000
163532.896147,-74.020594,-9474.636058,-2145.067394
163532.896467,-592.164754,-11325.150913,-459.657299
163532.896786,0.000000,-7179.997637,-2451.505594
163532.897106,2146.597232,-9178.553681,-689.485948
163532.897426,-666.185348,-9104.533087,-1608.800546
163532.897746,-592.164754,-11177.109724,-612.876398
163532.898066,1702.473667,-9474.636058,842.705048
163532.898385,3775.050304,-9178.553681,1762.019645
163532.898705,1110.308913,-8734.430116,-383.047749
163532.899025,-2072.576638,-8364.327145,-2451.505594
163532.899345,0.000000,-8364.327145,-1225.752797
163532.899665,1184.329507,-9770.718434,459.657299
163532.899984,-3552.988522,-7179.997637,-3677.258390
163532.900304,-3108.864956,-11843.295072,-1608.800546
163532.900624,-592.164754,-10140.821405,-995.924147
163532.900944,222.061783,-10510.924376,612.876398
163532.901264,-740.205942,-8364.327145,-306.438199
163532.901583,-2442.679609,-9474.636058,-689.485948
163532.901903,-1332.370696,-7994.224174,-689.485948
163532.902223,0.000000,-5995.668130,-1532.190996
163532.902543,962.267725,-8734.430116,-1302.362347
163532.902863,-2442.679609,-11325.150913,-76.609550
163532.903182,-2960.823768,-9548.656652,0.000000
163532.903502,-74.020594,-11251.130318,1149.143247
163532.903822,296.082377,-9622.677246,766.095498
163532.904142,-3923.091493,-7846.182985,-1532.190996
163532.904462,-74.020594,-7105.977043,-76.609550
163532.904781,2960.823768,-7105.977043,919.314598
163532.905101,4663.297435,-7698.141797,-383.047749
163532.905421,-222.061783,-10288.862594,-689.485948
163532.905741,-2368.659014,-11325.150913,1225.752797
163532.906061,0.000000,-11917.315666,3677.258390
163532.906380,-1776.494261,-7846.182985,0.000000
163532.906700,-3034.844362,-7402.059420,-1991.848295
163532.907020,-666.185348,-7698.141797,-153.219100
163532.907340,2590.720797,-7105.977043,153.219100
163532.907660,3923.091493,-8142.265362,306.438199
163532.907979,-1776.494261,-9844.739029,-1072.533697
163532.908299,-2368.659014,-12731.542202,0.000000
163532.908619,-222.061783,-13027.624579,-76.609550
163532.908939,518.144159,-9474.636058,536.266849
163532.909259,-2960.823768,-7179.997637,0.000000
163532.909578,-814.226536,-8290.306550,-153.219100
163532.909898,1554.432478,-7772.162391,-842.705048
163532.910218,2368.659014,-9474.636058,612.876398
163532.910538,-2368.659014,-7772.162391,-3524.039291
163532.910858,-4515.256246,-11917.315666,-2221.676944
163532.911177,-1776.494261,-10140.821405,-3370.820191
163532.911497,0.000000,-10140.821405,1225.752797
163532.911817,1998.556043,-8882.471304,-76.609550
163532.912137,-74.020594,-8882.471304,2374.896044
163532.912457,1776.494261,-7179.997637,1225.752797
163532.912777,3404.947333,-7179.997637,842.705048
163532.913096,1406.391290,-8586.388927,-1302.362347
163532.913416,-2812.782580,-11991.336260,76.609550
163532.913736,-666.185348,-10362.883188,-995.924147
163532.914056,1702.473667,-12731.542202,3600.648841
163532.914376,-74.020594,-6957.935855,-689.485948
163532.914695,-2368.659014,-6587.832884,0.000000
163532.915015,-2368.659014,-5403.503377,0.000000
163532.915335,3182.885551,-9474.636058,2987.772442
163532.915655,296.082377,-8364.327145,306.438199
163532.915975,-2886.803174,-10658.965565,383.047749
163532.916294,-1554.432478,-11843.295072,0.000000
163532.916614,-1184.329507,-10510.924376,1225.752797
163532.916934,-74.020594,-8882.471304,-612.876398
163532.917254,-3256.906145,-8734.430116,-842.705048
163532.917574,-2146.597232,-8660.409521,-76.609550
163532.917893,-74.020594,-8882.471304,-1915.238745
163532.918213,740.205942,-8586.388927,-383.047749
163532.918533,-74.020594,-12731.542202,-76.609550
163532.918853,-2072.576638,-12139.377449,-459.657299
163532.919173,-1110.308913,-9992.780217,-919.314598
163532.919492,296.082377,-10066.800811,-612.876398
163532.919812,-3552.988522,-7179.997637,-2451.505594
163532.920132,-1776.494261,-8808.450710,-1225.752797
163532.920452,1184.329507,-7772.162391,-2451.505594
163532.920772,2664.741391,-8956.491898,612.876398
163532.921091,1702.473667,-9992.780217,-1991.848295
163532.921411,-74.020594,-13027.624579,-1302.362347
163532.921731,296.082377,-11695.253884,536.266849
163532.922051,592.164754,-9844.739029,995.924147
163532.922371,-296.082377,-7328.038826,-1072.533697
163532.922690,-1776.494261,-8364.327145,-229.828649
163532.923010,0.000000,-3034.844362,0.000000
163532.923330,1998.556043,-6513.812290,-76.609550
163532.923650,148.041188,-5995.668130,-1225.752797
163532.923970,-1184.329507,-10732.986159,76.609550
163532.924289,0.000000,-10140.821405,306.438199
163532.924609,-1184.329507,-12213.398043,2451.505594
163532.924929,-1554.432478,-9548.656652,-842.705048
163532.925249,-2664.741391,-9992.780217,-229.828649
163532.925569,-444.123565,-7476.080014,-459.657299
163532.925888,-1776.494261,-4811.338623,-2451.505594
163532.926208,296.082377,-3627.009116,-2757.943793
163532.926528,-74.020594,-9178.553681,-1762.019645
163532.926848,1332.370696,-10436.903782,-2681.334243
163532.927168,0.000000,-11325.150913,-2451.505594
163532.927487,0.000000,-14285.974681,2451.505594
163532.927807,-4441.235652,-9844.739029,-1685.410096
163532.928127,-1924.535449,-8142.265362,-689.485948
163532.928447,-296.082377,-6217.729913,-2451.505594
163532.928767,3849.070898,-6957.935855,-1915.238745
163532.929086,4663.297435,-11843.295072,-76.609550
163532.929406,2590.720797,-11917.315666,2451.505594
163532.929726,-296.082377,-11991.336260,1378.971896
163532.930046,-3627.009116,-10066.800811,-1225.752797
163532.930366,-6661.853478,-7920.203579,-3753.867940
163532.930685,-4737.318029,-7179.997637,-2298.286494
163532.931005,0.000000,-4811.338623,-2451.505594
163532.931325,5033.400406,-8512.368333,3370.820191
163532.931645,1702.473667,-9326.594869,1149.143247
163532.931965,-2220.617826,-9548.656652,-1608.800546
163532.932284,-1258.350101,-11843.295072,-383.047749
163532.932604,-3478.967927,-9992.780217,-1455.581446
163532.932924,-2664.741391,-9178.553681,-2451.505594
163532.933244,-1258.350101,-8956.491898,536.266849
163532.933564,888.247130,-6143.709319,0.000000
163532.933883,3404.947333,-6883.915261,2451.505594
163532.934203,222.061783,-4959.379811,-2757.943793
163532.934523,-1628.453072,-9548.656652,-3524.039291
163532.934843,-2072.576638,-11325.150913,-1225.752797
163532.935163,-74.020594,-12435.459826,-1302.362347
163532.935483,-666.185348,-12731.542202,-383.047749
163532.935802,-3552.988522,-10066.800811,-459.657299
163532.936122,0.000000,-6883.915261,-995.924147
163532.936442,2738.761985,-5995.668130,0.000000
163532.936762,4145.153275,-7179.997637,1072.533697
163532.937082,1036.288319,-10066.800811,612.876398
163532.937401,2886.803174,-14211.954086,3600.648841
163532.937721,370.102971,-10288.862594,1149.143247
163532.938041,0.000000,-10732.986159,612.876398
163532.938361,-3627.009116,-8882.471304,-2834.553343
163532.938681,-2146.597232,-8660.409521,-995.924147
163532.939000,0.000000,-7179.997637,-842.705048
163532.939320,2516.700203,-7772.162391,0.000000
163532.939640,-74.020594,-11547.212695,-76.609550
163532.939960,962.267725,-13471.748144,3907.087040
163532.940280,-3552.988522,-9548.656652,0.000000
163532.940599,1110.308913,-11843.295072,1762.019645
163532.940919,-4515.256246,-7994.224174,-2451.505594
163532.941239,-4737.318029,-7179.997637,0.000000
163532.941559,1110.308913,-7105.977043,-76.609550
163532.941879,3182.885551,-8142.265362,1608.800546
163532.942198,814.226536,-8364.327145,-766.095498
163532.942518,-592.164754,-11103.089130,153.219100
163532.942838,-1184.329507,-11029.068536,-612.876398
163532.943158,-1850.514855,-10955.047942,-1762.019645
163532.943478,-5329.482782,-9252.574275,-3677.258390
163532.943797,-2960.823768,-10214.842000,0.000000
163532.944117,1776.494261,-8734.430116,1991.848295
163532.944437,1184.329507,-5551.544565,0.000000
163532.944757,2590.720797,-5921.647536,-383.047749
163532.945077,-1258.350101,-9104.533087,536.266849
163532.945396,592.164754,-9548.656652,153.219100
163532.945716,1332.370696,-11621.233289,1225.752797
163532.946036,-1036.288319,-11251.130318,1762.019645
163532.946356,-4219.173869,-9844.739029,-536.266849
163532.946676,-3256.906145,-6069.688724,-2528.115143
163532.946995,-2368.659014,-5403.503377,-2451.505594
163532.947315,1480.411884,-7476.080014,-2451.505594
163532.947635,-2442.679609,-9548.656652,-3677.258390
163532.947955,1258.350101,-13027.624579,766.095498
163532.948275,0.000000,-12805.562797,459.657299
163532.948594,-888.247130,-10732.986159,-766.095498
163532.948914,-3627.009116,-9474.636058,-1302.362347
163532.949234,-74.020594,-7698.141797,-1915.238745
163532.949554,3478.967927,-8882.471304,-76.609550
163532.949874,5255.462188,-6809.894666,-1302.362347
163532.950193,888.247130,-10140.821405,0.000000
163532.950513,0.000000,-10732.986159,0.000000
163532.950833,-1776.494261,-11103.089130,-2374.896044
163532.951153,-1406.391290,-11029.068536,-1838.629195
163532.951473,-3923.091493,-8660.409521,-4213.525239
163532.951792,-962.267725,-8882.471304,-536.266849
163532.952112,4663.297435,-7105.977043,1149.143247
163532.952432,3552.988522,-4811.338623,612.876398
163532.952752,2368.659014,-8438.347739,-229.828649
163532.953072,1998.556043,-11251.130318,-76.609550
163532.953391,1998.556043,-14211.954086,1149.143247
163532.953711,0.000000,-11325.150913,1838.629195
163532.954031,-3330.926739,-10658.965565,-612.876398
163532.954351,-4589.276840,-9326.594869,383.047749
163532.954671,-1776.494261,-5477.523971,-1532.190996
163532.954990,2368.659014,-4145.153275,-383.047749
163532.955310,1480.411884,-6143.709319,-2528.115143
163532.955630,-2072.576638,-10732.986159,153.219100
163532.955950,-1702.473667,-10732.986159,-2451.505594
163532.956270,-74.020594,-14211.954086,2374.896044
163532.956590,-2442.679609,-11103.089130,-1302.362347
163532.956909,-8882.471304,-7179.997637,-3064.381992
163532.957229,-2220.617826,-7698.141797,-1072.533697
163532.957549,2368.659014,-6883.915261,995.924147
163532.957869,2886.803174,-7994.224174,0.000000
163532.958189,-74.020594,-10955.047942,-76.609550
163532.958508,-74.020594,-11251.130318,-76.609550
163532.958828,0.000000,-11843.295072,-76.609550
163532.959148,-1776.494261,-9548.656652,-2145.067394
163532.959468,-4737.318029,-10732.986159,0.000000
163532.959788,-1628.453072,-9252.574275,2757.943793
163532.960107,0.000000,-4959.379811,0.000000
163532.960427,3849.070898,-6439.791695,459.657299
163532.960747,444.123565,-8660.409521,-689.485948
163532.961067,1036.288319,-11695.253884,1225.752797
163532.961387,2294.638420,-11843.295072,2374.896044
163532.961706,1998.556043,-13027.624579,3600.648841
163532.962026,-4811.338623,-8882.471304,-2528.115143
163532.962346,-4737.318029,-7920.203579,-919.314598
163532.962666,0.000000,-5995.668130,612.876398
163532.962986,1332.370696,-3627.009116,0.000000
163532.963305,1110.308913,-7105.977043,-536.266849
163532.963625,370.102971,-10732.986159,229.828649
163532.963945,-814.226536,-10881.027347,-766.095498
163532.964265,1998.556043,-13619.789333,-76.609550
163532.964585,-3034.844362,-10658.965565,-2068.457845
163532.964904,-4737.318029,-10288.862594,0.000000
163532.965224,370.102971,-7920.203579,1225.752797
163532.965544,5847.626942,-7698.141797,2987.772442
163532.965864,2294.638420,-3182.885551,-1915.238745
163532.966184,2294.638420,-9474.636058,1149.143247
163532.966504,1184.329507,-10436.903782,-76.609550
163532.966823,2294.638420,-12805.562797,689.485948
163532.967143,-2368.659014,-12435.459826,-919.314598
163532.967463,-5921.647536,-12509.480420,1838.629195
163532.967783,-3182.885551,-6883.915261,-1838.629195
163532.968103,518.144159,-5921.647536,-306.438199
163532.968422,2738.761985,-5625.565159,-1072.533697
163532.968742,2812.782580,-9548.656652,0.000000
163532.969062,3478.967927,-10510.924376,1762.019645
163532.969382,2294.638420,-14211.954086,3907.087040
163532.969702,-3627.009116,-9918.759623,-2221.676944
163532.970022,-8882.471304,-9548.656652,-4903.011187
163532.970341,-3034.844362,-8882.471304,-689.485948
163532.970661,0.000000,-6587.832884,0.000000
163532.970981,2738.761985,-5921.647536,536.266849
163532.971301,-1184.329507,-8290.306550,-459.657299
163532.971621,-370.102971,-9622.677246,-1225.752797
163532.971940,-1554.432478,-10658.965565,-3370.820191
163532.972260,-2072.576638,-10732.986159,-3217.601092
163532.972580,-4811.338623,-13619.789333,-3447.429741
163532.972900,-1258.350101,-14211.954086,-76.609550
163532.973220,-74.020594,-8734.430116,-76.609550
163532.973540,4515.256246,-8290.306550,2987.772442
163532.973859,-1184.329507,-5403.503377,-1991.848295
163532.974179,2368.659014,-8586.388927,689.485948
163532.974499,2368.659014,-9622.677246,229.828649
163532.974819,2960.823768,-10584.944971,459.657299
163532.975139,-3997.112087,-10140.821405,-3370.820191
163532.975458,-3775.050304,-10436.903782,-919.314598
163532.975778,-740.205942,-9474.636058,-76.609550
163532.976098,3478.967927,-7105.977043,-76.609550
163532.976418,1184.329507,-5773.606348,-2451.505594
163532.976738,3478.967927,-11843.295072,3600.648841
163532.977058,2072.576638,-9548.656652,919.314598
163532.977377,2368.659014,-11695.253884,2451.505594
163532.977697,-1850.514855,-10288.862594,-1378.971896
163532.978017,-5921.647536,-9844.739029,0.000000
163532.978337,-4441.235652,-6587.832884,-2451.505594
163532.978657,74.020594,-5995.668130,-1685.410096
163532.978976,0.000000,-6587.832884,0.000000
163532.979296,1554.432478,-8882.471304,0.000000
163532.979616,2886.803174,-9474.636058,-76.609550
163532.979936,1332.370696,-12361.439231,2451.505594
163532.980256,-1998.556043,-10955.047942,-2757.943793
163532.980576,-5403.503377,-12731.542202,-1838.629195
163532.980895,-3182.885551,-10436.903782,-1455.581446
163532.981215,-1036.288319,-7179.997637,229.828649
163532.981535,3330.926739,-7105.977043,-76.609550
163532.981855,-370.102971,-6735.874072,0.000000
163532.982175,1924.535449,-7179.997637,-2221.676944
163532.982494,0.000000,-8660.409521,612.876398
163532.982814,2294.638420,-13619.789333,-76.609550
163532.983134,-5773.606348,-12509.480420,0.000000
163532.983454,-3775.050304,-10362.883188,-383.047749
163532.983774,-2590.720797,-7402.059420,-306.438199
163532.984094,1480.411884,-7031.956449,1762.019645
163532.984413,888.247130,-5107.421000,612.876398
163532.984733,3182.885551,-7772.162391,2681.334243
163532.985053,1776.494261,-7624.121203,2451.505594
163532.985373,2294.638420,-12435.459826,1149.143247
163532.985693,-4145.153275,-10140.821405,-1838.629195
163532.986012,-666.185348,-14211.954086,2374.896044
163532.986332,-3256.906145,-7846.182985,766.095498
163532.986652,-1036.288319,-5107.421000,-306.438199
163532.986972,-1036.288319,-5773.606348,-2145.067394
163532.987292,592.164754,-6587.832884,0.000000
163532.987612,1184.329507,-8364.327145,0.000000
163532.987931,0.000000,-11325.150913,0.000000
163532.988251,-3552.988522,-11621.233289,-2298.286494
163532.988571,-3627.009116,-14211.954086,-919.314598
163532.988891,-2442.679609,-8882.471304,-4979.620737
163532.989211,1998.556043,-9178.553681,536.266849
163532.989530,2072.576638,-6143.709319,0.000000
163532.989850,4219.173869,-8142.265362,1532.190996
163532.990170,4367.215058,-8068.244768,842.705048
163532.990490,0.000000,-9548.656652,0.000000
163532.990810,-1554.432478,-11251.130318,-3753.867940
163532.991130,-4737.318029,-12509.480420,-3140.991542
163532.991449,-1776.494261,-11325.150913,0.000000
163532.991769,1998.556043,-11547.212695,1762.019645
163532.992089,1702.473667,-5921.647536,-1302.362347
163532.992409,222.061783,-6809.894666,612.876398
163532.992729,2812.782580,-5847.626942,-383.047749
163532.993048,2368.659014,-9030.512492,766.095498
163532.993368,2294.638420,-12657.521608,2374.896044
163532.993688,-2812.782580,-12805.562797,459.657299
163532.994008,-2442.679609,-10658.965565,-76.609550
163532.994328,-3923.091493,-7994.224174,-1608.800546
163532.994648,-3256.906145,-5403.503377,-2451.505594
163532.994967,-3256.906145,-6587.832884,-3064.381992
163532.995287,3478.967927,-9474.636058,-76.609550
163532.995607,740.205942,-8956.491898,153.219100
163532.995927,370.102971,-10658.965565,-153.219100
163532.996247,-4737.318029,-10436.903782,-2757.943793
163532.996567,-1480.411884,-11325.150913,1149.143247
163532.996886,-2368.659014,-8956.491898,-536.266849
163532.997206,1184.329507,-8364.327145,1225.752797
163532.997526,-74.020594,-8290.306550,-1302.362347
163532.997846,1332.370696,-8660.409521,1072.533697
163532.998166,518.144159,-5995.668130,-2451.505594
163532.998485,2516.700203,-11843.295072,1149.143247
163532.998805,-2516.700203,-10955.047942,-2145.067394
163532.999125,-2368.659014,-12435.459826,0.000000
163532.999445,-2516.700203,-9770.718434,-1455.581446
163532.999765,0.000000,-9844.739029,1225.752797
163533.000085,-3552.988522,-4811.338623,-2451.505594
163533.000404,1184.329507,-8364.327145,2145.067394
163533.000724,3182.885551,-8734.430116,919.314598
163533.001044,4515.256246,-10658.965565,2374.896044
163533.001364,-74.020594,-11843.295072,-76.609550
163533.001684,-3404.947333,-11621.233289,536.266849
163533.002003,-3034.844362,-9696.697840,-1302.362347
163533.002323,-2072.576638,-10140.821405,0.000000
163533.002643,-1776.494261,-6587.832884,0.000000
163533.002963,-518.144159,-8438.347739,1532.190996
163533.003283,2886.803174,-8882.471304,766.095498
163533.003603,2146.597232,-9474.636058,1149.143247
163533.003922,0.000000,-7772.162391,0.000000
163533.004242,-222.061783,-12435.459826,2374.896044
163533.004562,-1776.494261,-9844.739029,0.000000
163533.004882,-888.247130,-9548.656652,0.000000
163533.005202,-370.102971,-7179.997637,-995.924147
163533.005521,-1850.514855,-8068.244768,-766.095498
163533.005841,1110.308913,-6809.894666,-2451.505594
163533.006161,3404.947333,-11251.130318,2604.724693
163533.006481,3849.070898,-11177.109724,2681.334243
163533.006801,-2516.700203,-10140.821405,1608.800546
163533.007121,-2590.720797,-10658.965565,2374.896044
163533.007440,-1850.514855,-7402.059420,-1915.238745
163533.007760,0.000000,-7994.224174,612.876398
163533.008080,-74.020594,-7994.224174,-76.609550
163533.008400,1776.494261,-9548.656652,0.000000
163533.008720,0.000000,-8956.491898,0.000000
163533.009039,1110.308913,-9474.636058,-995.924147
163533.009359,-4811.338623,-9696.697840,-2757.943793
163533.009679,-4737.318029,-10658.965565,-2374.896044
163533.009999,-3627.009116,-10732.986159,-2528.115143
163533.010319,1110.308913,-11473.192101,995.924147
163533.010639,-370.102971,-8808.450710,-689.485948
163533.010958,-2368.659014,-10140.821405,612.876398
163533.011278,-2664.741391,-5107.421000,-3064.381992
163533.011598,592.164754,-7179.997637,0.000000
163533.011918,0.000000,-4811.338623,-3677.258390
163533.012238,518.144159,-10658.965565,-229.828649
163533.012557,740.205942,-10140.821405,0.000000
163533.012877,814.226536,-9178.553681,919.314598
163533.013197,-1554.432478,-7698.141797,-2528.115143
163533.013517,-1258.350101,-9474.636058,-1302.362347
163533.013837,0.000000,-8364.327145,-2221.676944
163533.014157,592.164754,-9548.656652,612.876398
163533.014476,2368.659014,-8364.327145,612.876398
163533.014796,-962.267725,-10510.924376,3294.210641
163533.015116,-3552.988522,-4811.338623,-3064.381992
163533.015436,-148.041188,-7772.162391,-1225.752797
163533.015756,148.041188,-7550.100608,-1378.971896
163533.016075,-1480.411884,-8734.430116,-612.876398
163533.016395,2294.638420,-10658.965565,1762.019645
163533.016715,4663.297435,-10658.965565,2987.772442
163533.017035,3478.967927,-9474.636058,1455.581446
163533.017355,-4663.297435,-8438.347739,-2451.505594
163533.017675,-2368.659014,-8364.327145,-4060.306139
163533.017994,-2368.659014,-9548.656652,0.000000
163533.018314,0.000000,-8364.327145,-2451.505594
163533.018634,-3182.885551,-10881.027347,-2221.676944
163533.018954,-962.267725,-11843.295072,766.095498
163533.019274,0.000000,-8956.491898,0.000000
163533.019593,3478.967927,-10658.965565,536.266849
163533.019913,-2960.823768,-7846.182985,-3064.381992
163533.020233,-296.082377,-11325.150913,-76.609550
163533.020553,888.247130,-10140.821405,1225.752797
163533.020873,4071.132681,-10066.800811,1762.019645
163533.021193,-2960.823768,-8660.409521,-1225.752797
163533.021512,-666.185348,-9770.718434,766.095498
163533.021832,-296.082377,-7476.080014,-995.924147
163533.022152,2368.659014,-8438.347739,1072.533697
163533.022472,-592.164754,-6587.832884,-3447.429741
163533.022792,-666.185348,-11177.109724,0.000000
163533.023111,0.000000,-8068.244768,306.438199
163533.023431,0.000000,-7772.162391,612.876398
163533.023751,-1258.350101,-9474.636058,-995.924147
163533.024071,-2442.679609,-10658.965565,-76.609550
163533.024391,0.000000,-7179.997637,0.000000
163533.024711,2294.638420,-7550.100608,1608.800546
163533.025030,370.102971,-7328.038826,-919.314598
163533.025350,-2368.659014,-10510.924376,153.219100
163533.025670,-74.020594,-8438.347739,-2221.676944
163533.025990,-74.020594,-10955.047942,1762.019645
163533.026310,-74.020594,-9474.636058,-2528.115143
163533.026629,-4737.318029,-10140.821405,-1762.019645
163533.026949,296.082377,-9548.656652,0.000000
163533.027269,3997.112087,-11251.130318,3447.429741
163533.027589,1480.411884,-7772.162391,0.000000
163533.027909,-1850.514855,-8586.388927,-1149.143247
163533.028229,-444.123565,-9178.553681,-1532.190996
163533.028548,-222.061783,-9474.636058,-1915.238745
163533.028868,2886.803174,-11251.130318,-1532.190996
163533.029188,-1184.329507,-12361.439231,842.705048
163533.029508,1998.556043,-11843.295072,2068.457845
163533.029828,1110.308913,-10658.965565,2374.896044
163533.030147,2590.720797,-6809.894666,-995.924147
163533.030467,-2368.659014,-8956.491898,1149.143247
163533.030787,0.000000,-8882.471304,306.438199
163533.031107,444.123565,-8142.265362,306.438199
163533.031427,1406.391290,-9104.533087,1302.362347
163533.031747,-4737.318029,-7179.997637,-2451.505594
163533.032066,-3330.926739,-8660.409521,-1225.752797
163533.032386,-1184.329507,-7772.162391,0.000000
163533.032706,1480.411884,-8364.327145,2451.505594
163533.033026,-74.020594,-8734.430116,-76.609550
163533.033346,-74.020594,-11843.295072,2987.772442
163533.033665,-1184.329507,-8364.327145,306.438199
163533.033985,518.144159,-8956.491898,-689.485948
163533.034305,-2812.782580,-8808.450710,-2834.553343
163533.034625,-2812.782580,-11843.295072,-153.219100
163533.034945,-2960.823768,-7179.997637,-2451.505594
163533.035265,666.185348,-9992.780217,1225.752797
163533.035584,-4441.235652,-5995.668130,-2451.505594
163533.035904,-1776.494261,-10288.862594,-76.609550
163533.036224,518.144159,-6957.935855,-2528.115143
163533.036544,592.164754,-9548.656652,612.876398
163533.036864,592.164754,-9400.615463,-2528.115143
163533.037183,-1480.411884,-12583.501014,76.609550
163533.037503,518.144159,-12287.418637,536.266849
163533.037823,1184.329507,-10140.821405,0.000000
163533.038143,1702.473667,-10510.924376,-1532.190996
163533.038463,-3552.988522,-8956.491898,0.000000
163533.038783,1702.473667,-9030.512492,-76.609550
163533.039102,296.082377,-7994.224174,-76.609550
163533.039422,0.000000,-6587.832884,0.000000
163533.039742,-3330.926739,-9474.636058,-1608.800546
163533.040062,-666.185348,-10288.862594,536.266849
163533.040382,-1184.329507,-9178.553681,0.000000
163533.040702,74.020594,-7624.121203,306.438199
163533.041021,-666.185348,-9474.636058,-76.609550
163533.041341,1406.391290,-7698.141797,1149.143247
163533.041661,1036.288319,-6661.853478,-689.485948
