#time,accel_x,accel_y,accel_z
59254.100267,0.000000,-8364.327145,1225.752797
59254.100577,-74.020594,-9474.636058,1149.143247
59254.100887,-2368.659014,-7179.997637,0.000000
59254.101197,-74.020594,-9474.636058,995.924147
59254.101507,-740.205942,-8660.409521,459.657299
59254.101817,-592.164754,-8808.450710,919.314598
59254.102127,-296.082377,-9178.553681,995.924147
59254.102436,-1776.494261,-8956.491898,1838.629195
59254.102746,148.041188,-9918.759623,1685.410096
59254.103056,1110.308913,-10658.965565,-76.609550
59254.103366,-2368.659014,-7179.997637,0.000000
59254.103676,666.185348,-10362.883188,2068.457845
59254.103986,-74.020594,-7994.224174,-76.609550
59254.104296,-74.020594,-10066.800811,1762.019645
59254.104606,-74.020594,-9104.533087,995.924147
59254.104916,-370.102971,-9030.512492,842.705048
59254.105226,-148.041188,-8956.491898,1225.752797
59254.105536,-2368.659014,-7179.997637,0.000000
59254.105846,0.000000,-9548.656652,1225.752797
59254.106156,1036.288319,-11843.295072,3600.648841
59254.106466,-370.102971,-7698.141797,-383.047749
59254.106776,0.000000,-8956.491898,919.314598
59254.107086,2294.638420,-10658.965565,-76.609550
59254.107395,0.000000,-9696.697840,1225.752797
59254.107705,-518.144159,-9104.533087,842.705048
59254.108015,-444.123565,-9104.533087,612.876398
59254.108325,-296.082377,-9252.574275,919.314598
59254.108635,-2368.659014,-6291.750507,0.000000
59254.108945,-2072.576638,-7772.162391,0.000000
59254.109255,0.000000,-10140.821405,3064.381992
59254.109565,-962.267725,-7994.224174,0.000000
59254.109875,0.000000,-8660.409521,1225.752797
59254.110185,2294.638420,-11843.295072,3600.648841
59254.110495,-1036.288319,-8956.491898,612.876398
59254.110805,-74.020594,-9030.512492,1072.533697
59254.111115,-222.061783,-9252.574275,919.314598
59254.111425,-370.102971,-9104.533087,383.047749
59254.111735,-74.020594,-8290.306550,-842.705048
59254.112045,-1184.329507,-8364.327145,383.047749
59254.112354,0.000000,-8364.327145,1225.752797
59254.112664,-74.020594,-8882.471304,-76.609550
59254.112974,0.000000,-9252.574275,1225.752797
59254.113284,-1480.411884,-7179.997637,0.000000
59254.113594,-74.020594,-9178.553681,842.705048
59254.113904,-370.102971,-8882.471304,689.485948
59254.114214,-296.082377,-9252.574275,1225.752797
59254.114524,-222.061783,-9178.553681,689.485948
59254.114834,0.000000,-10288.862594,1838.629195
59254.115144,-74.020594,-9474.636058,1532.190996
59254.115454,-74.020594,-8882.471304,-76.609550
59254.115764,0.000000,-8364.327145,612.876398
59254.116074,-74.020594,-9474.636058,842.705048
59254.116384,888.247130,-10066.800811,1991.848295
59254.116694,-1776.494261,-8364.327145,612.876398
59254.117004,-148.041188,-9030.512492,1302.362347
59254.117313,-148.041188,-9030.512492,1072.533697
59254.117623,-666.185348,-8882.471304,76.609550
59254.117933,-666.185348,-8438.347739,0.000000
59254.118243,-1184.329507,-7994.224174,-689.485948
59254.118553,0.000000,-9548.656652,2451.505594
59254.118863,-1258.350101,-8068.244768,0.000000
59254.119173,296.082377,-9844.739029,1915.238745
59254.119483,-1776.494261,-7179.997637,0.000000
59254.119793,-74.020594,-9474.636058,1302.362347
59254.120103,-370.102971,-9178.553681,689.485948
59254.120413,-222.061783,-8808.450710,842.705048
59254.120723,-370.102971,-9400.615463,842.705048
59254.121033,0.000000,-9400.615463,1225.752797
59254.121343,0.000000,-9548.656652,2451.505594
59254.121653,-74.020594,-9474.636058,-76.609550
59254.121963,-2072.576638,-7772.162391,0.000000
59254.122272,-74.020594,-9474.636058,-76.609550
59254.122582,-74.020594,-9474.636058,1149.143247
59254.122892,-666.185348,-8734.430116,306.438199
59254.123202,-296.082377,-9178.553681,842.705048
59254.123512,-74.020594,-8956.491898,766.095498
59254.123822,-222.061783,-9178.553681,1225.752797
59254.124132,-666.185348,-8586.388927,153.219100
59254.124442,-74.020594,-8290.306550,-76.609550
59254.124752,0.000000,-8364.327145,612.876398
59254.125062,1110.308913,-8882.471304,1149.143247
59254.125372,0.000000,-8364.327145,3064.381992
59254.125682,370.102971,-7772.162391,1838.629195
59254.125992,1554.432478,-9030.512492,1455.581446
59254.126302,1554.432478,-8438.347739,919.314598
59254.126612,1776.494261,-8734.430116,612.876398
59254.126922,2146.597232,-8882.471304,1149.143247
59254.127231,2368.659014,-9252.574275,306.438199
59254.127541,2960.823768,-9844.739029,2451.505594
59254.127851,2294.638420,-9178.553681,-689.485948
59254.128161,2368.659014,-9844.739029,2221.676944
59254.128471,814.226536,-7179.997637,-2757.943793
59254.128781,3478.967927,-9474.636058,1149.143247
59254.129091,3256.906145,-8808.450710,689.485948
59254.129401,4367.215058,-9326.594869,1608.800546
59254.129711,5329.482782,-8882.471304,1838.629195
59254.130021,5921.647536,-8364.327145,2451.505594
59254.130331,5551.544565,-8882.471304,2987.772442
59254.130641,6439.791695,-8290.306550,842.705048
59254.130951,4737.318029,-8364.327145,1225.752797
59254.131261,6439.791695,-8882.471304,-76.609550
59254.131571,3552.988522,-8364.327145,612.876398
59254.131881,4737.318029,-8364.327145,306.438199
59254.132190,6143.709319,-9474.636058,-229.828649
59254.132500,5477.523971,-10584.944971,-383.047749
59254.132810,4219.173869,-11695.253884,-459.657299
59254.133120,4663.297435,-12435.459826,-76.609550
59254.133430,1184.329507,-10732.986159,0.000000
59254.133740,1776.494261,-11917.315666,612.876398
59254.134050,2294.638420,-9178.553681,-76.609550
59254.134360,2960.823768,-8364.327145,3677.258390
59254.134670,3478.967927,-3701.029710,-689.485948
59254.134980,5551.544565,-4441.235652,1149.143247
59254.135290,7550.100608,-3627.009116,2221.676944
59254.135600,10066.800811,-4515.256246,3524.039291
59254.135910,9030.512492,-5921.647536,2068.457845
59254.136220,5329.482782,-9548.656652,1225.752797
59254.136530,2886.803174,-15396.283594,-995.924147
59254.136840,-2738.761985,-18653.189738,-3753.867940
59254.137149,-7698.141797,-16728.654289,-4903.011187
59254.137459,-4811.338623,-16580.613101,-3140.991542
59254.137769,-6365.771101,-10881.027347,-2987.772442
59254.138079,-5625.565159,-7476.080014,0.000000
59254.138389,-370.102971,-5329.482782,2528.115143
59254.138699,2516.700203,-4367.215058,5822.325785
59254.139009,3701.029710,-2738.761985,6741.640382
59254.139319,4071.132681,-3552.988522,4826.401637
59254.139629,-2368.659014,-3627.009116,3830.477490
59254.139939,-4737.318029,-5995.668130,2451.505594
59254.140249,-4811.338623,-9474.636058,-76.609550
59254.140559,-9474.636058,-7179.997637,-3677.258390
59254.140869,-8290.306550,-8660.409521,-4903.011187
59254.141179,-6587.832884,-13619.789333,-2528.115143
59254.141489,-7550.100608,-12583.501014,-2757.943793
59254.141798,-5477.523971,-14285.974681,-612.876398
59254.142108,-5699.585753,-13397.727550,-153.219100
59254.142418,-6513.812290,-11325.150913,1838.629195
59254.142728,-4811.338623,-10362.883188,2681.334243
59254.143038,-2442.679609,-4737.318029,2987.772442
59254.143348,0.000000,-2442.679609,6128.763984
59254.143658,1110.308913,296.082377,3600.648841
59254.143968,888.247130,-4663.297435,6205.373534
59254.144278,1776.494261,-4515.256246,3983.696590
59254.144588,518.144159,-9104.533087,3370.820191
59254.144898,-2886.803174,-13175.665768,-536.266849
59254.145208,-6291.750507,-15026.180623,-2298.286494
59254.145518,-7179.997637,-15396.283594,-3753.867940
59254.145828,-6513.812290,-13397.727550,-3370.820191
59254.146138,-5329.482782,-13397.727550,-2451.505594
59254.146448,-74.020594,-10658.965565,1608.800546
59254.146757,74.020594,-5699.585753,0.000000
59254.147067,2368.659014,-1258.350101,2451.505594
59254.147377,8808.450710,-4737.318029,4443.353888
59254.147687,7179.997637,-5995.668130,3753.867940
59254.147997,5699.585753,-8808.450710,2911.162892
59254.148307,2886.803174,-11843.295072,1072.533697
59254.148617,0.000000,-14434.015869,1225.752797
59254.148927,-1258.350101,-14211.954086,-1302.362347
59254.149237,-1184.329507,-12361.439231,-1378.971896
59254.149547,-962.267725,-10955.047942,-766.095498
59254.149857,1036.288319,-9548.656652,229.828649
59254.150167,2886.803174,-7179.997637,0.000000
59254.150477,4885.359217,-6365.771101,1149.143247
59254.150787,4737.318029,-5403.503377,3064.381992
59254.151097,6439.791695,-8882.471304,4213.525239
59254.151407,1406.391290,-6439.791695,536.266849
59254.151716,1184.329507,-8956.491898,2068.457845
59254.152026,-222.061783,-7772.162391,-1455.581446
59254.152336,-148.041188,-8956.491898,-1378.971896
59254.152646,222.061783,-8734.430116,-1991.848295
59254.152956,666.185348,-9474.636058,-1685.410096
59254.153266,0.000000,-9770.718434,-2451.505594
59254.153576,1406.391290,-13027.624579,-2451.505594
59254.153886,2664.741391,-15470.304188,2451.505594
59254.154196,1110.308913,-14211.954086,1762.019645
59254.154506,-1184.329507,-9548.656652,612.876398
59254.154816,-1776.494261,-8956.491898,1838.629195
59254.155126,-74.020594,-5773.606348,1149.143247
59254.155436,148.041188,-3552.988522,1991.848295
59254.155746,148.041188,-2960.823768,1991.848295
59254.156056,148.041188,-3701.029710,1532.190996
59254.156366,518.144159,-5921.647536,229.828649
59254.156675,-888.247130,-7846.182985,-1302.362347
59254.156985,-4145.153275,-12213.398043,612.876398
59254.157295,-4811.338623,-14211.954086,-1915.238745
59254.157605,-8882.471304,-13101.645173,-3370.820191
59254.157915,-6809.894666,-12509.480420,-1838.629195
59254.158225,-2738.761985,-9474.636058,-995.924147
59254.158535,-2738.761985,-7254.018232,306.438199
59254.158845,592.164754,-3923.091493,1072.533697
59254.159155,3775.050304,-5773.606348,3217.601092
59254.159465,4663.297435,-7105.977043,2987.772442
59254.159775,1554.432478,-9474.636058,2374.896044
59254.160085,-3552.988522,-11325.150913,2451.505594
59254.160395,-3034.844362,-11251.130318,-76.609550
59254.160705,-5921.647536,-11917.315666,1378.971896
59254.161015,-4145.153275,-6735.874072,919.314598
59254.161325,-1850.514855,-6809.894666,1762.019645
59254.161634,-962.267725,-6513.812290,2068.457845
59254.161944,-74.020594,-7698.141797,2221.676944
59254.162254,-518.144159,-9622.677246,2374.896044
59254.162564,-74.020594,-11251.130318,2374.896044
59254.162874,-74.020594,-13027.624579,2987.772442
59254.163184,-1258.350101,-9474.636058,-689.485948
59254.163494,-4145.153275,-9548.656652,0.000000
59254.163804,-148.041188,-8290.306550,536.266849
59254.164114,0.000000,-4811.338623,0.000000
59254.164424,3182.885551,-5921.647536,1455.581446
59254.164734,3034.844362,-6735.874072,2298.286494
59254.165044,3404.947333,-8364.327145,2451.505594
59254.165354,2886.803174,-11177.109724,2068.457845
59254.165664,2886.803174,-12731.542202,1455.581446
59254.165974,-296.082377,-14804.118840,1149.143247
59254.166284,-4737.318029,-11325.150913,0.000000
59254.166593,-222.061783,-12435.459826,1532.190996
59254.166903,-1702.473667,-7476.080014,0.000000
59254.167213,0.000000,-4071.132681,0.000000
59254.167523,814.226536,-5107.421000,1149.143247
59254.167833,2220.617826,-5329.482782,1532.190996
59254.168143,3034.844362,-7031.956449,1608.800546
59254.168453,2368.659014,-9252.574275,1991.848295
59254.168763,2886.803174,-11843.295072,1762.019645
59254.169073,-814.226536,-10807.006753,-2528.115143
59254.169383,-2368.659014,-11917.315666,0.000000
59254.169693,-1258.350101,-10066.800811,-1302.362347
59254.170003,0.000000,-7179.997637,0.000000
59254.170313,2146.597232,-6513.812290,-1532.190996
59254.170623,2368.659014,-7476.080014,459.657299
59254.170932,2664.741391,-8882.471304,995.924147
59254.171242,2368.659014,-10881.027347,1532.190996
59254.171552,592.164754,-12509.480420,2068.457845
59254.171862,-1036.288319,-13323.706956,2298.286494
59254.172172,-4737.318029,-9696.697840,0.000000
59254.172482,-74.020594,-10658.965565,-76.609550
59254.172792,-2368.659014,-5403.503377,0.000000
59254.173102,1332.370696,-7772.162391,4443.353888
59254.173412,962.267725,-5995.668130,612.876398
59254.173722,296.082377,-7179.997637,2451.505594
59254.174031,1480.411884,-9992.780217,2681.334243
59254.174341,-1406.391290,-10732.986159,612.876398
59254.174651,-3775.050304,-11473.192101,306.438199
59254.174961,-4219.173869,-14211.954086,-76.609550
59254.175271,-3923.091493,-11843.295072,-383.047749
59254.175581,-4737.318029,-8364.327145,0.000000
59254.175891,-74.020594,-7105.977043,-76.609550
59254.176201,0.000000,-4219.173869,0.000000
59254.176511,2886.803174,-6217.729913,1149.143247
59254.176821,2368.659014,-7402.059420,2757.943793
59254.177131,1998.556043,-10288.862594,2911.162892
59254.177440,0.000000,-11843.295072,1762.019645
59254.177750,-2442.679609,-13027.624579,2374.896044
59254.178060,-3552.988522,-12657.521608,2145.067394
59254.178370,-2442.679609,-12287.418637,2374.896044
59254.178680,-4145.153275,-5403.503377,0.000000
59254.178990,-1184.329507,-6143.709319,2145.067394
59254.179300,-74.020594,-6513.812290,2374.896044
59254.179610,2294.638420,-7402.059420,2374.896044
59254.179920,740.205942,-7846.182985,1838.629195
59254.180230,222.061783,-10140.821405,1915.238745
59254.180539,-1406.391290,-11029.068536,842.705048
59254.180849,-2220.617826,-10732.986159,612.876398
59254.181159,-2368.659014,-10140.821405,612.876398
59254.181469,-74.020594,-11843.295072,2374.896044
59254.181779,-1850.514855,-5107.421000,-1838.629195
59254.182089,1480.411884,-7328.038826,1225.752797
59254.182399,2886.803174,-7994.224174,1149.143247
59254.182709,3034.844362,-9326.594869,2374.896044
59254.183019,814.226536,-11325.150913,1072.533697
59254.183329,-444.123565,-12805.562797,229.828649
59254.183638,-1554.432478,-12657.521608,153.219100
59254.183948,-1480.411884,-11177.109724,0.000000
59254.184258,-1480.411884,-7179.997637,0.000000
59254.184568,1184.329507,-7179.997637,3064.381992
59254.184878,2146.597232,-3997.112087,842.705048
59254.185188,2368.659014,-4811.338623,2451.505594
59254.185498,3552.988522,-7920.203579,3294.210641
59254.185808,2368.659014,-9474.636058,3600.648841
59254.186118,-444.123565,-10510.924376,76.609550
59254.186428,-2738.761985,-12583.501014,-1455.581446
59254.186737,-4219.173869,-12805.562797,-2451.505594
59254.187047,-3701.029710,-11325.150913,-3064.381992
59254.187357,-4145.153275,-7179.997637,-2451.505594
59254.187667,-1184.329507,-4811.338623,0.000000
59254.187977,4071.132681,-7698.141797,2374.896044
59254.188287,2886.803174,-5255.462188,1225.752797
59254.188597,4737.318029,-8364.327145,3753.867940
59254.188907,3552.988522,-10732.986159,3677.258390
59254.189217,1554.432478,-11843.295072,1302.362347
59254.189527,-1702.473667,-12583.501014,76.609550
59254.189837,-3182.885551,-11547.212695,-536.266849
59254.190146,-3256.906145,-8660.409521,-2374.896044
59254.190456,-2442.679609,-6661.853478,-995.924147
59254.190766,-4145.153275,-4811.338623,0.000000
59254.191076,0.000000,-7772.162391,2145.067394
59254.191386,2294.638420,-8586.388927,2987.772442
59254.191696,592.164754,-8068.244768,2374.896044
59254.192006,0.000000,-8956.491898,2451.505594
59254.192316,-740.205942,-10807.006753,1149.143247
59254.192626,-2368.659014,-10436.903782,153.219100
59254.192936,-1924.535449,-9622.677246,0.000000
59254.193245,-1406.391290,-7402.059420,-76.609550
59254.193555,-74.020594,-6513.812290,-689.485948
59254.193865,-1258.350101,-4441.235652,-1608.800546
59254.194175,0.000000,-7772.162391,1225.752797
59254.194485,2294.638420,-11843.295072,4213.525239
59254.194795,-666.185348,-12435.459826,2374.896044
59254.195105,-3256.906145,-11917.315666,612.876398
59254.195415,-2738.761985,-12879.583391,1149.143247
59254.195725,-2146.597232,-9992.780217,1532.190996
59254.196035,-962.267725,-6809.894666,1991.848295
59254.196344,666.185348,-4737.318029,3294.210641
59254.196654,3478.967927,-4737.318029,3217.601092
59254.196964,1554.432478,-3849.070898,1608.800546
59254.197274,1776.494261,-8068.244768,3983.696590
59254.197584,-74.020594,-10362.883188,1149.143247
59254.197894,-3552.988522,-11325.150913,0.000000
59254.198204,-5625.565159,-11917.315666,-2451.505594
59254.198514,-5181.441594,-12731.542202,-1991.848295
59254.198824,-3701.029710,-11029.068536,-1302.362347
59254.199134,-1998.556043,-8142.265362,-153.219100
59254.199444,518.144159,-7105.977043,1762.019645
59254.199753,3478.967927,-6513.812290,2451.505594
59254.200063,5847.626942,-8290.306550,4213.525239
59254.200373,2442.679609,-6291.750507,1378.971896
59254.200683,2960.823768,-10732.986159,3600.648841
59254.200993,-518.144159,-11029.068536,0.000000
59254.201303,-3034.844362,-11621.233289,-1915.238745
59254.201613,-3404.947333,-11473.192101,-1072.533697
59254.201923,-3034.844362,-9992.780217,-995.924147
59254.202233,-2146.597232,-7624.121203,-306.438199
59254.202543,-74.020594,-8734.430116,2298.286494
59254.202852,1332.370696,-7846.182985,1762.019645
59254.203162,4071.132681,-10362.883188,4213.525239
59254.203472,2886.803174,-9474.636058,2374.896044
59254.203782,0.000000,-8956.491898,0.000000
59254.204092,-74.020594,-10436.903782,0.000000
59254.204402,-1258.350101,-10362.883188,-76.609550
59254.204712,-1480.411884,-9252.574275,-612.876398
59254.205022,-814.226536,-7920.203579,-689.485948
59254.205332,222.061783,-6883.915261,-536.266849
59254.205642,1776.494261,-6587.832884,0.000000
59254.205951,1184.329507,-9030.512492,995.924147
59254.206261,0.000000,-10140.821405,612.876398
59254.206571,1702.473667,-14211.954086,2374.896044
59254.206881,-1406.391290,-13323.706956,-76.609550
59254.207191,-3256.906145,-10140.821405,-689.485948
59254.207501,-74.020594,-10510.924376,1762.019645
59254.207811,-518.144159,-5995.668130,1072.533697
59254.208121,740.205942,-3775.050304,1991.848295
59254.208431,1776.494261,-4293.194464,2145.067394
59254.208741,592.164754,-3923.091493,1838.629195
59254.209050,1184.329507,-7698.141797,2911.162892
59254.209360,0.000000,-9548.656652,0.000000
59254.209670,-370.102971,-13915.871710,1149.143247
59254.209980,-3923.091493,-11917.315666,-4060.306139
59254.210290,-4737.318029,-13027.624579,-689.485948
59254.210600,-1258.350101,-12435.459826,-76.609550
59254.210910,-1258.350101,-7846.182985,-153.219100
59254.211220,296.082377,-5699.585753,919.314598
59254.211530,2368.659014,-5773.606348,2451.505594
59254.211840,1776.494261,-5477.523971,2298.286494
59254.212150,1184.329507,-8586.388927,3447.429741
59254.212459,222.061783,-9474.636058,919.314598
59254.212769,-2368.659014,-11325.150913,1225.752797
59254.213079,-2442.679609,-13027.624579,-76.609550
59254.213389,-4071.132681,-11843.295072,-76.609550
59254.213699,-2368.659014,-9252.574275,919.314598
59254.214009,-1258.350101,-7031.956449,1072.533697
59254.214319,-444.123565,-6661.853478,1838.629195
59254.214629,444.123565,-7105.977043,2451.505594
59254.214939,1480.411884,-6809.894666,3140.991542
59254.215249,1998.556043,-9326.594869,3524.039291
59254.215558,-666.185348,-9030.512492,536.266849
59254.215868,-2960.823768,-9548.656652,306.438199
59254.216178,-1850.514855,-11251.130318,-76.609550
59254.216488,-1998.556043,-10288.862594,766.095498
59254.216798,-1480.411884,-7772.162391,459.657299
59254.217108,-74.020594,-6809.894666,-383.047749
59254.217418,518.144159,-7105.977043,0.000000
59254.217728,1406.391290,-9252.574275,1072.533697
59254.218038,1628.453072,-10658.965565,1762.019645
59254.218348,-74.020594,-12805.562797,1455.581446
59254.218657,-2442.679609,-11695.253884,0.000000
59254.218967,-2072.576638,-12065.356855,1225.752797
59254.219277,-1554.432478,-6809.894666,-1302.362347
59254.219587,888.247130,-7179.997637,3217.601092
59254.219897,0.000000,-3627.009116,1532.190996
59254.220207,2072.576638,-5033.400406,2374.896044
59254.220517,1776.494261,-6587.832884,1532.190996
59254.220827,1850.514855,-9252.574275,1072.533697
59254.221137,1110.308913,-11843.295072,-76.609550
59254.221447,-740.205942,-13101.645173,0.000000
59254.221756,-2442.679609,-14211.954086,-1302.362347
59254.222066,-4737.318029,-10732.986159,-2451.505594
59254.222376,-370.102971,-13027.624579,-76.609550
59254.222686,0.000000,-5995.668130,306.438199
59254.222996,444.123565,-4811.338623,0.000000
59254.223306,3330.926739,-5921.647536,2374.896044
59254.223616,3923.091493,-7476.080014,2834.553343
59254.223926,3108.864956,-9326.594869,2451.505594
59254.224236,2294.638420,-12731.542202,2298.286494
59254.224546,-2738.761985,-11177.109724,-459.657299
59254.224856,-2442.679609,-13027.624579,-689.485948
59254.225165,-4737.318029,-9548.656652,-1838.629195
59254.225475,-666.185348,-9474.636058,-76.609550
59254.225785,-2368.659014,-4811.338623,0.000000
59254.226095,0.000000,-5107.421000,842.705048
59254.226405,1776.494261,-7550.100608,2451.505594
59254.226715,2294.638420,-8956.491898,3064.381992
59254.227025,888.247130,-9622.677246,2221.676944
59254.227335,-74.020594,-11769.274478,1838.629195
59254.227645,-2368.659014,-11325.150913,0.000000
59254.227955,-370.102971,-11843.295072,-76.609550
59254.228264,-3552.988522,-7772.162391,0.000000
59254.228574,-74.020594,-9474.636058,-76.609550
59254.228884,0.000000,-3627.009116,-2451.505594
59254.229194,1998.556043,-6957.935855,842.705048
59254.229504,1776.494261,-9178.553681,1838.629195
59254.229814,1184.329507,-11547.212695,2145.067394
59254.230124,-222.061783,-12583.501014,1532.190996
59254.230434,-2368.659014,-12213.398043,612.876398
59254.230744,-2294.638420,-10510.924376,536.266849
59254.231054,-1036.288319,-8956.491898,2681.334243
59254.231363,-1702.473667,-4219.173869,536.266849
59254.231673,888.247130,-5403.503377,4290.134789
59254.231983,1110.308913,-4145.153275,536.266849
59254.232293,2294.638420,-8290.306550,2374.896044
59254.232603,296.082377,-9178.553681,919.314598
59254.232913,-814.226536,-11695.253884,306.438199
59254.233223,-3182.885551,-12879.583391,-995.924147
59254.233533,-5625.565159,-11917.315666,-2145.067394
59254.233843,-2442.679609,-10955.047942,-612.876398
59254.234153,-2368.659014,-7179.997637,0.000000
59254.234462,1998.556043,-6513.812290,1149.143247
59254.234772,0.000000,-2442.679609,0.000000
59254.235082,4663.297435,-7105.977043,3600.648841
59254.235392,4367.215058,-9474.636058,3294.210641
59254.235702,1702.473667,-10436.903782,1762.019645
59254.236012,-962.267725,-11843.295072,383.047749
59254.236322,-3552.988522,-12805.562797,-766.095498
59254.236632,-5107.421000,-10732.986159,-1915.238745
59254.236942,-2516.700203,-10362.883188,-383.047749
59254.237252,-2960.823768,-7179.997637,0.000000
59254.237562,-74.020594,-7105.977043,1762.019645
59254.237871,-1702.473667,-4071.132681,0.000000
59254.238181,3182.885551,-9474.636058,4826.401637
59254.238491,3108.864956,-9104.533087,4290.134789
59254.238801,1258.350101,-9474.636058,1685.410096
59254.239111,-1628.453072,-10140.821405,153.219100
59254.239421,-3034.844362,-10732.986159,-1455.581446
59254.239731,-2442.679609,-10214.842000,-689.485948
59254.240041,-74.020594,-8882.471304,-1302.362347
59254.240351,-2368.659014,-5995.668130,-2145.067394
59254.240661,888.247130,-7402.059420,2374.896044
59254.240970,3478.967927,-8882.471304,-76.609550
59254.241280,3478.967927,-11251.130318,3753.867940
59254.241590,592.164754,-11621.233289,1838.629195
59254.241900,-74.020594,-12657.521608,1685.410096
59254.242210,-1110.308913,-12065.356855,766.095498
59254.242520,-888.247130,-10436.903782,1302.362347
59254.242830,-74.020594,-8290.306550,1455.581446
59254.243140,-444.123565,-4959.379811,1838.629195
59254.243450,0.000000,-3330.926739,306.438199
59254.243760,1628.453072,-6587.832884,3753.867940
59254.244069,3478.967927,-9474.636058,-76.609550
59254.244379,296.082377,-11325.150913,1838.629195
59254.244689,-2368.659014,-11917.315666,0.000000
59254.244999,-3108.864956,-13027.624579,-689.485948
59254.245309,-3182.885551,-11917.315666,-919.314598
59254.245619,-1924.535449,-10214.842000,0.000000
59254.245929,-74.020594,-8586.388927,2298.286494
59254.246239,888.247130,-4959.379811,1838.629195
59254.246549,3478.967927,-5921.647536,2987.772442
59254.246859,1776.494261,-3923.091493,0.000000
59254.247168,1184.329507,-8364.327145,3064.381992
59254.247478,592.164754,-10140.821405,1838.629195
59254.247788,-3256.906145,-11177.109724,0.000000
59254.248098,-4071.132681,-12361.439231,-612.876398
59254.248408,-4441.235652,-11177.109724,-919.314598
59254.248718,-2960.823768,-8808.450710,0.000000
59254.249028,-666.185348,-7772.162391,1225.752797
59254.249338,-444.123565,-5477.523971,1455.581446
59254.249648,2294.638420,-7105.977043,2987.772442
59254.249958,1480.411884,-5995.668130,0.000000
59254.250268,3849.070898,-10584.944971,5056.230287
59254.250577,-1776.494261,-7476.080014,76.609550
59254.250887,-2442.679609,-10510.924376,-995.924147
59254.251197,-3404.947333,-11103.089130,-1072.533697
59254.251507,-2664.741391,-9992.780217,-1608.800546
59254.251817,-2146.597232,-8586.388927,-1378.971896
59254.252127,-1184.329507,-6069.688724,-612.876398
59254.252437,296.082377,-6587.832884,306.438199
59254.252747,2960.823768,-9030.512492,2757.943793
59254.253057,3478.967927,-10658.965565,2374.896044
59254.253367,0.000000,-9548.656652,0.000000
59254.253676,-2960.823768,-9548.656652,0.000000
59254.253986,-1258.350101,-12139.377449,842.705048
59254.254296,-1776.494261,-9696.697840,766.095498
59254.254606,-888.247130,-6513.812290,919.314598
59254.254916,-296.082377,-4885.359217,1225.752797
59254.255226,0.000000,-4367.215058,612.876398
59254.255536,0.000000,-5403.503377,0.000000
59254.255846,2812.782580,-10066.800811,2681.334243
59254.256156,1110.308913,-11843.295072,-76.609550
59254.256466,-3478.967927,-10732.986159,-1991.848295
59254.256775,-3627.009116,-11843.295072,-2528.115143
59254.257085,-1258.350101,-12879.583391,-383.047749
59254.257395,-1258.350101,-9252.574275,-76.609550
59254.257705,0.000000,-6735.874072,919.314598
59254.258015,1258.350101,-5329.482782,1149.143247
59254.258325,1184.329507,-5255.462188,1762.019645
59254.258635,3330.926739,-7402.059420,2911.162892
59254.258945,1184.329507,-8364.327145,1838.629195
59254.259255,1702.473667,-12435.459826,-76.609550
59254.259565,-4737.318029,-10732.986159,0.000000
59254.259875,-2442.679609,-13027.624579,-689.485948
59254.260184,-2590.720797,-11843.295072,-76.609550
59254.260494,-2146.597232,-8290.306550,-229.828649
59254.260804,-1184.329507,-6365.771101,1225.752797
59254.261114,518.144159,-6587.832884,2068.457845
59254.261424,2294.638420,-6957.935855,3370.820191
59254.261734,2294.638420,-7402.059420,2681.334243
59254.262044,0.000000,-8068.244768,1225.752797
59254.262354,1110.308913,-13027.624579,3600.648841
59254.262664,-3923.091493,-9548.656652,-1685.410096
59254.262974,-1258.350101,-11843.295072,-76.609550
59254.263283,-2664.741391,-9622.677246,-612.876398
59254.263593,-1776.494261,-7846.182985,-689.485948
59254.263903,-518.144159,-6439.791695,0.000000
59254.264213,1184.329507,-6883.915261,919.314598
59254.264523,2738.761985,-8734.430116,2374.896044
59254.264833,3182.885551,-10658.965565,2374.896044
59254.265143,0.000000,-10732.986159,612.876398
59254.265453,-74.020594,-15396.283594,4213.525239
59254.265763,-4663.297435,-9548.656652,0.000000
59254.266073,-740.205942,-11251.130318,3294.210641
59254.266382,-1480.411884,-5995.668130,1225.752797
59254.266692,-148.041188,-5033.400406,1149.143247
59254.267002,740.205942,-5255.462188,1302.362347
59254.267312,1776.494261,-6883.915261,1991.848295
59254.267622,2146.597232,-9178.553681,1838.629195
59254.267932,2294.638420,-13027.624579,2068.457845
59254.268242,-2664.741391,-11473.192101,-1455.581446
59254.268552,-2368.659014,-14285.974681,1991.848295
59254.268862,-2442.679609,-11251.130318,-1302.362347
59254.269172,-1480.411884,-9548.656652,1225.752797
59254.269481,0.000000,-5403.503377,0.000000
59254.269791,2368.659014,-5403.503377,1532.190996
59254.270101,3182.885551,-6291.750507,1915.238745
59254.270411,2960.823768,-8364.327145,2451.505594
59254.270721,1850.514855,-9844.739029,612.876398
59254.271030,-74.020594,-13027.624579,1915.238745
59254.271340,-2442.679609,-13619.789333,-383.047749
59254.271650,-8290.306550,-9548.656652,-3677.258390
59254.271960,-1554.432478,-11843.295072,-76.609550
59254.272270,-3552.988522,-5995.668130,306.438199
59254.272580,-3404.947333,-3627.009116,0.000000
59254.272889,1406.391290,-5921.647536,2374.896044
59254.273199,1924.535449,-6809.894666,2911.162892
59254.273509,2368.659014,-8142.265362,2681.334243
59254.273819,1036.288319,-8956.491898,842.705048
59254.274129,-814.226536,-10584.944971,0.000000
59254.274439,-2442.679609,-12731.542202,-76.609550
59254.274748,-6513.812290,-9548.656652,-3677.258390
59254.275058,-666.185348,-11547.212695,-76.609550
59254.275368,-3552.988522,-5403.503377,0.000000
59254.275678,-74.020594,-7031.956449,-229.828649
59254.275988,1332.370696,-7402.059420,842.705048
59254.276298,2516.700203,-9030.512492,1991.848295
59254.276607,2220.617826,-10807.006753,2528.115143
59254.276917,740.205942,-11769.274478,2681.334243
59254.277227,-2072.576638,-11917.315666,1225.752797
59254.277537,-74.020594,-11843.295072,2374.896044
59254.277847,-3552.988522,-5995.668130,0.000000
59254.278156,296.082377,-6883.915261,2451.505594
59254.278466,-1554.432478,-3627.009116,0.000000
59254.278776,1628.453072,-6513.812290,1608.800546
59254.279086,888.247130,-7698.141797,1225.752797
59254.279396,666.185348,-9770.718434,1225.752797
59254.279706,-814.226536,-11769.274478,766.095498
59254.280015,-2886.803174,-12731.542202,-76.609550
59254.280325,-4145.153275,-11029.068536,0.000000
59254.280635,-1184.329507,-10732.986159,2757.943793
59254.280945,-74.020594,-7105.977043,-76.609550
59254.281255,0.000000,-3627.009116,0.000000
59254.281565,2294.638420,-4737.318029,0.000000
59254.281874,3108.864956,-6587.832884,2298.286494
59254.282184,3182.885551,-8734.430116,2451.505594
59254.282494,962.267725,-10732.986159,1532.190996
59254.282804,-2072.576638,-12583.501014,-76.609550
59254.283114,-3034.844362,-14211.954086,-1302.362347
59254.283424,-5107.421000,-11399.171507,-1915.238745
59254.283733,-3552.988522,-9548.656652,1225.752797
59254.284043,-74.020594,-7105.977043,-76.609550
59254.284353,0.000000,-4811.338623,612.876398
59254.284663,3478.967927,-6809.894666,2987.772442
59254.284973,2368.659014,-6809.894666,3677.258390
59254.285282,2812.782580,-8438.347739,3294.210641
59254.285592,814.226536,-9548.656652,1378.971896
59254.285902,-2072.576638,-11177.109724,-306.438199
59254.286212,-2442.679609,-12805.562797,-229.828649
59254.286522,-3627.009116,-11251.130318,-2528.115143
59254.286832,-4737.318029,-8364.327145,-4290.134789
59254.287141,-74.020594,-9474.636058,-76.609550
59254.287451,518.144159,-6809.894666,-689.485948
59254.287761,4663.297435,-9474.636058,2987.772442
59254.288071,2368.659014,-8956.491898,2451.505594
59254.288381,2368.659014,-11103.089130,2681.334243
59254.288691,888.247130,-11621.233289,2298.286494
59254.289000,-814.226536,-11621.233289,1455.581446
59254.289310,-1480.411884,-10140.821405,1838.629195
59254.289620,-1036.288319,-7920.203579,919.314598
59254.289930,-1332.370696,-4811.338623,-2374.896044
59254.290240,0.000000,-6883.915261,2451.505594
59254.290550,1702.473667,-7105.977043,-76.609550
59254.290859,3478.967927,-9474.636058,2374.896044
59254.291169,0.000000,-10140.821405,383.047749
59254.291479,-148.041188,-12879.583391,842.705048
59254.291789,-2294.638420,-12805.562797,306.438199
59254.292099,-2072.576638,-11843.295072,-153.219100
59254.292408,-148.041188,-9918.759623,1762.019645
59254.292718,370.102971,-6957.935855,1225.752797
59254.293028,1184.329507,-3034.844362,0.000000
59254.293338,3552.988522,-5995.668130,3677.258390
59254.293648,4663.297435,-8290.306550,2987.772442
59254.293958,4663.297435,-9474.636058,2374.896044
59254.294267,0.000000,-11325.150913,1225.752797
59254.294577,-2294.638420,-13619.789333,-536.266849
59254.294887,-4441.235652,-13397.727550,-1532.190996
59254.295197,-4589.276840,-11621.233289,-1225.752797
59254.295507,-1258.350101,-9844.739029,1149.143247
59254.295817,-888.247130,-6809.894666,995.924147
59254.296126,0.000000,-3627.009116,0.000000
59254.296436,3849.070898,-7920.203579,5209.449386
59254.296746,4663.297435,-7105.977043,3600.648841
59254.297056,4071.132681,-9474.636058,3600.648841
59254.297366,666.185348,-9770.718434,1455.581446
59254.297676,-2664.741391,-11177.109724,-1072.533697
59254.297985,-4515.256246,-11177.109724,-2451.505594
59254.298295,-4515.256246,-11029.068536,-2528.115143
59254.298605,-2146.597232,-10288.862594,-306.438199
59254.298915,-666.185348,-7994.224174,-995.924147
59254.299225,0.000000,-5995.668130,0.000000
59254.299534,2960.823768,-9548.656652,3983.696590
59254.299844,4367.215058,-10955.047942,3600.648841
59254.300154,4663.297435,-13027.624579,4213.525239
59254.300464,74.020594,-10881.027347,2298.286494
59254.300774,-888.247130,-10881.027347,1685.410096
59254.301084,-1480.411884,-9326.594869,842.705048
59254.301393,-962.267725,-7772.162391,842.705048
59254.301703,-592.164754,-4811.338623,1225.752797
59254.302013,-74.020594,-6513.812290,1455.581446
59254.302323,518.144159,-6217.729913,-76.609550
59254.302633,0.000000,-7772.162391,612.876398
59254.302943,1554.432478,-12583.501014,2221.676944
59254.303252,-888.247130,-14211.954086,2298.286494
59254.303562,-3034.844362,-12287.418637,-995.924147
59254.303872,-2368.659014,-11473.192101,-536.266849
59254.304182,-444.123565,-8808.450710,766.095498
59254.304492,1406.391290,-6365.771101,842.705048
59254.304802,592.164754,-3627.009116,0.000000
59254.305111,3923.091493,-6143.709319,2757.943793
59254.305421,3478.967927,-7105.977043,2374.896044
59254.305731,0.000000,-7179.997637,0.000000
59254.306041,-74.020594,-13027.624579,1225.752797
59254.306351,-3849.070898,-13249.686362,-612.876398
59254.306660,-4885.359217,-13693.809927,-1532.190996
59254.306970,-4367.215058,-11399.171507,-842.705048
59254.307280,-2516.700203,-8734.430116,0.000000
59254.307590,-370.102971,-6735.874072,1455.581446
59254.307900,0.000000,-3923.091493,1225.752797
59254.308210,1776.494261,-5995.668130,3064.381992
59254.308519,4145.153275,-8660.409521,6435.202183
59254.308829,2294.638420,-7698.141797,1149.143247
59254.309139,0.000000,-10140.821405,1225.752797
59254.309449,-3478.967927,-10732.986159,-919.314598
59254.309759,-3627.009116,-11843.295072,-2068.457845
59254.310069,-3923.091493,-10436.903782,-2068.457845
59254.310378,-2590.720797,-8956.491898,-1608.800546
59254.310688,-592.164754,-7550.100608,-383.047749
59254.310998,1554.432478,-6069.688724,229.828649
59254.311308,1184.329507,-7772.162391,1838.629195
59254.311618,2664.741391,-10732.986159,4903.011187
59254.311928,2886.803174,-11843.295072,2987.772442
59254.312237,-1776.494261,-10436.903782,689.485948
59254.312547,-2664.741391,-9548.656652,1225.752797
59254.312857,-1480.411884,-9252.574275,1149.143247
59254.313167,-1702.473667,-6513.812290,383.047749
59254.313477,-1258.350101,-5477.523971,842.705048
59254.313786,-1036.288319,-5329.482782,459.657299
59254.314096,1702.473667,-7105.977043,-76.609550
59254.314406,0.000000,-7772.162391,306.438199
59254.314716,0.000000,-10732.986159,1225.752797
59254.315026,-74.020594,-14211.954086,-76.609550
59254.315336,-3849.070898,-11029.068536,0.000000
59254.315645,-2072.576638,-9622.677246,0.000000
59254.315955,0.000000,-8660.409521,842.705048
59254.316265,666.185348,-6069.688724,1072.533697
59254.316575,1850.514855,-5329.482782,2911.162892
59254.316885,3404.947333,-6513.812290,2374.896044
59254.317195,4663.297435,-9474.636058,2374.896044
59254.317504,222.061783,-9622.677246,76.609550
59254.317814,-4737.318029,-10140.821405,0.000000
59254.318124,-1258.350101,-15396.283594,-76.609550
59254.318434,-5625.565159,-11917.315666,-2145.067394
59254.318744,-1998.556043,-10510.924376,-1225.752797
59254.319054,-1184.329507,-7402.059420,919.314598
59254.319363,888.247130,-6069.688724,2145.067394
59254.319673,2220.617826,-5181.441594,2987.772442
59254.319983,2960.823768,-6069.688724,4826.401637
59254.320293,4367.215058,-9474.636058,5439.278036
59254.320603,1702.473667,-9474.636058,2374.896044
59254.320912,-4737.318029,-8364.327145,-2451.505594
59254.321222,-2442.679609,-13619.789333,-1302.362347
59254.321532,-6513.812290,-10732.986159,-4136.915689
59254.321842,-2442.679609,-10658.965565,-3753.867940
59254.322152,-2368.659014,-8068.244768,-1685.410096
59254.322462,592.164754,-7105.977043,153.219100
59254.322771,2738.761985,-7254.018232,1532.190996
59254.323081,3701.029710,-8438.347739,3907.087040
59254.323391,3552.988522,-10436.903782,4903.011187
59254.323701,2590.720797,-12435.459826,4826.401637
59254.324011,-74.020594,-10066.800811,-76.609550
59254.324321,-1776.494261,-10732.986159,1838.629195
59254.324630,-1258.350101,-9178.553681,-76.609550
59254.324940,-1406.391290,-6513.812290,-76.609550
59254.325250,-1776.494261,-5181.441594,0.000000
59254.325560,-444.123565,-6439.791695,459.657299
59254.325870,1036.288319,-8216.285956,919.314598
59254.326180,592.164754,-9696.697840,1225.752797
59254.326489,0.000000,-10732.986159,1225.752797
59254.326799,-370.102971,-13323.706956,2604.724693
59254.327109,-1258.350101,-10658.965565,-689.485948
59254.327419,-1776.494261,-9548.656652,1225.752797
59254.327729,1702.473667,-8734.430116,1762.019645
59254.328038,2072.576638,-6809.894666,2987.772442
59254.328348,1776.494261,-4959.379811,1072.533697
59254.328658,2368.659014,-6439.791695,1532.190996
59254.328968,1850.514855,-8586.388927,1608.800546
59254.329278,0.000000,-10881.027347,0.000000
59254.329588,-4737.318029,-10732.986159,-2451.505594
59254.329897,-4737.318029,-13693.809927,0.000000
59254.330207,-3034.844362,-13027.624579,-1302.362347
59254.330517,-4737.318029,-8364.327145,0.000000
59254.330827,-74.020594,-8290.306550,2987.772442
59254.331137,888.247130,-6291.750507,4136.915689
59254.331447,2886.803174,-5625.565159,3907.087040
59254.331756,2812.782580,-6291.750507,3753.867940
59254.332066,2516.700203,-8142.265362,3064.381992
59254.332376,-74.020594,-9548.656652,0.000000
59254.332686,-4293.194464,-9548.656652,-4290.134789
59254.332996,-5921.647536,-11325.150913,-3677.258390
59254.333306,-2442.679609,-14211.954086,-1302.362347
59254.333615,-5625.565159,-8660.409521,-3064.381992
59254.333925,-74.020594,-8882.471304,-76.609550
59254.334235,0.000000,-6291.750507,1838.629195
59254.334545,3627.009116,-7402.059420,2681.334243
59254.334855,4293.194464,-7772.162391,3524.039291
59254.335164,3552.988522,-9326.594869,3753.867940
59254.335474,1850.514855,-10658.965565,2374.896044
59254.335784,-74.020594,-10658.965565,-689.485948
59254.336094,-2960.823768,-9548.656652,-1608.800546
59254.336404,-3552.988522,-8364.327145,0.000000
59254.336714,-1554.432478,-7698.141797,-383.047749
59254.337023,-3552.988522,-5107.421000,-612.876398
59254.337333,-1480.411884,-5403.503377,0.000000
59254.337643,1332.370696,-8586.388927,1225.752797
59254.337953,1110.308913,-9696.697840,1685.410096
59254.338263,148.041188,-11547.212695,995.924147
59254.338573,-444.123565,-12435.459826,1149.143247
59254.338882,-74.020594,-12435.459826,-76.609550
59254.339192,-740.205942,-7698.141797,-689.485948
59254.339502,0.000000,-7179.997637,1838.629195
59254.339812,2294.638420,-5921.647536,-76.609550
59254.340122,592.164754,-4811.338623,0.000000
59254.340432,592.164754,-5995.668130,0.000000
59254.340741,1480.411884,-10140.821405,919.314598
59254.341051,-74.020594,-12435.459826,76.609550
59254.341361,-3034.844362,-14211.954086,-995.924147
59254.341671,-3923.091493,-15396.283594,-76.609550
59254.341981,-2442.679609,-13027.624579,-76.609550
59254.342290,-2146.597232,-7698.141797,-383.047749
59254.342600,0.000000,-5995.668130,3677.258390
59254.342910,3478.967927,-4737.318029,3600.648841
59254.343220,2368.659014,-3108.864956,2451.505594
59254.343530,3182.885551,-5921.647536,2528.115143
59254.343840,1924.535449,-8364.327145,2911.162892
59254.344149,-888.247130,-10955.047942,689.485948
59254.344459,-3997.112087,-11621.233289,-2068.457845
59254.344769,-4811.338623,-14137.933492,-1225.752797
59254.345079,-5107.421000,-14211.954086,-689.485948
59254.345389,-2738.761985,-11843.295072,-76.609550
59254.345699,-3552.988522,-5403.503377,-2451.505594
59254.346008,2368.659014,-7476.080014,2604.724693
59254.346318,4071.132681,-6883.915261,1762.019645
59254.346628,4663.297435,-8290.306550,3600.648841
59254.346938,2590.720797,-9844.739029,3294.210641
59254.347248,1258.350101,-11029.068536,2987.772442
59254.347558,-888.247130,-11325.150913,1532.190996
59254.347867,-2368.659014,-9548.656652,766.095498
59254.348177,-2960.823768,-8956.491898,1225.752797
59254.348487,-74.020594,-9326.594869,2221.676944
59254.348797,-1258.350101,-6513.812290,-689.485948
59254.349107,-2368.659014,-5995.668130,0.000000
59254.349417,1702.473667,-9178.553681,1149.143247
59254.349726,2294.638420,-11843.295072,2374.896044
59254.350036,-296.082377,-11473.192101,1532.190996
59254.350346,-1110.308913,-11695.253884,919.314598
59254.350656,-888.247130,-10362.883188,919.314598
59254.350966,0.000000,-7179.997637,0.000000
59254.351275,0.000000,-4811.338623,1532.190996
59254.351585,2368.659014,-5995.668130,3677.258390
59254.351895,4663.297435,-7105.977043,2374.896044
59254.352205,888.247130,-5995.668130,0.000000
59254.352515,2220.617826,-11547.212695,1149.143247
59254.352825,-74.020594,-14804.118840,383.047749
59254.353134,-3849.070898,-14211.954086,-1915.238745
59254.353444,-5033.400406,-13767.830521,-1608.800546
59254.353754,-3775.050304,-11399.171507,-383.047749
59254.354064,-3256.906145,-5995.668130,0.000000
59254.354374,0.000000,-2442.679609,0.000000
59254.354684,1184.329507,-3034.844362,3677.258390
59254.354993,5847.626942,-7105.977043,5439.278036
59254.355303,1776.494261,-5995.668130,2757.943793
59254.355613,2294.638420,-11251.130318,4213.525239
59254.355923,-1776.494261,-11621.233289,1225.752797
59254.356233,-4071.132681,-12287.418637,-1991.848295
59254.356543,-5699.585753,-11991.336260,-3294.210641
59254.356852,-5107.421000,-11325.150913,-3140.991542
59254.357162,-3330.926739,-8290.306550,-3140.991542
59254.357472,-1850.514855,-5403.503377,-1915.238745
59254.357782,0.000000,-4811.338623,0.000000
59254.358092,2960.823768,-7179.997637,3677.258390
59254.358401,5699.585753,-9474.636058,4213.525239
59254.358711,3256.906145,-11029.068536,5209.449386
59254.359021,0.000000,-10140.821405,2451.505594
59254.359331,-1258.350101,-11177.109724,1149.143247
59254.359641,-2516.700203,-9400.615463,0.000000
59254.359951,-2442.679609,-7772.162391,-306.438199
59254.360260,-1554.432478,-6513.812290,-383.047749
59254.360570,-1258.350101,-6513.812290,-76.609550
59254.360880,-74.020594,-7105.977043,-76.609550
59254.361190,0.000000,-7179.997637,0.000000
59254.361500,888.247130,-11325.150913,3677.258390
59254.361810,-74.020594,-11769.274478,2528.115143
59254.362119,-2368.659014,-10732.986159,0.000000
59254.362429,-592.164754,-10288.862594,1378.971896
59254.362739,740.205942,-8068.244768,1378.971896
59254.363049,1258.350101,-6217.729913,1072.533697
59254.363359,3478.967927,-7105.977043,3600.648841
59254.363669,4663.297435,-7105.977043,3600.648841
59254.363978,3478.967927,-9474.636058,-76.609550
59254.364288,0.000000,-10140.821405,0.000000
59254.364598,-1258.350101,-14211.954086,-76.609550
59254.364908,-5921.647536,-13101.645173,-2451.505594
59254.365218,-5773.606348,-11917.315666,-1685.410096
59254.365527,-3182.885551,-9992.780217,76.609550
59254.365837,-666.185348,-6883.915261,1838.629195
59254.366147,888.247130,-5181.441594,2757.943793
59254.366457,3701.029710,-6883.915261,5439.278036
59254.366767,5847.626942,-8882.471304,5592.497135
59254.367077,4663.297435,-9474.636058,4826.401637
59254.367386,-1776.494261,-7772.162391,0.000000
59254.367696,-2368.659014,-12065.356855,1149.143247
59254.368006,-7105.977043,-11325.150913,-4290.134789
59254.368316,-5403.503377,-11843.295072,-3294.210641
59254.368626,-5625.565159,-10732.986159,-2451.505594
59254.368936,-3182.885551,-7920.203579,-1532.190996
59254.369245,222.061783,-6809.894666,383.047749
59254.369555,3552.988522,-6587.832884,4290.134789
59254.369865,6069.688724,-8216.285956,3677.258390
59254.370175,6735.874072,-10955.047942,6588.421283
59254.370485,3478.967927,-10066.800811,2374.896044
59254.370795,0.000000,-10140.821405,0.000000
59254.371104,-1258.350101,-10362.883188,229.828649
59254.371414,-1258.350101,-10362.883188,-76.609550
59254.371724,-2812.782580,-7846.182985,-919.314598
59254.372033,-2220.617826,-6661.853478,-1149.143247
59254.372343,-444.123565,-6809.894666,-229.828649
59254.372653,0.000000,-6587.832884,1225.752797
59254.372962,1184.329507,-8364.327145,0.000000
59254.373272,0.000000,-9548.656652,0.000000
59254.373582,0.000000,-11325.150913,1532.190996
59254.373891,-74.020594,-11843.295072,-76.609550
59254.374201,-1924.535449,-7179.997637,-995.924147
59254.374511,666.185348,-7328.038826,612.876398
59254.374820,592.164754,-4811.338623,-2451.505594
59254.375130,2368.659014,-5403.503377,919.314598
59254.375440,2664.741391,-6957.935855,842.705048
59254.375749,1480.411884,-8956.491898,0.000000
59254.376059,0.000000,-11917.315666,0.000000
59254.376369,-2368.659014,-14582.057057,0.000000
59254.376679,-2442.679609,-15396.283594,-689.485948
59254.376988,-5921.647536,-11917.315666,-1225.752797
59254.377298,-1258.350101,-8882.471304,-76.609550
59254.377608,1702.473667,-7105.977043,2374.896044
59254.377917,2294.638420,-4367.215058,3140.991542
59254.378227,3034.844362,-4145.153275,3677.258390
59254.378537,3478.967927,-5699.585753,3753.867940
59254.378846,0.000000,-5995.668130,612.876398
59254.379156,-2368.659014,-7772.162391,0.000000
59254.379466,-1924.535449,-14211.954086,-76.609550
59254.379775,-5995.668130,-13027.624579,-4060.306139
59254.380085,-6513.812290,-12213.398043,-2528.115143
59254.380395,-3627.009116,-10658.965565,-2528.115143
59254.380704,-1258.350101,-8660.409521,-76.609550
59254.381014,518.144159,-6513.812290,1072.533697
59254.381324,2812.782580,-6217.729913,2987.772442
59254.381633,4145.153275,-7624.121203,4443.353888
59254.381943,1184.329507,-6587.832884,2681.334243
59254.382253,0.000000,-8364.327145,995.924147
59254.382562,-2368.659014,-10732.986159,2451.505594
59254.382872,-2442.679609,-10658.965565,-76.609550
59254.383182,-4737.318029,-8364.327145,0.000000
59254.383491,-1258.350101,-9474.636058,-76.609550
59254.383801,-2368.659014,-6291.750507,-612.876398
59254.384111,-814.226536,-7031.956449,76.609550
59254.384420,74.020594,-8068.244768,995.924147
59254.384730,296.082377,-9622.677246,1838.629195
59254.385040,-74.020594,-10214.842000,536.266849
59254.385349,-2442.679609,-11843.295072,1149.143247
59254.385659,-3552.988522,-8364.327145,0.000000
59254.385969,1850.514855,-10807.006753,2528.115143
59254.386279,666.185348,-5403.503377,-1685.410096
59254.386588,3256.906145,-6735.874072,3753.867940
59254.386898,1184.329507,-4811.338623,766.095498
59254.387208,2664.741391,-7179.997637,919.314598
59254.387517,1702.473667,-9770.718434,689.485948
59254.387827,-296.082377,-12361.439231,-76.609550
59254.388137,-1850.514855,-15396.283594,-1302.362347
59254.388446,-2442.679609,-16580.613101,-76.609550
59254.388756,-4811.338623,-10584.944971,-2221.676944
59254.389066,-1184.329507,-9252.574275,1532.190996
59254.389375,1110.308913,-5921.647536,2374.896044
59254.389685,1776.494261,-3627.009116,4903.011187
59254.389995,2664.741391,-3775.050304,3677.258390
59254.390304,4071.132681,-6809.894666,4519.963438
59254.390614,2886.803174,-8660.409521,2911.162892
59254.390924,-74.020594,-10214.842000,383.047749
59254.391233,-1258.350101,-14211.954086,-76.609550
59254.391543,-2442.679609,-15396.283594,-689.485948
59254.391853,-6291.750507,-10807.006753,-4366.744339
59254.392162,-3552.988522,-10140.821405,-1532.190996
59254.392472,-666.185348,-8290.306550,-76.609550
59254.392782,0.000000,-4811.338623,0.000000
59254.393091,2886.803174,-6069.688724,1838.629195
59254.393401,3849.070898,-8068.244768,3907.087040
59254.393711,3627.009116,-9622.677246,3600.648841
59254.394020,1332.370696,-10288.862594,2451.505594
59254.394330,-74.020594,-12213.398043,2451.505594
59254.394640,-2072.576638,-10140.821405,1225.752797
59254.394949,-666.185348,-9474.636058,-76.609550
59254.395259,-4515.256246,-5699.585753,-2068.457845
59254.395569,-2368.659014,-5403.503377,0.000000
59254.395878,-2368.659014,-5107.421000,0.000000
59254.396188,814.226536,-7994.224174,842.705048
59254.396498,148.041188,-9474.636058,1532.190996
59254.396808,74.020594,-11251.130318,1762.019645
59254.397117,-222.061783,-11843.295072,1225.752797
59254.397427,0.000000,-10732.986159,1838.629195
59254.397737,0.000000,-7179.997637,612.876398
59254.398046,2294.638420,-8290.306550,2374.896044
59254.398356,1702.473667,-4737.318029,-76.609550
59254.398666,0.000000,-2442.679609,0.000000
59254.398975,1702.473667,-6883.915261,0.000000
59254.399285,1702.473667,-11695.253884,1072.533697
59254.399595,-1702.473667,-13101.645173,-1149.143247
59254.399904,-3775.050304,-15248.242405,-1378.971896
59254.400214,-5033.400406,-14582.057057,-1072.533697
59254.400524,-4737.318029,-10140.821405,0.000000
59254.400833,-3256.906145,-5995.668130,0.000000
59254.401143,2886.803174,-6809.894666,4443.353888
59254.401453,2072.576638,-2590.720797,2757.943793
59254.401762,4663.297435,-6513.812290,6052.154434
59254.402072,4663.297435,-6217.729913,2987.772442
59254.402382,1998.556043,-9992.780217,2834.553343
59254.402691,-2442.679609,-11547.212695,-689.485948
59254.403001,-5403.503377,-12213.398043,-2681.334243
59254.403311,-6661.853478,-13323.706956,-2757.943793
59254.403620,-7698.141797,-9548.656652,-4673.182538
59254.403930,-4293.194464,-7179.997637,-2987.772442
59254.404240,-2072.576638,-5995.668130,0.000000
59254.404549,3182.885551,-7105.977043,4826.401637
59254.404859,5847.626942,-7105.977043,2987.772442
59254.405169,6439.791695,-9474.636058,4826.401637
59254.405478,3552.988522,-10436.903782,4366.744339
59254.405788,518.144159,-10881.027347,1915.238745
59254.406098,-1554.432478,-11103.089130,459.657299
59254.406407,-2886.803174,-10362.883188,-76.609550
59254.406717,-3627.009116,-7105.977043,-1302.362347
59254.407027,-2442.679609,-6809.894666,-1302.362347
59254.407337,-3552.988522,-4811.338623,-2298.286494
59254.407646,0.000000,-7772.162391,1225.752797
59254.407956,4071.132681,-10658.965565,3600.648841
59254.408266,3478.967927,-11843.295072,4213.525239
59254.408575,0.000000,-11103.089130,1532.190996
59254.408885,-962.267725,-10955.047942,842.705048
59254.409195,0.000000,-10584.944971,1302.362347
59254.409504,222.061783,-8364.327145,689.485948
59254.409814,2294.638420,-6513.812290,-76.609550
59254.410124,3478.967927,-5921.647536,-76.609550
59254.410433,148.041188,-4811.338623,0.000000
59254.410743,2368.659014,-8956.491898,2987.772442
59254.411053,1110.308913,-10066.800811,-1302.362347
59254.411362,-1776.494261,-14878.139434,919.314598
59254.411672,-4737.318029,-14285.974681,-1838.629195
59254.411982,-3849.070898,-13249.686362,-995.924147
59254.412291,-2590.720797,-10140.821405,306.438199
59254.412601,222.061783,-6735.874072,1608.800546
59254.412911,4663.297435,-5921.647536,4213.525239
59254.413220,6439.791695,-7105.977043,4826.401637
59254.413530,3478.967927,-5033.400406,2987.772442
59254.413840,1776.494261,-7179.997637,2451.505594
59254.414149,3478.967927,-13027.624579,2374.896044
59254.414459,-4737.318029,-11325.150913,0.000000
59254.414769,-6513.812290,-12361.439231,-3677.258390
59254.415078,-6661.853478,-12953.603985,-3447.429741
59254.415388,-4737.318029,-10732.986159,-2604.724693
59254.415698,-2220.617826,-8438.347739,-995.924147
59254.416007,1850.514855,-8586.388927,2757.943793
59254.416317,5699.585753,-8586.388927,4826.401637
59254.416627,4071.132681,-6069.688724,2681.334243
59254.416937,3552.988522,-7179.997637,3677.258390
59254.417246,5847.626942,-13027.624579,4826.401637
59254.417556,-1776.494261,-9548.656652,612.876398
59254.417866,-2664.741391,-10658.965565,-76.609550
59254.418175,-3923.091493,-9844.739029,-689.485948
59254.418485,-3478.967927,-7994.224174,-1225.752797
59254.418795,-2664.741391,-7105.977043,-383.047749
59254.419104,-1184.329507,-6587.832884,612.876398
59254.419414,0.000000,-8364.327145,2451.505594
59254.419724,2294.638420,-10658.965565,3294.210641
59254.420033,518.144159,-7772.162391,0.000000
59254.420343,0.000000,-9548.656652,1838.629195
59254.420653,-2072.576638,-8364.327145,612.876398
59254.420962,-74.020594,-9474.636058,1149.143247
59254.421272,0.000000,-7550.100608,536.266849
59254.421582,1110.308913,-5847.626942,536.266849
59254.421891,1332.370696,-5477.523971,229.828649
59254.422201,1184.329507,-5995.668130,0.000000
59254.422511,0.000000,-8364.327145,0.000000
59254.422820,888.247130,-13471.748144,1072.533697
59254.423130,-1554.432478,-14211.954086,-1302.362347
59254.423440,-4737.318029,-14878.139434,0.000000
59254.423749,-3627.009116,-11547.212695,-2068.457845
59254.424059,-518.144159,-9474.636058,1455.581446
59254.424369,592.164754,-5551.544565,2604.724693
59254.424678,2368.659014,-3552.988522,3600.648841
59254.424988,3627.009116,-4071.132681,3907.087040
59254.425298,1184.329507,-4811.338623,3064.381992
59254.425607,0.000000,-6587.832884,766.095498
59254.425917,-592.164754,-11843.295072,1149.143247
59254.426227,-5181.441594,-11769.274478,-4903.011187
59254.426536,-4811.338623,-16580.613101,-1915.238745
59254.426846,-4811.338623,-12435.459826,-4979.620737
59254.427156,-4663.297435,-9844.739029,-2145.067394
59254.427466,-1406.391290,-7698.141797,-383.047749
59254.427775,1554.432478,-6217.729913,1608.800546
59254.428085,4071.132681,-6291.750507,3447.429741
59254.428395,4663.297435,-7105.977043,4826.401637
59254.428704,3775.050304,-7254.018232,2987.772442
59254.429014,592.164754,-9844.739029,2757.943793
59254.429324,-74.020594,-11843.295072,-76.609550
59254.429633,-6513.812290,-9548.656652,0.000000
59254.429943,-1850.514855,-11251.130318,-1302.362347
59254.430253,-4737.318029,-8068.244768,-1225.752797
59254.430562,-2960.823768,-7105.977043,-689.485948
59254.430872,-740.205942,-7550.100608,766.095498
59254.431182,740.205942,-8364.327145,1991.848295
59254.431491,2886.803174,-9474.636058,3294.210641
59254.431801,1110.308913,-10658.965565,2374.896044
59254.432111,0.000000,-9104.533087,766.095498
59254.432420,0.000000,-11621.233289,4290.134789
59254.432730,-74.020594,-9474.636058,2374.896044
59254.433040,2146.597232,-7994.224174,2374.896044
59254.433349,592.164754,-4885.359217,0.000000
59254.433659,1702.473667,-5847.626942,76.609550
59254.433969,1776.494261,-7698.141797,0.000000
59254.434278,1332.370696,-10510.924376,306.438199
59254.434588,-74.020594,-14211.954086,-76.609550
59254.434898,-1258.350101,-16432.571912,-76.609550
59254.435207,-5329.482782,-13397.727550,-2145.067394
59254.435517,-1406.391290,-14211.954086,2374.896044
59254.435827,-2960.823768,-5403.503377,0.000000
59254.436136,2960.823768,-6735.874072,5745.716235
59254.436446,2516.700203,-3256.906145,3907.087040
59254.436756,3256.906145,-3849.070898,4060.306139
59254.437066,3182.885551,-5995.668130,3524.039291
59254.437375,1110.308913,-8956.491898,1915.238745
59254.437685,-1776.494261,-11473.192101,0.000000
59254.437995,-3701.029710,-14211.954086,-1455.581446
59254.438304,-7476.080014,-13323.706956,-4213.525239
59254.438614,-5699.585753,-14211.954086,-689.485948
59254.438924,-3923.091493,-8586.388927,-2834.553343
59254.439233,0.000000,-7179.997637,1225.752797
59254.439543,2294.638420,-6217.729913,2221.676944
59254.439853,4441.235652,-5995.668130,3677.258390
59254.440162,5107.421000,-7624.121203,4826.401637
59254.440472,3849.070898,-9252.574275,3830.477490
59254.440782,148.041188,-9548.656652,1225.752797
59254.441091,-1036.288319,-12213.398043,1991.848295
59254.441401,-2442.679609,-11251.130318,-76.609550
59254.441711,-7105.977043,-5995.668130,-3677.258390
59254.442020,-4145.153275,-8364.327145,153.219100
59254.442330,-3330.926739,-6587.832884,0.000000
59254.442640,-74.020594,-7994.224174,1149.143247
59254.442949,666.185348,-8660.409521,1915.238745
59254.443259,1332.370696,-9178.553681,2681.334243
59254.443569,592.164754,-10584.944971,2451.505594
59254.443878,0.000000,-8364.327145,1225.752797
59254.444188,0.000000,-9548.656652,1225.752797
59254.444498,1554.432478,-9474.636058,2068.457845
59254.444807,-3256.906145,-3627.009116,0.000000
59254.445117,1924.535449,-6439.791695,1149.143247
59254.445427,1036.288319,-4811.338623,-995.924147
59254.445736,1702.473667,-9030.512492,-76.609550
59254.446046,444.123565,-11251.130318,-383.047749
59254.446356,-1406.391290,-14730.098246,-842.705048
59254.446665,-3256.906145,-15692.365970,-995.924147
59254.446975,-4737.318029,-13175.665768,-2221.676944
59254.447285,-3552.988522,-9844.739029,0.000000
59254.447595,814.226536,-7772.162391,3830.477490
59254.447904,1998.556043,-2664.741391,2068.457845
59254.448214,3552.988522,-3034.844362,5209.449386
59254.448524,3478.967927,-2442.679609,3064.381992
59254.448833,3552.988522,-6735.874072,4136.915689
59254.449143,0.000000,-9622.677246,1149.143247
59254.449453,-3997.112087,-12139.377449,-1991.848295
59254.449762,-6735.874072,-13545.768739,-3600.648841
59254.450072,-7772.162391,-14211.954086,-3753.867940
59254.450382,-6957.935855,-10732.986159,-4903.011187
59254.450691,-3552.988522,-8364.327145,-2451.505594
59254.451001,3330.926739,-9326.594869,3600.648841
59254.451311,2886.803174,-4737.318029,2068.457845
59254.451620,5255.462188,-5181.441594,2451.505594
59254.451930,5181.441594,-7624.121203,4903.011187
59254.452240,3701.029710,-9474.636058,4213.525239
59254.452549,0.000000,-10584.944971,1608.800546
59254.452859,-2590.720797,-11695.253884,-76.609550
59254.453169,-3627.009116,-11843.295072,-689.485948
59254.453478,-5107.421000,-8438.347739,-2681.334243
59254.453788,-4589.276840,-6587.832884,0.000000
59254.454098,-74.020594,-9474.636058,-76.609550
59254.454407,1110.308913,-7550.100608,842.705048
59254.454717,2294.638420,-9178.553681,1149.143247
59254.455027,1184.329507,-9548.656652,3217.601092
59254.455336,888.247130,-10955.047942,2298.286494
59254.455646,444.123565,-10436.903782,1991.848295
59254.455956,148.041188,-9992.780217,2987.772442
59254.456265,1406.391290,-9474.636058,2681.334243
59254.456575,1110.308913,-6513.812290,-76.609550
59254.456885,0.000000,-3627.009116,0.000000
59254.457195,4663.297435,-8290.306550,-76.609550
59254.457504,1110.308913,-7476.080014,-536.266849
59254.457814,1702.473667,-12435.459826,-383.047749
59254.458124,-1776.494261,-14434.015869,-842.705048
59254.458433,-3552.988522,-15470.304188,-612.876398
59254.458743,-3330.926739,-13915.871710,-306.438199
59254.459053,-1406.391290,-10066.800811,1225.752797
59254.459362,2294.638420,-7179.997637,4290.134789
59254.459672,4663.297435,-4737.318029,4213.525239
59254.459982,1998.556043,-1258.350101,306.438199
59254.460291,5551.544565,-6883.915261,6052.154434
59254.460601,1998.556043,-7105.977043,1762.019645
59254.460911,-444.123565,-10362.883188,1762.019645
59254.461220,-4589.276840,-12509.480420,-2834.553343
59254.461530,-6735.874072,-14285.974681,-3370.820191
59254.461840,-6809.894666,-13397.727550,-3907.087040
59254.462149,-4811.338623,-11029.068536,-4290.134789
59254.462459,-2368.659014,-7772.162391,0.000000
59254.462769,2590.720797,-8068.244768,2757.943793
59254.463078,5255.462188,-7105.977043,4213.525239
59254.463388,2960.823768,-5403.503377,3677.258390
59254.463698,6883.915261,-10362.883188,6052.154434
59254.464007,1776.494261,-11103.089130,5362.668486
59254.464317,-1258.350101,-11251.130318,1149.143247
59254.464627,-3478.967927,-11325.150913,-612.876398
59254.464936,-4885.359217,-9918.759623,-1762.019645
59254.465246,-4885.359217,-7772.162391,-3064.381992
59254.465556,-5773.606348,-5403.503377,-2451.505594
59254.465865,-1776.494261,-6587.832884,612.876398
59254.466175,2294.638420,-9474.636058,4213.525239
59254.466485,0.000000,-5995.668130,306.438199
59254.466794,1184.329507,-9844.739029,3217.601092
59254.467104,0.000000,-10732.986159,3064.381992
59254.467414,222.061783,-10658.965565,1838.629195
59254.467724,-444.123565,-9992.780217,995.924147
59254.468033,-592.164754,-7846.182985,689.485948
59254.468343,0.000000,-5107.421000,-229.828649
59254.468653,0.000000,-3627.009116,-2451.505594
59254.468962,592.164754,-5995.668130,612.876398
59254.469272,3478.967927,-11843.295072,-76.609550
59254.469582,-962.267725,-10066.800811,-1762.019645
59254.469891,-1776.494261,-14285.974681,1685.410096
59254.470201,-2812.782580,-14285.974681,0.000000
59254.470511,-1998.556043,-13619.789333,229.828649
59254.470821,-740.205942,-9622.677246,1455.581446
59254.471130,1406.391290,-6069.688724,2681.334243
59254.471440,2886.803174,-4737.318029,4213.525239
59254.471750,3478.967927,-3182.885551,2374.896044
59254.472060,1776.494261,-4811.338623,2451.505594
59254.472370,3478.967927,-11103.089130,4826.401637
59254.472679,-2146.597232,-9770.718434,-1608.800546
59254.472989,-4145.153275,-12805.562797,-1225.752797
59254.473299,-7105.977043,-11917.315666,-4290.134789
59254.473609,-5921.647536,-12657.521608,-3064.381992
59254.473919,-3627.009116,-9622.677246,-2451.505594
59254.474229,-814.226536,-7254.018232,76.609550
59254.474538,2368.659014,-7105.977043,2374.896044
59254.474848,5551.544565,-6513.812290,3600.648841
59254.475158,4367.215058,-6809.894666,3447.429741
59254.475468,0.000000,-7179.997637,2451.505594
59254.475778,3478.967927,-13027.624579,3600.648841
59254.476087,-3552.988522,-9548.656652,0.000000
59254.476397,-4737.318029,-9548.656652,-2145.067394
59254.476707,-4367.215058,-9326.594869,-1532.190996
59254.477017,-3849.070898,-7402.059420,-1072.533697
59254.477327,-2886.803174,-6661.853478,-383.047749
59254.477637,-74.020594,-8290.306550,2374.896044
59254.477946,3478.967927,-9474.636058,4826.401637
59254.478256,2294.638420,-8882.471304,2374.896044
59254.478566,0.000000,-7772.162391,1225.752797
59254.478876,2294.638420,-11843.295072,2374.896044
59254.479186,-2368.659014,-9548.656652,0.000000
59254.479495,-666.185348,-9474.636058,229.828649
59254.479805,-1110.308913,-7624.121203,459.657299
59254.480115,-148.041188,-5921.647536,0.000000
59254.480425,666.185348,-5329.482782,-459.657299
59254.480735,2368.659014,-7179.997637,2451.505594
59254.481045,2442.679609,-11251.130318,3447.429741
59254.481354,1110.308913,-13027.624579,-76.609550
59254.481664,-4737.318029,-11917.315666,-2451.505594
59254.481974,-1258.350101,-16284.530724,1149.143247
59254.482284,-3552.988522,-9548.656652,-1915.238745
59254.482594,1110.308913,-9178.553681,2374.896044
59254.482903,1480.411884,-5107.421000,2604.724693
59254.483213,2442.679609,-4145.153275,3677.258390
59254.483523,2960.823768,-4515.256246,3447.429741
59254.483833,1776.494261,-5995.668130,3064.381992
59254.484143,296.082377,-9844.739029,3064.381992
59254.484452,-1850.514855,-12731.542202,-76.609550
59254.484762,-9178.553681,-10732.986159,-4903.011187
59254.485072,-4811.338623,-15174.221811,-1378.971896
59254.485382,-5699.585753,-10066.800811,-3140.991542
59254.485692,-222.061783,-9474.636058,-76.609550
59254.486002,518.144159,-7105.977043,1149.143247
59254.486311,3034.844362,-5699.585753,2757.943793
59254.486621,5033.400406,-6587.832884,4136.915689
59254.486931,2960.823768,-7179.997637,2451.505594
59254.487241,2368.659014,-9548.656652,3677.258390
59254.487551,0.000000,-12065.356855,2757.943793
59254.487860,-2442.679609,-11843.295072,-689.485948
59254.488170,-5329.482782,-10732.986159,0.000000
59254.488480,-3034.844362,-11843.295072,-76.609550
59254.488790,-3404.947333,-7994.224174,689.485948
59254.489100,-1332.370696,-6217.729913,689.485948
59254.489410,814.226536,-6365.771101,1838.629195
59254.489719,2220.617826,-7179.997637,2834.553343
59254.490029,814.226536,-6587.832884,459.657299
59254.490339,0.000000,-7179.997637,306.438199
59254.490649,592.164754,-11325.150913,2451.505594
59254.490959,-74.020594,-11843.295072,-76.609550
59254.491268,-2368.659014,-9548.656652,306.438199
59254.491578,-74.020594,-9474.636058,-76.609550
59254.491888,0.000000,-5995.668130,0.000000
59254.492198,962.267725,-6809.894666,229.828649
59254.492508,1554.432478,-7698.141797,153.219100
59254.492818,1480.411884,-10288.862594,459.657299
59254.493127,-74.020594,-11843.295072,-76.609550
59254.493437,-3923.091493,-11917.315666,-1915.238745
59254.493747,-3552.988522,-11917.315666,0.000000
59254.494057,1110.308913,-12509.480420,3600.648841
59254.494367,0.000000,-5699.585753,919.314598
59254.494676,4145.153275,-6365.771101,5209.449386
59254.494986,1184.329507,-2738.761985,2451.505594
59254.495296,2442.679609,-5773.606348,2987.772442
59254.495606,1184.329507,-8586.388927,1838.629195
59254.495916,-962.267725,-11029.068536,0.000000
59254.496226,-2442.679609,-13619.789333,-1302.362347
59254.496535,-4811.338623,-13619.789333,-3140.991542
59254.496845,-6957.935855,-11325.150913,-4903.011187
59254.497155,-1258.350101,-13027.624579,-76.609550
59254.497465,-1998.556043,-6291.750507,-1072.533697
59254.497775,592.164754,-4811.338623,2451.505594
59254.498084,2368.659014,-3923.091493,2451.505594
59254.498394,4959.379811,-6587.832884,3983.696590
59254.498704,4367.215058,-8586.388927,4290.134789
59254.499014,1702.473667,-10584.944971,2451.505594
59254.499324,-74.020594,-14211.954086,1762.019645
59254.499634,-2442.679609,-13915.871710,-1302.362347
59254.499943,-5995.668130,-9548.656652,-4366.744339
59254.500253,-4737.318029,-9548.656652,0.000000
59254.500563,-2442.679609,-7994.224174,-689.485948
59254.500873,-3552.988522,-3034.844362,0.000000
59254.501183,962.267725,-5033.400406,2374.896044
59254.501492,3108.864956,-6439.791695,3907.087040
59254.501802,2960.823768,-8438.347739,3600.648841
59254.502112,1110.308913,-9844.739029,2681.334243
59254.502422,1702.473667,-12435.459826,3370.820191
59254.502732,-74.020594,-13619.789333,-76.609550
59254.503041,-1258.350101,-10658.965565,-689.485948
59254.503351,-3552.988522,-5995.668130,-2451.505594
59254.503661,-74.020594,-8290.306550,-76.609550
59254.503971,-1110.308913,-5107.421000,-2451.505594
59254.504281,1702.473667,-8586.388927,-229.828649
59254.504591,888.247130,-11029.068536,842.705048
59254.504900,-148.041188,-13397.727550,1225.752797
59254.505210,-1628.453072,-12879.583391,612.876398
59254.505520,-1184.329507,-11917.315666,2757.943793
59254.505830,1776.494261,-10510.924376,4826.401637
59254.506140,2886.803174,-7105.977043,3600.648841
59254.506449,0.000000,-1258.350101,1225.752797
59254.506759,2960.823768,-5107.421000,3370.820191
59254.507069,2886.803174,-6513.812290,842.705048
59254.507379,1702.473667,-10658.965565,1149.143247
59254.507689,-2590.720797,-11547.212695,-1915.238745
59254.507999,-4737.318029,-13841.851115,-2834.553343
59254.508308,-6661.853478,-14285.974681,-3447.429741
59254.508618,-7105.977043,-11917.315666,-2451.505594
59254.508928,-3256.906145,-10140.821405,0.000000
59254.509238,2294.638420,-9474.636058,3600.648841
59254.509548,1406.391290,-3330.926739,842.705048
59254.509857,4737.318029,-4811.338623,4290.134789
59254.510167,8216.285956,-7105.977043,4826.401637
59254.510477,5847.626942,-9474.636058,5439.278036
59254.510787,666.185348,-10362.883188,1762.019645
59254.511097,-2442.679609,-12065.356855,-306.438199
59254.511407,-5107.421000,-13027.624579,-1685.410096
59254.511716,-8290.306550,-9548.656652,-4290.134789
59254.512026,-7105.977043,-8364.327145,-2451.505594
59254.512336,-4737.318029,-7179.997637,0.000000
59254.512646,-74.020594,-8290.306550,2374.896044
59254.512956,0.000000,-5699.585753,1685.410096
59254.513265,4663.297435,-9474.636058,6052.154434
59254.513575,3552.988522,-8734.430116,5209.449386
59254.513885,1850.514855,-9030.512492,2528.115143
59254.514195,-370.102971,-10066.800811,995.924147
59254.514505,-1554.432478,-10214.842000,0.000000
59254.514815,-1998.556043,-7772.162391,-2911.162892
59254.515124,-3849.070898,-5995.668130,-2451.505594
59254.515434,-2368.659014,-5995.668130,0.000000
59254.515744,2886.803174,-9474.636058,-76.609550
59254.516054,0.000000,-8364.327145,-1225.752797
59254.516364,2294.638420,-14211.954086,3524.039291
59254.516673,-1628.453072,-13027.624579,76.609550
59254.516983,-1702.473667,-13249.686362,459.657299
59254.517293,-1036.288319,-11473.192101,1302.362347
59254.517603,888.247130,-8290.306550,2834.553343
59254.517913,2294.638420,-4145.153275,2374.896044
59254.518223,1332.370696,-1036.288319,2068.457845
59254.518532,0.000000,-1554.432478,1225.752797
59254.518842,2960.823768,-7772.162391,3677.258390
59254.519152,1998.556043,-11251.130318,1149.143247
59254.519462,-2368.659014,-12213.398043,0.000000
59254.519772,-6513.812290,-13249.686362,-3677.258390
59254.520081,-6809.894666,-15248.242405,-3064.381992
59254.520391,-4811.338623,-12435.459826,-2528.115143
59254.520701,-2146.597232,-9474.636058,-842.705048
59254.521011,2294.638420,-7105.977043,2374.896044
59254.521321,4663.297435,-3552.988522,2374.896044
59254.521630,4663.297435,-3256.906145,2834.553343
59254.521940,5921.647536,-6587.832884,5515.887586
59254.522250,4071.132681,-9178.553681,3294.210641
59254.522560,0.000000,-9548.656652,1225.752797
59254.522870,-4441.235652,-11917.315666,-1685.410096
59254.523180,-5699.585753,-12953.603985,-2451.505594
59254.523489,-5921.647536,-10807.006753,-2604.724693
59254.523799,-5403.503377,-8438.347739,-1991.848295
59254.524109,-666.185348,-8290.306550,-76.609550
59254.524419,2294.638420,-7105.977043,3600.648841
59254.524729,1702.473667,-5329.482782,1149.143247
59254.525038,2960.823768,-7179.997637,4903.011187
59254.525348,3182.885551,-8142.265362,3294.210641
59254.525658,0.000000,-7179.997637,1532.190996
59254.525968,-814.226536,-9696.697840,229.828649
59254.526278,-1850.514855,-9992.780217,-383.047749
59254.526588,-1702.473667,-8882.471304,-842.705048
59254.526897,-1406.391290,-7624.121203,-1149.143247
59254.527207,-74.020594,-9178.553681,-76.609550
59254.527517,2886.803174,-9474.636058,1455.581446
59254.527827,3478.967927,-9474.636058,-76.609550
59254.528137,-2368.659014,-10732.986159,0.000000
59254.528446,-74.020594,-14211.954086,2374.896044
59254.528756,-4737.318029,-9548.656652,0.000000
59254.529066,-666.185348,-10955.047942,1149.143247
59254.529376,666.185348,-7624.121203,2451.505594
59254.529686,1776.494261,-4663.297435,2757.943793
59254.529996,2516.700203,-3330.926739,2911.162892
59254.530305,2368.659014,-5403.503377,4290.134789
59254.530615,3256.906145,-8660.409521,2451.505594
59254.530925,2294.638420,-13027.624579,2374.896044
59254.531235,-3923.091493,-11103.089130,-3140.991542
59254.531545,-5921.647536,-14582.057057,-2145.067394
59254.531854,-5995.668130,-13619.789333,-4366.744339
59254.532164,-3627.009116,-12287.418637,-1378.971896
59254.532474,-2072.576638,-8142.265362,0.000000
59254.532784,1480.411884,-5551.544565,2145.067394
59254.533094,4367.215058,-4071.132681,3294.210641
59254.533404,4737.318029,-3627.009116,5209.449386
59254.533713,4737.318029,-7179.997637,3064.381992
59254.534023,4663.297435,-11843.295072,4826.401637
59254.534333,-2738.761985,-10140.821405,-1532.190996
59254.534643,-4071.132681,-14211.954086,-76.609550
59254.534953,-4811.338623,-12731.542202,-2528.115143
59254.535262,-4811.338623,-11029.068536,-1608.800546
59254.535572,-3923.091493,-7402.059420,-1455.581446
59254.535882,-888.247130,-6365.771101,1225.752797
59254.536192,1628.453072,-5477.523971,2604.724693
59254.536502,1184.329507,-4811.338623,2451.505594
59254.536812,2368.659014,-5995.668130,1225.752797
59254.537121,4293.194464,-11177.109724,5132.839837
59254.537431,814.226536,-9474.636058,536.266849
59254.537741,-1776.494261,-10436.903782,1225.752797
59254.538051,-74.020594,-11843.295072,-76.609550
59254.538361,-1776.494261,-8660.409521,-1149.143247
59254.538670,-962.267725,-7105.977043,-1608.800546
59254.538980,0.000000,-6883.915261,-1149.143247
59254.539290,740.205942,-8068.244768,153.219100
59254.539600,0.000000,-8660.409521,-1378.971896
59254.539910,-2368.659014,-11029.068536,-1302.362347
59254.540219,-3256.906145,-12509.480420,612.876398
59254.540529,-74.020594,-14211.954086,1762.019645
59254.540839,0.000000,-9548.656652,0.000000
59254.541149,3923.091493,-9474.636058,6052.154434
59254.541459,1480.411884,-3404.947333,2757.943793
59254.541769,2294.638420,-4145.153275,2604.724693
59254.542078,1702.473667,-5921.647536,1762.019645
59254.542388,592.164754,-9252.574275,919.314598
59254.542698,-1258.350101,-11251.130318,-1302.362347
59254.543008,-4367.215058,-14211.954086,-2528.115143
59254.543318,-8290.306550,-12509.480420,-4903.011187
59254.543627,-5033.400406,-13915.871710,-1532.190996
59254.543937,-2442.679609,-10658.965565,-76.609550
59254.544247,0.000000,-8364.327145,2451.505594
59254.544557,1480.411884,-3701.029710,1991.848295
59254.544867,4367.215058,-4811.338623,4136.915689
59254.545177,5329.482782,-6143.709319,4596.572988
59254.545486,4293.194464,-8364.327145,3983.696590
59254.545796,2294.638420,-10658.965565,3600.648841
59254.546106,-1850.514855,-14211.954086,-76.609550
59254.546416,-8290.306550,-10732.986159,-3677.258390
59254.546726,-5033.400406,-13397.727550,-1302.362347
59254.547035,-5699.585753,-7846.182985,-3140.991542
59254.547345,-4737.318029,-6587.832884,612.876398
59254.547655,-1184.329507,-4811.338623,459.657299
59254.547965,2072.576638,-5403.503377,3064.381992
59254.548275,3849.070898,-6735.874072,4903.011187
59254.548585,3849.070898,-7402.059420,3983.696590
59254.548894,4663.297435,-10658.965565,4826.401637
59254.549204,2294.638420,-13027.624579,4213.525239
59254.549514,-1850.514855,-10066.800811,-1302.362347
59254.549824,-2072.576638,-10732.986159,0.000000
59254.550134,-1258.350101,-9474.636058,-1302.362347
59254.550443,-3552.988522,-4811.338623,-2451.505594
59254.550753,-370.102971,-7698.141797,-1302.362347
59254.551063,1184.329507,-8142.265362,153.219100
59254.551373,1480.411884,-11103.089130,842.705048
59254.551683,592.164754,-12509.480420,2068.457845
59254.551993,1480.411884,-13989.892304,2757.943793
59254.552302,1480.411884,-13397.727550,3830.477490
59254.552612,1110.308913,-8290.306550,1149.143247
59254.552922,1184.329507,-6587.832884,3217.601092
59254.553232,2886.803174,-7105.977043,4213.525239
59254.553542,0.000000,-1258.350101,689.485948
59254.553851,2294.638420,-7105.977043,2068.457845
59254.554161,222.061783,-9844.739029,689.485948
59254.554471,-2220.617826,-11843.295072,-1072.533697
59254.554781,-4515.256246,-14285.974681,-2451.505594
59254.555091,-6513.812290,-14285.974681,-2451.505594
59254.555400,-5921.647536,-11917.315666,0.000000
59254.555710,-74.020594,-10658.965565,-76.609550
59254.556020,74.020594,-5403.503377,536.266849
59254.556330,1184.329507,-2442.679609,2451.505594
59254.556640,5551.544565,-3849.070898,3140.991542
59254.556950,5847.626942,-6439.791695,4826.401637
59254.557259,3478.967927,-8586.388927,3294.210641
59254.557569,-222.061783,-11177.109724,612.876398
59254.557879,-4145.153275,-12953.603985,-1149.143247
59254.558189,-7994.224174,-11917.315666,-3677.258390
59254.558499,-9474.636058,-9548.656652,-4290.134789
59254.558808,-3701.029710,-10658.965565,-229.828649
59254.559118,-2442.679609,-5921.647536,-383.047749
59254.559428,296.082377,-7179.997637,4903.011187
59254.559738,4663.297435,-5921.647536,2374.896044
59254.560048,4145.153275,-6587.832884,4979.620737
59254.560358,4071.132681,-7920.203579,4213.525239
59254.560667,1702.473667,-8956.491898,2298.286494
59254.560977,-592.164754,-10955.047942,689.485948
59254.561287,-3849.070898,-9696.697840,-1838.629195
59254.561597,-4737.318029,-7328.038826,-4290.134789
59254.561907,-2960.823768,-8956.491898,-919.314598
59254.562216,-74.020594,-8290.306550,-689.485948
59254.562526,0.000000,-5403.503377,0.000000
59254.562836,3478.967927,-9474.636058,1762.019645
59254.563146,296.082377,-10732.986159,383.047749
59254.563456,0.000000,-12435.459826,1608.800546
59254.563766,-148.041188,-12509.480420,1608.800546
59254.564075,518.144159,-10658.965565,1685.410096
59254.564385,1110.308913,-8290.306550,1762.019645
59254.564695,1702.473667,-3552.988522,1149.143247
59254.565005,592.164754,-3627.009116,2451.505594
59254.565315,2886.803174,-6513.812290,2374.896044
59254.565624,-1702.473667,-5107.421000,-2068.457845
59254.565934,-74.020594,-11843.295072,2068.457845
59254.566244,-2812.782580,-11621.233289,-1838.629195
59254.566554,-4737.318029,-14359.995275,-2068.457845
59254.566864,-5477.523971,-14508.036463,-2451.505594
59254.567174,-3404.947333,-11473.192101,-1225.752797
59254.567483,-74.020594,-9474.636058,2374.896044
59254.567793,2294.638420,-4737.318029,1149.143247
59254.568103,2368.659014,-2442.679609,2451.505594
59254.568413,6883.915261,-6735.874072,6052.154434
59254.568723,1776.494261,-4811.338623,1225.752797
59254.569032,2368.659014,-11029.068536,4290.134789
59254.569342,-1554.432478,-11769.274478,-536.266849
59254.569652,-5033.400406,-13989.892304,-1991.848295
59254.569962,-7105.977043,-13397.727550,-2911.162892
59254.570272,-6661.853478,-10955.047942,-2834.553343
59254.570582,-2442.679609,-9474.636058,-76.609550
59254.570891,-74.020594,-8882.471304,2374.896044
59254.571201,370.102971,-3034.844362,1532.190996
59254.571511,4145.153275,-5699.585753,5745.716235
59254.571821,2590.720797,-4219.173869,2834.553343
59254.572131,2960.823768,-7772.162391,3677.258390
59254.572440,814.226536,-9918.759623,1455.581446
59254.572752,-2146.597232,-10955.047942,-306.438199
59254.573062,-3256.906145,-11399.171507,-1685.410096
59254.573372,-3404.947333,-10288.862594,-1991.848295
59254.573682,-2294.638420,-9252.574275,-2145.067394
59254.573991,-296.082377,-8364.327145,153.219100
59254.574301,2294.638420,-8290.306550,-76.609550
59254.574611,296.082377,-8216.285956,536.266849
59254.574920,592.164754,-11917.315666,3064.381992
59254.575230,1110.308913,-14211.954086,3294.210641
59254.575540,-1776.494261,-10732.986159,0.000000
59254.575850,2294.638420,-13027.624579,4826.401637
59254.576159,814.226536,-7031.956449,2604.724693
59254.576469,1036.288319,-4219.173869,2298.286494
59254.576779,3182.885551,-5921.647536,2987.772442
59254.577088,3478.967927,-8882.471304,2987.772442
59254.577398,-74.020594,-8290.306550,-383.047749
59254.577708,-2368.659014,-10732.986159,0.000000
59254.578018,-1258.350101,-14211.954086,-1302.362347
59254.578327,-7105.977043,-13397.727550,-2451.505594
59254.578637,-4811.338623,-13323.706956,-2528.115143
59254.578947,-2960.823768,-10436.903782,-919.314598
59254.579256,222.061783,-7402.059420,842.705048
59254.579566,2738.761985,-4885.359217,2987.772442
59254.579876,5477.523971,-5255.462188,3983.696590
59254.580186,8216.285956,-7105.977043,6894.859482
59254.580495,4367.215058,-6957.935855,2987.772442
59254.580805,296.082377,-9548.656652,2451.505594
59254.581115,-74.020594,-14211.954086,-383.047749
59254.581424,-8290.306550,-11917.315666,-3370.820191
59254.581734,-6291.750507,-13027.624579,-3294.210641
59254.582044,-5699.585753,-9918.759623,-2451.505594
59254.582354,-3108.864956,-7105.977043,-459.657299
59254.582663,-370.102971,-5773.606348,1455.581446
59254.582973,2368.659014,-5107.421000,2451.505594
59254.583283,3552.988522,-6587.832884,5822.325785
59254.583592,7031.956449,-7698.141797,4826.401637
59254.583902,1628.453072,-7254.018232,1225.752797
59254.584212,2294.638420,-13027.624579,3600.648841
59254.584522,-2886.803174,-8956.491898,-766.095498
59254.584831,-2442.679609,-11843.295072,-766.095498
59254.585141,-3182.885551,-9696.697840,-2221.676944
59254.585451,-1924.535449,-7846.182985,-2145.067394
59254.585760,-370.102971,-7698.141797,-689.485948
59254.586070,296.082377,-5995.668130,0.000000
59254.586380,0.000000,-8364.327145,0.000000
59254.586690,3034.844362,-13323.706956,3600.648841
59254.586999,222.061783,-10214.842000,-689.485948
59254.587309,1184.329507,-12509.480420,3677.258390
59254.587619,518.144159,-9326.594869,1225.752797
59254.587928,1184.329507,-6587.832884,2451.505594
59254.588238,1184.329507,-4367.215058,1915.238745
59254.588548,1036.288319,-4145.153275,1455.581446
59254.588858,222.061783,-6587.832884,842.705048
59254.589167,-1702.473667,-7698.141797,0.000000
59254.589477,-3552.988522,-9548.656652,-2451.505594
59254.589787,-2960.823768,-14285.974681,-1532.190996
59254.590096,-4811.338623,-14285.974681,-4136.915689
59254.590406,-6513.812290,-11917.315666,-2451.505594
59254.590716,-666.185348,-9474.636058,-1302.362347
59254.591026,296.082377,-7179.997637,2145.067394
59254.591335,3923.091493,-4071.132681,3600.648841
59254.591645,4885.359217,-4219.173869,4290.134789
59254.591955,5551.544565,-5847.626942,6052.154434
59254.592264,2886.803174,-8290.306550,2374.896044
59254.592574,-1850.514855,-9030.512492,-1302.362347
59254.592884,-4737.318029,-13693.809927,-1225.752797
59254.593194,-5403.503377,-14211.954086,-3140.991542
59254.593503,-7994.224174,-11325.150913,-3064.381992
59254.593813,-3627.009116,-10066.800811,-689.485948
59254.594123,-2812.782580,-6365.771101,0.000000
59254.594432,444.123565,-6513.812290,2757.943793
59254.594742,2664.741391,-5181.441594,3983.696590
59254.595052,4145.153275,-6365.771101,5209.449386
59254.595362,4663.297435,-8290.306550,4826.401637
59254.595671,3182.885551,-9474.636058,2374.896044
59254.595981,-2960.823768,-9548.656652,0.000000
59254.596291,-2146.597232,-14211.954086,-76.609550
59254.596600,-3404.947333,-10732.986159,-1455.581446
59254.596910,-3034.844362,-8438.347739,-4060.306139
59254.597220,-1406.391290,-7920.203579,-1378.971896
59254.597530,-666.185348,-7105.977043,-689.485948
59254.597839,1480.411884,-8290.306550,1149.143247
59254.598149,1998.556043,-10214.842000,2911.162892
59254.598459,1998.556043,-11843.295072,2374.896044
59254.598768,-74.020594,-12731.542202,1149.143247
59254.599078,0.000000,-10732.986159,1225.752797
59254.599388,1110.308913,-9474.636058,1149.143247
59254.599698,0.000000,-4811.338623,1225.752797
59254.600007,2294.638420,-5921.647536,3600.648841
59254.600317,222.061783,-4811.338623,1302.362347
59254.600627,444.123565,-7105.977043,612.876398
59254.600936,222.061783,-9770.718434,-306.438199
59254.601246,-1036.288319,-11695.253884,0.000000
59254.601556,-4219.173869,-13915.871710,-842.705048
59254.601866,-3627.009116,-14211.954086,-2528.115143
59254.602175,-4737.318029,-11029.068536,-1838.629195
59254.602485,-74.020594,-11843.295072,2374.896044
59254.602795,0.000000,-3627.009116,612.876398
59254.603104,4959.379811,-5329.482782,3600.648841
59254.603414,4663.297435,-4811.338623,3600.648841
59254.603724,4737.318029,-6439.791695,3217.601092
59254.604034,2590.720797,-9326.594869,2374.896044
59254.604343,-1036.288319,-11695.253884,306.438199
59254.604653,-5403.503377,-14211.954086,-1915.238745
59254.604963,-7476.080014,-12139.377449,-4213.525239
59254.605272,-5329.482782,-12583.501014,-1532.190996
59254.605582,-3034.844362,-7994.224174,-2528.115143
59254.605892,-2368.659014,-5995.668130,1225.752797
59254.606202,3478.967927,-5921.647536,4213.525239
59254.606511,2960.823768,-3923.091493,4826.401637
59254.606821,4441.235652,-5995.668130,4903.011187
59254.607131,3701.029710,-7624.121203,3600.648841
59254.607440,740.205942,-9474.636058,1838.629195
59254.607750,-666.185348,-11843.295072,-76.609550
59254.608060,-2442.679609,-11843.295072,-2528.115143
59254.608370,-5921.647536,-9548.656652,-3064.381992
59254.608679,-1850.514855,-11843.295072,-76.609550
59254.608989,-1850.514855,-6513.812290,-3140.991542
59254.609299,1702.473667,-7698.141797,-76.609550
59254.609608,1332.370696,-8808.450710,842.705048
59254.609918,1554.432478,-10658.965565,1915.238745
59254.610228,1628.453072,-12213.398043,2145.067394
59254.610538,888.247130,-12287.418637,1225.752797
59254.610847,2294.638420,-11695.253884,4519.963438
59254.611157,2294.638420,-9474.636058,2374.896044
59254.611467,0.000000,-3701.029710,612.876398
59254.611776,1258.350101,-6513.812290,2987.772442
59254.612086,-2368.659014,-3627.009116,0.000000
59254.612396,592.164754,-9326.594869,2221.676944
59254.612706,-444.123565,-10510.924376,-153.219100
59254.613015,-2220.617826,-12065.356855,-1532.190996
59254.613325,-3627.009116,-13915.871710,-1915.238745
59254.613635,-5033.400406,-13397.727550,-3064.381992
59254.613944,-2220.617826,-11399.171507,0.000000
59254.614254,2294.638420,-10658.965565,2834.553343
59254.614564,1850.514855,-4589.276840,1608.800546
59254.614874,3552.988522,-4811.338623,4903.011187
59254.615183,5255.462188,-4737.318029,2987.772442
59254.615493,2516.700203,-7179.997637,3677.258390
59254.615803,1702.473667,-10066.800811,1608.800546
59254.616112,-2294.638420,-12953.603985,-383.047749
59254.616422,-5921.647536,-14137.933492,-2374.896044
59254.616732,-5995.668130,-12879.583391,-3753.867940
59254.617042,-5921.647536,-10140.821405,-3370.820191
59254.617351,-3552.988522,-7920.203579,612.876398
59254.617661,1702.473667,-7105.977043,4826.401637
59254.617971,1110.308913,-2516.700203,1915.238745
59254.618281,3552.988522,-5995.668130,7354.516781
59254.618590,4219.173869,-5995.668130,5209.449386
59254.618900,3404.947333,-8512.368333,3907.087040
59254.619210,-444.123565,-10140.821405,995.924147
59254.619519,-3034.844362,-11399.171507,-1149.143247
59254.619829,-4145.153275,-11251.130318,-1915.238745
59254.620139,-5847.626942,-8956.491898,-4826.401637
59254.620449,-4737.318029,-7179.997637,-2451.505594
59254.620758,-74.020594,-8290.306550,-76.609550
59254.621068,2294.638420,-7105.977043,-76.609550
59254.621378,1184.329507,-7772.162391,2451.505594
59254.621687,2368.659014,-9548.656652,2451.505594
59254.621997,2294.638420,-11843.295072,2987.772442
59254.622307,1036.288319,-11547.212695,2298.286494
59254.622617,222.061783,-10584.944971,1991.848295
59254.622926,370.102971,-9178.553681,2374.896044
59254.623236,-1332.370696,-4071.132681,1149.143247
59254.623546,-2368.659014,-3034.844362,0.000000
59254.623855,-1184.329507,-6587.832884,0.000000
59254.624165,-74.020594,-9474.636058,-76.609550
59254.624475,-2368.659014,-9548.656652,0.000000
59254.624785,-3775.050304,-11325.150913,-2528.115143
59254.625094,-4145.153275,-13915.871710,-1762.019645
59254.625404,-3701.029710,-12287.418637,-1302.362347
59254.625714,-1776.494261,-10288.862594,229.828649
59254.626023,2294.638420,-9474.636058,2987.772442
59254.626333,4071.132681,-5329.482782,3600.648841
59254.626643,3034.844362,-2738.761985,1838.629195
59254.626953,4885.359217,-5995.668130,4826.401637
59254.627262,1406.391290,-6365.771101,689.485948
59254.627572,1184.329507,-11473.192101,612.876398
59254.627882,-3923.091493,-13027.624579,-2528.115143
59254.628191,-6661.853478,-14582.057057,-2911.162892
59254.628501,-6587.832884,-12731.542202,-3064.381992
59254.628811,-5551.544565,-10288.862594,-1838.629195
59254.629121,-1184.329507,-8068.244768,1378.971896
59254.629430,1702.473667,-7105.977043,4213.525239
59254.629740,3478.967927,-4145.153275,3907.087040
59254.630050,4737.318029,-4219.173869,4903.011187
59254.630359,8216.285956,-9474.636058,7277.907231
59254.630669,1406.391290,-6587.832884,229.828649
59254.630979,-666.185348,-10955.047942,-76.609550
59254.631289,-3997.112087,-11843.295072,-1608.800546
59254.631598,-4885.359217,-11917.315666,-2451.505594
59254.631908,-4885.359217,-9918.759623,-3907.087040
59254.632218,-4441.235652,-7179.997637,-2451.505594
59254.632527,-74.020594,-8216.285956,1149.143247
59254.632837,3478.967927,-8882.471304,2068.457845
59254.633147,2886.803174,-7254.018232,1149.143247
59254.633457,3552.988522,-10732.986159,4903.011187
59254.633766,3182.885551,-11843.295072,2374.896044
59254.634076,2886.803174,-12435.459826,2757.943793
59254.634386,0.000000,-10510.924376,2068.457845
59254.634695,-370.102971,-7698.141797,1608.800546
59254.635005,-444.123565,-5477.523971,919.314598
59254.635315,-2368.659014,-4219.173869,0.000000
59254.635625,0.000000,-6291.750507,612.876398
59254.635934,1702.473667,-11251.130318,1149.143247
59254.636244,-1258.350101,-9548.656652,-3677.258390
59254.636554,-1184.329507,-14508.036463,919.314598
59254.636863,-3627.009116,-14211.954086,-1302.362347
59254.637173,-2220.617826,-12435.459826,766.095498
59254.637483,-518.144159,-9474.636058,612.876398
59254.637793,1480.411884,-6587.832884,2374.896044
59254.638102,3627.009116,-4515.256246,2681.334243
59254.638412,2664.741391,-3034.844362,612.876398
59254.638722,2368.659014,-4811.338623,2451.505594
59254.639031,2368.659014,-9844.739029,3064.381992
59254.639341,-814.226536,-10658.965565,-2528.115143
59254.639651,-4293.194464,-15692.365970,-1225.752797
59254.639961,-5995.668130,-15988.448347,-2528.115143
59254.640270,-7105.977043,-11917.315666,-2298.286494
59254.640580,-4293.194464,-9178.553681,-689.485948
59254.640890,-740.205942,-6513.812290,1685.410096
59254.641199,2442.679609,-3997.112087,3600.648841
59254.641509,4663.297435,-3552.988522,4213.525239
59254.641819,3256.906145,-3627.009116,3830.477490
59254.642129,3552.988522,-7179.997637,4290.134789
59254.642438,2294.638420,-11843.295072,2374.896044
59254.642748,-4737.318029,-10732.986159,0.000000
59254.643058,-2442.679609,-15988.448347,-76.609550
59254.643367,-7105.977043,-10881.027347,-4596.572988
59254.643677,-4959.379811,-10066.800811,-3294.210641
59254.643987,-2516.700203,-8216.285956,-1991.848295
59254.644297,0.000000,-6365.771101,0.000000
59254.644606,4367.215058,-7105.977043,2374.896044
59254.644916,3775.050304,-6957.935855,2374.896044
59254.645226,2960.823768,-9548.656652,3677.258390
59254.645535,4071.132681,-14211.954086,4826.401637
59254.645845,0.000000,-9548.656652,1225.752797
59254.646155,1628.453072,-10436.903782,3217.601092
59254.646465,-2664.741391,-6587.832884,0.000000
59254.646774,-1628.453072,-5995.668130,-306.438199
59254.647084,-1776.494261,-7105.977043,-153.219100
59254.647394,-1036.288319,-7994.224174,-306.438199
59254.647703,-74.020594,-11843.295072,-76.609550
59254.648013,-74.020594,-12435.459826,-689.485948
59254.648323,-3552.988522,-11917.315666,-1608.800546
59254.648633,-1184.329507,-14582.057057,2374.896044
59254.648942,-3034.844362,-9104.533087,-1149.143247
59254.649252,0.000000,-7179.997637,1225.752797
59254.649562,2294.638420,-4737.318029,1608.800546
59254.649871,3256.906145,-4145.153275,2757.943793
59254.650181,4293.194464,-4885.359217,2681.334243
59254.650491,3108.864956,-7402.059420,1838.629195
59254.650801,2664.741391,-12509.480420,3983.696590
59254.651110,-74.020594,-15396.283594,-76.609550
59254.651420,-6439.791695,-14285.974681,-3447.429741
59254.651730,-4811.338623,-16580.613101,-76.609550
59254.652039,-5995.668130,-10066.800811,-3140.991542
59254.652349,-4737.318029,-5995.668130,0.000000
59254.652659,1110.308913,-5625.565159,2374.896044
59254.652969,2960.823768,-2960.823768,3753.867940
59254.653278,4663.297435,-3701.029710,5286.058936
59254.653588,4737.318029,-5255.462188,4826.401637
59254.653898,2664.741391,-7772.162391,4290.134789
59254.654207,-74.020594,-12435.459826,2068.457845
59254.654517,-3034.844362,-12879.583391,-1608.800546
59254.654827,-7105.977043,-11917.315666,-3677.258390
59254.655137,-3627.009116,-14211.954086,-1915.238745
59254.655446,-5107.421000,-6957.935855,-4979.620737
59254.655756,-1258.350101,-7994.224174,-995.924147
59254.656066,1110.308913,-6291.750507,842.705048
59254.656375,4145.153275,-7328.038826,3217.601092
59254.656685,4885.359217,-8808.450710,4213.525239
59254.656995,2368.659014,-9548.656652,4903.011187
59254.657305,1776.494261,-12065.356855,3677.258390
59254.657614,-74.020594,-11251.130318,2374.896044
59254.657924,-2368.659014,-8364.327145,1225.752797
59254.658234,-74.020594,-9474.636058,1762.019645
59254.658543,-1258.350101,-5625.565159,-1302.362347
59254.658853,-296.082377,-7994.224174,459.657299
59254.659163,-370.102971,-8512.368333,-383.047749
59254.659473,-518.144159,-10288.862594,-536.266849
59254.659782,-1554.432478,-11991.336260,-612.876398
59254.660092,-4737.318029,-11029.068536,-2451.505594
59254.660402,-4145.153275,-11917.315666,0.000000
59254.660711,-74.020594,-10807.006753,2374.896044
59254.661021,0.000000,-5403.503377,0.000000
59254.661331,4589.276840,-6143.709319,4290.134789
59254.661641,5847.626942,-4737.318029,3600.648841
59254.661950,4737.318029,-5403.503377,3370.820191
59254.662260,3404.947333,-8586.388927,1762.019645
59254.662570,444.123565,-11473.192101,919.314598
59254.662879,-2664.741391,-14434.015869,-919.314598
59254.663189,-5995.668130,-13989.892304,-4903.011187
59254.663499,-7698.141797,-11917.315666,-3370.820191
59254.663809,-4441.235652,-11177.109724,0.000000
59254.664118,-74.020594,-7105.977043,-76.609550
59254.664428,0.000000,-3627.009116,2451.505594
59254.664738,6439.791695,-7105.977043,7277.907231
59254.665047,4145.153275,-4811.338623,4903.011187
59254.665357,3849.070898,-7328.038826,4826.401637
59254.665667,1332.370696,-9474.636058,2374.896044
59254.665977,-1850.514855,-10881.027347,229.828649
59254.666286,-3627.009116,-11843.295072,-1302.362347
59254.666596,-6217.729913,-10436.903782,-3983.696590
59254.666906,-5921.647536,-10140.821405,-3677.258390
59254.667215,-666.185348,-10658.965565,-76.609550
59254.667525,-1850.514855,-5847.626942,-1302.362347
59254.667835,1184.329507,-7179.997637,2451.505594
59254.668145,2368.659014,-7179.997637,2451.505594
59254.668454,3923.091493,-10066.800811,3753.867940
59254.668764,1924.535449,-11029.068536,2757.943793
59254.669074,222.061783,-11547.212695,1608.800546
59254.669383,-74.020594,-11843.295072,2374.896044
59254.669693,-518.144159,-7920.203579,689.485948
59254.670003,-2368.659014,-4811.338623,0.000000
59254.670313,-74.020594,-8586.388927,2987.772442
59254.670622,-1258.350101,-5773.606348,-689.485948
59254.670932,0.000000,-7179.997637,0.000000
59254.671242,-1554.432478,-9548.656652,-1072.533697
59254.671551,-2294.638420,-12139.377449,-306.438199
59254.671861,-3478.967927,-12953.603985,-766.095498
59254.672171,-3849.070898,-11769.274478,-842.705048
59254.672480,-74.020594,-11843.295072,2374.896044
59254.672790,1702.473667,-7994.224174,1762.019645
59254.673100,1776.494261,-2738.761985,0.000000
59254.673409,4737.318029,-4811.338623,4290.134789
59254.673719,4663.297435,-5329.482782,1762.019645
59254.674029,0.000000,-5995.668130,1225.752797
59254.674339,518.144159,-11547.212695,76.609550
59254.674648,-3478.967927,-14285.974681,-1762.019645
59254.674958,-5477.523971,-15692.365970,-2451.505594
59254.675268,-6291.750507,-12805.562797,-2451.505594
59254.675577,-3256.906145,-10955.047942,-76.609550
59254.675887,-74.020594,-8512.368333,4136.915689
59254.676197,2738.761985,-5329.482782,4290.134789
59254.676506,4367.215058,-3849.070898,4673.182538
59254.676816,2368.659014,-3034.844362,3677.258390
59254.677126,4663.297435,-8290.306550,3600.648841
59254.677435,74.020594,-9104.533087,689.485948
59254.677745,-2960.823768,-11029.068536,-383.047749
59254.678055,-4737.318029,-12509.480420,-1991.848295
59254.678364,-5255.462188,-11769.274478,-3217.601092
59254.678674,-4737.318029,-9548.656652,-2451.505594
59254.678984,-2220.617826,-8364.327145,-919.314598
59254.679293,1702.473667,-9474.636058,-76.609550
59254.679603,592.164754,-4811.338623,0.000000
59254.679913,4737.318029,-9252.574275,4749.792088
59254.680222,4663.297435,-9474.636058,2987.772442
59254.680532,3478.967927,-12583.501014,4060.306139
59254.680842,222.061783,-11695.253884,1685.410096
59254.681151,-740.205942,-10436.903782,1072.533697
59254.681461,-1332.370696,-8734.430116,612.876398
59254.681771,-2368.659014,-4811.338623,0.000000
59254.682080,-1776.494261,-5995.668130,306.438199
59254.682390,-74.020594,-9474.636058,2374.896044
59254.682700,-1258.350101,-7179.997637,-1608.800546
59254.683009,0.000000,-11473.192101,1225.752797
59254.683319,-74.020594,-11843.295072,-689.485948
59254.683629,-2368.659014,-12509.480420,0.000000
59254.683938,-2220.617826,-11251.130318,153.219100
59254.684248,-666.185348,-9400.615463,1455.581446
59254.684558,1406.391290,-6957.935855,1685.410096
59254.684867,592.164754,-2442.679609,1225.752797
59254.685177,2368.659014,-3627.009116,2145.067394
59254.685487,4737.318029,-8068.244768,4903.011187
59254.685797,1110.308913,-8438.347739,229.828649
59254.686106,-74.020594,-13619.789333,536.266849
59254.686416,-2442.679609,-16580.613101,-689.485948
59254.686726,-6513.812290,-14582.057057,-2451.505594
59254.687035,-5699.585753,-11991.336260,-2068.457845
59254.687345,-3404.947333,-8734.430116,0.000000
59254.687655,-296.082377,-5921.647536,2298.286494
59254.687964,1702.473667,-2072.576638,1532.190996
59254.688274,3256.906145,-3182.885551,4903.011187
59254.688584,6513.812290,-7254.018232,7584.345430
59254.688893,2146.597232,-5773.606348,1762.019645
59254.689203,444.123565,-11769.274478,2374.896044
59254.689513,-5329.482782,-9548.656652,-2221.676944
59254.689822,-5477.523971,-12879.583391,-3140.991542
59254.690132,-5625.565159,-11917.315666,-2987.772442
59254.690442,-3701.029710,-9474.636058,-2221.676944
59254.690751,-1924.535449,-7031.956449,-995.924147
59254.691061,2516.700203,-7698.141797,2757.943793
59254.691371,4071.132681,-8290.306550,3600.648841
59254.691680,1776.494261,-5995.668130,1225.752797
59254.691990,5255.462188,-12435.459826,5439.278036
59254.692300,0.000000,-10436.903782,1302.362347
59254.692609,1702.473667,-12435.459826,1762.019645
59254.692919,-1036.288319,-10658.965565,1225.752797
59254.693229,-1776.494261,-7846.182985,229.828649
59254.693538,-1924.535449,-6587.832884,0.000000
59254.693848,-1776.494261,-6291.750507,0.000000
59254.694158,-1776.494261,-5403.503377,-2451.505594
59254.694467,0.000000,-7772.162391,0.000000
59254.694777,296.082377,-12361.439231,2451.505594
59254.695087,-1258.350101,-11843.295072,-689.485948
59254.695396,-4145.153275,-11917.315666,0.000000
59254.695706,-2960.823768,-10436.903782,612.876398
59254.696016,518.144159,-9178.553681,1762.019645
59254.696325,2146.597232,-5995.668130,2374.896044
59254.696635,3478.967927,-4145.153275,2298.286494
59254.696945,3923.091493,-4959.379811,2068.457845
59254.697255,4515.256246,-8290.306550,3140.991542
59254.697564,2886.803174,-13915.871710,3600.648841
59254.697874,-3552.988522,-11917.315666,-2451.505594
59254.698184,-3627.009116,-16580.613101,-995.924147
59254.698493,-7105.977043,-13101.645173,-4903.011187
59254.698803,-4811.338623,-11843.295072,-2068.457845
59254.699113,-2368.659014,-7920.203579,536.266849
59254.699422,1332.370696,-5255.462188,3064.381992
59254.699732,3627.009116,-3034.844362,4443.353888
59254.700042,4885.359217,-4293.194464,6665.030833
59254.700351,2960.823768,-4811.338623,3830.477490
59254.700661,0.000000,-5995.668130,612.876398
59254.700971,-74.020594,-12657.521608,2298.286494
59254.701280,-4219.173869,-12435.459826,-2374.896044
59254.701590,-7105.977043,-11917.315666,-2451.505594
59254.701900,-5625.565159,-12509.480420,-2068.457845
59254.702209,-3775.050304,-9178.553681,-2528.115143
59254.702519,-1480.411884,-6291.750507,-612.876398
59254.702829,1776.494261,-6143.709319,919.314598
59254.703138,3627.009116,-5403.503377,1149.143247
59254.703448,6143.709319,-9326.594869,4826.401637
59254.703758,6439.791695,-13027.624579,4826.401637
59254.704067,518.144159,-10140.821405,1072.533697
59254.704377,0.000000,-11769.274478,2987.772442
59254.704687,-1850.514855,-7846.182985,0.000000
59254.704996,-2886.803174,-5403.503377,-1762.019645
59254.705306,-2294.638420,-6439.791695,-306.438199
59254.705616,-1406.391290,-7105.977043,153.219100
59254.705925,-444.123565,-8290.306550,-76.609550
59254.706235,1110.308913,-11621.233289,1915.238745
59254.706545,-2368.659014,-10140.821405,-383.047749
59254.706854,-4737.318029,-10732.986159,0.000000
59254.707164,-1554.432478,-13619.789333,1149.143247
59254.707474,-2516.700203,-8364.327145,-2451.505594
59254.707783,1480.411884,-9474.636058,3677.258390
59254.708093,3775.050304,-7105.977043,3983.696590
59254.708403,3627.009116,-4367.215058,2374.896044
59254.708713,3701.029710,-5403.503377,1838.629195
59254.709022,3182.885551,-8660.409521,1838.629195
59254.709332,-1110.308913,-10140.821405,-1838.629195
59254.709642,-1480.411884,-14878.139434,-612.876398
59254.709951,-3627.009116,-16580.613101,-1915.238745
59254.710261,-8290.306550,-12509.480420,-3370.820191
59254.710571,-2960.823768,-12065.356855,2451.505594
59254.710880,-1998.556043,-5403.503377,0.000000
59254.711190,518.144159,-3034.844362,2145.067394
59254.711500,3849.070898,-3182.885551,4903.011187
59254.711809,4737.318029,-4293.194464,4903.011187
59254.712119,3923.091493,-6291.750507,4366.744339
59254.712429,2294.638420,-11251.130318,4290.134789
59254.712738,-2738.761985,-11251.130318,-383.047749
59254.713048,-7105.977043,-11917.315666,-2451.505594
59254.713358,-4811.338623,-14211.954086,-1302.362347
59254.713667,-6291.750507,-8142.265362,-5132.839837
59254.713977,-3256.906145,-7254.018232,-1915.238745
59254.714287,1110.308913,-7846.182985,1532.190996
59254.714596,3034.844362,-5921.647536,1838.629195
59254.714906,4441.235652,-8068.244768,3677.258390
59254.715216,4885.359217,-8734.430116,3983.696590
59254.715525,592.164754,-9548.656652,1225.752797
59254.715835,592.164754,-11547.212695,1838.629195
59254.716145,-74.020594,-11843.295072,1608.800546
59254.716454,-2886.803174,-7179.997637,-2451.505594
59254.716764,592.164754,-9326.594869,2834.553343
59254.717074,-1184.329507,-6883.915261,0.000000
59254.717383,-2368.659014,-6143.709319,0.000000
59254.717693,0.000000,-9104.533087,76.609550
59254.718003,-444.123565,-10510.924376,306.438199
59254.718312,-1924.535449,-11547.212695,0.000000
59254.718622,-1258.350101,-14211.954086,-76.609550
59254.718932,-3182.885551,-10658.965565,-689.485948
59254.719241,-2368.659014,-8364.327145,919.314598
59254.719551,2294.638420,-7105.977043,1762.019645
59254.719861,1184.329507,-3627.009116,2451.505594
59254.720171,5847.626942,-4737.318029,-76.609550
59254.720480,4959.379811,-6661.853478,2681.334243
59254.720790,2590.720797,-9474.636058,1455.581446
59254.721100,0.000000,-12287.418637,153.219100
59254.721409,-3701.029710,-15322.262999,-2068.457845
59254.721719,-7105.977043,-13101.645173,-2451.505594
59254.722029,-4885.359217,-14211.954086,-1685.410096
59254.722338,-2442.679609,-9474.636058,-76.609550
59254.722648,-2368.659014,-4811.338623,612.876398
59254.722958,4663.297435,-4737.318029,4826.401637
59254.723267,3552.988522,-3034.844362,5515.887586
59254.723577,3849.070898,-4219.173869,4903.011187
59254.723887,3330.926739,-7031.956449,3677.258390
59254.724196,-74.020594,-9844.739029,1149.143247
59254.724506,-3182.885551,-11621.233289,-919.314598
59254.724816,-3034.844362,-14211.954086,-2528.115143
59254.725125,-6513.812290,-11917.315666,-3370.820191
59254.725435,-5477.523971,-10288.862594,-3064.381992
59254.725745,-3182.885551,-7624.121203,-2221.676944
59254.726054,370.102971,-6735.874072,612.876398
59254.726364,2368.659014,-5995.668130,3677.258390
59254.726674,4737.318029,-8364.327145,4903.011187
59254.726983,4663.297435,-9474.636058,2987.772442
59254.727293,2368.659014,-11325.150913,3217.601092
59254.727603,-74.020594,-11843.295072,1608.800546
59254.727912,-74.020594,-11695.253884,1149.143247
59254.728222,-2960.823768,-7402.059420,0.000000
59254.728532,-2220.617826,-6809.894666,-306.438199
59254.728841,-2072.576638,-7031.956449,0.000000
59254.729151,-888.247130,-7402.059420,-306.438199
59254.729461,0.000000,-8364.327145,0.000000
59254.729770,-1184.329507,-10955.047942,1225.752797
59254.730080,-74.020594,-14211.954086,-76.609550
59254.730390,-3775.050304,-11251.130318,-1302.362347
59254.730699,-2072.576638,-10881.027347,1378.971896
59254.731009,1776.494261,-10658.965565,3600.648841
59254.731319,1702.473667,-6513.812290,2068.457845
59254.731628,1776.494261,-3627.009116,1225.752797
59254.731938,6439.791695,-7105.977043,3600.648841
59254.732248,1184.329507,-4811.338623,153.219100
59254.732558,3478.967927,-11251.130318,2374.896044
59254.732867,-814.226536,-13471.748144,-76.609550
59254.733177,-4145.153275,-15692.365970,-1838.629195
59254.733487,-6069.688724,-14582.057057,-2451.505594
59254.733796,-5181.441594,-12139.377449,-1915.238745
59254.734106,-3552.988522,-6291.750507,0.000000
59254.734416,1702.473667,-6143.709319,3140.991542
59254.734725,3627.009116,-3330.926739,4136.915689
59254.735035,5033.400406,-3775.050304,5286.058936
59254.735345,5181.441594,-5107.421000,5132.839837
59254.735654,4663.297435,-8290.306550,3600.648841
59254.735964,-370.102971,-11251.130318,-76.609550
59254.736274,-7105.977043,-10732.986159,-3677.258390
59254.736583,-4811.338623,-14211.954086,-2528.115143
59254.736893,-7105.977043,-11325.150913,-4673.182538
59254.737203,-4959.379811,-8512.368333,-3370.820191
59254.737512,-1110.308913,-7476.080014,-842.705048
59254.737822,1702.473667,-6883.915261,842.705048
59254.738132,3849.070898,-6661.853478,3217.601092
59254.738441,4811.338623,-8512.368333,4826.401637
59254.738751,6365.771101,-11251.130318,6052.154434
59254.739061,2294.638420,-11843.295072,3600.648841
59254.739370,-2368.659014,-9548.656652,0.000000
59254.739680,-1036.288319,-10732.986159,1685.410096
59254.739990,-1850.514855,-7994.224174,-76.609550
59254.740299,-2146.597232,-5921.647536,-2298.286494
59254.740609,-2072.576638,-6883.915261,0.000000
59254.740919,-814.226536,-7920.203579,76.609550
59254.741228,0.000000,-9696.697840,612.876398
59254.741538,-814.226536,-11621.233289,1762.019645
59254.741848,-1184.329507,-12805.562797,1685.410096
59254.742157,-888.247130,-13397.727550,2911.162892
59254.742467,-74.020594,-10362.883188,-76.609550
59254.742777,0.000000,-7179.997637,612.876398
59254.743086,2220.617826,-7105.977043,2374.896044
59254.743396,4071.132681,-4737.318029,229.828649
59254.743706,2960.823768,-4811.338623,1762.019645
59254.744016,3182.885551,-7772.162391,1608.800546
59254.744325,1480.411884,-10732.986159,995.924147
59254.744635,-1184.329507,-13323.706956,-76.609550
59254.744945,-4737.318029,-14878.139434,-919.314598
59254.745254,-3627.009116,-17172.777854,-76.609550
59254.745564,-4219.173869,-10658.965565,-1608.800546
59254.745874,-1776.494261,-7920.203579,1838.629195
59254.746183,2294.638420,-5847.626942,2987.772442
59254.746493,4589.276840,-3256.906145,4826.401637
59254.746803,3775.050304,-4293.194464,4596.572988
59254.747112,4219.173869,-5921.647536,4290.134789
59254.747422,1332.370696,-8660.409521,2298.286494
59254.747732,-2146.597232,-11251.130318,0.000000
59254.748041,-5921.647536,-11917.315666,-2451.505594
59254.748351,-6513.812290,-12509.480420,-2451.505594
59254.748661,-4219.173869,-11843.295072,-2528.115143
59254.748970,-4737.318029,-7476.080014,-2451.505594
59254.749280,-74.020594,-7550.100608,842.705048
59254.749590,3108.864956,-7105.977043,3600.648841
59254.749899,4441.235652,-6513.812290,3064.381992
59254.750209,4737.318029,-8808.450710,4596.572988
59254.750519,3256.906145,-10140.821405,3677.258390
59254.750828,148.041188,-10881.027347,0.000000
59254.751138,-3256.906145,-9548.656652,0.000000
59254.751448,-4737.318029,-9548.656652,0.000000
59254.751757,-74.020594,-9474.636058,-76.609550
59254.752067,-4145.153275,-5403.503377,-1225.752797
59254.752377,-518.144159,-7402.059420,995.924147
59254.752686,0.000000,-10214.842000,2298.286494
59254.752996,518.144159,-9474.636058,842.705048
59254.753306,-1110.308913,-10881.027347,459.657299
59254.753615,-2368.659014,-11991.336260,383.047749
59254.753925,-2738.761985,-10881.027347,-1685.410096
59254.754235,-1850.514855,-8586.388927,0.000000
59254.754544,-2368.659014,-4811.338623,0.000000
59254.754854,3478.967927,-7105.977043,2987.772442
59254.755164,1184.329507,-3108.864956,229.828649
59254.755474,3775.050304,-5995.668130,2681.334243
59254.755783,2368.659014,-8660.409521,2451.505594
59254.756093,1036.288319,-11843.295072,536.266849
59254.756403,-2590.720797,-14211.954086,-1762.019645
59254.756712,-5329.482782,-15470.304188,-2604.724693
59254.757022,-5181.441594,-13101.645173,-1915.238745
59254.757332,-3034.844362,-10658.965565,-76.609550
59254.757641,-1258.350101,-5107.421000,229.828649
59254.757951,2368.659014,-4219.173869,4290.134789
59254.758261,4663.297435,-3849.070898,4826.401637
59254.758570,3701.029710,-3627.009116,5745.716235
59254.758880,3108.864956,-5403.503377,3677.258390
59254.759190,814.226536,-9696.697840,2221.676944
59254.759499,-2294.638420,-11547.212695,-612.876398
59254.759809,-4589.276840,-13027.624579,-2145.067394
59254.760119,-5699.585753,-13027.624579,-2528.115143
59254.760428,-3034.844362,-11695.253884,-2528.115143
59254.760738,-1258.350101,-7994.224174,-1915.238745
59254.761048,0.000000,-5995.668130,0.000000
59254.761357,4367.215058,-7698.141797,3600.648841
59254.761667,4663.297435,-7698.141797,3830.477490
59254.761977,3552.988522,-7772.162391,3677.258390
59254.762286,2960.823768,-10732.986159,3830.477490
59254.762596,-370.102971,-11251.130318,1608.800546
59254.762906,-1480.411884,-10362.883188,536.266849
59254.763215,-1554.432478,-10658.965565,1149.143247
59254.763525,-74.020594,-8290.306550,1149.143247
59254.763835,-74.020594,-8290.306550,-76.609550
59254.764144,-2886.803174,-4811.338623,-1991.848295
59254.764454,888.247130,-9178.553681,1225.752797
59254.764764,1110.308913,-10510.924376,306.438199
59254.765073,-1776.494261,-9844.739029,-842.705048
59254.765383,-2368.659014,-11917.315666,459.657299
59254.765693,-1998.556043,-11621.233289,612.876398
59254.766002,-962.267725,-9770.718434,1302.362347
59254.766312,1998.556043,-8586.388927,2987.772442
59254.766622,2442.679609,-6809.894666,3064.381992
59254.766932,4663.297435,-5921.647536,2374.896044
59254.767241,1850.514855,-4219.173869,76.609550
59254.767551,2368.659014,-8956.491898,2451.505594
59254.767861,-74.020594,-11769.274478,-1225.752797
59254.768170,-3034.844362,-14804.118840,-2068.457845
59254.768480,-5921.647536,-14878.139434,-2911.162892
59254.768790,-5033.400406,-13397.727550,-1532.190996
59254.769099,-2812.782580,-9400.615463,153.219100
59254.769409,592.164754,-6587.832884,3064.381992
59254.769719,2368.659014,-3923.091493,4213.525239
59254.770028,4737.318029,-4515.256246,6128.763984
59254.770338,4663.297435,-4737.318029,4826.401637
59254.770648,1480.411884,-5995.668130,2451.505594
59254.770957,-74.020594,-9770.718434,229.828649
59254.771267,-2442.679609,-12435.459826,-1302.362347
59254.771577,-6439.791695,-13397.727550,-2987.772442
59254.771886,-6439.791695,-12361.439231,-3600.648841
59254.772196,-4589.276840,-10362.883188,-2528.115143
59254.772506,-2368.659014,-5995.668130,0.000000
59254.772815,0.000000,-5403.503377,1149.143247
59254.773125,592.164754,-5995.668130,1838.629195
59254.773435,5847.626942,-9474.636058,5209.449386
59254.773744,3478.967927,-8660.409521,1455.581446
59254.774054,1184.329507,-10658.965565,2374.896044
59254.774364,-74.020594,-12287.418637,2374.896044
59254.774674,-1998.556043,-9548.656652,459.657299
59254.774983,-2294.638420,-7772.162391,0.000000
59254.775293,-2220.617826,-6217.729913,-536.266849
59254.775603,-3552.988522,-4811.338623,-1838.629195
59254.775913,-1702.473667,-5403.503377,-1608.800546
59254.776223,0.000000,-6587.832884,0.000000
59254.776532,0.000000,-11325.150913,1838.629195
59254.776842,-666.185348,-13027.624579,-76.609550
59254.777152,-4737.318029,-10732.986159,0.000000
59254.777462,-1480.411884,-11843.295072,2068.457845
59254.777771,-666.185348,-8068.244768,229.828649
59254.778081,888.247130,-6883.915261,1608.800546
59254.778391,2516.700203,-4737.318029,2145.067394
59254.778701,3701.029710,-4515.256246,612.876398
59254.779011,1776.494261,-4811.338623,919.314598
59254.779320,1184.329507,-9548.656652,1838.629195
59254.779630,-74.020594,-14211.954086,-76.609550
59254.779940,-4737.318029,-13101.645173,-2451.505594
59254.780250,-5329.482782,-14285.974681,-1532.190996
59254.780559,-4293.194464,-13619.789333,-76.609550
59254.780869,-1850.514855,-8586.388927,536.266849
59254.781179,740.205942,-6291.750507,2451.505594
59254.781489,2960.823768,-3701.029710,3524.039291
59254.781799,4219.173869,-3627.009116,2528.115143
59254.782108,3478.967927,-4219.173869,3907.087040
59254.782418,1110.308913,-6143.709319,1149.143247
59254.782728,-1776.494261,-10140.821405,612.876398
59254.783038,-3034.844362,-12435.459826,-1302.362347
59254.783347,-6809.894666,-11917.315666,-2987.772442
59254.783657,-6217.729913,-11917.315666,-2451.505594
59254.783967,-3478.967927,-9474.636058,-2221.676944
59254.784277,-888.247130,-6587.832884,-612.876398
59254.784587,2220.617826,-5995.668130,1378.971896
59254.784896,3775.050304,-6143.709319,2374.896044
59254.785206,4663.297435,-9178.553681,3600.648841
59254.785516,2294.638420,-8586.388927,1455.581446
59254.785826,0.000000,-10732.986159,2451.505594
59254.786135,-222.061783,-12435.459826,2374.896044
59254.786445,-3627.009116,-9622.677246,1149.143247
59254.786755,-4293.194464,-5995.668130,0.000000
59254.787065,-2442.679609,-6957.935855,-229.828649
59254.787375,-1258.350101,-6217.729913,76.609550
59254.787684,296.082377,-6957.935855,766.095498
59254.787994,1110.308913,-9474.636058,1762.019645
59254.788304,2294.638420,-11843.295072,1149.143247
59254.788614,-74.020594,-12731.542202,-76.609550
59254.788923,-4737.318029,-10732.986159,0.000000
59254.789233,-1258.350101,-12731.542202,3294.210641
59254.789543,-666.185348,-9178.553681,306.438199
59254.789853,0.000000,-4219.173869,0.000000
59254.790163,1480.411884,-4959.379811,1225.752797
59254.790472,2664.741391,-5107.421000,1608.800546
59254.790782,2664.741391,-7476.080014,2068.457845
59254.791092,1406.391290,-11843.295072,2374.896044
59254.791402,-74.020594,-14211.954086,-1225.752797
59254.791711,-2442.679609,-16284.530724,-76.609550
59254.792021,-6809.894666,-11917.315666,-2451.505594
59254.792331,-2146.597232,-11843.295072,995.924147
59254.792641,-1554.432478,-6883.915261,0.000000
59254.792951,518.144159,-3849.070898,919.314598
59254.793260,2664.741391,-3701.029710,3600.648841
59254.793570,3923.091493,-5329.482782,4519.963438
59254.793880,3478.967927,-6661.853478,4060.306139
59254.794190,2294.638420,-10955.047942,4213.525239
59254.794499,-1924.535449,-12065.356855,0.000000
59254.794809,-2442.679609,-14211.954086,-76.609550
59254.795119,-6513.812290,-10955.047942,-3753.867940
59254.795429,-4071.132681,-11473.192101,-1302.362347
59254.795739,-3034.844362,-7179.997637,-3370.820191
59254.796048,-74.020594,-5921.647536,-76.609550
59254.796358,2368.659014,-5699.585753,1685.410096
59254.796668,4219.173869,-7476.080014,3217.601092
59254.796978,3923.091493,-9474.636058,3370.820191
59254.797287,2368.659014,-11325.150913,3677.258390
59254.797597,0.000000,-12509.480420,1762.019645
59254.797907,-1184.329507,-13101.645173,1915.238745
59254.798217,-2738.761985,-9474.636058,-995.924147
59254.798527,-2960.823768,-7179.997637,0.000000
59254.798836,-74.020594,-5255.462188,-76.609550
59254.799146,1110.308913,-7105.977043,1149.143247
59254.799456,1036.288319,-6883.915261,1149.143247
59254.799766,1258.350101,-8956.491898,1685.410096
59254.800075,666.185348,-10584.944971,1149.143247
59254.800385,-2368.659014,-10732.986159,0.000000
59254.800695,-3182.885551,-11177.109724,-76.609550
59254.801005,-3256.906145,-10732.986159,0.000000
59254.801315,-74.020594,-9474.636058,-76.609550
59254.801624,0.000000,-4811.338623,0.000000
59254.801934,2220.617826,-5625.565159,2068.457845
59254.802244,4663.297435,-7105.977043,2987.772442
59254.802554,2886.803174,-8216.285956,1455.581446
59254.802863,1258.350101,-10807.006753,1302.362347
59254.803173,-1406.391290,-13027.624579,-153.219100
59254.803483,-5921.647536,-12509.480420,-2451.505594
59254.803793,-4737.318029,-11029.068536,-1915.238745
59254.804103,-4737.318029,-9548.656652,0.000000
59254.804412,1998.556043,-8290.306550,2987.772442
59254.804722,1628.453072,-2442.679609,536.266849
59254.805032,3552.988522,-4737.318029,4213.525239
59254.805342,4441.235652,-6957.935855,4903.011187
59254.805651,3182.885551,-8512.368333,2987.772442
59254.805961,0.000000,-10066.800811,1225.752797
59254.806271,-2960.823768,-12213.398043,-842.705048
59254.806581,-6365.771101,-11621.233289,-2681.334243
59254.806891,-6513.812290,-11547.212695,-2834.553343
59254.807200,-5921.647536,-7772.162391,-3064.381992
59254.807510,-74.020594,-8586.388927,-76.609550
59254.807820,518.144159,-3478.967927,-1302.362347
59254.808130,3775.050304,-7328.038826,3294.210641
59254.808439,3552.988522,-7772.162391,4290.134789
59254.808749,4071.132681,-10066.800811,3907.087040
59254.809059,888.247130,-11399.171507,2374.896044
59254.809369,-1480.411884,-12065.356855,919.314598
59254.809679,-3034.844362,-10658.965565,-383.047749
59254.809988,-3034.844362,-11251.130318,-76.609550
59254.810298,-4293.194464,-5551.544565,-2068.457845
59254.810608,-1776.494261,-6587.832884,1225.752797
59254.810918,-74.020594,-9474.636058,2374.896044
59254.811227,1554.432478,-8364.327145,2298.286494
59254.811537,0.000000,-8364.327145,1838.629195
59254.811847,-74.020594,-11177.109724,2068.457845
59254.812157,-2368.659014,-11547.212695,383.047749
59254.812466,-2664.741391,-11843.295072,153.219100
59254.812776,-74.020594,-11843.295072,-76.609550
59254.813086,-74.020594,-7179.997637,612.876398
59254.813396,2294.638420,-5921.647536,1149.143247
59254.813706,1184.329507,-4811.338623,612.876398
59254.814015,4071.132681,-9474.636058,4213.525239
59254.814325,1776.494261,-8364.327145,1532.190996
59254.814635,0.000000,-10732.986159,0.000000
59254.814945,-2886.803174,-13027.624579,-919.314598
59254.815254,-4441.235652,-14063.912898,-1302.362347
59254.815564,-4071.132681,-12139.377449,-995.924147
59254.815874,-666.185348,-10584.944971,1149.143247
59254.816184,1776.494261,-6587.832884,2451.505594
59254.816494,4367.215058,-4737.318029,3600.648841
59254.816803,2368.659014,-2738.761985,2451.505594
59254.817113,5847.626942,-8734.430116,6665.030833
59254.817423,1184.329507,-5995.668130,1225.752797
59254.817733,-962.267725,-9252.574275,-383.047749
59254.818042,-3330.926739,-12435.459826,-1532.190996
59254.818352,-4737.318029,-13619.789333,-2451.505594
59254.818662,-4737.318029,-11473.192101,-2528.115143
59254.818972,-1480.411884,-9696.697840,-1225.752797
59254.819282,-888.247130,-6513.812290,-383.047749
59254.819591,4071.132681,-7105.977043,2374.896044
59254.819901,3775.050304,-5551.544565,2221.676944
59254.820211,1184.329507,-5995.668130,1225.752797
59254.820521,1480.411884,-9548.656652,1225.752797
59254.820830,962.267725,-11843.295072,1149.143247
59254.821140,-2220.617826,-12065.356855,153.219100
59254.821450,-2664.741391,-10881.027347,0.000000
59254.821760,-2368.659014,-8660.409521,-153.219100
59254.822070,-2960.823768,-5995.668130,0.000000
59254.822379,-1406.391290,-6365.771101,229.828649
59254.822689,0.000000,-7772.162391,1685.410096
59254.822999,1998.556043,-9178.553681,1762.019645
59254.823309,-2368.659014,-7476.080014,0.000000
59254.823618,-1258.350101,-10807.006753,-689.485948
59254.823928,-666.185348,-12731.542202,-76.609550
59254.824238,-2072.576638,-10881.027347,0.000000
59254.824548,-888.247130,-8660.409521,766.095498
59254.824858,296.082377,-6957.935855,919.314598
59254.825167,0.000000,-4811.338623,0.000000
59254.825477,2886.803174,-5477.523971,1149.143247
59254.825787,2368.659014,-7179.997637,2451.505594
59254.826097,2886.803174,-11251.130318,1762.019645
59254.826406,-4441.235652,-9548.656652,-2451.505594
59254.826716,-2442.679609,-14211.954086,-1302.362347
59254.827026,-3627.009116,-15026.180623,-383.047749
59254.827336,-4071.132681,-11399.171507,-612.876398
59254.827646,-1554.432478,-8216.285956,1072.533697
59254.827955,370.102971,-5921.647536,2451.505594
59254.828265,1406.391290,-3330.926739,2987.772442
59254.828575,4293.194464,-5329.482782,4290.134789
59254.828885,2664.741391,-5033.400406,2757.943793
59254.829194,1776.494261,-8660.409521,4596.572988
59254.829504,-2294.638420,-9548.656652,-1762.019645
59254.829814,-2146.597232,-14211.954086,-76.609550
59254.830124,-4737.318029,-13841.851115,-1762.019645
59254.830434,-4811.338623,-11103.089130,-2834.553343
59254.830743,-3330.926739,-8956.491898,-1532.190996
59254.831053,-592.164754,-6587.832884,306.438199
59254.831363,2590.720797,-5329.482782,2374.896044
59254.831673,4589.276840,-7179.997637,3677.258390
59254.831982,3997.112087,-7846.182985,2987.772442
59254.832292,1184.329507,-9844.739029,2451.505594
59254.832602,-74.020594,-13027.624579,-76.609550
59254.832912,-1258.350101,-13619.789333,2681.334243
59254.833222,-3552.988522,-9548.656652,0.000000
59254.833531,-2442.679609,-7846.182985,306.438199
59254.833841,-1702.473667,-5995.668130,153.219100
59254.834151,-444.123565,-6069.688724,306.438199
59254.834461,1554.432478,-7698.141797,2068.457845
59254.834770,2146.597232,-8660.409521,1991.848295
59254.835080,1702.473667,-10658.965565,1149.143247
59254.835390,-2072.576638,-10732.986159,0.000000
59254.835700,-1258.350101,-12435.459826,-76.609550
59254.836010,-2368.659014,-11769.274478,1608.800546
59254.836319,-2368.659014,-8660.409521,0.000000
59254.836629,518.144159,-7105.977043,1149.143247
59254.836939,2072.576638,-5329.482782,1685.410096
59254.837249,2516.700203,-5551.544565,2298.286494
59254.837558,3923.091493,-8290.306550,2451.505594
59254.837868,1332.370696,-9548.656652,1072.533697
59254.838178,-74.020594,-12435.459826,-76.609550
59254.838488,-4737.318029,-13101.645173,-1838.629195
59254.838798,-1258.350101,-15988.448347,-76.609550
59254.839107,-4145.153275,-10732.986159,0.000000
59254.839417,-2072.576638,-6883.915261,0.000000
59254.839727,1110.308913,-5699.585753,2451.505594
59254.840037,2664.741391,-4219.173869,3370.820191
59254.840346,3478.967927,-5329.482782,3140.991542
59254.840656,4367.215058,-8068.244768,4060.306139
59254.840966,1184.329507,-8512.368333,1838.629195
59254.841276,-74.020594,-12583.501014,-76.609550
