#time,accel_x,accel_y,accel_z
163537.629370,666.185348,-8882.471304,0.000000
163537.629690,518.144159,-9400.615463,229.828649
163537.630009,0.000000,-7772.162391,0.000000
163537.630329,0.000000,-8364.327145,-1072.533697
163537.630648,0.000000,-8660.409521,306.438199
163537.630967,-1776.494261,-8364.327145,0.000000
163537.631287,1110.308913,-10658.965565,-76.609550
163537.631606,-74.020594,-10658.965565,-76.609550
163537.631926,-1184.329507,-9548.656652,612.876398
163537.632245,-1036.288319,-9252.574275,-383.047749
163537.632565,-962.267725,-9326.594869,-383.047749
163537.632884,-1036.288319,-9104.533087,-229.828649
163537.633203,-3404.947333,-6291.750507,-2451.505594
163537.633523,-1184.329507,-9178.553681,-76.609550
163537.633842,-4145.153275,-7179.997637,-2451.505594
163537.634162,-74.020594,-10584.944971,-76.609550
163537.634481,-1628.453072,-8586.388927,-1302.362347
163537.634801,-2368.659014,-9548.656652,0.000000
163537.635120,-74.020594,-9770.718434,-995.924147
163537.635440,0.000000,-9326.594869,-995.924147
163537.635759,444.123565,-9252.574275,-766.095498
163537.636078,740.205942,-8364.327145,-1991.848295
163537.636398,2146.597232,-10658.965565,-1072.533697
163537.636717,0.000000,-8364.327145,0.000000
163537.637037,1110.308913,-9918.759623,459.657299
163537.637356,518.144159,-11251.130318,-76.609550
163537.637676,-1184.329507,-8364.327145,-2451.505594
163537.637995,-74.020594,-9030.512492,-1302.362347
163537.638314,0.000000,-8882.471304,459.657299
163537.638634,0.000000,-8734.430116,0.000000
163537.638953,-296.082377,-8882.471304,153.219100
163537.639273,1332.370696,-11547.212695,2374.896044
163537.639592,-74.020594,-8882.471304,459.657299
163537.639912,-370.102971,-9474.636058,-76.609550
163537.640231,-1850.514855,-7328.038826,-2221.676944
163537.640551,-1628.453072,-9548.656652,0.000000
163537.640870,-74.020594,-9474.636058,-76.609550
163537.641189,-1628.453072,-9548.656652,0.000000
163537.641509,-1554.432478,-9474.636058,-612.876398
163537.641828,-1258.350101,-9474.636058,-919.314598
163537.642148,-1036.288319,-9104.533087,-76.609550
163537.642467,-2368.659014,-7179.997637,0.000000
163537.642787,-74.020594,-9400.615463,-383.047749
163537.643106,296.082377,-9104.533087,-766.095498
163537.643426,444.123565,-8734.430116,-383.047749
163537.643745,1110.308913,-9474.636058,-995.924147
163537.644064,-74.020594,-8956.491898,-2145.067394
163537.644384,1628.453072,-11251.130318,-76.609550
163537.644703,-370.102971,-8660.409521,-689.485948
163537.645023,-222.061783,-8142.265362,-2068.457845
163537.645342,592.164754,-10140.821405,1225.752797
163537.645662,0.000000,-7920.203579,0.000000
163537.645981,888.247130,-9400.615463,229.828649
163537.646300,0.000000,-9252.574275,306.438199
163537.646620,-296.082377,-9030.512492,76.609550
163537.646939,-370.102971,-8290.306550,-229.828649
163537.647259,-666.185348,-8882.471304,76.609550
163537.647578,-666.185348,-10140.821405,0.000000
163537.647898,-148.041188,-11029.068536,1072.533697
163537.648217,-1258.350101,-9770.718434,-995.924147
163537.648537,-2368.659014,-9548.656652,612.876398
163537.648856,-1258.350101,-9178.553681,-766.095498
163537.649175,-370.102971,-9474.636058,-1302.362347
163537.649495,-1184.329507,-8586.388927,-612.876398
163537.649814,-518.144159,-7772.162391,-1991.848295
163537.650134,-74.020594,-8290.306550,-2068.457845
163537.650453,-74.020594,-9474.636058,-1302.362347
163537.650773,0.000000,-8364.327145,306.438199
163537.651092,1110.308913,-9474.636058,-689.485948
163537.651411,518.144159,-10362.883188,-76.609550
163537.651731,0.000000,-8364.327145,0.000000
163537.652050,222.061783,-9770.718434,-536.266849
163537.652370,296.082377,-9326.594869,-536.266849
163537.652689,740.205942,-9622.677246,-76.609550
163537.653009,518.144159,-8882.471304,-689.485948
163537.653328,814.226536,-9548.656652,306.438199
163537.653648,1702.473667,-9474.636058,1608.800546
163537.653967,222.061783,-8586.388927,-76.609550
163537.654286,-962.267725,-7772.162391,-1225.752797
163537.654606,-296.082377,-10436.903782,2451.505594
163537.654925,-1776.494261,-8364.327145,0.000000
163537.655245,-518.144159,-9992.780217,-689.485948
163537.655564,148.041188,-9548.656652,0.000000
163537.655884,74.020594,-9326.594869,-153.219100
163537.656203,-222.061783,-8512.368333,-1072.533697
163537.656522,0.000000,-9548.656652,0.000000
163537.656842,1110.308913,-10066.800811,-689.485948
163537.657161,2294.638420,-11251.130318,-76.609550
163537.657481,370.102971,-8512.368333,-995.924147
163537.657800,2368.659014,-11325.150913,2145.067394
163537.658120,2294.638420,-9474.636058,-536.266849
163537.658439,3404.947333,-9326.594869,0.000000
163537.658759,3775.050304,-8808.450710,0.000000
163537.659078,2960.823768,-7476.080014,-1838.629195
163537.659397,3775.050304,-7254.018232,-766.095498
163537.659717,5551.544565,-8882.471304,-76.609550
163537.660036,4737.318029,-8364.327145,612.876398
163537.660356,6439.791695,-10510.924376,995.924147
163537.660675,6143.709319,-11843.295072,1762.019645
163537.660995,3552.988522,-9548.656652,-1225.752797
163537.661314,4959.379811,-9474.636058,-1608.800546
163537.661633,5403.503377,-9474.636058,-919.314598
163537.661953,7105.977043,-9178.553681,459.657299
163537.662272,7328.038826,-7254.018232,-689.485948
163537.662592,9104.533087,-10214.842000,2987.772442
163537.662911,7031.956449,-10066.800811,-689.485948
163537.663231,4737.318029,-10584.944971,0.000000
163537.663550,0.000000,-10140.821405,0.000000
163537.663870,3330.926739,-14211.954086,1762.019645
163537.664189,592.164754,-11621.233289,-995.924147
163537.664508,2368.659014,-10362.883188,383.047749
163537.664828,2738.761985,-7624.121203,153.219100
163537.665147,3256.906145,-5107.421000,0.000000
163537.665467,3775.050304,-4737.318029,-3370.820191
163537.665786,4737.318029,-6291.750507,-1225.752797
163537.666106,5847.626942,-7105.977043,-1225.752797
163537.666425,7031.956449,-11251.130318,-1302.362347
163537.666744,2886.803174,-11843.295072,-2834.553343
163537.667064,2664.741391,-16062.468941,-153.219100
163537.667383,1554.432478,-15914.427753,76.609550
163537.667703,3256.906145,-14063.912898,2528.115143
163537.668022,3775.050304,-10288.862594,2451.505594
163537.668342,1554.432478,-4811.338623,0.000000
163537.668661,2294.638420,-3701.029710,-1608.800546
163537.668981,1480.411884,-3034.844362,-2451.505594
163537.669300,2960.823768,-6587.832884,1378.971896
163537.669619,3775.050304,-7698.141797,1149.143247
163537.669939,-74.020594,-9474.636058,-76.609550
163537.670258,-3256.906145,-9104.533087,306.438199
163537.670578,-1332.370696,-10436.903782,0.000000
163537.670897,1628.453072,-10066.800811,842.705048
163537.671217,666.185348,-9992.780217,-229.828649
163537.671536,-2368.659014,-8660.409521,-1608.800546
163537.671856,-74.020594,-12731.542202,1762.019645
163537.672175,1110.308913,-9474.636058,-76.609550
163537.672494,-1184.329507,-7179.997637,-1838.629195
163537.672814,-4145.153275,-5995.668130,-5592.497135
163537.673133,-3552.988522,-9548.656652,-4903.011187
163537.673453,518.144159,-11843.295072,-1225.752797
163537.673772,1702.473667,-11917.315666,1455.581446
163537.674092,1258.350101,-9992.780217,2604.724693
163537.674411,1702.473667,-7550.100608,842.705048
163537.674730,1702.473667,-7105.977043,-919.314598
163537.675050,2368.659014,-7179.997637,612.876398
163537.675369,6365.771101,-8660.409521,2451.505594
163537.675689,8660.409521,-9474.636058,6052.154434
163537.676008,2590.720797,-4811.338623,0.000000
163537.676328,-74.020594,-7698.141797,-5286.058936
163537.676647,-2146.597232,-10732.986159,-6665.030833
163537.676967,-1332.370696,-13471.748144,-4596.572988
163537.677286,444.123565,-14211.954086,-1762.019645
163537.677605,2516.700203,-13471.748144,1762.019645
163537.677925,1702.473667,-9548.656652,76.609550
163537.678244,6735.874072,-9326.594869,3140.991542
163537.678564,11399.171507,-6735.874072,7967.393179
163537.678883,11843.295072,-3182.885551,7967.393179
163537.679203,7105.977043,-74.020594,4903.011187
163537.679522,4663.297435,-3552.988522,-1608.800546
163537.679841,1776.494261,-8364.327145,-2451.505594
163537.680161,2294.638420,-13619.789333,-306.438199
163537.680480,-1480.411884,-13027.624579,-3753.867940
163537.680800,-2738.761985,-16580.613101,-5592.497135
163537.681119,-3923.091493,-15100.201217,-9499.584175
163537.681439,-1258.350101,-14359.995275,-6205.373534
163537.681758,2886.803174,-10955.047942,-1225.752797
163537.682078,5847.626942,-8364.327145,1762.019645
163537.682397,8808.450710,-5921.647536,3600.648841
163537.682716,9844.739029,-4737.318029,4136.915689
163537.683036,7698.141797,-2442.679609,3677.258390
163537.683355,7105.977043,-5995.668130,6128.763984
163537.683675,8808.450710,-7698.141797,4826.401637
163537.683994,6957.935855,-8956.491898,1225.752797
163537.684314,2146.597232,-9400.615463,-2834.553343
163537.684633,-2146.597232,-13027.624579,-4903.011187
163537.684952,-2960.823768,-14211.954086,-5515.887586
163537.685272,-2368.659014,-14285.974681,-4903.011187
163537.685591,-1480.411884,-11917.315666,-4136.915689
163537.685911,1258.350101,-11621.233289,-76.609550
163537.686230,2812.782580,-7994.224174,919.314598
163537.686550,4737.318029,-5773.606348,2987.772442
163537.686869,7031.956449,-5921.647536,3600.648841
163537.687189,5699.585753,-5181.441594,4366.744339
163537.687508,4589.276840,-5773.606348,3140.991542
163537.687827,2886.803174,-7624.121203,1302.362347
163537.688147,2072.576638,-10807.006753,-76.609550
163537.688466,-1776.494261,-11325.150913,-1225.752797
163537.688786,-5921.647536,-9844.739029,-6741.640382
163537.689105,-2516.700203,-13841.851115,-4060.306139
163537.689425,-1258.350101,-13027.624579,-2528.115143
163537.689744,-962.267725,-10510.924376,-2451.505594
163537.690063,5847.626942,-11251.130318,2068.457845
163537.690383,4737.318029,-7476.080014,2298.286494
163537.690702,5255.462188,-6587.832884,3064.381992
163537.691022,4885.359217,-6291.750507,2451.505594
163537.691341,2368.659014,-6291.750507,1838.629195
163537.691661,3478.967927,-7698.141797,536.266849
163537.691980,0.000000,-8364.327145,-1838.629195
163537.692300,-1036.288319,-8364.327145,-5515.887586
163537.692619,-2368.659014,-10140.821405,-4290.134789
163537.692938,-74.020594,-10955.047942,-4366.744339
163537.693258,1110.308913,-11843.295072,-1915.238745
163537.693577,2812.782580,-11399.171507,-306.438199
163537.693897,3849.070898,-9400.615463,1149.143247
163537.694216,4737.318029,-9326.594869,3753.867940
163537.694536,6883.915261,-7328.038826,5286.058936
163537.694855,6439.791695,-7698.141797,5056.230287
163537.695174,4663.297435,-8882.471304,4826.401637
163537.695494,1850.514855,-4515.256246,-1378.971896
163537.695813,0.000000,-6587.832884,-3677.258390
163537.696133,-74.020594,-9474.636058,-4979.620737
163537.696452,-1036.288319,-12065.356855,-4903.011187
163537.696772,-148.041188,-12361.439231,-5132.839837
163537.697091,814.226536,-13619.789333,-2757.943793
163537.697411,3552.988522,-13249.686362,-76.609550
163537.697730,5033.400406,-12213.398043,2451.505594
163537.698049,4737.318029,-8364.327145,2757.943793
163537.698369,9030.512492,-8142.265362,5286.058936
163537.698688,7920.203579,-5033.400406,4519.963438
163537.699008,2516.700203,-2738.761985,-1838.629195
163537.699327,4663.297435,-9104.533087,-689.485948
163537.699647,2590.720797,-9326.594869,-1838.629195
163537.699967,3552.988522,-11325.150913,-1455.581446
163537.700286,1924.535449,-10732.986159,-3140.991542
163537.700606,1184.329507,-11621.233289,-2451.505594
163537.700926,3478.967927,-13027.624579,-689.485948
163537.701245,1184.329507,-11103.089130,612.876398
163537.701565,4145.153275,-8956.491898,0.000000
163537.701885,1184.329507,-7179.997637,1225.752797
163537.702204,1110.308913,-4589.276840,0.000000
163537.702524,4589.276840,-7328.038826,2911.162892
163537.702844,5255.462188,-7328.038826,2068.457845
163537.703164,4145.153275,-6291.750507,1225.752797
163537.703483,1110.308913,-9474.636058,-76.609550
163537.703803,-1258.350101,-11843.295072,-3140.991542
163537.704123,-74.020594,-14211.954086,-3140.991542
163537.704442,518.144159,-11843.295072,-1608.800546
163537.704762,518.144159,-8660.409521,-2145.067394
163537.705082,1184.329507,-9548.656652,-2451.505594
163537.705402,4367.215058,-8586.388927,-689.485948
163537.705721,5107.421000,-9030.512492,995.924147
163537.706041,2960.823768,-7254.018232,0.000000
163537.706361,2294.638420,-9992.780217,153.219100
163537.706680,3478.967927,-10955.047942,3600.648841
163537.707000,2368.659014,-11843.295072,1762.019645
163537.707320,4589.276840,-11251.130318,2987.772442
163537.707639,2886.803174,-9400.615463,536.266849
163537.707959,1480.411884,-7772.162391,0.000000
163537.708279,592.164754,-5403.503377,-3677.258390
163537.708599,1702.473667,-10362.883188,-1149.143247
163537.708918,-1628.453072,-11769.274478,-2528.115143
163537.709238,-3182.885551,-11991.336260,-1532.190996
163537.709558,-4293.194464,-11029.068536,-1302.362347
163537.709877,-2960.823768,-10288.862594,612.876398
163537.710197,-4737.318029,-5995.668130,0.000000
163537.710517,-74.020594,-8882.471304,3907.087040
163537.710836,888.247130,-4811.338623,2374.896044
163537.711156,-666.185348,-3034.844362,0.000000
163537.711476,2886.803174,-9474.636058,1762.019645
163537.711796,-2812.782580,-9178.553681,0.000000
163537.712115,-4737.318029,-10510.924376,-1991.848295
163537.712435,-8290.306550,-10510.924376,-4443.353888
163537.712755,-8290.306550,-11917.315666,-4903.011187
163537.713074,-5699.585753,-11177.109724,-3753.867940
163537.713394,-2442.679609,-10955.047942,-1608.800546
163537.713714,-2442.679609,-11547.212695,-76.609550
163537.714033,-2442.679609,-8660.409521,-919.314598
163537.714353,1702.473667,-11251.130318,5669.106685
163537.714673,1184.329507,-6291.750507,2451.505594
163537.714993,-888.247130,-7179.997637,3370.820191
163537.715312,296.082377,-8068.244768,2221.676944
163537.715632,1184.329507,-8142.265362,2987.772442
163537.715952,1406.391290,-5625.565159,0.000000
163537.716271,-740.205942,-8660.409521,-995.924147
163537.716591,-3849.070898,-11769.274478,-3294.210641
163537.716911,-4589.276840,-12213.398043,-2834.553343
163537.717230,-4885.359217,-12435.459826,-3140.991542
163537.717550,-3627.009116,-13619.789333,-2451.505594
163537.717870,-2368.659014,-10436.903782,-1532.190996
163537.718190,962.267725,-9474.636058,2374.896044
163537.718509,4071.132681,-7698.141797,4213.525239
163537.718829,2368.659014,-4811.338623,2451.505594
163537.719149,2294.638420,-6069.688724,919.314598
163537.719468,2368.659014,-8290.306550,1762.019645
163537.719788,1332.370696,-9622.677246,-153.219100
163537.720108,-2146.597232,-9326.594869,-1838.629195
163537.720427,-1406.391290,-11399.171507,-2987.772442
163537.720747,-1776.494261,-10140.821405,-3524.039291
163537.721067,1480.411884,-10436.903782,-3677.258390
163537.721387,592.164754,-10732.986159,-1225.752797
163537.721706,2738.761985,-11843.295072,-1302.362347
163537.722026,0.000000,-9548.656652,0.000000
163537.722346,4663.297435,-7994.224174,459.657299
163537.722665,1406.391290,-8364.327145,2374.896044
163537.722985,2886.803174,-7846.182985,2528.115143
163537.723305,3478.967927,-6957.935855,2604.724693
163537.723624,6439.791695,-7698.141797,2374.896044
163537.723944,1850.514855,-6587.832884,0.000000
163537.724264,0.000000,-9548.656652,0.000000
163537.724584,1036.288319,-11843.295072,-229.828649
163537.724903,-74.020594,-11547.212695,-689.485948
163537.725223,-5921.647536,-7772.162391,-4903.011187
163537.725543,-3478.967927,-10955.047942,-3370.820191
163537.725862,-2368.659014,-10436.903782,-1072.533697
163537.726182,666.185348,-8290.306550,-919.314598
163537.726502,1702.473667,-7698.141797,-76.609550
163537.726821,4663.297435,-9474.636058,2987.772442
163537.727141,3478.967927,-7105.977043,1991.848295
163537.727461,1184.329507,-6587.832884,2451.505594
163537.727781,-1036.288319,-8364.327145,612.876398
163537.728100,-2368.659014,-8660.409521,153.219100
163537.728420,-3849.070898,-8660.409521,-3064.381992
163537.728740,-1036.288319,-10732.986159,-2374.896044
163537.729059,-3256.906145,-11103.089130,-2451.505594
163537.729379,-2294.638420,-10510.924376,-2987.772442
163537.729699,-74.020594,-12435.459826,-383.047749
163537.730019,0.000000,-8438.347739,-919.314598
163537.730338,-2146.597232,-9474.636058,-766.095498
163537.730658,-1258.350101,-11251.130318,2068.457845
163537.730978,-74.020594,-8290.306550,1149.143247
163537.731297,2368.659014,-7179.997637,4903.011187
163537.731617,1850.514855,-6513.812290,2451.505594
163537.731937,3034.844362,-8068.244768,2987.772442
163537.732256,2072.576638,-9622.677246,2451.505594
163537.732576,1110.308913,-8364.327145,-1838.629195
163537.732896,-5255.462188,-11029.068536,-4979.620737
163537.733216,-8290.306550,-10436.903782,-5515.887586
163537.733535,-9474.636058,-9548.656652,-6128.763984
163537.733855,-3552.988522,-9992.780217,-2451.505594
163537.734175,-74.020594,-10658.965565,-76.609550
163537.734494,0.000000,-7179.997637,2451.505594
163537.734814,2294.638420,-8290.306550,3830.477490
163537.735134,1998.556043,-6143.709319,1762.019645
163537.735453,-2368.659014,-7698.141797,0.000000
163537.735773,-2146.597232,-8216.285956,-2374.896044
163537.736093,-962.267725,-10066.800811,-76.609550
163537.736413,2294.638420,-10066.800811,-383.047749
163537.736732,-1406.391290,-9548.656652,-2451.505594
163537.737052,-1332.370696,-10732.986159,-4596.572988
163537.737372,592.164754,-12509.480420,1149.143247
163537.737691,-1184.329507,-8364.327145,-2451.505594
163537.738011,-2146.597232,-10066.800811,-1378.971896
163537.738331,-296.082377,-10436.903782,-689.485948
163537.738650,1480.411884,-9252.574275,2145.067394
163537.738970,4663.297435,-7105.977043,3600.648841
163537.739290,5995.668130,-7698.141797,4443.353888
163537.739610,4293.194464,-7698.141797,1455.581446
163537.739929,592.164754,-7402.059420,-76.609550
163537.740249,0.000000,-8364.327145,0.000000
163537.740569,-3256.906145,-13471.748144,-76.609550
163537.740888,-3256.906145,-12361.439231,-2451.505594
163537.741208,-3034.844362,-11695.253884,-2451.505594
163537.741528,-962.267725,-9252.574275,-1608.800546
163537.741847,-2368.659014,-7179.997637,-3064.381992
163537.742167,296.082377,-8364.327145,-1225.752797
163537.742487,2664.741391,-8660.409521,1532.190996
163537.742807,2960.823768,-7179.997637,3064.381992
163537.743126,1998.556043,-9474.636058,1149.143247
163537.743446,-74.020594,-9474.636058,-76.609550
163537.743766,0.000000,-9844.739029,459.657299
163537.744085,1110.308913,-9696.697840,383.047749
163537.744405,0.000000,-9178.553681,-1532.190996
163537.744725,0.000000,-10214.842000,-1302.362347
163537.745044,-2072.576638,-7772.162391,-3370.820191
163537.745364,74.020594,-9696.697840,-1302.362347
163537.745684,-3330.926739,-8364.327145,-4290.134789
163537.746004,-3552.988522,-9548.656652,-1838.629195
163537.746323,-666.185348,-10658.965565,1838.629195
163537.746643,1776.494261,-7179.997637,2757.943793
163537.746963,3034.844362,-7254.018232,2298.286494
163537.747282,2886.803174,-7624.121203,2298.286494
163537.747602,1036.288319,-8512.368333,1762.019645
163537.747922,1184.329507,-9548.656652,0.000000
163537.748241,-370.102971,-11547.212695,-2145.067394
163537.748561,-4145.153275,-11621.233289,-1378.971896
163537.748881,-4811.338623,-11843.295072,-2145.067394
163537.749201,-2442.679609,-11843.295072,-76.609550
163537.749520,-1480.411884,-8068.244768,-1838.629195
163537.749840,518.144159,-6735.874072,-1455.581446
163537.750160,-814.226536,-8068.244768,0.000000
163537.750479,-814.226536,-8438.347739,153.219100
163537.750799,-2368.659014,-9104.533087,-1225.752797
163537.751119,-74.020594,-13027.624579,-76.609550
163537.751439,-3330.926739,-10807.006753,-842.705048
163537.751758,-1554.432478,-8956.491898,-459.657299
163537.752078,-2294.638420,-6291.750507,-2451.505594
163537.752398,1184.329507,-9252.574275,0.000000
163537.752717,2886.803174,-10362.883188,-689.485948
163537.753037,2368.659014,-10214.842000,919.314598
163537.753357,-148.041188,-9400.615463,-383.047749
163537.753676,-1036.288319,-9622.677246,-842.705048
163537.753996,-1924.535449,-9548.656652,-995.924147
163537.754316,-1776.494261,-9548.656652,1225.752797
163537.754636,444.123565,-8216.285956,-76.609550
163537.754955,148.041188,-8660.409521,612.876398
163537.755275,592.164754,-8660.409521,536.266849
163537.755595,888.247130,-7846.182985,229.828649
163537.755914,-1036.288319,-8364.327145,-1685.410096
163537.756234,-74.020594,-10658.965565,-383.047749
163537.756554,-1850.514855,-10288.862594,-76.609550
163537.756873,-74.020594,-8290.306550,-459.657299
163537.757193,1258.350101,-10140.821405,1608.800546
163537.757513,0.000000,-7772.162391,0.000000
163537.757833,666.185348,-8882.471304,-383.047749
163537.758152,1702.473667,-9474.636058,229.828649
163537.758472,74.020594,-9030.512492,-1225.752797
163537.758792,-1850.514855,-9844.739029,-3064.381992
163537.759111,-2368.659014,-10658.965565,-1915.238745
163537.759431,592.164754,-9770.718434,0.000000
163537.759751,-74.020594,-9474.636058,-1915.238745
163537.760070,0.000000,-8364.327145,0.000000
163537.760390,1184.329507,-10436.903782,612.876398
163537.760710,1036.288319,-9992.780217,1455.581446
163537.761030,5329.482782,-8660.409521,1378.971896
163537.761349,1554.432478,-7698.141797,1608.800546
163537.761669,-1184.329507,-9844.739029,-1838.629195
163537.761989,-2220.617826,-7179.997637,-2451.505594
163537.762308,-1036.288319,-7179.997637,-3370.820191
163537.762628,-2368.659014,-9548.656652,0.000000
163537.762948,-74.020594,-11547.212695,-689.485948
163537.763267,814.226536,-9474.636058,2374.896044
163537.763587,1480.411884,-9548.656652,2298.286494
163537.763907,444.123565,-8734.430116,459.657299
163537.764227,-1332.370696,-8882.471304,0.000000
163537.764546,-1554.432478,-7550.100608,0.000000
163537.764866,-3997.112087,-5403.503377,-1685.410096
163537.765186,-74.020594,-10658.965565,1762.019645
163537.765505,-74.020594,-9326.594869,-459.657299
163537.765825,-1184.329507,-7920.203579,612.876398
163537.766145,-4145.153275,-7772.162391,-2451.505594
163537.766464,-1258.350101,-11843.295072,-1302.362347
163537.766784,-5773.606348,-11325.150913,-3677.258390
163537.767104,-3478.967927,-11473.192101,-1532.190996
163537.767424,-2146.597232,-9770.718434,-2221.676944
163537.767743,0.000000,-9474.636058,612.876398
163537.768063,2220.617826,-8882.471304,1838.629195
163537.768383,4663.297435,-7698.141797,2757.943793
163537.768702,2294.638420,-7105.977043,1149.143247
163537.769022,0.000000,-7179.997637,0.000000
163537.769342,0.000000,-8660.409521,0.000000
163537.769661,2886.803174,-11843.295072,2374.896044
163537.769981,-740.205942,-9844.739029,-1072.533697
163537.770301,-2368.659014,-10214.842000,-1225.752797
163537.770621,-1554.432478,-10066.800811,-1532.190996
163537.770940,592.164754,-9252.574275,1225.752797
163537.771260,0.000000,-7476.080014,0.000000
163537.771580,-1406.391290,-9104.533087,-2451.505594
163537.771899,-296.082377,-10955.047942,1149.143247
163537.772219,74.020594,-6735.874072,0.000000
163537.772539,592.164754,-5181.441594,-536.266849
163537.772859,2294.638420,-9474.636058,2374.896044
163537.773178,-592.164754,-8956.491898,0.000000
163537.773498,592.164754,-9104.533087,0.000000
163537.773818,-666.185348,-9844.739029,-1455.581446
163537.774137,-3404.947333,-9548.656652,0.000000
163537.774457,-3849.070898,-9770.718434,-2834.553343
163537.774777,-2368.659014,-8660.409521,-2298.286494
163537.775096,-1036.288319,-9548.656652,-2451.505594
163537.775416,-74.020594,-12361.439231,1149.143247
163537.775736,-74.020594,-8882.471304,-2528.115143
163537.776056,2590.720797,-9622.677246,1455.581446
163537.776375,1776.494261,-7624.121203,-766.095498
163537.776695,1776.494261,-9400.615463,1608.800546
163537.777015,592.164754,-9622.677246,536.266849
163537.777334,0.000000,-8364.327145,766.095498
163537.777654,-74.020594,-9474.636058,-383.047749
163537.777974,0.000000,-9622.677246,919.314598
163537.778293,-2368.659014,-7772.162391,-2451.505594
163537.778613,0.000000,-9548.656652,1225.752797
163537.778933,1998.556043,-8290.306550,-1302.362347
163537.779253,-1924.535449,-8660.409521,-612.876398
163537.779572,-2590.720797,-9844.739029,-2451.505594
163537.779892,-1480.411884,-10436.903782,0.000000
163537.780212,-148.041188,-9844.739029,1225.752797
163537.780531,-1184.329507,-9548.656652,1685.410096
163537.780851,1110.308913,-9474.636058,1532.190996
163537.781171,2294.638420,-7994.224174,536.266849
163537.781490,0.000000,-7179.997637,306.438199
163537.781810,-1850.514855,-7179.997637,0.000000
163537.782130,-666.185348,-11547.212695,-1302.362347
163537.782450,-1110.308913,-10658.965565,153.219100
163537.782769,-962.267725,-9474.636058,-1532.190996
163537.783089,-1554.432478,-10066.800811,0.000000
163537.783409,-1184.329507,-9696.697840,-153.219100
163537.783728,296.082377,-8660.409521,0.000000
163537.784048,1184.329507,-9844.739029,-76.609550
163537.784368,-74.020594,-9474.636058,-76.609550
163537.784687,0.000000,-9548.656652,-1838.629195
163537.785007,4663.297435,-10658.965565,3600.648841
163537.785327,0.000000,-8068.244768,306.438199
163537.785647,-1332.370696,-7920.203579,536.266849
163537.785966,-1628.453072,-8808.450710,-919.314598
163537.786286,592.164754,-9548.656652,2757.943793
163537.786606,-74.020594,-7994.224174,-1532.190996
163537.786925,-2442.679609,-9474.636058,-76.609550
163537.787245,-2960.823768,-9548.656652,-1838.629195
163537.787565,296.082377,-10140.821405,1685.410096
163537.787884,-74.020594,-11843.295072,-689.485948
163537.788204,-4737.318029,-9548.656652,-1838.629195
163537.788524,-2886.803174,-10955.047942,-1608.800546
163537.788844,1332.370696,-9252.574275,536.266849
163537.789163,740.205942,-8068.244768,-689.485948
163537.789483,-1258.350101,-7550.100608,-2145.067394
163537.789803,1110.308913,-9844.739029,-689.485948
163537.790122,2442.679609,-9622.677246,995.924147
163537.790442,1110.308913,-8808.450710,-995.924147
163537.790762,-2146.597232,-10288.862594,-76.609550
163537.791081,-1258.350101,-12953.603985,-76.609550
163537.791401,666.185348,-10140.821405,2451.505594
163537.791721,1998.556043,-8290.306550,-1302.362347
163537.792041,-1776.494261,-8364.327145,0.000000
163537.792360,-592.164754,-8956.491898,0.000000
163537.792680,518.144159,-7105.977043,-689.485948
163537.793000,518.144159,-8290.306550,-76.609550
163537.793319,-1332.370696,-9400.615463,612.876398
163537.793639,-370.102971,-9844.739029,-229.828649
163537.793959,2886.803174,-10066.800811,2451.505594
163537.794279,444.123565,-8364.327145,0.000000
163537.794598,0.000000,-8364.327145,0.000000
163537.794918,0.000000,-9844.739029,-3677.258390
163537.795238,0.000000,-10732.986159,1378.971896
163537.795557,-2368.659014,-7179.997637,-2451.505594
163537.795877,-1258.350101,-9474.636058,-383.047749
163537.796197,-1480.411884,-8956.491898,-3677.258390
163537.796516,1110.308913,-9474.636058,1149.143247
163537.796836,518.144159,-7328.038826,-1225.752797
163537.797156,-1036.288319,-8882.471304,1455.581446
163537.797476,-1776.494261,-8364.327145,-1838.629195
163537.797795,0.000000,-9548.656652,0.000000
163537.798115,2368.659014,-10807.006753,995.924147
163537.798435,-1258.350101,-10362.883188,-612.876398
163537.798754,-3256.906145,-9548.656652,-4290.134789
163537.799074,1110.308913,-10658.965565,536.266849
163537.799394,74.020594,-9104.533087,-1378.971896
163537.799714,-1406.391290,-9252.574275,0.000000
163537.800034,-222.061783,-9474.636058,-1302.362347
163537.800354,3478.967927,-9474.636058,3600.648841
163537.800673,1850.514855,-8882.471304,-76.609550
163537.800993,-3108.864956,-8364.327145,0.000000
163537.801313,-1184.329507,-9622.677246,-766.095498
163537.801633,148.041188,-10140.821405,2451.505594
163537.801953,-1184.329507,-7179.997637,-1838.629195
163537.802273,-1406.391290,-9178.553681,766.095498
163537.802592,-1776.494261,-10066.800811,-1302.362347
163537.802912,-74.020594,-9474.636058,1149.143247
163537.803232,2294.638420,-9474.636058,-76.609550
163537.803552,-74.020594,-13027.624579,2374.896044
163537.803872,-1258.350101,-8882.471304,-2068.457845
163537.804192,-2960.823768,-8364.327145,0.000000
163537.804511,-3552.988522,-7179.997637,0.000000
163537.804831,-3552.988522,-10140.821405,919.314598
163537.805151,-2368.659014,-7772.162391,-3064.381992
163537.805471,296.082377,-9622.677246,919.314598
163537.805791,1776.494261,-9548.656652,-383.047749
163537.806111,74.020594,-10140.821405,536.266849
163537.806430,-1554.432478,-9548.656652,-2374.896044
163537.806750,-1184.329507,-9548.656652,306.438199
163537.807070,-74.020594,-10214.842000,-459.657299
163537.807390,-74.020594,-8586.388927,-995.924147
163537.807710,0.000000,-8364.327145,-1838.629195
163537.808030,1184.329507,-9844.739029,3447.429741
163537.808349,2072.576638,-7402.059420,-536.266849
163537.808669,1332.370696,-9548.656652,1378.971896
163537.808989,666.185348,-9770.718434,-459.657299
163537.809309,-1480.411884,-8364.327145,0.000000
163537.809629,-2738.761985,-7179.997637,-2451.505594
163537.809949,-2072.576638,-9548.656652,-2451.505594
163537.810268,0.000000,-9548.656652,-1225.752797
163537.810588,1554.432478,-11769.274478,2987.772442
163537.810908,4071.132681,-10658.965565,2374.896044
163537.811228,0.000000,-9548.656652,1225.752797
163537.811548,-1554.432478,-9992.780217,-2068.457845
163537.811868,-1480.411884,-10288.862594,-76.609550
163537.812187,-1554.432478,-9104.533087,-2221.676944
163537.812507,-3478.967927,-7772.162391,-2374.896044
163537.812827,-74.020594,-11843.295072,-383.047749
163537.813147,1110.308913,-9178.553681,-76.609550
163537.813467,592.164754,-7328.038826,-1225.752797
163537.813787,-3552.988522,-9548.656652,0.000000
163537.814106,-74.020594,-13027.624579,-76.609550
163537.814426,-1184.329507,-9548.656652,153.219100
163537.814746,0.000000,-9474.636058,-919.314598
163537.815066,-74.020594,-10510.924376,536.266849
163537.815386,888.247130,-9400.615463,-1225.752797
163537.815706,1406.391290,-8882.471304,1225.752797
163537.816025,3108.864956,-9178.553681,536.266849
163537.816345,740.205942,-9474.636058,1378.971896
163537.816665,-74.020594,-11251.130318,-383.047749
163537.816985,-2368.659014,-9548.656652,76.609550
163537.817305,-666.185348,-11251.130318,1149.143247
163537.817625,-2738.761985,-8660.409521,-459.657299
163537.817944,-1258.350101,-9400.615463,-306.438199
163537.818264,3182.885551,-8438.347739,2834.553343
163537.818584,0.000000,-4219.173869,0.000000
163537.818904,-4145.153275,-8364.327145,0.000000
163537.819224,-3849.070898,-10140.821405,-2451.505594
163537.819544,-1628.453072,-13027.624579,-76.609550
163537.819863,-1850.514855,-9326.594869,-3753.867940
163537.820183,-2442.679609,-11251.130318,-1915.238745
163537.820503,-1480.411884,-9992.780217,-1149.143247
163537.820823,814.226536,-9400.615463,1378.971896
163537.821143,4071.132681,-7105.977043,383.047749
163537.821463,1924.535449,-8290.306550,1072.533697
163537.821782,0.000000,-7179.997637,0.000000
163537.822102,370.102971,-9770.718434,-76.609550
163537.822422,0.000000,-7772.162391,-1838.629195
163537.822742,-1554.432478,-10658.965565,-383.047749
163537.823062,-666.185348,-11843.295072,-383.047749
163537.823381,0.000000,-11621.233289,1838.629195
163537.823701,2072.576638,-8364.327145,-1762.019645
163537.824021,74.020594,-10658.965565,1762.019645
163537.824341,1332.370696,-9844.739029,0.000000
163537.824661,0.000000,-7772.162391,0.000000
163537.824981,296.082377,-6883.915261,-1072.533697
163537.825300,-666.185348,-9030.512492,1149.143247
163537.825620,-74.020594,-8290.306550,-1225.752797
163537.825940,0.000000,-7772.162391,1225.752797
163537.826260,0.000000,-8364.327145,1225.752797
163537.826580,-1554.432478,-8660.409521,0.000000
163537.826900,-148.041188,-10732.986159,-1685.410096
163537.827219,-2220.617826,-11769.274478,229.828649
163537.827539,-2146.597232,-9992.780217,-2451.505594
163537.827859,-2442.679609,-11843.295072,-76.609550
163537.828179,-2368.659014,-8956.491898,-1838.629195
163537.828499,-666.185348,-7698.141797,612.876398
163537.828819,2368.659014,-7476.080014,1532.190996
163537.829138,1776.494261,-7179.997637,3524.039291
163537.829458,0.000000,-7179.997637,0.000000
163537.829778,0.000000,-9548.656652,612.876398
163537.830098,-74.020594,-10658.965565,-1302.362347
163537.830418,-3478.967927,-11029.068536,-1608.800546
163537.830738,-1776.494261,-9548.656652,-3677.258390
163537.831057,2294.638420,-12435.459826,-76.609550
163537.831377,592.164754,-8364.327145,-1378.971896
163537.831697,-1406.391290,-9548.656652,-689.485948
163537.832017,-740.205942,-10732.986159,-1072.533697
163537.832337,0.000000,-9844.739029,1225.752797
163537.832657,1924.535449,-8660.409521,1378.971896
163537.832976,-1924.535449,-6587.832884,1225.752797
163537.833296,444.123565,-8364.327145,0.000000
163537.833616,3478.967927,-9474.636058,2374.896044
163537.833936,3478.967927,-7105.977043,-1302.362347
163537.834256,1406.391290,-11103.089130,1455.581446
163537.834576,-1406.391290,-11029.068536,-1378.971896
163537.834895,-2886.803174,-11843.295072,-612.876398
163537.835215,-3627.009116,-9992.780217,-4060.306139
163537.835535,-5033.400406,-10881.027347,-1302.362347
163537.835855,-2664.741391,-9696.697840,-3294.210641
163537.836175,-444.123565,-9474.636058,-76.609550
163537.836495,3478.967927,-6217.729913,0.000000
163537.836814,1332.370696,-6587.832884,919.314598
163537.837134,2294.638420,-7698.141797,-1302.362347
163537.837454,1776.494261,-8586.388927,1532.190996
163537.837774,370.102971,-9474.636058,-306.438199
163537.838094,-3330.926739,-10881.027347,-1532.190996
163537.838414,-1850.514855,-12879.583391,-1455.581446
163537.838733,-592.164754,-12065.356855,2451.505594
163537.839053,1184.329507,-8364.327145,0.000000
163537.839373,2886.803174,-10288.862594,1455.581446
163537.839693,2294.638420,-9474.636058,0.000000
163537.840013,0.000000,-8364.327145,0.000000
163537.840333,1702.473667,-9178.553681,-1302.362347
163537.840652,-2664.741391,-9400.615463,-76.609550
163537.840972,-1924.535449,-9326.594869,-459.657299
163537.841292,148.041188,-8808.450710,689.485948
163537.841612,3552.988522,-8660.409521,612.876398
163537.841932,-370.102971,-8364.327145,612.876398
163537.842252,-1776.494261,-8956.491898,0.000000
163537.842571,-74.020594,-11769.274478,306.438199
163537.842891,-592.164754,-9104.533087,-1072.533697
163537.843211,-7476.080014,-8364.327145,-4903.011187
163537.843531,-4811.338623,-10066.800811,-2834.553343
163537.843851,-2886.803174,-9326.594869,-1225.752797
163537.844171,518.144159,-7994.224174,229.828649
163537.844490,-962.267725,-8142.265362,-229.828649
163537.844810,0.000000,-10066.800811,1915.238745
163537.845130,1850.514855,-8882.471304,1455.581446
163537.845450,592.164754,-7105.977043,-1302.362347
163537.845770,-4145.153275,-10732.986159,0.000000
163537.846090,-1850.514855,-10658.965565,-1225.752797
163537.846409,-1036.288319,-8660.409521,0.000000
163537.846729,4959.379811,-7698.141797,1225.752797
163537.847049,1776.494261,-8586.388927,1302.362347
163537.847369,740.205942,-9252.574275,383.047749
163537.847689,1998.556043,-11547.212695,2374.896044
163537.848009,1480.411884,-10658.965565,-76.609550
163537.848328,-3034.844362,-11843.295072,-76.609550
163537.848648,-3034.844362,-10066.800811,-1608.800546
163537.848968,-1258.350101,-9474.636058,1455.581446
163537.849288,0.000000,-4811.338623,1225.752797
163537.849608,-666.185348,-6735.874072,-383.047749
163537.849928,-740.205942,-8586.388927,-919.314598
163537.850247,148.041188,-10140.821405,229.828649
163537.850567,0.000000,-9770.718434,-2145.067394
163537.850887,-2738.761985,-13619.789333,-76.609550
163537.851207,-5921.647536,-10732.986159,-3677.258390
163537.851527,-666.185348,-11843.295072,-76.609550
163537.851847,1036.288319,-7105.977043,-1608.800546
163537.852166,518.144159,-7698.141797,-1915.238745
163537.852486,0.000000,-7772.162391,612.876398
163537.852806,4367.215058,-9178.553681,2681.334243
163537.853126,2812.782580,-8808.450710,995.924147
163537.853446,-2368.659014,-9030.512492,-459.657299
163537.853766,-3034.844362,-8068.244768,-2987.772442
163537.854085,-2220.617826,-9548.656652,-1302.362347
163537.854405,0.000000,-7179.997637,-2451.505594
163537.854725,0.000000,-10436.903782,-2451.505594
163537.855045,2368.659014,-12065.356855,1762.019645
163537.855365,3478.967927,-11547.212695,2681.334243
163537.855685,0.000000,-7179.997637,0.000000
163537.856004,-2516.700203,-9474.636058,-919.314598
163537.856324,-3108.864956,-9178.553681,-1532.190996
163537.856644,-740.205942,-9030.512492,1378.971896
163537.856964,4663.297435,-6809.894666,1762.019645
163537.857284,2886.803174,-8290.306550,2374.896044
163537.857603,2146.597232,-9474.636058,2374.896044
163537.857923,444.123565,-7254.018232,0.000000
163537.858243,0.000000,-8956.491898,-1225.752797
163537.858563,-5329.482782,-11917.315666,-766.095498
163537.858883,-7105.977043,-10732.986159,-4903.011187
163537.859203,-5699.585753,-12287.418637,-2528.115143
163537.859522,0.000000,-9252.574275,-1072.533697
163537.859842,74.020594,-7920.203579,-995.924147
163537.860162,3478.967927,-9474.636058,-76.609550
163537.860482,4441.235652,-10436.903782,4596.572988
163537.860802,4663.297435,-8290.306550,1991.848295
163537.861122,-1776.494261,-8956.491898,0.000000
163537.861441,-370.102971,-12731.542202,1532.190996
163537.861761,-4441.235652,-7772.162391,-2451.505594
163537.862081,1258.350101,-9474.636058,76.609550
163537.862401,370.102971,-9844.739029,-306.438199
163537.862721,814.226536,-9178.553681,-306.438199
163537.863041,2294.638420,-11843.295072,-76.609550
163537.863360,2886.803174,-8290.306550,842.705048
163537.863680,-2368.659014,-8956.491898,-1225.752797
163537.864000,-3404.947333,-9548.656652,-2451.505594
163537.864320,-2368.659014,-10584.944971,612.876398
163537.864640,1702.473667,-7105.977043,-76.609550
163537.864960,1702.473667,-8882.471304,1762.019645
163537.865279,962.267725,-8956.491898,1378.971896
163537.865599,1258.350101,-9548.656652,1608.800546
163537.865919,1702.473667,-7254.018232,153.219100
163537.866239,-3552.988522,-9548.656652,0.000000
163537.866559,-3997.112087,-10066.800811,-3217.601092
163537.866879,-4737.318029,-11843.295072,-2221.676944
163537.867198,-814.226536,-9326.594869,-306.438199
163537.867518,-296.082377,-8068.244768,-3064.381992
163537.867838,2294.638420,-9030.512492,-76.609550
163537.868158,2886.803174,-7105.977043,-689.485948
163537.868478,296.082377,-6587.832884,0.000000
163537.868798,-1924.535449,-9326.594869,-2451.505594
163537.869117,-666.185348,-11843.295072,-383.047749
163537.869437,-3552.988522,-9844.739029,0.000000
163537.869757,1702.473667,-8586.388927,76.609550
163537.870077,0.000000,-8808.450710,0.000000
163537.870397,592.164754,-9326.594869,1072.533697
163537.870717,2886.803174,-8290.306550,0.000000
163537.871036,2072.576638,-7476.080014,0.000000
163537.871356,-1258.350101,-10066.800811,-1302.362347
163537.871676,-3552.988522,-10658.965565,-1608.800546
163537.871996,-4737.318029,-9548.656652,-1838.629195
163537.872316,1924.535449,-10584.944971,2604.724693
163537.872636,0.000000,-7476.080014,-919.314598
163537.872955,1110.308913,-7994.224174,919.314598
163537.873275,1184.329507,-8068.244768,612.876398
163537.873595,1702.473667,-9178.553681,1532.190996
163537.873915,-2664.741391,-7772.162391,-2451.505594
163537.874235,-3256.906145,-10140.821405,-1225.752797
163537.874555,-1184.329507,-11029.068536,306.438199
163537.874874,-74.020594,-8586.388927,-689.485948
163537.875194,-2072.576638,-8512.368333,0.000000
163537.875514,0.000000,-11103.089130,3370.820191
163537.875834,-148.041188,-9104.533087,-689.485948
163537.876154,1036.288319,-8438.347739,0.000000
163537.876474,-1850.514855,-8956.491898,-2221.676944
163537.876793,-3849.070898,-8364.327145,-3064.381992
163537.877113,-4589.276840,-8512.368333,-2528.115143
163537.877433,-74.020594,-8882.471304,-689.485948
163537.877753,-1776.494261,-7179.997637,-2145.067394
163537.878073,1998.556043,-10362.883188,2451.505594
163537.878393,4663.297435,-9474.636058,2374.896044
163537.878712,4145.153275,-9548.656652,2757.943793
163537.879032,222.061783,-9622.677246,306.438199
163537.879352,-2220.617826,-10510.924376,-842.705048
163537.879672,-3034.844362,-10584.944971,-612.876398
163537.879992,0.000000,-7772.162391,-76.609550
163537.880312,2294.638420,-10658.965565,-76.609550
163537.880631,2294.638420,-8586.388927,-153.219100
163537.880951,-1184.329507,-7254.018232,-2528.115143
163537.881271,-1776.494261,-7772.162391,-1532.190996
163537.881591,-666.185348,-10658.965565,-2528.115143
163537.881911,-5033.400406,-10881.027347,-2451.505594
163537.882231,-3923.091493,-10807.006753,-2221.676944
163537.882550,-740.205942,-9474.636058,383.047749
163537.882870,74.020594,-7772.162391,1225.752797
163537.883190,2664.741391,-7179.997637,3064.381992
163537.883510,3404.947333,-8068.244768,1991.848295
163537.883830,3701.029710,-8364.327145,3524.039291
163537.884150,-74.020594,-9474.636058,-995.924147
163537.884469,-2812.782580,-8512.368333,-3140.991542
163537.884789,-74.020594,-14211.954086,-689.485948
163537.885109,0.000000,-9696.697840,-766.095498
163537.885429,0.000000,-9696.697840,-1072.533697
163537.885749,666.185348,-9474.636058,306.438199
163537.886069,0.000000,-8364.327145,0.000000
163537.886388,592.164754,-7476.080014,1225.752797
163537.886708,0.000000,-5403.503377,0.000000
163537.887028,-1036.288319,-9104.533087,1532.190996
163537.887348,-1850.514855,-9178.553681,1762.019645
163537.887668,1998.556043,-8290.306550,1149.143247
163537.887988,-222.061783,-9696.697840,842.705048
163537.888307,0.000000,-9252.574275,919.314598
163537.888627,-666.185348,-9474.636058,-995.924147
163537.888947,296.082377,-9548.656652,306.438199
163537.889267,-4145.153275,-8364.327145,-4290.134789
163537.889587,-1258.350101,-11843.295072,-1915.238745
163537.889907,-4663.297435,-9844.739029,-3677.258390
163537.890226,-2220.617826,-9696.697840,0.000000
163537.890546,-74.020594,-10658.965565,-76.609550
163537.890866,2294.638420,-8882.471304,-76.609550
163537.891186,1110.308913,-8364.327145,689.485948
163537.891506,3256.906145,-8068.244768,2987.772442
163537.891825,1406.391290,-7402.059420,-459.657299
163537.892145,-74.020594,-10955.047942,1991.848295
163537.892465,-1776.494261,-10881.027347,-612.876398
163537.892785,-74.020594,-10658.965565,-383.047749
163537.893105,-2442.679609,-10658.965565,-1915.238745
163537.893425,-2368.659014,-8956.491898,-1991.848295
163537.893744,-2960.823768,-7772.162391,-2451.505594
163537.894064,4367.215058,-9178.553681,1762.019645
163537.894384,1554.432478,-7846.182985,306.438199
163537.894704,1480.411884,-8068.244768,1455.581446
163537.895024,-814.226536,-8364.327145,-383.047749
163537.895344,888.247130,-9548.656652,4290.134789
163537.895663,-1184.329507,-7772.162391,-1532.190996
163537.895983,-2368.659014,-9548.656652,1225.752797
163537.896303,1332.370696,-11473.192101,1762.019645
163537.896623,1702.473667,-9326.594869,3294.210641
163537.896943,-222.061783,-7179.997637,-3983.696590
163537.897263,-962.267725,-9992.780217,-842.705048
163537.897582,-3330.926739,-11251.130318,-2834.553343
163537.897902,-1036.288319,-9992.780217,-689.485948
163537.898222,-2294.638420,-9474.636058,-2068.457845
163537.898542,0.000000,-10140.821405,1225.752797
163537.898862,-1258.350101,-6291.750507,-2451.505594
163537.899182,2368.659014,-7328.038826,2604.724693
163537.899501,1702.473667,-6957.935855,0.000000
163537.899821,666.185348,-9178.553681,-689.485948
163537.900141,-74.020594,-11843.295072,-1302.362347
163537.900461,-2368.659014,-10510.924376,-612.876398
163537.900781,-2886.803174,-10881.027347,-2298.286494
163537.901101,-296.082377,-10955.047942,766.095498
163537.901420,592.164754,-7772.162391,306.438199
163537.901740,4441.235652,-8142.265362,3600.648841
163537.902060,2294.638420,-8290.306550,-76.609550
163537.902380,-74.020594,-11843.295072,3294.210641
163537.902700,-666.185348,-8882.471304,-1302.362347
163537.903019,1776.494261,-9844.739029,4290.134789
163537.903339,-1554.432478,-7698.141797,-2834.553343
163537.903659,-1998.556043,-9104.533087,1225.752797
163537.903979,-1554.432478,-8586.388927,-1149.143247
163537.904299,-666.185348,-8660.409521,229.828649
163537.904619,-2442.679609,-6957.935855,-6818.249932
163537.904938,-3034.844362,-11325.150913,-766.095498
163537.905258,-3330.926739,-9992.780217,-2451.505594
163537.905578,-2294.638420,-10362.883188,766.095498
163537.905898,-2442.679609,-9474.636058,-1302.362347
163537.906218,-888.247130,-10658.965565,1149.143247
163537.906537,1184.329507,-7920.203579,1225.752797
163537.906857,5847.626942,-8290.306550,3600.648841
163537.907177,2294.638420,-9474.636058,-76.609550
163537.907497,-2368.659014,-9548.656652,0.000000
163537.907817,-2442.679609,-10362.883188,-4979.620737
163537.908137,-666.185348,-11843.295072,-1302.362347
163537.908456,-518.144159,-11547.212695,-2604.724693
163537.908776,-592.164754,-11769.274478,842.705048
163537.909096,740.205942,-9770.718434,766.095498
163537.909416,3923.091493,-7624.121203,2987.772442
163537.909736,296.082377,-5403.503377,-1225.752797
163537.910055,-2960.823768,-5995.668130,0.000000
163537.910375,-1184.329507,-9030.512492,-306.438199
163537.910695,0.000000,-7179.997637,612.876398
163537.911015,-74.020594,-9178.553681,-1302.362347
163537.911335,-1184.329507,-10732.986159,1685.410096
163537.911654,-370.102971,-9030.512492,-842.705048
163537.911974,1776.494261,-8734.430116,1455.581446
163537.912294,1110.308913,-8586.388927,-2528.115143
163537.912614,-3478.967927,-9844.739029,-1762.019645
163537.912934,-5625.565159,-8364.327145,-4903.011187
163537.913254,-2368.659014,-10140.821405,0.000000
163537.913573,-2146.597232,-10288.862594,-1302.362347
163537.913893,-2368.659014,-7179.997637,0.000000
163537.914213,2294.638420,-8364.327145,689.485948
163537.914533,4367.215058,-7031.956449,3753.867940
163537.914853,1702.473667,-6957.935855,-1685.410096
163537.915172,-666.185348,-10658.965565,-76.609550
163537.915492,-74.020594,-10658.965565,-2528.115143
163537.915812,-74.020594,-11843.295072,-76.609550
163537.916132,-2960.823768,-10140.821405,-4290.134789
163537.916452,-2368.659014,-11325.150913,-2145.067394
163537.916771,-1776.494261,-10732.986159,0.000000
163537.917091,1850.514855,-7328.038826,995.924147
163537.917411,2220.617826,-7254.018232,-995.924147
163537.917731,1332.370696,-8512.368333,1915.238745
163537.918051,0.000000,-7920.203579,-1072.533697
163537.918371,1850.514855,-10881.027347,2528.115143
163537.918690,-2960.823768,-9548.656652,-1838.629195
163537.919010,-1258.350101,-12435.459826,842.705048
163537.919330,-2738.761985,-11843.295072,-76.609550
163537.919650,0.000000,-7179.997637,1225.752797
163537.919970,0.000000,-5995.668130,-2451.505594
163537.920289,-1702.473667,-9400.615463,-689.485948
163537.920609,-1998.556043,-9548.656652,-3524.039291
163537.920929,-1628.453072,-10732.986159,536.266849
163537.921249,-3256.906145,-7179.997637,-5209.449386
163537.921569,-3923.091493,-10658.965565,-1302.362347
163537.921889,-2368.659014,-9252.574275,-1608.800546
163537.922208,1184.329507,-5995.668130,1838.629195
163537.922528,1480.411884,-5995.668130,0.000000
163537.922848,2294.638420,-9400.615463,3524.039291
163537.923168,0.000000,-7179.997637,-2451.505594
163537.923488,962.267725,-9992.780217,1072.533697
163537.923807,-740.205942,-10732.986159,-2987.772442
163537.924127,-2368.659014,-13027.624579,459.657299
163537.924447,-74.020594,-10362.883188,-2528.115143
163537.924767,2590.720797,-8882.471304,3294.210641
163537.925087,3478.967927,-8290.306550,-76.609550
163537.925406,222.061783,-8586.388927,229.828649
163537.925726,0.000000,-8290.306550,-1608.800546
163537.926046,2368.659014,-9844.739029,4290.134789
163537.926366,0.000000,-8956.491898,-1685.410096
163537.926686,222.061783,-10955.047942,2145.067394
163537.927006,370.102971,-10214.842000,-1149.143247
163537.927325,1036.288319,-9326.594869,1378.971896
163537.927645,-666.185348,-8290.306550,-3753.867940
163537.927965,-4737.318029,-9844.739029,0.000000
163537.928285,-888.247130,-9844.739029,-3753.867940
163537.928605,2294.638420,-13027.624579,3600.648841
163537.928924,1110.308913,-8882.471304,-2528.115143
163537.929244,-1776.494261,-12213.398043,2757.943793
163537.929564,222.061783,-8882.471304,-1225.752797
163537.929884,1406.391290,-8290.306550,1838.629195
163537.930204,370.102971,-8660.409521,-1302.362347
163537.930524,-2368.659014,-8364.327145,0.000000
163537.930843,0.000000,-7846.182985,-2298.286494
163537.931163,3256.906145,-9844.739029,2911.162892
163537.931483,2368.659014,-7179.997637,0.000000
163537.931803,1110.308913,-11843.295072,2681.334243
163537.932123,-74.020594,-11251.130318,-76.609550
163537.932442,-2960.823768,-10140.821405,919.314598
163537.932762,-2294.638420,-8364.327145,-3217.601092
163537.933082,-2220.617826,-9918.759623,0.000000
163537.933402,0.000000,-8068.244768,-1072.533697
163537.933722,74.020594,-6587.832884,612.876398
163537.934041,-518.144159,-6883.915261,-1149.143247
163537.934361,-5107.421000,-7772.162391,0.000000
163537.934681,-2072.576638,-8956.491898,-919.314598
163537.935001,-370.102971,-10288.862594,2451.505594
163537.935321,-1776.494261,-7772.162391,0.000000
163537.935641,-2146.597232,-9696.697840,229.828649
163537.935960,-2590.720797,-9030.512492,-2451.505594
163537.936280,-1480.411884,-9326.594869,-306.438199
163537.936600,-518.144159,-8364.327145,-4673.182538
163537.936920,-370.102971,-11843.295072,306.438199
163537.937240,-2368.659014,-10140.821405,-2145.067394
163537.937559,-666.185348,-12435.459826,1762.019645
163537.937879,-370.102971,-9474.636058,-2528.115143
163537.938199,-2812.782580,-8364.327145,0.000000
163537.938519,-370.102971,-6513.812290,-3753.867940
163537.938839,1332.370696,-8956.491898,2221.676944
163537.939158,1998.556043,-8438.347739,-459.657299
163537.939478,592.164754,-10140.821405,1915.238745
163537.939798,2220.617826,-11843.295072,-76.609550
163537.940118,814.226536,-10066.800811,3294.210641
163537.940438,666.185348,-7698.141797,-1302.362347
163537.940758,-1258.350101,-7179.997637,-1149.143247
163537.941077,-2368.659014,-7772.162391,-3370.820191
163537.941397,1998.556043,-11251.130318,1149.143247
163537.941717,1184.329507,-9548.656652,-1532.190996
163537.942037,-1110.308913,-10510.924376,1915.238745
163537.942357,-888.247130,-9696.697840,-1608.800546
163537.942676,74.020594,-9844.739029,2987.772442
163537.942996,0.000000,-4811.338623,-2451.505594
163537.943316,-1110.308913,-8586.388927,919.314598
163537.943636,-1184.329507,-7179.997637,-2528.115143
163537.943956,0.000000,-9178.553681,0.000000
163537.944276,1110.308913,-9474.636058,-2221.676944
163537.944595,-962.267725,-9696.697840,0.000000
163537.944915,-666.185348,-12731.542202,-842.705048
163537.945235,-74.020594,-11695.253884,3140.991542
163537.945555,1110.308913,-10362.883188,-1072.533697
163537.945875,0.000000,-9400.615463,2298.286494
163537.946194,0.000000,-6291.750507,-2451.505594
163537.946514,2442.679609,-9326.594869,1608.800546
163537.946834,2738.761985,-8438.347739,-919.314598
163537.947154,666.185348,-11399.171507,1149.143247
163537.947474,-74.020594,-10288.862594,-3294.210641
163537.947793,-222.061783,-10288.862594,1302.362347
163537.948113,296.082377,-9400.615463,-919.314598
163537.948433,-74.020594,-9474.636058,-76.609550
163537.948753,-1776.494261,-7179.997637,-2451.505594
163537.949073,1776.494261,-9696.697840,3983.696590
163537.949393,1776.494261,-7476.080014,-383.047749
163537.949712,-740.205942,-10510.924376,1762.019645
163537.950032,-2368.659014,-9400.615463,-1302.362347
163537.950352,-2294.638420,-9992.780217,995.924147
163537.950672,-2072.576638,-7179.997637,-1225.752797
163537.950992,-1628.453072,-8734.430116,1072.533697
163537.951311,-74.020594,-9474.636058,-76.609550
163537.951631,1110.308913,-9474.636058,1149.143247
163537.951951,-666.185348,-7846.182985,-3447.429741
163537.952271,-74.020594,-13027.624579,-76.609550
163537.952591,-1924.535449,-10584.944971,-2298.286494
163537.952911,-962.267725,-11029.068536,1302.362347
163537.953230,-814.226536,-9400.615463,-1225.752797
163537.953550,0.000000,-8956.491898,1225.752797
163537.953870,0.000000,-5995.668130,-2451.505594
163537.954190,0.000000,-7179.997637,766.095498
163537.954510,1776.494261,-7476.080014,-1532.190996
163537.954829,2294.638420,-10140.821405,2451.505594
163537.955149,2294.638420,-8734.430116,-2528.115143
163537.955469,1406.391290,-12435.459826,2374.896044
163537.955789,-2220.617826,-8734.430116,-2757.943793
163537.956109,-3775.050304,-11103.089130,-689.485948
163537.956428,-1776.494261,-8956.491898,-3294.210641
163537.956748,0.000000,-9548.656652,0.000000
163537.957068,1702.473667,-8290.306550,-229.828649
163537.957388,0.000000,-7772.162391,1455.581446
163537.957708,1184.329507,-6291.750507,0.000000
163537.958028,1184.329507,-8956.491898,3677.258390
163537.958347,1702.473667,-7698.141797,-1915.238745
163537.958667,-2664.741391,-9918.759623,1072.533697
163537.958987,-2294.638420,-8364.327145,-2451.505594
163537.959307,-296.082377,-10140.821405,1072.533697
163537.959627,1998.556043,-8364.327145,-689.485948
163537.959946,-296.082377,-9844.739029,1685.410096
163537.960266,-666.185348,-9474.636058,-1302.362347
163537.960586,-1258.350101,-11843.295072,2987.772442
163537.960906,-3404.947333,-7179.997637,-3370.820191
163537.961226,-4441.235652,-8364.327145,-2451.505594
163537.961545,-1258.350101,-7105.977043,-3140.991542
163537.961865,296.082377,-8734.430116,1532.190996
163537.962185,2886.803174,-8142.265362,-612.876398
163537.962505,1332.370696,-10066.800811,2451.505594
163537.962825,2072.576638,-10658.965565,1991.848295
163537.963145,1184.329507,-11621.233289,2451.505594
163537.963464,592.164754,-9548.656652,0.000000
163537.963784,-1332.370696,-11843.295072,-76.609550
163537.964104,-1406.391290,-9918.759623,-1302.362347
163537.964424,74.020594,-7179.997637,0.000000
163537.964744,5255.462188,-7994.224174,842.705048
163537.965063,2220.617826,-8364.327145,2528.115143
163537.965383,1110.308913,-7772.162391,0.000000
163537.965703,1184.329507,-9696.697840,2221.676944
163537.966023,0.000000,-7772.162391,-2145.067394
163537.966343,-6217.729913,-9548.656652,-2451.505594
163537.966663,-6513.812290,-9548.656652,-3677.258390
163537.966982,-2368.659014,-10140.821405,-1838.629195
163537.967302,1998.556043,-9474.636058,-1302.362347
163537.967622,-1924.535449,-7179.997637,-2451.505594
163537.967942,-74.020594,-9474.636058,-1532.190996
163537.968262,74.020594,-9770.718434,1302.362347
163537.968581,74.020594,-8142.265362,-1225.752797
163537.968901,-2368.659014,-10658.965565,-76.609550
163537.969221,-1110.308913,-9178.553681,-229.828649
163537.969541,2294.638420,-9178.553681,2374.896044
163537.969861,2516.700203,-4811.338623,-3294.210641
163537.970180,0.000000,-9548.656652,2451.505594
163537.970500,592.164754,-9548.656652,0.000000
163537.970820,222.061783,-9178.553681,0.000000
163537.971140,148.041188,-9474.636058,-2451.505594
163537.971460,-4515.256246,-10881.027347,-1685.410096
163537.971780,-3034.844362,-9474.636058,-2757.943793
163537.972099,1702.473667,-11547.212695,2221.676944
163537.972419,2516.700203,-8512.368333,-153.219100
163537.972739,1110.308913,-11547.212695,3600.648841
163537.973059,518.144159,-8142.265362,-689.485948
163537.973379,1184.329507,-9992.780217,3064.381992
163537.973698,0.000000,-5995.668130,0.000000
163537.974018,-1554.432478,-8882.471304,842.705048
163537.974338,-2368.659014,-8882.471304,-1455.581446
163537.974658,-1332.370696,-8808.450710,689.485948
163537.974978,-296.082377,-8586.388927,-2757.943793
163537.975298,-962.267725,-12731.542202,689.485948
163537.975617,-4737.318029,-8364.327145,-4290.134789
163537.975937,-888.247130,-11325.150913,306.438199
163537.976257,1702.473667,-10066.800811,0.000000
163537.976577,-148.041188,-10658.965565,0.000000
163537.976897,-74.020594,-9474.636058,-1915.238745
163537.977216,1184.329507,-8956.491898,1455.581446
163537.977536,2812.782580,-7179.997637,-689.485948
163537.977856,1110.308913,-9474.636058,1149.143247
163537.978176,2590.720797,-10140.821405,1762.019645
163537.978496,740.205942,-10955.047942,2145.067394
163537.978815,2294.638420,-9474.636058,-842.705048
163537.979135,-2146.597232,-10658.965565,-76.609550
163537.979455,-2368.659014,-8364.327145,-2451.505594
163537.979775,1702.473667,-11547.212695,2374.896044
163537.980095,1776.494261,-8142.265362,919.314598
163537.980415,74.020594,-8512.368333,383.047749
163537.980734,888.247130,-9178.553681,-612.876398
163537.981054,2294.638420,-10955.047942,2987.772442
163537.981374,0.000000,-7179.997637,-2451.505594
163537.981694,-3330.926739,-10362.883188,-306.438199
163537.982014,-4589.276840,-9474.636058,-3524.039291
163537.982333,-2294.638420,-9844.739029,-689.485948
163537.982653,518.144159,-9326.594869,-1915.238745
163537.982973,-74.020594,-11251.130318,-76.609550
163537.983293,1776.494261,-9474.636058,-76.609550
163537.983613,962.267725,-9326.594869,842.705048
163537.983932,740.205942,-6513.812290,-2528.115143
163537.984252,-4441.235652,-9548.656652,306.438199
163537.984572,-4515.256246,-8068.244768,-3753.867940
163537.984892,-1850.514855,-9252.574275,-612.876398
163537.985212,0.000000,-7402.059420,-612.876398
163537.985532,444.123565,-9178.553681,459.657299
163537.985851,2960.823768,-8586.388927,995.924147
163537.986171,1184.329507,-8364.327145,1225.752797
163537.986491,1924.535449,-8364.327145,-153.219100
163537.986811,-2664.741391,-11325.150913,0.000000
163537.987131,-370.102971,-11843.295072,-1302.362347
163537.987450,0.000000,-8364.327145,1225.752797
163537.987770,2886.803174,-7179.997637,842.705048
163537.988090,2072.576638,-8216.285956,2221.676944
163537.988410,2072.576638,-7624.121203,1532.190996
163537.988730,1480.411884,-9030.512492,1915.238745
163537.989050,814.226536,-7772.162391,-1302.362347
163537.989369,-5847.626942,-9992.780217,-1532.190996
163537.989689,-8882.471304,-8364.327145,-4290.134789
163537.990009,-3997.112087,-11177.109724,-229.828649
163537.990329,-666.185348,-8882.471304,-1762.019645
163537.990649,-2960.823768,-9548.656652,0.000000
163537.990968,-1332.370696,-9548.656652,-1762.019645
163537.991288,-74.020594,-9770.718434,766.095498
163537.991608,1332.370696,-9548.656652,-383.047749
163537.991928,-2294.638420,-8882.471304,-1302.362347
163537.992248,-1258.350101,-9178.553681,-1915.238745
163537.992567,-1554.432478,-7550.100608,-1072.533697
163537.992887,1776.494261,-7476.080014,0.000000
163537.993207,3478.967927,-9474.636058,1225.752797
163537.993527,4663.297435,-9474.636058,2374.896044
163537.993847,1184.329507,-9548.656652,1225.752797
163537.994167,740.205942,-9992.780217,-1225.752797
163537.994486,-2960.823768,-11621.233289,-2528.115143
163537.994806,-4441.235652,-10436.903782,-3370.820191
163537.995126,-2738.761985,-10658.965565,-1302.362347
163537.995446,592.164754,-8808.450710,306.438199
163537.995766,2294.638420,-8882.471304,2374.896044
163537.996085,3182.885551,-8882.471304,2987.772442
163537.996405,3478.967927,-7105.977043,1762.019645
163537.996725,3552.988522,-9104.533087,2987.772442
163537.997045,-2738.761985,-8956.491898,-536.266849
163537.997365,-2886.803174,-10140.821405,-2145.067394
163537.997685,-3701.029710,-11473.192101,-1072.533697
163537.998004,-1110.308913,-10140.821405,-2451.505594
163537.998324,-2368.659014,-8364.327145,-3677.258390
163537.998644,0.000000,-9548.656652,-1225.752797
163537.998964,0.000000,-8364.327145,0.000000
163537.999284,1480.411884,-9844.739029,-229.828649
163537.999603,-1554.432478,-9474.636058,-1915.238745
163537.999923,-1480.411884,-10140.821405,-76.609550
163538.000243,-888.247130,-9548.656652,536.266849
163538.000563,1998.556043,-7254.018232,153.219100
163538.000883,1480.411884,-8808.450710,842.705048
163538.001203,74.020594,-6143.709319,0.000000
163538.001523,1184.329507,-8364.327145,306.438199
163538.001842,2294.638420,-10066.800811,-689.485948
163538.002162,-1702.473667,-10436.903782,-1532.190996
163538.002482,-2812.782580,-10140.821405,-2451.505594
163538.002802,-74.020594,-11843.295072,-76.609550
163538.003122,296.082377,-8660.409521,612.876398
163538.003442,0.000000,-7179.997637,0.000000
163538.003762,2072.576638,-8660.409521,1991.848295
163538.004081,1998.556043,-7846.182985,1608.800546
163538.004401,74.020594,-6217.729913,-76.609550
163538.004721,-444.123565,-11843.295072,-76.609550
163538.005041,-3182.885551,-9474.636058,-2374.896044
163538.005361,-5329.482782,-9548.656652,-4213.525239
163538.005681,-4145.153275,-8364.327145,-1838.629195
163538.006001,-74.020594,-11251.130318,-76.609550
163538.006320,0.000000,-8364.327145,-459.657299
163538.006640,-370.102971,-9104.533087,0.000000
163538.006960,518.144159,-9252.574275,153.219100
163538.007280,-2368.659014,-8364.327145,0.000000
163538.007600,-2368.659014,-7772.162391,0.000000
163538.007920,-2590.720797,-10584.944971,-229.828649
163538.008240,-1110.308913,-9474.636058,-76.609550
163538.008560,0.000000,-7179.997637,0.000000
163538.008879,1406.391290,-7698.141797,-76.609550
163538.009199,3997.112087,-11251.130318,2374.896044
163538.009519,2442.679609,-9104.533087,689.485948
163538.009839,-74.020594,-10214.842000,-383.047749
163538.010159,-1702.473667,-10214.842000,-1302.362347
163538.010479,-3552.988522,-9548.656652,0.000000
163538.010799,-1036.288319,-8956.491898,0.000000
163538.011118,0.000000,-8364.327145,612.876398
163538.011438,2294.638420,-7698.141797,842.705048
163538.011758,444.123565,-7254.018232,306.438199
163538.012078,3478.967927,-7105.977043,-76.609550
163538.012398,0.000000,-8512.368333,-842.705048
163538.012718,-1850.514855,-8808.450710,153.219100
163538.013038,-2442.679609,-9992.780217,-1608.800546
163538.013357,-740.205942,-9696.697840,-76.609550
163538.013677,-2368.659014,-7772.162391,-3677.258390
163538.013997,-370.102971,-7994.224174,-1915.238745
163538.014317,296.082377,-8364.327145,-1838.629195
163538.014637,2368.659014,-9474.636058,612.876398
163538.014957,-74.020594,-11843.295072,-2528.115143
163538.015277,-1184.329507,-12139.377449,-76.609550
163538.015597,-1480.411884,-11177.109724,-1532.190996
163538.015916,1702.473667,-10214.842000,1915.238745
163538.016236,3478.967927,-7698.141797,2145.067394
163538.016556,888.247130,-3627.009116,0.000000
163538.016876,3108.864956,-6587.832884,1225.752797
163538.017196,4145.153275,-7698.141797,2221.676944
163538.017516,-74.020594,-11695.253884,-76.609550
163538.017836,-3034.844362,-11843.295072,-1915.238745
163538.018155,-6513.812290,-11917.315666,-2451.505594
163538.018475,-4737.318029,-10732.986159,-2911.162892
163538.018795,-3404.947333,-10288.862594,-2911.162892
163538.019115,-1924.535449,-9770.718434,0.000000
163538.019435,888.247130,-8956.491898,536.266849
163538.019755,4663.297435,-7105.977043,2374.896044
163538.020075,666.185348,-7772.162391,1378.971896
163538.020394,-518.144159,-8364.327145,1762.019645
163538.020714,-2146.597232,-9104.533087,0.000000
163538.021034,-74.020594,-10140.821405,2451.505594
163538.021354,-1776.494261,-8586.388927,-76.609550
163538.021674,-3404.947333,-8660.409521,0.000000
163538.021994,-74.020594,-11547.212695,-306.438199
163538.022314,-74.020594,-11843.295072,-76.609550
163538.022633,-3701.029710,-9030.512492,-4366.744339
163538.022953,-2442.679609,-11547.212695,-1608.800546
163538.023273,-4885.359217,-9844.739029,-3370.820191
163538.023593,-3108.864956,-9474.636058,-1225.752797
163538.023913,-3034.844362,-9400.615463,-1685.410096
163538.024233,-1628.453072,-8882.471304,1915.238745
163538.024553,2368.659014,-8882.471304,2604.724693
163538.024873,4663.297435,-7031.956449,3677.258390
163538.025192,3478.967927,-8586.388927,1762.019645
163538.025512,-74.020594,-7772.162391,0.000000
163538.025832,-2442.679609,-8586.388927,-3524.039291
163538.026152,0.000000,-11029.068536,306.438199
163538.026472,-1850.514855,-10214.842000,-1762.019645
163538.026792,-2146.597232,-10807.006753,-689.485948
163538.027112,-1776.494261,-9252.574275,-2221.676944
163538.027431,3478.967927,-9474.636058,2068.457845
163538.027751,1110.308913,-7698.141797,-76.609550
163538.028071,-74.020594,-9474.636058,-76.609550
163538.028391,-2368.659014,-7179.997637,-1991.848295
163538.028711,0.000000,-8956.491898,2145.067394
163538.029031,-3108.864956,-5403.503377,-4213.525239
163538.029351,-888.247130,-10584.944971,229.828649
163538.029670,888.247130,-10288.862594,-306.438199
163538.029990,2590.720797,-9474.636058,1149.143247
163538.030310,1110.308913,-11251.130318,-76.609550
163538.030630,2294.638420,-11843.295072,-1225.752797
163538.030950,1110.308913,-11843.295072,-76.609550
163538.031270,1702.473667,-9474.636058,-76.609550
163538.031590,-1110.308913,-11251.130318,-689.485948
163538.031910,-3552.988522,-9548.656652,0.000000
163538.032229,0.000000,-8068.244768,-2221.676944
163538.032549,2516.700203,-8660.409521,1455.581446
163538.032869,2220.617826,-8216.285956,-536.266849
163538.033189,296.082377,-9252.574275,76.609550
163538.033509,-740.205942,-9844.739029,-766.095498
163538.033829,-2368.659014,-9844.739029,0.000000
163538.034149,-1184.329507,-11103.089130,-689.485948
163538.034468,1628.453072,-12731.542202,2987.772442
163538.034788,-74.020594,-9474.636058,-76.609550
163538.035108,0.000000,-7179.997637,2451.505594
163538.035428,-74.020594,-7624.121203,-842.705048
163538.035748,-666.185348,-8734.430116,842.705048
163538.036068,-666.185348,-9400.615463,0.000000
163538.036388,-814.226536,-9104.533087,229.828649
163538.036707,-2738.761985,-8808.450710,-2528.115143
163538.037027,-3552.988522,-9844.739029,0.000000
163538.037347,-2960.823768,-7476.080014,-2451.505594
163538.037667,1776.494261,-10140.821405,1991.848295
163538.037987,-74.020594,-9474.636058,-1302.362347
163538.038307,-5625.565159,-8364.327145,-2451.505594
163538.038627,-1850.514855,-11029.068536,-2681.334243
163538.038947,0.000000,-11473.192101,689.485948
163538.039266,-666.185348,-9474.636058,-1915.238745
163538.039586,-1258.350101,-8882.471304,-76.609550
163538.039906,1702.473667,-8290.306550,1685.410096
163538.040226,4663.297435,-8290.306550,2221.676944
163538.040546,-2368.659014,-5403.503377,-3370.820191
163538.040866,-4737.318029,-10140.821405,0.000000
163538.041186,-4145.153275,-10732.986159,-919.314598
163538.041505,-4293.194464,-10140.821405,612.876398
163538.041825,-4663.297435,-8068.244768,-1915.238745
163538.042145,-5181.441594,-9548.656652,1225.752797
163538.042465,-1406.391290,-7624.121203,229.828649
163538.042785,4071.132681,-9474.636058,3600.648841
163538.043105,-2072.576638,-6291.750507,612.876398
163538.043425,-5403.503377,-10362.883188,689.485948
163538.043744,-4811.338623,-13027.624579,-1302.362347
163538.044064,-4811.338623,-12287.418637,-76.609550
163538.044384,-7105.977043,-10732.986159,306.438199
163538.044704,-9474.636058,-10066.800811,-766.095498
163538.045024,-7698.141797,-8808.450710,-2604.724693
163538.045344,-5847.626942,-8068.244768,229.828649
163538.045664,-5625.565159,-5403.503377,-1838.629195
163538.045984,-7772.162391,-5181.441594,-919.314598
163538.046303,-7105.977043,-6587.832884,-1225.752797
163538.046623,-7105.977043,-7179.997637,0.000000
163538.046943,-2590.720797,-11399.171507,1455.581446
163538.047263,-4811.338623,-11843.295072,2374.896044
163538.047583,-9178.553681,-10436.903782,-1532.190996
163538.047903,-7624.121203,-10362.883188,-3753.867940
163538.048223,-5329.482782,-11917.315666,-612.876398
163538.048542,-3256.906145,-9622.677246,612.876398
163538.048862,-4219.173869,-6735.874072,0.000000
163538.049182,-3701.029710,-7698.141797,536.266849
163538.049502,-5255.462188,-5403.503377,-2451.505594
163538.049822,-3552.988522,-9548.656652,1532.190996
163538.050142,-3034.844362,-8364.327145,1225.752797
163538.050462,-4145.153275,-9548.656652,2451.505594
163538.050781,-4219.173869,-7698.141797,-306.438199
163538.051101,-3330.926739,-9252.574275,229.828649
163538.051421,-3182.885551,-9400.615463,919.314598
163538.051741,-2072.576638,-7179.997637,-1685.410096
163538.052061,-1850.514855,-9474.636058,-2145.067394
163538.052381,-5921.647536,-8512.368333,-2757.943793
163538.052701,-6291.750507,-10066.800811,-5286.058936
163538.053020,-7105.977043,-11399.171507,-4979.620737
163538.053340,-4737.318029,-9548.656652,-3677.258390
163538.053660,-2146.597232,-9548.656652,-995.924147
163538.053980,-1406.391290,-8586.388927,536.266849
163538.054300,-1702.473667,-7994.224174,-536.266849
163538.054620,222.061783,-7994.224174,919.314598
163538.054940,4663.297435,-9474.636058,3600.648841
163538.055260,3182.885551,-7105.977043,2834.553343
163538.055579,2294.638420,-7031.956449,2374.896044
163538.055899,-962.267725,-5699.585753,-2221.676944
163538.056219,-3256.906145,-10140.821405,-1838.629195
163538.056539,-1258.350101,-11843.295072,-3140.991542
163538.056859,-3404.947333,-12805.562797,-1532.190996
163538.057179,-4293.194464,-11399.171507,-1072.533697
163538.057499,-3627.009116,-9844.739029,-995.924147
163538.057818,-2664.741391,-9474.636058,1149.143247
163538.058138,-2368.659014,-5995.668130,1225.752797
163538.058458,814.226536,-6513.812290,1915.238745
163538.058778,0.000000,-7031.956449,2681.334243
163538.059098,592.164754,-5995.668130,1838.629195
163538.059418,-1850.514855,-7105.977043,1302.362347
163538.059738,-3552.988522,-7476.080014,-2451.505594
163538.060057,-4811.338623,-10658.965565,-4979.620737
163538.060377,-8290.306550,-11917.315666,-5515.887586
163538.060697,-8586.388927,-11621.233289,-5515.887586
163538.061017,-4441.235652,-14211.954086,-76.609550
163538.061337,-4441.235652,-10140.821405,612.876398
163538.061657,-666.185348,-8808.450710,2374.896044
163538.061977,-1184.329507,-5699.585753,1762.019645
163538.062297,-2738.761985,-5329.482782,1915.238745
163538.062616,-3034.844362,-5107.421000,0.000000
163538.062936,-2812.782580,-7328.038826,1378.971896
163538.063256,-3330.926739,-9474.636058,2298.286494
163538.063576,-4811.338623,-10658.965565,-1302.362347
163538.063896,-6809.894666,-9696.697840,-2374.896044
163538.064216,-5921.647536,-10584.944971,-612.876398
163538.064536,-7254.018232,-10214.842000,-4673.182538
163538.064855,-6217.729913,-11399.171507,-3524.039291
163538.065175,-4959.379811,-10584.944971,-612.876398
163538.065495,-4071.132681,-10436.903782,612.876398
163538.065815,-4737.318029,-7179.997637,0.000000
163538.066135,-1184.329507,-7179.997637,1838.629195
163538.066455,0.000000,-5995.668130,4903.011187
163538.066775,-74.020594,-4441.235652,2068.457845
163538.067094,-3034.844362,-7105.977043,-689.485948
163538.067414,-5921.647536,-10140.821405,-1685.410096
163538.067734,-7254.018232,-11103.089130,-3370.820191
163538.068054,-8734.430116,-12657.521608,-3753.867940
163538.068374,-9030.512492,-13027.624579,-4213.525239
163538.068694,-8586.388927,-10732.986159,-4749.792088
163538.069014,-3034.844362,-11843.295072,1149.143247
163538.069334,-1258.350101,-7105.977043,1455.581446
163538.069653,-2294.638420,-4145.153275,1149.143247
163538.069973,-3775.050304,-2886.803174,-2145.067394
163538.070293,2294.638420,-10658.965565,2374.896044
163538.070613,0.000000,-9252.574275,3677.258390
163538.070933,-2442.679609,-9918.759623,1915.238745
163538.071253,-4737.318029,-10584.944971,-1225.752797
163538.071573,-5107.421000,-11621.233289,-3907.087040
163538.071892,-2442.679609,-12287.418637,-2757.943793
163538.072212,-74.020594,-11843.295072,536.266849
163538.072532,-74.020594,-9474.636058,1838.629195
163538.072852,-74.020594,-7698.141797,-76.609550
163538.073172,-1406.391290,-7698.141797,-2528.115143
163538.073492,-74.020594,-11843.295072,-76.609550
163538.073812,-2072.576638,-9992.780217,1072.533697
163538.074131,-2664.741391,-10436.903782,3600.648841
163538.074451,-3997.112087,-8438.347739,1991.848295
163538.074771,-4737.318029,-6587.832884,0.000000
163538.075091,-4145.153275,-7179.997637,0.000000
163538.075411,518.144159,-9474.636058,612.876398
163538.075731,2294.638420,-11843.295072,3907.087040
163538.076051,-666.185348,-9474.636058,842.705048
163538.076371,-4515.256246,-7402.059420,-2528.115143
163538.076690,-3923.091493,-10658.965565,-2528.115143
163538.077010,-4071.132681,-8586.388927,-5515.887586
163538.077330,-3330.926739,-10510.924376,-4290.134789
163538.077650,-4145.153275,-11547.212695,-2145.067394
163538.077970,-7105.977043,-11325.150913,0.000000
163538.078290,-4441.235652,-13027.624579,1149.143247
163538.078610,-2738.761985,-9548.656652,1302.362347
163538.078929,-1776.494261,-8660.409521,4136.915689
163538.079249,-74.020594,-7105.977043,4519.963438
163538.079569,-74.020594,-3552.988522,2374.896044
163538.079889,-1036.288319,-5107.421000,2451.505594
163538.080209,-2146.597232,-7105.977043,689.485948
163538.080529,-4071.132681,-10214.842000,-995.924147
163538.080849,-5847.626942,-11843.295072,-1302.362347
163538.081168,-8660.409521,-11991.336260,-3447.429741
163538.081488,-7179.997637,-13027.624579,-3140.991542
163538.081808,-7476.080014,-11251.130318,-1915.238745
163538.082128,-3627.009116,-9474.636058,-2528.115143
163538.082448,-2442.679609,-6291.750507,-2451.505594
163538.082768,-74.020594,-7105.977043,-76.609550
163538.083088,-1776.494261,-7328.038826,1532.190996
163538.083407,-2590.720797,-8808.450710,2068.457845
163538.083727,-3701.029710,-11177.109724,2068.457845
163538.084047,-2960.823768,-11769.274478,4903.011187
163538.084367,-4145.153275,-10140.821405,3064.381992
163538.084687,-3034.844362,-9104.533087,612.876398
163538.085007,-4145.153275,-7328.038826,-459.657299
163538.085327,-4811.338623,-7105.977043,-3907.087040
163538.085647,-7624.121203,-5551.544565,-8580.269578
163538.085966,-5995.668130,-10066.800811,-6205.373534
163538.086286,-6735.874072,-10362.883188,-5209.449386
163538.086606,-5477.523971,-11473.192101,-2681.334243
163538.086926,-2886.803174,-11251.130318,-153.219100
163538.087246,0.000000,-10732.986159,4443.353888
163538.087566,2886.803174,-8364.327145,2451.505594
163538.087886,1480.411884,-7476.080014,5515.887586
163538.088205,2812.782580,-8882.471304,5515.887586
163538.088525,1184.329507,-7772.162391,4903.011187
163538.088845,-666.185348,-9474.636058,2374.896044
163538.089165,-5921.647536,-9548.656652,-1378.971896
163538.089485,-7698.141797,-10362.883188,-3830.477490
163538.089805,-8512.368333,-10288.862594,-4903.011187
163538.090125,-7698.141797,-9548.656652,-3677.258390
163538.090444,-3627.009116,-9474.636058,-1762.019645
163538.090764,-74.020594,-9474.636058,1149.143247
163538.091084,1110.308913,-7402.059420,4213.525239
163538.091404,1110.308913,-6513.812290,1762.019645
163538.091724,592.164754,-8512.368333,5592.497135
163538.092044,0.000000,-8364.327145,3370.820191
163538.092364,-444.123565,-9992.780217,2757.943793
163538.092684,-1406.391290,-10436.903782,1915.238745
163538.093003,-814.226536,-10214.842000,766.095498
163538.093323,814.226536,-8882.471304,-1608.800546
163538.093643,1924.535449,-11029.068536,536.266849
163538.093963,2294.638420,-10807.006753,536.266849
163538.094283,2294.638420,-10881.027347,1762.019645
163538.094603,2072.576638,-9474.636058,3447.429741
163538.094923,3849.070898,-11177.109724,5209.449386
163538.095242,1776.494261,-7772.162391,4903.011187
163538.095562,4663.297435,-9326.594869,7277.907231
163538.095882,2368.659014,-7328.038826,6358.592633
163538.096202,1480.411884,-7772.162391,4903.011187
163538.096522,-666.185348,-8068.244768,4213.525239
163538.096842,-1998.556043,-9918.759623,4749.792088
163538.097162,-3701.029710,-9696.697840,2757.943793
163538.097481,-3775.050304,-10362.883188,2528.115143
163538.097801,-1554.432478,-11843.295072,3983.696590
163538.098121,-370.102971,-11843.295072,5439.278036
163538.098441,0.000000,-8364.327145,6741.640382
163538.098761,2368.659014,-7179.997637,7354.516781
163538.099081,4071.132681,-6809.894666,7890.783629
163538.099401,0.000000,-2442.679609,2451.505594
163538.099721,1110.308913,-6513.812290,3600.648841
163538.100040,296.082377,-9252.574275,3907.087040
163538.100360,-1258.350101,-12213.398043,4519.963438
163538.100680,-1628.453072,-15544.324782,5898.935335
163538.101000,-1628.453072,-16580.613101,8350.440928
163538.101320,-1554.432478,-14063.912898,9576.193725
163538.101640,-2812.782580,-8882.471304,7277.907231
163538.101960,-2664.741391,-4219.173869,6128.763984
163538.102279,0.000000,-2442.679609,5669.106685
163538.102599,0.000000,-666.185348,2451.505594
163538.102919,1776.494261,-5921.647536,5439.278036
163538.103239,592.164754,-9252.574275,5669.106685
163538.103559,0.000000,-10881.027347,5975.544884
163538.103879,-1554.432478,-11843.295072,6052.154434
163538.104198,-1258.350101,-13027.624579,4826.401637
163538.104518,-5921.647536,-10140.821405,3677.258390
163538.104838,-1924.535449,-10510.924376,4826.401637
163538.105158,0.000000,-8956.491898,5209.449386
163538.105478,2368.659014,-11029.068536,7584.345430
163538.105797,0.000000,-9548.656652,4903.011187
163538.106117,-962.267725,-8882.471304,3600.648841
163538.106437,-2368.659014,-8438.347739,2834.553343
163538.106757,-3034.844362,-7179.997637,0.000000
163538.107077,-1184.329507,-8734.430116,2757.943793
163538.107397,1702.473667,-7550.100608,2987.772442
163538.107716,3552.988522,-5995.668130,2528.115143
163538.108036,1480.411884,-8364.327145,1225.752797
163538.108356,-148.041188,-12509.480420,766.095498
163538.108676,-2664.741391,-13989.892304,459.657299
163538.108996,-2960.823768,-13619.789333,-76.609550
163538.109315,-1924.535449,-11325.150913,536.266849
163538.109635,-1554.432478,-9548.656652,306.438199
163538.109955,74.020594,-8882.471304,0.000000
163538.110275,2664.741391,-8364.327145,1838.629195
163538.110595,4737.318029,-8216.285956,5669.106685
163538.110915,2442.679609,-3923.091493,76.609550
163538.111234,740.205942,-6069.688724,-1378.971896
163538.111554,0.000000,-8364.327145,0.000000
163538.111874,4663.297435,-11843.295072,1149.143247
163538.112194,3478.967927,-10066.800811,2374.896044
163538.112514,-1110.308913,-9918.759623,-919.314598
163538.112833,-5033.400406,-10732.986159,-4979.620737
163538.113153,-6069.688724,-13027.624579,-3983.696590
163538.113473,-5625.565159,-13101.645173,306.438199
163538.113793,-2442.679609,-9548.656652,536.266849
163538.114113,-1110.308913,-6735.874072,0.000000
163538.114433,1184.329507,-6809.894666,1225.752797
163538.114752,3478.967927,-4737.318029,1762.019645
163538.115072,0.000000,-3330.926739,0.000000
163538.115392,1998.556043,-8290.306550,-76.609550
163538.115712,0.000000,-11103.089130,-689.485948
163538.116032,-1702.473667,-11621.233289,-766.095498
163538.116351,-3256.906145,-11843.295072,-689.485948
163538.116671,-2516.700203,-13101.645173,1149.143247
163538.116991,-370.102971,-11991.336260,-76.609550
163538.117311,1110.308913,-10658.965565,2374.896044
163538.117631,-74.020594,-9178.553681,2374.896044
163538.117951,-2220.617826,-7402.059420,1838.629195
163538.118270,0.000000,-8364.327145,3983.696590
163538.118590,2368.659014,-6883.915261,4136.915689
163538.118910,2960.823768,-8216.285956,4290.134789
163538.119230,1110.308913,-8956.491898,3370.820191
163538.119550,814.226536,-8290.306550,1149.143247
163538.119869,-74.020594,-11843.295072,2374.896044
163538.120189,-2738.761985,-14211.954086,2374.896044
163538.120509,-4071.132681,-10362.883188,76.609550
163538.120829,-3552.988522,-9252.574275,1225.752797
163538.121149,0.000000,-9548.656652,4290.134789
163538.121469,-2368.659014,-7179.997637,3064.381992
163538.121788,-1332.370696,-7772.162391,5286.058936
163538.122108,-1332.370696,-7105.977043,4749.792088
163538.122428,0.000000,-6587.832884,3600.648841
163538.122748,2294.638420,-7105.977043,4213.525239
163538.123068,3849.070898,-9548.656652,7354.516781
163538.123387,4367.215058,-11547.212695,5439.278036
163538.123707,-592.164754,-12213.398043,2834.553343
163538.124027,-4737.318029,-11917.315666,766.095498
163538.124347,-4145.153275,-13101.645173,3217.601092
163538.124667,-4663.297435,-11325.150913,1838.629195
163538.124987,-2812.782580,-9622.677246,1991.848295
163538.125306,-222.061783,-7550.100608,3907.087040
163538.125626,1110.308913,-5403.503377,2757.943793
163538.125946,2368.659014,-5033.400406,4903.011187
163538.126266,1184.329507,-5403.503377,6128.763984
163538.126586,3330.926739,-8586.388927,8503.660028
163538.126905,4663.297435,-8290.306550,4826.401637
163538.127225,2294.638420,-10658.965565,6052.154434
163538.127545,0.000000,-11917.315666,6741.640382
163538.127865,-296.082377,-12657.521608,4979.620737
163538.128185,-1850.514855,-12805.562797,4519.963438
163538.128505,-3552.988522,-10881.027347,3140.991542
163538.128824,-4811.338623,-7105.977043,0.000000
163538.129144,-4219.173869,-7698.141797,1149.143247
163538.129464,-2664.741391,-5921.647536,1149.143247
163538.129784,0.000000,-5403.503377,2451.505594
163538.130104,2812.782580,-7402.059420,4673.182538
163538.130423,3701.029710,-9474.636058,6358.592633
163538.130743,0.000000,-9844.739029,4290.134789
163538.131063,444.123565,-11843.295072,4519.963438
163538.131383,148.041188,-13249.686362,6052.154434
163538.131703,222.061783,-10584.944971,4826.401637
163538.132023,-2442.679609,-8882.471304,2681.334243
163538.132342,-1406.391290,-12435.459826,5439.278036
163538.132662,-370.102971,-7105.977043,1149.143247
163538.132982,-1110.308913,-6809.894666,1225.752797
163538.133302,-1924.535449,-4811.338623,383.047749
163538.133622,0.000000,-7179.997637,0.000000
163538.133941,1036.288319,-11177.109724,2681.334243
163538.134261,1332.370696,-11029.068536,3600.648841
163538.134581,666.185348,-13101.645173,5132.839837
163538.134901,-74.020594,-10658.965565,2374.896044
163538.135221,-2368.659014,-9548.656652,3830.477490
163538.135541,-3552.988522,-7476.080014,3064.381992
163538.135860,444.123565,-7476.080014,2451.505594
163538.136180,1776.494261,-8512.368333,2834.553343
163538.136500,74.020594,-5625.565159,-1762.019645
163538.136820,-74.020594,-10362.883188,842.705048
163538.137140,-2146.597232,-10510.924376,1532.190996
163538.137459,-814.226536,-12583.501014,919.314598
163538.137779,-2516.700203,-11621.233289,612.876398
163538.138099,-2072.576638,-12509.480420,3983.696590
163538.138419,-1850.514855,-7402.059420,1685.410096
163538.138739,-222.061783,-7698.141797,1455.581446
163538.139059,0.000000,-6513.812290,-1225.752797
163538.139378,666.185348,-9622.677246,0.000000
163538.139698,962.267725,-10140.821405,0.000000
163538.140018,1702.473667,-10658.965565,2374.896044
163538.140338,-3552.988522,-9548.656652,1532.190996
163538.140658,-3256.906145,-9622.677246,0.000000
163538.140977,-74.020594,-9474.636058,-76.609550
163538.141297,2664.741391,-7179.997637,2528.115143
163538.141617,3552.988522,-7402.059420,2681.334243
163538.141937,1480.411884,-9992.780217,1149.143247
163538.142257,-148.041188,-11325.150913,689.485948
163538.142577,-666.185348,-10362.883188,-459.657299
163538.142896,-2368.659014,-7328.038826,-1685.410096
163538.143216,-2442.679609,-9474.636058,-995.924147
163538.143536,-1258.350101,-7105.977043,-689.485948
163538.143856,592.164754,-5403.503377,0.000000
163538.144176,4663.297435,-8290.306550,2374.896044
163538.144495,0.000000,-9548.656652,0.000000
163538.144815,-296.082377,-11769.274478,-383.047749
163538.145135,-1184.329507,-12583.501014,-1072.533697
163538.145455,-3256.906145,-11325.150913,-1302.362347
163538.145775,-6809.894666,-9548.656652,-3677.258390
163538.146095,-2960.823768,-7920.203579,-2987.772442
163538.146414,2294.638420,-8808.450710,-383.047749
163538.146734,4071.132681,-5921.647536,-1915.238745
163538.147054,962.267725,-8290.306550,-3753.867940
163538.147374,2738.761985,-14211.954086,-76.609550
163538.147694,592.164754,-13101.645173,-995.924147
163538.148013,-888.247130,-12287.418637,0.000000
163538.148333,-3182.885551,-11843.295072,-2068.457845
163538.148653,-2368.659014,-7179.997637,-1838.629195
163538.148973,0.000000,-3627.009116,-4290.134789
163538.149293,2368.659014,-3034.844362,0.000000
163538.149613,3627.009116,-9770.718434,-306.438199
163538.149932,1998.556043,-12139.377449,612.876398
163538.150252,1110.308913,-13619.789333,-1302.362347
163538.150572,-222.061783,-11843.295072,-76.609550
163538.150892,-4885.359217,-10807.006753,-3370.820191
163538.151212,-3034.844362,-8290.306550,-2298.286494
163538.151531,296.082377,-7328.038826,-1608.800546
163538.151851,1850.514855,-3923.091493,-1149.143247
163538.152171,2886.803174,-9326.594869,-689.485948
163538.152491,370.102971,-10510.924376,-842.705048
163538.152811,-1184.329507,-11251.130318,-1915.238745
163538.153131,-4737.318029,-9548.656652,-1532.190996
163538.153450,-3627.009116,-11251.130318,-3753.867940
163538.153770,-4737.318029,-8364.327145,-2757.943793
163538.154090,-740.205942,-7179.997637,-2757.943793
163538.154410,2294.638420,-6143.709319,-1532.190996
163538.154730,1184.329507,-9252.574275,-689.485948
163538.155049,888.247130,-12509.480420,0.000000
163538.155369,814.226536,-15100.201217,-612.876398
163538.155689,-74.020594,-15396.283594,2374.896044
163538.156009,-3627.009116,-13027.624579,-1302.362347
163538.156329,-3034.844362,-6291.750507,-1225.752797
163538.156649,-74.020594,-5625.565159,-1302.362347
163538.156968,3552.988522,-1924.535449,153.219100
163538.157288,3108.864956,-6735.874072,-1378.971896
163538.157608,2664.741391,-12583.501014,2911.162892
163538.157928,1480.411884,-13101.645173,4290.134789
163538.158248,-1776.494261,-9548.656652,2451.505594
163538.158567,-8290.306550,-8364.327145,-3064.381992
163538.158887,-4737.318029,-8512.368333,-1991.848295
163538.159207,-74.020594,-6513.812290,-76.609550
163538.159527,4663.297435,-4441.235652,76.609550
163538.159847,4663.297435,-9474.636058,3294.210641
163538.160167,444.123565,-11251.130318,2528.115143
163538.160486,-1776.494261,-11547.212695,1685.410096
163538.160806,-1036.288319,-9696.697840,383.047749
163538.161126,-4737.318029,-9548.656652,0.000000
163538.161446,-1850.514855,-9178.553681,-76.609550
163538.161766,0.000000,-5403.503377,229.828649
163538.162085,2368.659014,-4811.338623,0.000000
163538.162405,0.000000,-7179.997637,-1225.752797
163538.162725,-74.020594,-11843.295072,-2221.676944
163538.163045,740.205942,-12953.603985,919.314598
163538.163365,0.000000,-11917.315666,766.095498
163538.163685,-3404.947333,-13175.665768,229.828649
163538.164004,-2442.679609,-10658.965565,1762.019645
163538.164324,0.000000,-7994.224174,2221.676944
163538.164644,3478.967927,-4737.318029,1762.019645
163538.164964,2368.659014,-6365.771101,-383.047749
163538.165284,296.082377,-10732.986159,3064.381992
163538.165603,888.247130,-11325.150913,1532.190996
163538.165923,-74.020594,-12731.542202,2374.896044
163538.166243,-4737.318029,-11547.212695,0.000000
163538.166563,-5773.606348,-9252.574275,-1072.533697
163538.166883,-2812.782580,-6069.688724,-1532.190996
163538.167203,2294.638420,-6587.832884,2374.896044
163538.167522,1406.391290,-6883.915261,0.000000
163538.167842,2294.638420,-11547.212695,4060.306139
163538.168162,-74.020594,-11251.130318,536.266849
163538.168482,-2368.659014,-11325.150913,1225.752797
163538.168802,-7105.977043,-8512.368333,-4290.134789
163538.169121,-4811.338623,-11251.130318,-229.828649
163538.169441,-2368.659014,-7105.977043,-1838.629195
163538.169761,1702.473667,-5995.668130,1225.752797
163538.170081,1998.556043,-7105.977043,-1685.410096
163538.170401,1628.453072,-10140.821405,1532.190996
163538.170721,0.000000,-10140.821405,-2451.505594
163538.171040,-888.247130,-12213.398043,0.000000
163538.171360,-3330.926739,-12953.603985,-1915.238745
163538.171680,-2442.679609,-12065.356855,-1608.800546
163538.172000,2294.638420,-9178.553681,-2528.115143
163538.172320,3404.947333,-6217.729913,766.095498
163538.172639,2960.823768,-6143.709319,-1608.800546
163538.172959,2072.576638,-8660.409521,689.485948
163538.173279,1184.329507,-9844.739029,0.000000
163538.173599,1480.411884,-12879.583391,76.609550
163538.173919,-1258.350101,-15248.242405,-2528.115143
163538.174239,-4219.173869,-15396.283594,1762.019645
163538.174558,-4071.132681,-7179.997637,-2451.505594
163538.174878,814.226536,-5921.647536,2221.676944
163538.175198,0.000000,-1850.514855,-4290.134789
163538.175518,3256.906145,-6661.853478,459.657299
163538.175838,5107.421000,-9622.677246,76.609550
163538.176157,3775.050304,-12213.398043,3907.087040
163538.176477,-2442.679609,-10732.986159,-2145.067394
163538.176797,-5329.482782,-11399.171507,-383.047749
163538.177117,-4145.153275,-6661.853478,-4366.744339
163538.177437,-222.061783,-4811.338623,-1762.019645
163538.177757,3552.988522,-7105.977043,-689.485948
163538.178076,5551.544565,-10658.965565,2987.772442
163538.178396,4663.297435,-13027.624579,3294.210641
163538.178716,-74.020594,-13027.624579,1149.143247
163538.179036,-4811.338623,-13027.624579,-1915.238745
163538.179356,-7698.141797,-9548.656652,-2451.505594
163538.179675,-2146.597232,-5921.647536,-3907.087040
163538.179995,2442.679609,-5625.565159,1532.190996
163538.180315,2886.803174,-5847.626942,0.000000
163538.180635,2294.638420,-9474.636058,2451.505594
163538.180955,2072.576638,-11251.130318,-76.609550
163538.181275,-814.226536,-13471.748144,229.828649
163538.181594,-6513.812290,-12879.583391,-4443.353888
163538.181914,-9474.636058,-11917.315666,-2451.505594
163538.182234,-4145.153275,-9992.780217,-1685.410096
163538.182554,-2368.659014,-4811.338623,0.000000
163538.182874,1702.473667,-5329.482782,-2068.457845
163538.183193,1184.329507,-7772.162391,995.924147
163538.183513,1258.350101,-9252.574275,-1072.533697
163538.183833,296.082377,-12213.398043,1072.533697
163538.184153,-1258.350101,-13027.624579,-1302.362347
163538.184473,-3923.091493,-13027.624579,1762.019645
163538.184793,-1258.350101,-7994.224174,-2528.115143
163538.185112,0.000000,-5995.668130,919.314598
163538.185432,1406.391290,-5699.585753,-1302.362347
163538.185752,0.000000,-4811.338623,-2451.505594
163538.186072,2886.803174,-10066.800811,-536.266849
163538.186392,1554.432478,-12139.377449,2451.505594
163538.186711,-740.205942,-11399.171507,-919.314598
163538.187031,-1850.514855,-11843.295072,-76.609550
163538.187351,2294.638420,-8290.306550,-76.609550
163538.187671,4663.297435,-7105.977043,2374.896044
163538.187991,3478.967927,-4219.173869,-689.485948
163538.188311,3034.844362,-8290.306550,3600.648841
163538.188630,2960.823768,-9844.739029,2451.505594
163538.188950,592.164754,-10214.842000,612.876398
163538.189270,-1850.514855,-12731.542202,-1378.971896
163538.189590,-4367.215058,-12953.603985,-76.609550
163538.189910,-3701.029710,-9622.677246,-2451.505594
163538.190229,-148.041188,-9252.574275,536.266849
163538.190549,592.164754,-7179.997637,-919.314598
163538.190869,1998.556043,-9178.553681,2298.286494
163538.191189,3182.885551,-11251.130318,1762.019645
163538.191509,-74.020594,-9918.759623,383.047749
163538.191829,-4145.153275,-10732.986159,-2451.505594
163538.192148,-4219.173869,-12509.480420,-689.485948
163538.192468,-3404.947333,-11177.109724,-2068.457845
163538.192788,-1776.494261,-9400.615463,383.047749
163538.193108,-1258.350101,-6143.709319,-3600.648841
163538.193428,-962.267725,-7254.018232,76.609550
163538.193747,0.000000,-7328.038826,-1225.752797
163538.194067,0.000000,-9548.656652,1225.752797
163538.194387,-74.020594,-12435.459826,-76.609550
163538.194707,-2442.679609,-14211.954086,3600.648841
163538.195027,-4145.153275,-7476.080014,0.000000
163538.195347,-1258.350101,-6217.729913,1225.752797
163538.195666,444.123565,-4293.194464,-1838.629195
163538.195986,1480.411884,-6513.812290,1915.238745
163538.196306,4663.297435,-7994.224174,229.828649
163538.196626,3478.967927,-10362.883188,3600.648841
163538.196946,-74.020594,-12731.542202,-76.609550
163538.197265,-4737.318029,-11473.192101,766.095498
163538.197585,-3404.947333,-8068.244768,-2451.505594
163538.197905,-74.020594,-9326.594869,1762.019645
163538.198225,0.000000,-5699.585753,-3064.381992
163538.198545,2072.576638,-9400.615463,1149.143247
163538.198865,2886.803174,-9696.697840,229.828649
163538.199184,962.267725,-10955.047942,1302.362347
163538.199504,-1554.432478,-11251.130318,-3140.991542
163538.199824,-2738.761985,-14211.954086,-689.485948
163538.200144,-1406.391290,-11177.109724,-3370.820191
163538.200464,0.000000,-9178.553681,-76.609550
163538.200783,518.144159,-6143.709319,-2911.162892
163538.201103,2664.741391,-11843.295072,4519.963438
163538.201423,2220.617826,-7476.080014,-2068.457845
163538.201743,1628.453072,-10140.821405,-536.266849
163538.202063,-444.123565,-11325.150913,-3140.991542
163538.202382,-3256.906145,-12509.480420,0.000000
163538.202702,-2368.659014,-10140.821405,-1991.848295
163538.203022,-1110.308913,-9400.615463,1225.752797
163538.203342,-296.082377,-7179.997637,-2145.067394
163538.203661,1702.473667,-8882.471304,-76.609550
163538.203981,4367.215058,-8290.306550,-76.609550
163538.204301,3552.988522,-11991.336260,6052.154434
163538.204620,-74.020594,-9326.594869,-689.485948
163538.204940,-2960.823768,-11325.150913,1455.581446
163538.205260,-2368.659014,-7624.121203,-1455.581446
163538.205580,-4441.235652,-4811.338623,0.000000
163538.205899,-1554.432478,-5033.400406,-2987.772442
163538.206219,-1554.432478,-7328.038826,0.000000
163538.206539,592.164754,-7476.080014,0.000000
163538.206859,148.041188,-10288.862594,0.000000
163538.207178,-74.020594,-11251.130318,-1302.362347
163538.207498,-5255.462188,-10362.883188,-1378.971896
163538.207818,-2146.597232,-9474.636058,-3064.381992
163538.208138,-296.082377,-8956.491898,-995.924147
163538.208457,740.205942,-7772.162391,-1378.971896
163538.208777,-962.267725,-9104.533087,612.876398
163538.209097,4663.297435,-10658.965565,-76.609550
163538.209417,1702.473667,-10658.965565,842.705048
163538.209736,-1480.411884,-8068.244768,-4060.306139
163538.210056,-4441.235652,-12509.480420,-383.047749
163538.210376,0.000000,-9548.656652,-2145.067394
163538.210695,2368.659014,-9622.677246,459.657299
163538.211015,1628.453072,-10140.821405,-1302.362347
163538.211335,-296.082377,-10881.027347,1149.143247
163538.211655,518.144159,-7476.080014,-2604.724693
163538.211974,962.267725,-9252.574275,1838.629195
163538.212294,444.123565,-8142.265362,-1685.410096
163538.212614,-1480.411884,-11029.068536,2757.943793
163538.212934,1702.473667,-9178.553681,-383.047749
163538.213253,0.000000,-7179.997637,1225.752797
163538.213573,814.226536,-7031.956449,-1915.238745
163538.213893,-2516.700203,-10066.800811,1225.752797
163538.214213,-1036.288319,-8586.388927,-459.657299
163538.214532,0.000000,-8586.388927,1149.143247
163538.214852,1850.514855,-10658.965565,-76.609550
163538.215172,-3552.988522,-9548.656652,459.657299
163538.215492,-888.247130,-8586.388927,-1072.533697
163538.215811,222.061783,-8364.327145,689.485948
163538.216131,0.000000,-6587.832884,-2451.505594
163538.216451,-4737.318029,-7772.162391,-383.047749
163538.216770,-74.020594,-7994.224174,-1915.238745
163538.217090,1184.329507,-9548.656652,1838.629195
163538.217410,0.000000,-7179.997637,-2451.505594
163538.217730,-370.102971,-11843.295072,-76.609550
163538.218049,-74.020594,-11547.212695,-76.609550
163538.218369,-296.082377,-8956.491898,-612.876398
163538.218689,-962.267725,-8734.430116,-2068.457845
163538.219009,-2220.617826,-11325.150913,0.000000
163538.219328,592.164754,-8956.491898,-919.314598
163538.219648,1554.432478,-9178.553681,842.705048
163538.219968,0.000000,-7179.997637,-2145.067394
163538.220288,-2368.659014,-9548.656652,612.876398
163538.220607,-74.020594,-9474.636058,-842.705048
163538.220927,3182.885551,-10658.965565,-76.609550
163538.221247,814.226536,-8808.450710,-612.876398
163538.221567,-2294.638420,-11177.109724,1302.362347
163538.221886,-814.226536,-9474.636058,0.000000
163538.222206,-888.247130,-9030.512492,-76.609550
163538.222526,-1184.329507,-8364.327145,-612.876398
163538.222845,-2442.679609,-10584.944971,306.438199
163538.223165,2294.638420,-10658.965565,-76.609550
163538.223485,666.185348,-8586.388927,1149.143247
163538.223805,0.000000,-6291.750507,-3370.820191
163538.224124,-74.020594,-10658.965565,-76.609550
163538.224444,592.164754,-7698.141797,-766.095498
163538.224764,1998.556043,-9030.512492,1378.971896
163538.225084,1480.411884,-7698.141797,-1378.971896
163538.225403,-1184.329507,-11621.233289,1225.752797
163538.225723,0.000000,-9844.739029,-995.924147
163538.226043,0.000000,-9548.656652,612.876398
163538.226363,0.000000,-8808.450710,-1532.190996
163538.226682,-1258.350101,-11769.274478,2145.067394
163538.227002,-370.102971,-6883.915261,-2374.896044
163538.227322,3478.967927,-9474.636058,2987.772442
163538.227642,1258.350101,-6883.915261,0.000000
163538.227961,-1998.556043,-9622.677246,612.876398
163538.228281,-740.205942,-8512.368333,-1072.533697
163538.228601,0.000000,-9548.656652,459.657299
163538.228920,-74.020594,-9104.533087,-2221.676944
163538.229240,-4441.235652,-12213.398043,0.000000
163538.229560,-3552.988522,-9548.656652,0.000000
163538.229880,-74.020594,-11695.253884,1991.848295
163538.230199,-1258.350101,-5699.585753,-4060.306139
163538.230519,-3997.112087,-9030.512492,-1302.362347
163538.230839,-1406.391290,-7328.038826,-2451.505594
163538.231159,814.226536,-10066.800811,-459.657299
163538.231478,1702.473667,-11251.130318,-689.485948
163538.231798,-1924.535449,-14211.954086,2374.896044
163538.232118,-666.185348,-10066.800811,536.266849
163538.232438,-1850.514855,-6439.791695,-1455.581446
163538.232757,296.082377,-5995.668130,-1225.752797
163538.233077,0.000000,-8364.327145,-2451.505594
163538.233397,2294.638420,-7994.224174,-995.924147
163538.233717,2072.576638,-9030.512492,1608.800546
163538.234036,666.185348,-8734.430116,-1455.581446
163538.234356,-4145.153275,-11991.336260,-1225.752797
163538.234676,-74.020594,-12435.459826,-76.609550
163538.234995,148.041188,-8956.491898,0.000000
163538.235315,592.164754,-6143.709319,0.000000
163538.235635,-148.041188,-10658.965565,1762.019645
163538.235955,2072.576638,-7772.162391,919.314598
163538.236274,0.000000,-7179.997637,0.000000
163538.236594,1110.308913,-8290.306550,-842.705048
163538.236914,-2368.659014,-11399.171507,0.000000
163538.237234,-518.144159,-10066.800811,-1072.533697
163538.237553,222.061783,-9992.780217,536.266849
163538.237873,0.000000,-7624.121203,-1532.190996
163538.238193,-4293.194464,-8660.409521,-1838.629195
163538.238513,-1184.329507,-7179.997637,-3370.820191
163538.238832,-74.020594,-11325.150913,612.876398
163538.239152,-74.020594,-9474.636058,-3217.601092
163538.239472,-4737.318029,-9548.656652,-3064.381992
163538.239792,1258.350101,-11843.295072,459.657299
163538.240111,740.205942,-10436.903782,1608.800546
163538.240431,888.247130,-8142.265362,-919.314598
163538.240751,-666.185348,-9474.636058,-76.609550
163538.241070,2738.761985,-8290.306550,-459.657299
163538.241390,1110.308913,-7920.203579,689.485948
163538.241710,1406.391290,-7179.997637,-2374.896044
163538.242030,-2368.659014,-10732.986159,612.876398
163538.242349,0.000000,-9548.656652,612.876398
163538.242669,-2442.679609,-9030.512492,0.000000
163538.242989,-962.267725,-8142.265362,-2221.676944
163538.243309,-2442.679609,-9252.574275,-383.047749
163538.243628,0.000000,-8290.306550,306.438199
163538.243948,2294.638420,-9474.636058,2987.772442
163538.244268,888.247130,-6957.935855,842.705048
163538.244588,-74.020594,-11547.212695,1762.019645
163538.244907,-1110.308913,-7698.141797,-1378.971896
163538.245227,0.000000,-8364.327145,0.000000
163538.245547,-74.020594,-8290.306550,-3140.991542
163538.245867,-3034.844362,-11029.068536,-306.438199
163538.246186,-1628.453072,-9400.615463,-2068.457845
163538.246506,-814.226536,-9474.636058,-689.485948
163538.246826,518.144159,-10362.883188,-1915.238745
163538.247145,-3552.988522,-10362.883188,-995.924147
163538.247465,-1036.288319,-8808.450710,-2374.896044
163538.247785,0.000000,-10881.027347,1072.533697
163538.248105,2886.803174,-10658.965565,-76.609550
163538.248424,-74.020594,-10658.965565,-689.485948
163538.248744,2294.638420,-10510.924376,-76.609550
163538.249064,3775.050304,-10658.965565,-76.609550
163538.249384,2664.741391,-8808.450710,0.000000
163538.249703,444.123565,-11547.212695,1685.410096
163538.250023,0.000000,-7179.997637,0.000000
163538.250343,-1702.473667,-8808.450710,612.876398
163538.250663,-370.102971,-7994.224174,-1225.752797
163538.250982,-74.020594,-11251.130318,-383.047749
163538.251302,2294.638420,-8882.471304,-76.609550
163538.251622,1924.535449,-11029.068536,5132.839837
163538.251942,666.185348,-7772.162391,995.924147
163538.252261,-2146.597232,-9104.533087,306.438199
163538.252581,-1184.329507,-8068.244768,-536.266849
163538.252901,-592.164754,-8586.388927,0.000000
163538.253220,-74.020594,-7698.141797,-995.924147
163538.253540,-2072.576638,-10658.965565,689.485948
163538.253860,-962.267725,-9474.636058,-459.657299
163538.254180,-1554.432478,-8586.388927,-919.314598
163538.254499,-148.041188,-8364.327145,-1685.410096
163538.254819,-2960.823768,-9548.656652,-1838.629195
163538.255139,296.082377,-10214.842000,0.000000
163538.255459,-74.020594,-11251.130318,842.705048
163538.255778,1554.432478,-10658.965565,-76.609550
163538.256098,-4737.318029,-7476.080014,-4290.134789
163538.256418,-370.102971,-9474.636058,-1302.362347
163538.256738,74.020594,-8956.491898,-1072.533697
163538.257057,1998.556043,-8438.347739,-1608.800546
163538.257377,0.000000,-10881.027347,153.219100
163538.257697,2294.638420,-11843.295072,2374.896044
163538.258017,1332.370696,-11177.109724,2068.457845
163538.258336,-1184.329507,-7994.224174,-689.485948
163538.258656,-4737.318029,-8364.327145,-2451.505594
163538.258976,-1702.473667,-8364.327145,-1532.190996
163538.259295,-2146.597232,-4811.338623,-4903.011187
163538.259615,1850.514855,-8364.327145,-459.657299
163538.259935,-444.123565,-10510.924376,0.000000
163538.260255,666.185348,-10732.986159,995.924147
163538.260574,-370.102971,-11843.295072,-76.609550
163538.260894,-74.020594,-9474.636058,-76.609550
163538.261214,-3627.009116,-9474.636058,-76.609550
163538.261534,-1258.350101,-6069.688724,-1302.362347
163538.261853,740.205942,-5699.585753,-1532.190996
163538.262173,3552.988522,-7772.162391,612.876398
163538.262493,74.020594,-10510.924376,0.000000
163538.262813,0.000000,-11917.315666,612.876398
163538.263132,-2368.659014,-10881.027347,-1685.410096
163538.263452,-3034.844362,-9104.533087,-3140.991542
163538.263772,-666.185348,-11843.295072,-1685.410096
163538.264092,0.000000,-7179.997637,-1532.190996
163538.264411,3849.070898,-7772.162391,1991.848295
163538.264731,4663.297435,-8290.306550,2374.896044
163538.265051,1702.473667,-11843.295072,-1302.362347
163538.265370,-2368.659014,-9548.656652,0.000000
163538.265690,-814.226536,-11251.130318,-383.047749
163538.266010,-740.205942,-10436.903782,306.438199
163538.266330,-2294.638420,-9548.656652,536.266849
163538.266649,518.144159,-6587.832884,153.219100
163538.266969,1850.514855,-6069.688724,-383.047749
163538.267289,1184.329507,-5995.668130,-1838.629195
163538.267609,-444.123565,-12287.418637,-612.876398
163538.267928,-74.020594,-14211.954086,1762.019645
163538.268248,-1850.514855,-11843.295072,-76.609550
163538.268568,-7105.977043,-6291.750507,0.000000
163538.268888,-5551.544565,-8882.471304,-2528.115143
163538.269207,-1628.453072,-8068.244768,-766.095498
163538.269527,1332.370696,-6217.729913,76.609550
163538.269847,4367.215058,-6217.729913,1762.019645
163538.270167,-74.020594,-8290.306550,-383.047749
163538.270486,222.061783,-10658.965565,-76.609550
163538.270806,-1924.535449,-10732.986159,-1378.971896
163538.271126,-1776.494261,-10732.986159,0.000000
163538.271445,-4589.276840,-11917.315666,-459.657299
163538.271765,-4737.318029,-8364.327145,-1532.190996
163538.272085,-1258.350101,-5773.606348,-2681.334243
163538.272405,1332.370696,-6439.791695,-995.924147
163538.272724,1184.329507,-9030.512492,-1991.848295
163538.273044,4071.132681,-11843.295072,1762.019645
163538.273364,3552.988522,-11325.150913,2451.505594
163538.273684,2294.638420,-11251.130318,2374.896044
163538.274003,-3034.844362,-10658.965565,-1302.362347
163538.274323,-3330.926739,-6143.709319,0.000000
163538.274643,1184.329507,-5995.668130,1838.629195
163538.274963,4071.132681,-5625.565159,536.266849
163538.275282,1406.391290,-9252.574275,-1149.143247
163538.275602,814.226536,-12583.501014,1685.410096
163538.275922,-962.267725,-11029.068536,-2374.896044
163538.276242,-1776.494261,-11325.150913,-1225.752797
163538.276561,-7105.977043,-10140.821405,-3677.258390
163538.276881,-3330.926739,-8364.327145,-3677.258390
163538.277201,2368.659014,-7846.182985,995.924147
163538.277520,4663.297435,-7105.977043,2374.896044
163538.277840,592.164754,-9548.656652,0.000000
163538.278160,962.267725,-10955.047942,2298.286494
163538.278480,-296.082377,-10732.986159,536.266849
163538.278799,-1332.370696,-10955.047942,-383.047749
163538.279119,-5329.482782,-9548.656652,-4903.011187
163538.279439,-3182.885551,-9104.533087,-1302.362347
163538.279759,-1184.329507,-4811.338623,-3140.991542
163538.280078,814.226536,-5107.421000,-1991.848295
163538.280398,1184.329507,-9548.656652,-1225.752797
163538.280718,3478.967927,-14211.954086,2987.772442
163538.281038,0.000000,-11917.315666,153.219100
163538.281357,-518.144159,-11843.295072,2451.505594
163538.281677,-4441.235652,-9992.780217,-1762.019645
163538.281997,-2590.720797,-7179.997637,842.705048
163538.282317,0.000000,-2442.679609,-2528.115143
163538.282636,4367.215058,-7105.977043,2374.896044
163538.282956,2886.803174,-9030.512492,-76.609550
163538.283276,0.000000,-11029.068536,766.095498
163538.283595,-4145.153275,-10732.986159,0.000000
163538.283915,-4737.318029,-9548.656652,0.000000
163538.284235,-6143.709319,-10584.944971,-3370.820191
163538.284555,-4145.153275,-8660.409521,-1302.362347
163538.284874,-444.123565,-5107.421000,-2604.724693
163538.285194,2886.803174,-6513.812290,-76.609550
163538.285514,1702.473667,-8882.471304,-1608.800546
163538.285834,0.000000,-10955.047942,0.000000
163538.286153,1184.329507,-11325.150913,919.314598
163538.286473,888.247130,-12213.398043,2298.286494
163538.286793,-2442.679609,-10584.944971,-3753.867940
163538.287113,-962.267725,-11251.130318,-76.609550
163538.287432,1332.370696,-4959.379811,-1072.533697
163538.287752,4219.173869,-5551.544565,842.705048
163538.288072,962.267725,-7328.038826,-2604.724693
163538.288392,1702.473667,-14211.954086,1762.019645
163538.288711,0.000000,-13101.645173,-1378.971896
163538.289031,222.061783,-13101.645173,229.828649
163538.289351,-4441.235652,-12657.521608,-1608.800546
163538.289670,-3552.988522,-8660.409521,919.314598
163538.289990,-2072.576638,-1258.350101,0.000000
163538.290310,4663.297435,-2960.823768,842.705048
163538.290630,2072.576638,-4811.338623,-1532.190996
163538.290949,2368.659014,-9548.656652,766.095498
163538.291269,518.144159,-11843.295072,1149.143247
163538.291589,-74.020594,-14211.954086,2834.553343
163538.291909,-7846.182985,-12509.480420,-4673.182538
163538.292228,-6883.915261,-10732.986159,-2298.286494
163538.292548,-2516.700203,-7031.956449,-3830.477490
163538.292868,1184.329507,-4219.173869,-536.266849
163538.293188,592.164754,-7476.080014,-1225.752797
163538.293507,2294.638420,-11251.130318,1762.019645
163538.293827,666.185348,-11251.130318,-76.609550
163538.294147,-222.061783,-10362.883188,76.609550
163538.294467,-1258.350101,-11843.295072,-1302.362347
163538.294786,-2812.782580,-10362.883188,1072.533697
163538.295106,-370.102971,-6217.729913,-1838.629195
163538.295426,2886.803174,-6365.771101,612.876398
163538.295745,1480.411884,-7624.121203,-2068.457845
163538.296065,888.247130,-10732.986159,1225.752797
163538.296385,0.000000,-12509.480420,0.000000
163538.296705,-74.020594,-13989.892304,1685.410096
163538.297024,-3627.009116,-13027.624579,-2528.115143
163538.297344,-3775.050304,-10140.821405,306.438199
163538.297664,2294.638420,-7105.977043,-76.609550
163538.297984,2072.576638,-4811.338623,1762.019645
163538.298303,1850.514855,-4811.338623,-1455.581446
163538.298623,2294.638420,-8808.450710,1302.362347
163538.298943,2072.576638,-11547.212695,2451.505594
163538.299263,296.082377,-13101.645173,3064.381992
163538.299582,-7105.977043,-11917.315666,-2451.505594
163538.299902,-5921.647536,-10732.986159,306.438199
163538.300222,-2738.761985,-6217.729913,-1915.238745
163538.300542,1998.556043,-6513.812290,-1302.362347
163538.300861,0.000000,-5403.503377,-3370.820191
163538.301181,2886.803174,-10658.965565,2374.896044
163538.301500,1850.514855,-10732.986159,766.095498
163538.301820,740.205942,-11991.336260,2068.457845
163538.302140,-2442.679609,-12435.459826,-2528.115143
163538.302459,-3552.988522,-9844.739029,306.438199
163538.302779,962.267725,-6957.935855,-383.047749
163538.303099,3256.906145,-4515.256246,1149.143247
163538.303418,592.164754,-5403.503377,-2451.505594
163538.303738,1184.329507,-8364.327145,2451.505594
163538.304058,0.000000,-10881.027347,-1225.752797
163538.304377,0.000000,-13323.706956,919.314598
163538.304697,-3923.091493,-12287.418637,-2681.334243
163538.305017,-3775.050304,-12657.521608,1149.143247
163538.305336,-666.185348,-7994.224174,-383.047749
163538.305656,3478.967927,-7402.059420,3294.210641
163538.305976,2886.803174,-6513.812290,-76.609550
163538.306295,2812.782580,-8882.471304,4213.525239
163538.306615,0.000000,-7328.038826,612.876398
163538.306935,-1776.494261,-9844.739029,1225.752797
163538.307254,-3627.009116,-13619.789333,-2221.676944
163538.307574,-4959.379811,-12583.501014,383.047749
163538.307893,-3552.988522,-8364.327145,-1378.971896
163538.308213,-666.185348,-4441.235652,-1302.362347
163538.308533,-74.020594,-5329.482782,-4366.744339
163538.308852,518.144159,-8882.471304,-76.609550
163538.309172,370.102971,-8956.491898,-2145.067394
163538.309492,0.000000,-11917.315666,1532.190996
163538.309811,-2220.617826,-12509.480420,1378.971896
163538.310131,-4737.318029,-9844.739029,0.000000
163538.310451,-2072.576638,-6883.915261,-2451.505594
163538.310770,1110.308913,-4959.379811,0.000000
163538.311090,2220.617826,-5551.544565,-2221.676944
163538.311410,4663.297435,-8882.471304,1149.143247
163538.311729,3552.988522,-10436.903782,612.876398
163538.312049,2294.638420,-14211.954086,2374.896044
163538.312369,-2738.761985,-12657.521608,-995.924147
163538.312688,-2442.679609,-13027.624579,-383.047749
163538.313008,-2368.659014,-7772.162391,-1685.410096
163538.313327,666.185348,-5773.606348,153.219100
163538.313647,1110.308913,-5255.462188,-1915.238745
163538.313967,2664.741391,-7846.182985,1302.362347
163538.314286,2368.659014,-9696.697840,0.000000
163538.314606,2146.597232,-11917.315666,919.314598
163538.314926,-3997.112087,-11917.315666,-2145.067394
163538.315245,-3108.864956,-11843.295072,1225.752797
163538.315565,-74.020594,-8290.306550,-2528.115143
163538.315885,-370.102971,-6513.812290,-383.047749
163538.316204,0.000000,-5995.668130,-2757.943793
163538.316524,1406.391290,-9770.718434,612.876398
163538.316844,2294.638420,-11251.130318,-612.876398
163538.317163,962.267725,-12435.459826,1378.971896
163538.317483,-4737.318029,-10732.986159,-4903.011187
163538.317803,-4811.338623,-10362.883188,-1302.362347
163538.318122,-2960.823768,-5403.503377,-4519.963438
163538.318442,2368.659014,-6883.915261,2451.505594
163538.318762,4071.132681,-7105.977043,-689.485948
163538.319081,4663.297435,-11251.130318,4826.401637
163538.319401,1184.329507,-8956.491898,306.438199
163538.319720,0.000000,-11103.089130,2298.286494
163538.320040,-3108.864956,-11251.130318,-1762.019645
163538.320360,-3775.050304,-10288.862594,306.438199
163538.320679,-2442.679609,-6587.832884,-2911.162892
163538.320999,962.267725,-8290.306550,-76.609550
163538.321319,0.000000,-5995.668130,-2374.896044
163538.321638,0.000000,-9178.553681,2528.115143
163538.321958,-2368.659014,-7179.997637,0.000000
163538.322278,-2368.659014,-9548.656652,1225.752797
163538.322597,-2590.720797,-10955.047942,-1532.190996
163538.322917,-2960.823768,-10807.006753,842.705048
163538.323237,-2072.576638,-7920.203579,-1149.143247
163538.323556,518.144159,-5625.565159,-76.609550
163538.323876,-740.205942,-6735.874072,-3064.381992
163538.324196,0.000000,-9548.656652,0.000000
163538.324515,1332.370696,-11325.150913,-2451.505594
163538.324835,1184.329507,-13841.851115,3983.696590
163538.325154,-2738.761985,-8956.491898,-4290.134789
163538.325474,-2442.679609,-10955.047942,-76.609550
163538.325794,-1480.411884,-7624.121203,-3140.991542
163538.326113,1184.329507,-8364.327145,0.000000
163538.326433,1702.473667,-7402.059420,-2221.676944
163538.326753,2960.823768,-11843.295072,5439.278036
163538.327072,666.185348,-8956.491898,0.000000
163538.327392,1110.308913,-9844.739029,1915.238745
163538.327712,-962.267725,-9474.636058,-1685.410096
163538.328031,-1110.308913,-9548.656652,306.438199
163538.328351,-1406.391290,-5255.462188,-2451.505594
163538.328671,2294.638420,-8290.306550,1149.143247
163538.328990,0.000000,-5995.668130,-2451.505594
163538.329310,-592.164754,-10436.903782,612.876398
163538.329630,814.226536,-9474.636058,-76.609550
163538.329949,592.164754,-10584.944971,3370.820191
163538.330269,-1480.411884,-10066.800811,-2145.067394
163538.330588,-3108.864956,-10066.800811,459.657299
163538.330908,-1924.535449,-9178.553681,-1225.752797
163538.331228,-814.226536,-6883.915261,919.314598
163538.331547,-1184.329507,-6883.915261,-2757.943793
163538.331867,-962.267725,-8290.306550,536.266849
163538.332187,0.000000,-6661.853478,-3907.087040
163538.332506,0.000000,-9548.656652,0.000000
163538.332826,2294.638420,-13027.624579,-76.609550
163538.333146,-2960.823768,-12879.583391,1302.362347
163538.333465,-2368.659014,-9622.677246,-2145.067394
163538.333785,-1258.350101,-8586.388927,0.000000
163538.334105,-1480.411884,-7254.018232,-3753.867940
163538.334424,-1184.329507,-7476.080014,0.000000
163538.334744,2072.576638,-8882.471304,0.000000
163538.335064,3404.947333,-10436.903782,3983.696590
163538.335383,1702.473667,-11251.130318,-689.485948
163538.335703,-2886.803174,-11029.068536,536.266849
163538.336023,-74.020594,-9474.636058,-76.609550
163538.336342,-888.247130,-8512.368333,153.219100
163538.336662,518.144159,-7920.203579,-1608.800546
163538.336981,0.000000,-9474.636058,2528.115143
163538.337301,592.164754,-7476.080014,612.876398
163538.337621,0.000000,-7179.997637,2451.505594
163538.337940,-2590.720797,-7179.997637,-3677.258390
163538.338260,-4441.235652,-9844.739029,1225.752797
163538.338580,-962.267725,-9178.553681,-76.609550
163538.338899,1110.308913,-7698.141797,-76.609550
163538.339219,1702.473667,-8586.388927,-689.485948
163538.339539,-518.144159,-9918.759623,1532.190996
163538.339858,1480.411884,-9548.656652,-995.924147
163538.340178,1776.494261,-9548.656652,1302.362347
163538.340498,-2368.659014,-9548.656652,-3983.696590
163538.340817,-1258.350101,-11843.295072,-76.609550
163538.341137,-1776.494261,-9548.656652,-2145.067394
163538.341457,1850.514855,-10658.965565,3064.381992
163538.341776,2294.638420,-8290.306550,-2528.115143
163538.342096,-74.020594,-9474.636058,-76.609550
163538.342415,592.164754,-8512.368333,-1072.533697
163538.342735,1776.494261,-9548.656652,1149.143247
163538.343055,0.000000,-9474.636058,-2298.286494
163538.343374,-2072.576638,-12065.356855,2374.896044
163538.343694,222.061783,-10362.883188,383.047749
163538.344014,1406.391290,-10362.883188,1608.800546
163538.344333,-74.020594,-10658.965565,-76.609550
163538.344653,-2442.679609,-9474.636058,842.705048
163538.344973,-1554.432478,-6587.832884,-3370.820191
163538.345292,2294.638420,-9474.636058,2068.457845
163538.345612,0.000000,-8364.327145,-1455.581446
163538.345932,-1776.494261,-11399.171507,2528.115143
163538.346251,-888.247130,-8956.491898,-383.047749
163538.346571,-1184.329507,-8956.491898,2451.505594
163538.346891,-3552.988522,-5995.668130,-3983.696590
163538.347210,-5921.647536,-7179.997637,-1838.629195
163538.347530,888.247130,-9474.636058,-1378.971896
163538.347849,2738.761985,-10362.883188,2374.896044
163538.348169,1110.308913,-8586.388927,-2221.676944
163538.348489,-296.082377,-13027.624579,2987.772442
163538.348808,-1554.432478,-8216.285956,-2068.457845
163538.349128,-1406.391290,-7994.224174,-612.876398
163538.349448,0.000000,-7402.059420,-3677.258390
163538.349767,0.000000,-9548.656652,0.000000
163538.350087,1110.308913,-7772.162391,0.000000
163538.350407,2664.741391,-10140.821405,3370.820191
163538.350726,1406.391290,-10066.800811,-1225.752797
163538.351046,-1554.432478,-12731.542202,1762.019645
163538.351366,-1258.350101,-8290.306550,-4979.620737
163538.351685,888.247130,-9548.656652,0.000000
163538.352005,1332.370696,-7254.018232,-2145.067394
163538.352325,148.041188,-9252.574275,2068.457845
163538.352644,2294.638420,-9474.636058,-76.609550
163538.352964,1998.556043,-9770.718434,2374.896044
163538.353284,962.267725,-10362.883188,-2528.115143
163538.353603,-2590.720797,-11251.130318,-76.609550
163538.353923,-4145.153275,-8660.409521,-2451.505594
163538.354242,-2368.659014,-8660.409521,0.000000
163538.354562,-74.020594,-7994.224174,-3753.867940
163538.354882,-1702.473667,-9992.780217,612.876398
163538.355201,74.020594,-8142.265362,-1072.533697
163538.355521,740.205942,-9252.574275,1838.629195
163538.355841,592.164754,-9992.780217,-76.609550
163538.356160,-2960.823768,-9622.677246,229.828649
163538.356480,0.000000,-8808.450710,-229.828649
163538.356800,2294.638420,-7698.141797,229.828649
163538.357119,888.247130,-8364.327145,-1225.752797
163538.357439,-3256.906145,-9548.656652,0.000000
163538.357759,-74.020594,-10658.965565,-153.219100
163538.358078,-962.267725,-11029.068536,1302.362347
163538.358398,-740.205942,-9030.512492,-2374.896044
163538.358718,-2146.597232,-9770.718434,766.095498
163538.359037,1184.329507,-8068.244768,306.438199
163538.359357,0.000000,-6587.832884,0.000000
163538.359676,1184.329507,-8956.491898,-1149.143247
163538.359996,-2146.597232,-10955.047942,1762.019645
163538.360316,-1258.350101,-8142.265362,-3447.429741
163538.360635,-74.020594,-11843.295072,-76.609550
163538.360955,-1036.288319,-9030.512492,-1991.848295
163538.361275,-2294.638420,-9992.780217,689.485948
163538.361594,296.082377,-9252.574275,-766.095498
163538.361914,0.000000,-8364.327145,2451.505594
163538.362234,296.082377,-9178.553681,-1762.019645
163538.362553,-2442.679609,-11547.212695,-76.609550
163538.362873,-1850.514855,-8882.471304,-2528.115143
163538.363193,-2368.659014,-8364.327145,0.000000
163538.363512,1924.535449,-10214.842000,-76.609550
163538.363832,0.000000,-9548.656652,1225.752797
163538.364152,2368.659014,-8882.471304,306.438199
163538.364471,2516.700203,-9400.615463,1378.971896
163538.364791,1332.370696,-9696.697840,-1072.533697
163538.365111,-2146.597232,-9474.636058,-1608.800546
163538.365430,518.144159,-8438.347739,76.609550
163538.365750,1110.308913,-7476.080014,2068.457845
163538.366069,2146.597232,-6291.750507,-153.219100
163538.366389,814.226536,-9474.636058,2374.896044
163538.366709,2960.823768,-9326.594869,842.705048
163538.367028,592.164754,-9844.739029,3064.381992
163538.367348,-74.020594,-9178.553681,-689.485948
163538.367668,-4219.173869,-11251.130318,-76.609550
163538.367987,-3552.988522,-8364.327145,-2451.505594
163538.368307,-370.102971,-7698.141797,-842.705048
163538.368627,296.082377,-8364.327145,-1302.362347
163538.368946,-814.226536,-9400.615463,1072.533697
163538.369266,0.000000,-9400.615463,-229.828649
163538.369586,-592.164754,-9770.718434,2298.286494
163538.369905,-370.102971,-9474.636058,-1455.581446
163538.370225,-3849.070898,-10140.821405,0.000000
163538.370545,-3552.988522,-7179.997637,0.000000
163538.370864,-74.020594,-10584.944971,1149.143247
163538.371184,-3256.906145,-6587.832884,-3677.258390
163538.371503,-2146.597232,-8882.471304,-1608.800546
163538.371823,-666.185348,-9326.594869,-2451.505594
163538.372143,148.041188,-9548.656652,-1302.362347
163538.372462,592.164754,-9918.759623,-2451.505594
163538.372782,-74.020594,-12731.542202,-76.609550
163538.373102,296.082377,-10214.842000,76.609550
163538.373421,-666.185348,-7846.182985,0.000000
163538.373741,1036.288319,-8882.471304,76.609550
163538.374061,-666.185348,-8586.388927,1991.848295
163538.374380,0.000000,-4811.338623,-2451.505594
163538.374700,1924.535449,-8882.471304,612.876398
163538.375020,1406.391290,-9918.759623,-612.876398
163538.375339,-1406.391290,-11325.150913,766.095498
163538.375659,-74.020594,-10658.965565,-76.609550
163538.375979,-74.020594,-9474.636058,919.314598
163538.376298,-74.020594,-9474.636058,-766.095498
163538.376618,-1850.514855,-8290.306550,-689.485948
163538.376937,148.041188,-5847.626942,-383.047749
163538.377257,0.000000,-6587.832884,1225.752797
163538.377577,0.000000,-7476.080014,-2604.724693
163538.377896,-1036.288319,-11177.109724,-536.266849
163538.378216,74.020594,-11991.336260,-383.047749
163538.378536,-888.247130,-11325.150913,383.047749
163538.378855,-74.020594,-10732.986159,-1072.533697
163538.379175,-3256.906145,-7772.162391,-1991.848295
163538.379495,1258.350101,-8142.265362,-995.924147
163538.379814,4071.132681,-10658.965565,-76.609550
