#time,accel_x,accel_y,accel_z
163419.496730,-74.020594,-10510.924376,-76.609550
163419.497050,-3256.906145,-7772.162391,0.000000
163419.497369,-370.102971,-9474.636058,-229.828649
163419.497689,-962.267725,-9474.636058,-306.438199
163419.498008,-888.247130,-9252.574275,-459.657299
163419.498327,-740.205942,-8512.368333,-1302.362347
163419.498647,-222.061783,-9178.553681,-689.485948
163419.498966,-814.226536,-9326.594869,-919.314598
163419.499286,-2368.659014,-7179.997637,0.000000
163419.499605,1110.308913,-10510.924376,-76.609550
163419.499925,962.267725,-10066.800811,-76.609550
163419.500244,-2368.659014,-7772.162391,0.000000
163419.500563,-74.020594,-9178.553681,-76.609550
163419.500883,-370.102971,-9326.594869,-306.438199
163419.501202,0.000000,-9178.553681,0.000000
163419.501522,-74.020594,-9474.636058,-1915.238745
163419.501841,1110.308913,-9474.636058,459.657299
163419.502161,2294.638420,-10658.965565,-76.609550
163419.502480,-74.020594,-8586.388927,-383.047749
163419.502799,0.000000,-8364.327145,-2374.896044
163419.503119,296.082377,-9844.739029,2604.724693
163419.503438,-2220.617826,-8364.327145,0.000000
163419.503758,-666.185348,-9400.615463,306.438199
163419.504077,-666.185348,-8882.471304,-459.657299
163419.504396,-444.123565,-9178.553681,0.000000
163419.504716,-74.020594,-10362.883188,-76.609550
163419.505035,-1184.329507,-9548.656652,306.438199
163419.505355,-74.020594,-9474.636058,-76.609550
163419.505674,-1184.329507,-7846.182985,-1915.238745
163419.505994,-2368.659014,-8364.327145,0.000000
163419.506313,-148.041188,-11695.253884,1378.971896
163419.506632,-888.247130,-9548.656652,-1149.143247
163419.506952,-444.123565,-9622.677246,-383.047749
163419.507271,-296.082377,-9696.697840,-842.705048
163419.507591,-1776.494261,-8364.327145,-2451.505594
163419.507910,-1628.453072,-7772.162391,-1455.581446
163419.508230,0.000000,-8512.368333,0.000000
163419.508549,0.000000,-8364.327145,0.000000
163419.508868,1702.473667,-10362.883188,-76.609550
163419.509188,-74.020594,-9474.636058,-689.485948
163419.509507,1184.329507,-9918.759623,919.314598
163419.509827,222.061783,-9030.512492,153.219100
163419.510146,0.000000,-8882.471304,306.438199
163419.510466,148.041188,-8956.491898,229.828649
163419.510785,0.000000,-6587.832884,0.000000
163419.511104,-740.205942,-8956.491898,0.000000
163419.511424,-1258.350101,-7476.080014,-1762.019645
163419.511743,-2368.659014,-8364.327145,0.000000
163419.512063,-74.020594,-9474.636058,1762.019645
163419.512382,-74.020594,-9474.636058,-76.609550
163419.512702,-592.164754,-9696.697840,0.000000
163419.513021,-592.164754,-9400.615463,-689.485948
163419.513340,-666.185348,-9252.574275,-459.657299
163419.513660,-1036.288319,-9696.697840,-76.609550
163419.513979,-3552.988522,-7772.162391,-2451.505594
163419.514299,-74.020594,-9474.636058,-1608.800546
163419.514618,-1184.329507,-8956.491898,0.000000
163419.514937,-74.020594,-10066.800811,-76.609550
163419.515257,-74.020594,-9474.636058,-689.485948
163419.515576,1480.411884,-11325.150913,1685.410096
163419.515896,0.000000,-8734.430116,-536.266849
163419.516215,0.000000,-9474.636058,-229.828649
163419.516535,0.000000,-9252.574275,-306.438199
163419.516854,0.000000,-7179.997637,0.000000
163419.517173,0.000000,-9326.594869,0.000000
163419.517493,296.082377,-9696.697840,536.266849
163419.517812,2294.638420,-11251.130318,2374.896044
163419.518132,-962.267725,-7476.080014,0.000000
163419.518451,0.000000,-9548.656652,2604.724693
163419.518771,0.000000,-7920.203579,0.000000
163419.519090,-74.020594,-9400.615463,229.828649
163419.519409,-444.123565,-8956.491898,0.000000
163419.519729,0.000000,-8734.430116,383.047749
163419.520048,1110.308913,-8290.306550,-2528.115143
163419.520368,1036.288319,-9178.553681,-153.219100
163419.520687,814.226536,-9326.594869,0.000000
163419.521007,666.185348,-8956.491898,-459.657299
163419.521326,1702.473667,-11547.212695,-76.609550
163419.521645,1924.535449,-10732.986159,-76.609550
163419.521965,1776.494261,-11325.150913,306.438199
163419.522284,1702.473667,-8956.491898,-1302.362347
163419.522604,2960.823768,-9252.574275,0.000000
163419.522923,3552.988522,-8364.327145,0.000000
163419.523242,4663.297435,-8290.306550,-229.828649
163419.523562,5551.544565,-8660.409521,536.266849
163419.523881,5625.565159,-9400.615463,0.000000
163419.524201,5477.523971,-9474.636058,229.828649
163419.524520,5625.565159,-9770.718434,-76.609550
163419.524840,5551.544565,-9844.739029,-612.876398
163419.525159,4737.318029,-9844.739029,0.000000
163419.525478,6809.894666,-11473.192101,1149.143247
163419.525798,7031.956449,-10066.800811,-383.047749
163419.526117,4737.318029,-6587.832884,0.000000
163419.526437,8808.450710,-8882.471304,-76.609550
163419.526756,8142.265362,-9548.656652,536.266849
163419.527076,6365.771101,-9918.759623,536.266849
163419.527395,4219.173869,-11103.089130,0.000000
163419.527714,4663.297435,-11843.295072,-76.609550
163419.528034,2294.638420,-11843.295072,-229.828649
163419.528353,0.000000,-9548.656652,0.000000
163419.528673,4071.132681,-10362.883188,1762.019645
163419.528992,3182.885551,-7105.977043,1762.019645
163419.529312,1184.329507,-3627.009116,0.000000
163419.529631,3330.926739,-5329.482782,-1685.410096
163419.529950,3330.926739,-6143.709319,-1915.238745
163419.530270,3849.070898,-7698.141797,-2451.505594
163419.530589,4367.215058,-9770.718434,-3294.210641
163419.530909,4663.297435,-13471.748144,-3370.820191
163419.531228,3478.967927,-16580.613101,-76.609550
163419.531547,1702.473667,-15988.448347,-76.609550
163419.531867,1332.370696,-12509.480420,0.000000
163419.532186,3849.070898,-10881.027347,4519.963438
163419.532506,592.164754,-4811.338623,0.000000
163419.532825,2516.700203,-5033.400406,-995.924147
163419.533145,3034.844362,-5329.482782,229.828649
163419.533464,3182.885551,-6661.853478,919.314598
163419.533783,3182.885551,-8290.306550,-76.609550
163419.534103,-2072.576638,-8364.327145,0.000000
163419.534422,-1332.370696,-11251.130318,-153.219100
163419.534742,-74.020594,-12435.459826,3064.381992
163419.535061,3182.885551,-9474.636058,1762.019645
163419.535381,2368.659014,-11325.150913,3600.648841
163419.535700,370.102971,-9918.759623,0.000000
163419.536019,296.082377,-10436.903782,995.924147
163419.536339,148.041188,-8660.409521,-229.828649
163419.536658,-1110.308913,-7179.997637,-4903.011187
163419.536978,-2516.700203,-7179.997637,-7354.516781
163419.537297,-1776.494261,-9844.739029,-3677.258390
163419.537617,1480.411884,-12509.480420,919.314598
163419.537936,2886.803174,-12139.377449,1149.143247
163419.538255,370.102971,-10066.800811,1608.800546
163419.538575,1184.329507,-9252.574275,2145.067394
163419.538894,1776.494261,-7772.162391,-1302.362347
163419.539214,4811.338623,-9548.656652,1378.971896
163419.539533,7402.059420,-9844.739029,4673.182538
163419.539852,4737.318029,-6291.750507,3064.381992
163419.540172,2960.823768,-4811.338623,0.000000
163419.540491,74.020594,-5773.606348,-6818.249932
163419.540811,0.000000,-11917.315666,-5515.887586
163419.541130,-74.020594,-14804.118840,-2834.553343
163419.541450,1702.473667,-14211.954086,-1302.362347
163419.541769,0.000000,-12953.603985,-1838.629195
163419.542088,1702.473667,-11547.212695,-1072.533697
163419.542408,6661.853478,-9770.718434,2834.553343
163419.542727,11029.068536,-7105.977043,7660.954980
163419.543047,9474.636058,-1850.514855,7354.516781
163419.543366,9252.574275,-1702.473667,5592.497135
163419.543686,5847.626942,-4145.153275,383.047749
163419.544005,3256.906145,-8364.327145,-3370.820191
163419.544324,2368.659014,-11917.315666,0.000000
163419.544644,-1258.350101,-13027.624579,-4979.620737
163419.544963,-4737.318029,-14137.933492,-6741.640382
163419.545283,-1480.411884,-13545.768739,-8273.831378
163419.545602,74.020594,-13027.624579,-4596.572988
163419.545922,4145.153275,-12731.542202,-76.609550
163419.546241,4663.297435,-8956.491898,1302.362347
163419.546560,7328.038826,-8290.306550,1608.800546
163419.546880,6439.791695,-8882.471304,4213.525239
163419.547199,3108.864956,-5625.565159,1838.629195
163419.547519,1776.494261,-4811.338623,2451.505594
163419.547838,7031.956449,-8882.471304,4826.401637
163419.548157,4515.256246,-7031.956449,2757.943793
163419.548477,74.020594,-8512.368333,-1225.752797
163419.548796,-4367.215058,-11473.192101,-3983.696590
163419.549116,-3849.070898,-14211.954086,-2681.334243
163419.549435,-5329.482782,-13101.645173,-4596.572988
163419.549755,-7105.977043,-11917.315666,-4290.134789
163419.550074,-4071.132681,-13027.624579,-1302.362347
163419.550393,-3034.844362,-9178.553681,536.266849
163419.550713,-2368.659014,-4811.338623,0.000000
163419.551032,814.226536,-6069.688724,2834.553343
163419.551352,74.020594,-5847.626942,2987.772442
163419.551671,296.082377,-6069.688724,3447.429741
163419.551991,-1850.514855,-7031.956449,2451.505594
163419.552310,-3923.091493,-11325.150913,1225.752797
163419.552629,-7772.162391,-9548.656652,-3677.258390
163419.552949,-7105.977043,-11029.068536,-3064.381992
163419.553268,-6883.915261,-10881.027347,-6128.763984
163419.553588,-7550.100608,-11769.274478,-6128.763984
163419.553907,-3627.009116,-11843.295072,-2528.115143
163419.554227,-2664.741391,-9844.739029,229.828649
163419.554546,-592.164754,-8142.265362,1685.410096
163419.554865,0.000000,-7846.182985,2221.676944
163419.555185,666.185348,-7476.080014,5132.839837
163419.555504,-74.020594,-6809.894666,3294.210641
163419.555824,-74.020594,-8290.306550,536.266849
163419.556143,-2590.720797,-9474.636058,-689.485948
163419.556462,-3478.967927,-9548.656652,-1532.190996
163419.556782,-1258.350101,-11251.130318,-1302.362347
163419.557101,-3552.988522,-11325.150913,-2451.505594
163419.557421,-3108.864956,-11325.150913,-3140.991542
163419.557740,-1332.370696,-9400.615463,-1532.190996
163419.558060,962.267725,-8216.285956,229.828649
163419.558379,0.000000,-5995.668130,0.000000
163419.558698,3627.009116,-8882.471304,2451.505594
163419.559018,3923.091493,-7179.997637,3217.601092
163419.559337,3552.988522,-7031.956449,2374.896044
163419.559657,2220.617826,-8364.327145,-229.828649
163419.559976,3478.967927,-11843.295072,153.219100
163419.560296,3478.967927,-13027.624579,1149.143247
163419.560615,-74.020594,-10066.800811,-2834.553343
163419.560934,-2072.576638,-11843.295072,-4979.620737
163419.561254,-370.102971,-13841.851115,-2604.724693
163419.561573,0.000000,-9844.739029,-3064.381992
163419.561893,1998.556043,-9992.780217,-1455.581446
163419.562212,1998.556043,-8808.450710,-1302.362347
163419.562532,3478.967927,-7550.100608,995.924147
163419.562851,5403.503377,-6513.812290,1685.410096
163419.563170,4145.153275,-5995.668130,1225.752797
163419.563490,5255.462188,-9326.594869,2374.896044
163419.563809,4367.215058,-9474.636058,-76.609550
163419.564129,814.226536,-8660.409521,76.609550
163419.564448,1554.432478,-13397.727550,1149.143247
163419.564767,0.000000,-11325.150913,-2298.286494
163419.565086,444.123565,-11399.171507,-1762.019645
163419.565406,-518.144159,-9992.780217,-1608.800546
163419.565725,-2294.638420,-9696.697840,-2834.553343
163419.566044,-2516.700203,-8364.327145,-3064.381992
163419.566364,-888.247130,-8512.368333,-689.485948
163419.566683,-74.020594,-7402.059420,1762.019645
163419.567002,-1110.308913,-6587.832884,153.219100
163419.567321,-1036.288319,-5403.503377,0.000000
163419.567641,1628.453072,-7698.141797,4519.963438
163419.567960,-74.020594,-7994.224174,995.924147
163419.568279,-2368.659014,-8882.471304,-1302.362347
163419.568598,-3256.906145,-9844.739029,-1532.190996
163419.568918,-2960.823768,-11325.150913,0.000000
163419.569237,-4441.235652,-10732.986159,-1838.629195
163419.569556,-5921.647536,-10732.986159,-4596.572988
163419.569876,-3552.988522,-11177.109724,-1225.752797
163419.570195,-2368.659014,-9696.697840,-1838.629195
163419.570514,-3627.009116,-7105.977043,-3753.867940
163419.570833,-1258.350101,-9474.636058,-1302.362347
163419.571153,-518.144159,-9104.533087,459.657299
163419.571472,222.061783,-8290.306550,1838.629195
163419.571791,-962.267725,-8438.347739,1532.190996
163419.572110,-1184.329507,-8364.327145,1838.629195
163419.572430,-1702.473667,-5995.668130,612.876398
163419.572749,0.000000,-7772.162391,1225.752797
163419.573068,-666.185348,-9400.615463,612.876398
163419.573388,-1258.350101,-10510.924376,536.266849
163419.573707,-3478.967927,-7772.162391,-2451.505594
163419.574026,-1258.350101,-10066.800811,-229.828649
163419.574345,-1184.329507,-10732.986159,-383.047749
163419.574665,0.000000,-9918.759623,919.314598
163419.574984,-370.102971,-9326.594869,536.266849
163419.575303,-2368.659014,-8734.430116,-2528.115143
163419.575622,-2590.720797,-9178.553681,-3140.991542
163419.575942,-1184.329507,-9696.697840,-3677.258390
163419.576261,1480.411884,-11547.212695,1762.019645
163419.576580,-74.020594,-9770.718434,-76.609550
163419.576899,-3552.988522,-5995.668130,-3677.258390
163419.577219,1406.391290,-8882.471304,689.485948
163419.577538,2590.720797,-7328.038826,612.876398
163419.577857,2368.659014,-7920.203579,0.000000
163419.578177,2294.638420,-9178.553681,-76.609550
163419.578496,3478.967927,-9474.636058,-76.609550
163419.578815,3182.885551,-11843.295072,2068.457845
163419.579134,2294.638420,-10066.800811,-1302.362347
163419.579454,1628.453072,-10732.986159,0.000000
163419.579773,2368.659014,-10732.986159,1225.752797
163419.580092,0.000000,-8364.327145,-2451.505594
163419.580411,-370.102971,-10658.965565,-2374.896044
163419.580731,0.000000,-10732.986159,-1762.019645
163419.581050,1258.350101,-10066.800811,459.657299
163419.581369,2294.638420,-8882.471304,-76.609550
163419.581689,888.247130,-7772.162391,306.438199
163419.582008,2294.638420,-8882.471304,1762.019645
163419.582327,888.247130,-5107.421000,612.876398
163419.582646,0.000000,-5403.503377,0.000000
163419.582966,296.082377,-9992.780217,1915.238745
163419.583285,-1776.494261,-8956.491898,-842.705048
163419.583604,-814.226536,-9326.594869,0.000000
163419.583923,-148.041188,-10288.862594,-1378.971896
163419.584243,-592.164754,-11325.150913,-2451.505594
163419.584562,-148.041188,-11547.212695,-2451.505594
163419.584881,-1776.494261,-10436.903782,-1225.752797
163419.585201,-2442.679609,-10955.047942,-2757.943793
163419.585520,-1554.432478,-10658.965565,-4366.744339
163419.585839,-3256.906145,-9178.553681,-1302.362347
163419.586158,740.205942,-10436.903782,2145.067394
163419.586478,222.061783,-7550.100608,459.657299
163419.586797,888.247130,-7994.224174,1838.629195
163419.587116,1480.411884,-6587.832884,2834.553343
163419.587435,0.000000,-4811.338623,0.000000
163419.587755,-2072.576638,-7550.100608,0.000000
163419.588074,-1776.494261,-8956.491898,-2451.505594
163419.588393,-1184.329507,-10214.842000,2145.067394
163419.588713,-1258.350101,-11251.130318,-76.609550
163419.589032,-74.020594,-11843.295072,-689.485948
163419.589351,-740.205942,-11843.295072,459.657299
163419.589670,-2146.597232,-9400.615463,-229.828649
163419.589990,-3701.029710,-9178.553681,-2604.724693
163419.590309,-3849.070898,-10066.800811,-2451.505594
163419.590628,-4145.153275,-8364.327145,0.000000
163419.590947,-1184.329507,-8290.306550,-76.609550
163419.591267,-2368.659014,-7772.162391,612.876398
163419.591586,-74.020594,-8882.471304,842.705048
163419.591905,0.000000,-7105.977043,1762.019645
163419.592225,888.247130,-9178.553681,2987.772442
163419.592544,-1036.288319,-7550.100608,-1991.848295
163419.592863,-1406.391290,-9474.636058,-689.485948
163419.593182,-666.185348,-9696.697840,0.000000
163419.593502,0.000000,-8956.491898,0.000000
163419.593821,1258.350101,-10436.903782,-1532.190996
163419.594140,2220.617826,-11843.295072,383.047749
163419.594459,1554.432478,-10214.842000,-76.609550
163419.594779,-666.185348,-7994.224174,-2451.505594
163419.595098,0.000000,-10732.986159,-1225.752797
163419.595417,0.000000,-9548.656652,0.000000
163419.595736,1554.432478,-9474.636058,766.095498
163419.596056,666.185348,-8956.491898,919.314598
163419.596375,1480.411884,-8364.327145,1072.533697
163419.596694,2294.638420,-6217.729913,842.705048
163419.597014,3034.844362,-7105.977043,2834.553343
163419.597333,1184.329507,-6439.791695,-153.219100
163419.597652,-740.205942,-8364.327145,-612.876398
163419.597971,-592.164754,-8808.450710,536.266849
163419.598291,740.205942,-10584.944971,1915.238745
163419.598610,1036.288319,-12583.501014,1225.752797
163419.598929,1702.473667,-11251.130318,-1302.362347
163419.599248,148.041188,-9252.574275,-1149.143247
163419.599568,-1406.391290,-9548.656652,-3064.381992
163419.599887,-3627.009116,-9918.759623,-5439.278036
163419.600206,-2590.720797,-11843.295072,-2757.943793
163419.600526,-814.226536,-10807.006753,-306.438199
163419.600845,370.102971,-10140.821405,0.000000
163419.601164,1998.556043,-10066.800811,1991.848295
163419.601483,1702.473667,-8290.306550,2068.457845
163419.601803,2368.659014,-6587.832884,3753.867940
163419.602122,3478.967927,-6217.729913,1762.019645
163419.602441,1702.473667,-7105.977043,-383.047749
163419.602760,-2368.659014,-6587.832884,0.000000
163419.603080,-666.185348,-8142.265362,0.000000
163419.603399,222.061783,-11473.192101,-383.047749
163419.603718,-370.102971,-12435.459826,-383.047749
163419.604038,-1036.288319,-11399.171507,-229.828649
163419.604357,-1554.432478,-9992.780217,-76.609550
163419.604676,-2812.782580,-10955.047942,-2221.676944
163419.604995,-3404.947333,-10658.965565,-2528.115143
163419.605315,-3552.988522,-9548.656652,0.000000
163419.605634,-1184.329507,-8882.471304,459.657299
163419.605953,-3256.906145,-7179.997637,0.000000
163419.606272,-148.041188,-8512.368333,842.705048
163419.606592,0.000000,-6513.812290,2451.505594
163419.606911,0.000000,-5477.523971,1455.581446
163419.607230,-1110.308913,-6291.750507,-2451.505594
163419.607550,-1258.350101,-8216.285956,-3140.991542
163419.607869,-1776.494261,-8438.347739,-689.485948
163419.608188,-3552.988522,-8364.327145,-2145.067394
163419.608507,-2220.617826,-12213.398043,-2451.505594
163419.608827,-1258.350101,-13915.871710,-76.609550
163419.609146,-3552.988522,-9844.739029,-1225.752797
163419.609465,-2442.679609,-10140.821405,-2681.334243
163419.609784,-1776.494261,-10955.047942,-2528.115143
163419.610104,74.020594,-10732.986159,-306.438199
163419.610423,518.144159,-7179.997637,-383.047749
163419.610742,2590.720797,-8290.306550,2374.896044
163419.611061,2294.638420,-7698.141797,383.047749
163419.611381,2368.659014,-7624.121203,3064.381992
163419.611700,2368.659014,-5995.668130,2451.505594
163419.612019,1702.473667,-9474.636058,-76.609550
163419.612339,-2812.782580,-9252.574275,-919.314598
163419.612658,-1406.391290,-9548.656652,-766.095498
163419.612977,-814.226536,-9770.718434,-306.438199
163419.613296,74.020594,-10362.883188,-612.876398
163419.613616,666.185348,-10658.965565,-306.438199
163419.613935,1332.370696,-10658.965565,842.705048
163419.614254,-370.102971,-8882.471304,-1302.362347
163419.614573,-1850.514855,-8216.285956,-4519.963438
163419.614893,-2072.576638,-10140.821405,-1225.752797
163419.615212,2294.638420,-11843.295072,-76.609550
163419.615531,0.000000,-9548.656652,-612.876398
163419.615851,0.000000,-9474.636058,-612.876398
163419.616170,518.144159,-9326.594869,459.657299
163419.616489,1776.494261,-8068.244768,1532.190996
163419.616808,592.164754,-6587.832884,0.000000
163419.617128,74.020594,-8364.327145,-2451.505594
163419.617447,1924.535449,-9918.759623,2298.286494
163419.617766,3478.967927,-8882.471304,1762.019645
163419.618085,1702.473667,-7994.224174,-229.828649
163419.618405,3182.885551,-10658.965565,-76.609550
163419.618724,518.144159,-10140.821405,229.828649
163419.619043,-814.226536,-9696.697840,-1838.629195
163419.619363,-3330.926739,-10584.944971,-3140.991542
163419.619682,-2960.823768,-11917.315666,0.000000
163419.620001,-1776.494261,-9548.656652,-1608.800546
163419.620320,0.000000,-9548.656652,306.438199
163419.620640,-74.020594,-9474.636058,-76.609550
163419.620959,-1406.391290,-7105.977043,-76.609550
163419.621278,-666.185348,-5551.544565,0.000000
163419.621597,-74.020594,-7105.977043,919.314598
163419.621917,-1998.556043,-7772.162391,-1149.143247
163419.622236,-2220.617826,-8882.471304,459.657299
163419.622555,-814.226536,-8882.471304,1149.143247
163419.622875,-2072.576638,-8956.491898,76.609550
163419.623194,-1554.432478,-9252.574275,-2145.067394
163419.623513,-1776.494261,-9548.656652,0.000000
163419.623832,-4145.153275,-7772.162391,-2451.505594
163419.624152,-1258.350101,-12435.459826,-1838.629195
163419.624471,-4737.318029,-10140.821405,-5822.325785
163419.624790,-1850.514855,-11251.130318,-1915.238745
163419.625109,-592.164754,-10140.821405,-383.047749
163419.625429,0.000000,-9474.636058,-153.219100
163419.625748,2294.638420,-9474.636058,2374.896044
163419.626067,3182.885551,-7402.059420,2987.772442
163419.626387,1628.453072,-5773.606348,1685.410096
163419.626706,518.144159,-5477.523971,-766.095498
163419.627025,0.000000,-7179.997637,1838.629195
163419.627344,592.164754,-8364.327145,3983.696590
163419.627664,0.000000,-7772.162391,612.876398
163419.627983,666.185348,-10288.862594,0.000000
163419.628302,-370.102971,-10807.006753,-536.266849
163419.628621,-1110.308913,-10436.903782,-919.314598
163419.628941,-666.185348,-11547.212695,-2528.115143
163419.629260,-2368.659014,-12731.542202,-2298.286494
163419.629579,-666.185348,-11843.295072,-3140.991542
163419.629898,-2960.823768,-9548.656652,-1762.019645
163419.630218,-148.041188,-9844.739029,0.000000
163419.630537,-1406.391290,-7179.997637,-4290.134789
163419.630856,1998.556043,-8290.306550,2068.457845
163419.631176,1332.370696,-6291.750507,842.705048
163419.631495,592.164754,-6661.853478,0.000000
163419.631814,-370.102971,-8882.471304,-76.609550
163419.632133,148.041188,-9548.656652,995.924147
163419.632453,0.000000,-7328.038826,0.000000
163419.632772,592.164754,-9548.656652,0.000000
163419.633091,0.000000,-9548.656652,0.000000
163419.633410,0.000000,-9548.656652,0.000000
163419.633730,-74.020594,-11251.130318,-1302.362347
163419.634049,-1480.411884,-10881.027347,-2681.334243
163419.634368,-666.185348,-11547.212695,-1991.848295
163419.634688,-296.082377,-10584.944971,0.000000
163419.635007,-592.164754,-10732.986159,2451.505594
163419.635326,740.205942,-8956.491898,842.705048
163419.635645,1702.473667,-8142.265362,2374.896044
163419.635965,2294.638420,-5625.565159,1149.143247
163419.636284,0.000000,-6735.874072,1225.752797
163419.636603,-74.020594,-9178.553681,-76.609550
163419.636922,-2072.576638,-8364.327145,612.876398
163419.637242,-592.164754,-8956.491898,383.047749
163419.637561,-1258.350101,-9474.636058,-919.314598
163419.637880,-1554.432478,-10066.800811,-76.609550
163419.638200,-4737.318029,-9548.656652,-2451.505594
163419.638519,-2368.659014,-10362.883188,-2221.676944
163419.638838,-3108.864956,-10807.006753,-3447.429741
163419.639157,-1924.535449,-11325.150913,-2757.943793
163419.639477,-74.020594,-10658.965565,-1608.800546
163419.639796,2294.638420,-10658.965565,1302.362347
163419.640115,1702.473667,-10584.944971,1149.143247
163419.640434,1406.391290,-8290.306550,1149.143247
163419.640754,0.000000,-4811.338623,153.219100
163419.641073,2516.700203,-8068.244768,3524.039291
163419.641392,-2368.659014,-6587.832884,0.000000
163419.641712,-814.226536,-8438.347739,1149.143247
163419.642031,0.000000,-8808.450710,1302.362347
163419.642350,148.041188,-9030.512492,306.438199
163419.642669,666.185348,-9622.677246,-1225.752797
163419.642989,-518.144159,-8734.430116,0.000000
163419.643308,-74.020594,-9474.636058,0.000000
163419.643627,-888.247130,-10807.006753,-229.828649
163419.643946,-962.267725,-11843.295072,-1608.800546
163419.644266,-296.082377,-12657.521608,1072.533697
163419.644585,-2516.700203,-10140.821405,-1225.752797
163419.644904,-2664.741391,-10807.006753,-1532.190996
163419.645223,-2294.638420,-9770.718434,-612.876398
163419.645543,0.000000,-7772.162391,612.876398
163419.645862,0.000000,-5403.503377,0.000000
163419.646181,74.020594,-7179.997637,-2451.505594
163419.646501,1036.288319,-9474.636058,2298.286494
163419.646820,-222.061783,-7105.977043,536.266849
163419.647139,0.000000,-7994.224174,536.266849
163419.647458,2812.782580,-11843.295072,1991.848295
163419.647778,74.020594,-9696.697840,-766.095498
163419.648097,-148.041188,-9992.780217,-383.047749
163419.648416,-74.020594,-9696.697840,-2374.896044
163419.648735,-2368.659014,-9548.656652,-3370.820191
163419.649055,0.000000,-10288.862594,-2221.676944
163419.649374,-888.247130,-9104.533087,-1991.848295
163419.649693,-1184.329507,-9548.656652,-1072.533697
163419.650013,1850.514855,-11769.274478,2451.505594
163419.650332,3478.967927,-8290.306550,1762.019645
163419.650651,3108.864956,-7846.182985,3677.258390
163419.650970,1258.350101,-7476.080014,1455.581446
163419.651290,-666.185348,-8142.265362,919.314598
163419.651609,-148.041188,-8512.368333,1762.019645
163419.651928,0.000000,-6439.791695,2528.115143
163419.652247,1110.308913,-8586.388927,536.266849
163419.652567,0.000000,-8512.368333,-689.485948
163419.652886,-2664.741391,-6291.750507,-1532.190996
163419.653205,-2368.659014,-7772.162391,-1838.629195
163419.653525,-2442.679609,-9770.718434,-6205.373534
163419.653844,-3552.988522,-12435.459826,-3983.696590
163419.654163,-4589.276840,-12213.398043,-3447.429741
163419.654482,-3849.070898,-11843.295072,-2604.724693
163419.654802,-2442.679609,-12435.459826,-1915.238745
163419.655121,370.102971,-11843.295072,1149.143247
163419.655440,2294.638420,-8142.265362,2987.772442
163419.655759,2886.803174,-6217.729913,536.266849
163419.656079,0.000000,-6587.832884,1532.190996
163419.656398,592.164754,-7179.997637,1532.190996
163419.656717,2886.803174,-6809.894666,2374.896044
163419.657037,2664.741391,-7550.100608,2911.162892
163419.657356,1332.370696,-9030.512492,1072.533697
163419.657675,74.020594,-9326.594869,766.095498
163419.657994,-74.020594,-11251.130318,-76.609550
163419.658314,-2072.576638,-10881.027347,-3677.258390
163419.658633,-4145.153275,-12509.480420,-3983.696590
163419.658952,-2442.679609,-13323.706956,-2834.553343
163419.659271,-2812.782580,-14211.954086,-1302.362347
163419.659591,-4737.318029,-9548.656652,-2451.505594
163419.659910,-962.267725,-9474.636058,-76.609550
163419.660229,1480.411884,-7328.038826,2068.457845
163419.660549,1406.391290,-5625.565159,1532.190996
163419.660868,296.082377,-6291.750507,995.924147
163419.661187,-74.020594,-7920.203579,2221.676944
163419.661506,-1776.494261,-6291.750507,1225.752797
163419.661826,1406.391290,-8882.471304,995.924147
163419.662145,-962.267725,-9474.636058,-1302.362347
163419.662464,-1258.350101,-10510.924376,-1302.362347
163419.662783,-4145.153275,-9548.656652,0.000000
163419.663103,-2442.679609,-10510.924376,-3447.429741
163419.663422,-1480.411884,-11917.315666,-4060.306139
163419.663741,-222.061783,-12213.398043,-1991.848295
163419.664060,-444.123565,-9696.697840,-1915.238745
163419.664380,-74.020594,-9992.780217,-842.705048
163419.664699,0.000000,-9548.656652,612.876398
163419.665018,2960.823768,-8364.327145,3677.258390
163419.665338,4663.297435,-8142.265362,3600.648841
163419.665657,2886.803174,-8142.265362,3294.210641
163419.665976,0.000000,-7179.997637,1838.629195
163419.666295,1776.494261,-7698.141797,2987.772442
163419.666615,1258.350101,-7846.182985,1455.581446
163419.666934,-444.123565,-9104.533087,76.609550
163419.667253,-2442.679609,-7846.182985,-3370.820191
163419.667572,-2146.597232,-9474.636058,-1532.190996
163419.667891,-2072.576638,-9178.553681,-2834.553343
163419.668211,-4145.153275,-9548.656652,-3677.258390
163419.668530,-1776.494261,-11991.336260,-2298.286494
163419.668849,-4145.153275,-10140.821405,-2451.505594
163419.669168,-3627.009116,-10214.842000,-3600.648841
163419.669487,-3997.112087,-10140.821405,-2451.505594
163419.669806,-444.123565,-9844.739029,229.828649
163419.670126,1628.453072,-7550.100608,612.876398
163419.670445,2886.803174,-8290.306550,766.095498
163419.670764,592.164754,-8956.491898,2451.505594
163419.671083,1702.473667,-7698.141797,2374.896044
163419.671402,1480.411884,-5847.626942,536.266849
163419.671722,1776.494261,-7179.997637,1225.752797
163419.672041,-2368.659014,-7772.162391,0.000000
163419.672360,-888.247130,-9400.615463,-229.828649
163419.672679,-1184.329507,-9548.656652,-1608.800546
163419.672998,-1924.535449,-11103.089130,-2834.553343
163419.673318,-666.185348,-11843.295072,-2528.115143
163419.673637,-1628.453072,-11177.109724,-1762.019645
163419.673956,-2368.659014,-10732.986159,-919.314598
163419.674275,0.000000,-10732.986159,612.876398
163419.674594,2294.638420,-9474.636058,1149.143247
163419.674913,0.000000,-4811.338623,0.000000
163419.675233,1998.556043,-7105.977043,1072.533697
163419.675552,-1036.288319,-8364.327145,153.219100
163419.675871,-592.164754,-8068.244768,1302.362347
163419.676190,222.061783,-7772.162391,1915.238745
163419.676509,2072.576638,-11251.130318,3600.648841
163419.676829,-1406.391290,-8882.471304,-1225.752797
163419.677148,-1850.514855,-9474.636058,-612.876398
163419.677467,-2146.597232,-8586.388927,-2451.505594
163419.677786,-3256.906145,-10140.821405,-3983.696590
163419.678105,-3552.988522,-11917.315666,-3753.867940
163419.678424,-2442.679609,-11547.212695,-3217.601092
163419.678744,-2812.782580,-10881.027347,-2757.943793
163419.679063,-592.164754,-12213.398043,612.876398
163419.679382,2294.638420,-10362.883188,-76.609550
163419.679701,5551.544565,-9474.636058,4213.525239
163419.680020,2812.782580,-6291.750507,2145.067394
163419.680340,740.205942,-8142.265362,919.314598
163419.680659,0.000000,-8882.471304,1838.629195
163419.680978,518.144159,-7476.080014,3217.601092
163419.681297,1628.453072,-7105.977043,995.924147
163419.681616,0.000000,-8216.285956,0.000000
163419.681936,-2368.659014,-6735.874072,-1225.752797
163419.682255,-2072.576638,-7179.997637,0.000000
163419.682574,-74.020594,-8290.306550,-2528.115143
163419.682893,-1554.432478,-10881.027347,-3064.381992
163419.683212,-2220.617826,-11547.212695,-2298.286494
163419.683531,-3034.844362,-11547.212695,-1762.019645
163419.683851,-2960.823768,-10881.027347,-1838.629195
163419.684170,-592.164754,-12435.459826,-76.609550
163419.684489,962.267725,-9474.636058,2374.896044
163419.684808,2294.638420,-8882.471304,-76.609550
163419.685127,0.000000,-7179.997637,612.876398
163419.685447,-296.082377,-8808.450710,0.000000
163419.685766,1110.308913,-7254.018232,1149.143247
163419.686085,1776.494261,-7476.080014,1608.800546
163419.686404,148.041188,-8142.265362,689.485948
163419.686723,-74.020594,-9252.574275,229.828649
163419.687043,-74.020594,-10658.965565,2068.457845
163419.687362,-74.020594,-10955.047942,-2145.067394
163419.687681,-518.144159,-12139.377449,-1302.362347
163419.688000,-1554.432478,-12731.542202,-2987.772442
163419.688319,-2294.638420,-14211.954086,-689.485948
163419.688638,-4737.318029,-9548.656652,-2451.505594
163419.688958,-666.185348,-9474.636058,-1455.581446
163419.689277,1702.473667,-9474.636058,1608.800546
163419.689596,2812.782580,-7254.018232,2834.553343
163419.689915,1332.370696,-7031.956449,2451.505594
163419.690234,1110.308913,-8364.327145,3600.648841
163419.690554,-1480.411884,-7179.997637,1532.190996
163419.690873,814.226536,-8660.409521,2068.457845
163419.691192,-74.020594,-9474.636058,-76.609550
163419.691511,-1258.350101,-9918.759623,-383.047749
163419.691830,-3552.988522,-7772.162391,0.000000
163419.692150,-1258.350101,-9178.553681,-1532.190996
163419.692469,-1776.494261,-9770.718434,-3064.381992
163419.692788,-2368.659014,-10658.965565,-3677.258390
163419.693107,-2368.659014,-10140.821405,-4213.525239
163419.693426,-666.185348,-10732.986159,-2528.115143
163419.693745,-1776.494261,-10807.006753,-1225.752797
163419.694065,0.000000,-9548.656652,612.876398
163419.694384,4145.153275,-9326.594869,2374.896044
163419.694703,3478.967927,-9178.553681,2987.772442
163419.695022,0.000000,-7179.997637,0.000000
163419.695341,370.102971,-8882.471304,1608.800546
163419.695661,1036.288319,-8808.450710,1838.629195
163419.695980,888.247130,-8660.409521,1149.143247
163419.696299,0.000000,-7550.100608,-1762.019645
163419.696618,518.144159,-7254.018232,1149.143247
163419.696937,1702.473667,-7698.141797,-76.609550
163419.697257,-1776.494261,-7476.080014,-1532.190996
163419.697576,-1184.329507,-10140.821405,-3677.258390
163419.697895,-74.020594,-13619.789333,-76.609550
163419.698214,-3256.906145,-10732.986159,-2451.505594
163419.698533,-2220.617826,-11325.150913,-1915.238745
163419.698852,-1036.288319,-11769.274478,-1302.362347
163419.699172,1184.329507,-9696.697840,689.485948
163419.699491,666.185348,-6513.812290,-383.047749
163419.699810,-74.020594,-9474.636058,-76.609550
163419.700129,-2146.597232,-7772.162391,-919.314598
163419.700448,148.041188,-8364.327145,0.000000
163419.700768,2368.659014,-8438.347739,1991.848295
163419.701087,2294.638420,-9474.636058,-76.609550
163419.701406,-1184.329507,-8660.409521,0.000000
163419.701725,0.000000,-8142.265362,0.000000
163419.702044,0.000000,-8734.430116,-1302.362347
163419.702364,-1184.329507,-10732.986159,-2298.286494
163419.702683,-2072.576638,-10732.986159,-2451.505594
163419.703002,-1480.411884,-11843.295072,-1072.533697
163419.703321,0.000000,-11325.150913,612.876398
163419.703640,2294.638420,-11843.295072,-76.609550
163419.703959,1702.473667,-7698.141797,-689.485948
163419.704279,4071.132681,-8290.306550,2987.772442
163419.704598,222.061783,-7179.997637,689.485948
163419.704917,-1110.308913,-8808.450710,536.266849
163419.705236,-444.123565,-8290.306550,1685.410096
163419.705555,0.000000,-7772.162391,2604.724693
163419.705875,-1184.329507,-8586.388927,766.095498
163419.706194,-74.020594,-11695.253884,2374.896044
163419.706513,-74.020594,-8586.388927,536.266849
163419.706832,-2072.576638,-7179.997637,-1225.752797
163419.707151,-2442.679609,-7994.224174,-5286.058936
163419.707471,-3034.844362,-10658.965565,-3753.867940
163419.707790,-3256.906145,-11325.150913,-2528.115143
163419.708109,-2516.700203,-11177.109724,-2374.896044
163419.708428,-1480.411884,-11325.150913,-1915.238745
163419.708747,592.164754,-10732.986159,0.000000
163419.709066,74.020594,-7179.997637,0.000000
163419.709386,1184.329507,-8660.409521,1685.410096
163419.709705,-222.061783,-8882.471304,-76.609550
163419.710024,-666.185348,-6587.832884,-1762.019645
163419.710343,4071.132681,-9474.636058,2987.772442
163419.710662,1184.329507,-8586.388927,1838.629195
163419.710982,740.205942,-8364.327145,1378.971896
163419.711301,296.082377,-7698.141797,1225.752797
163419.711620,0.000000,-7179.997637,612.876398
163419.711939,-962.267725,-8882.471304,-1915.238745
163419.712258,-666.185348,-10658.965565,-1915.238745
163419.712578,-1258.350101,-11251.130318,-1302.362347
163419.712897,-3552.988522,-9548.656652,0.000000
163419.713216,1702.473667,-13027.624579,-76.609550
163419.713535,592.164754,-10140.821405,229.828649
163419.713854,1184.329507,-9178.553681,229.828649
163419.714173,-592.164754,-8734.430116,-689.485948
163419.714493,-2960.823768,-9844.739029,-1762.019645
163419.714812,-4737.318029,-7772.162391,-3370.820191
163419.715131,-148.041188,-9474.636058,1608.800546
163419.715450,1036.288319,-8512.368333,1915.238745
163419.715769,1184.329507,-8438.347739,1225.752797
163419.716089,740.205942,-7698.141797,2374.896044
163419.716408,2294.638420,-8290.306550,2374.896044
163419.716727,-74.020594,-8290.306550,-1608.800546
163419.717046,-2368.659014,-8956.491898,-4136.915689
163419.717365,-3404.947333,-10140.821405,-4596.572988
163419.717685,-1480.411884,-11991.336260,-612.876398
163419.718004,-3256.906145,-9844.739029,-2451.505594
163419.718323,962.267725,-11621.233289,-1532.190996
163419.718642,1332.370696,-10288.862594,-153.219100
163419.718961,518.144159,-9326.594869,76.609550
163419.719280,1110.308913,-9918.759623,612.876398
163419.719600,1406.391290,-8734.430116,1225.752797
163419.719919,3182.885551,-8660.409521,4136.915689
163419.720238,4071.132681,-8290.306550,4826.401637
163419.720557,0.000000,-5995.668130,2451.505594
163419.720876,1480.411884,-8364.327145,4290.134789
163419.721196,0.000000,-5995.668130,459.657299
163419.721515,-1258.350101,-7698.141797,-1608.800546
163419.721834,-2812.782580,-9844.739029,-4366.744339
163419.722153,-3701.029710,-11251.130318,-4673.182538
163419.722472,-3997.112087,-11029.068536,-5515.887586
163419.722792,-2960.823768,-11621.233289,-2987.772442
163419.723111,-1332.370696,-10362.883188,-3753.867940
163419.723430,592.164754,-10436.903782,306.438199
163419.723749,1258.350101,-8660.409521,842.705048
163419.724068,0.000000,-9474.636058,2451.505594
163419.724387,-444.123565,-8364.327145,0.000000
163419.724707,592.164754,-8882.471304,1838.629195
163419.725026,1776.494261,-7772.162391,2221.676944
163419.725345,0.000000,-6587.832884,0.000000
163419.725664,0.000000,-5995.668130,0.000000
163419.725983,-2220.617826,-6291.750507,0.000000
163419.726303,0.000000,-7772.162391,0.000000
163419.726622,-1554.432478,-9252.574275,-4903.011187
163419.726941,-1258.350101,-11843.295072,-2528.115143
163419.727260,-1628.453072,-11991.336260,-1225.752797
163419.727579,-1628.453072,-10584.944971,-1225.752797
163419.727899,-296.082377,-10584.944971,-689.485948
163419.728218,1628.453072,-9770.718434,919.314598
163419.728537,0.000000,-6735.874072,536.266849
163419.728856,-74.020594,-8290.306550,1608.800546
163419.729175,-3552.988522,-7772.162391,0.000000
163419.729494,-296.082377,-9474.636058,3447.429741
163419.729814,1110.308913,-7994.224174,1149.143247
163419.730133,2294.638420,-8290.306550,2374.896044
163419.730452,-592.164754,-8364.327145,153.219100
163419.730771,-1332.370696,-8660.409521,0.000000
163419.731090,-1332.370696,-8216.285956,-1532.190996
163419.731410,-3478.967927,-8512.368333,-2834.553343
163419.731729,-4737.318029,-11473.192101,-3983.696590
163419.732048,-3034.844362,-12731.542202,-2528.115143
163419.732367,-1850.514855,-14211.954086,-689.485948
163419.732686,0.000000,-9548.656652,-1532.190996
163419.733006,1776.494261,-9104.533087,0.000000
163419.733325,4663.297435,-8290.306550,1149.143247
163419.733644,1776.494261,-7328.038826,766.095498
163419.733963,74.020594,-8660.409521,-383.047749
163419.734282,0.000000,-9770.718434,612.876398
163419.734601,3256.906145,-10658.965565,4826.401637
163419.734921,2960.823768,-9844.739029,3830.477490
163419.735240,2516.700203,-10658.965565,3830.477490
163419.735559,1998.556043,-9178.553681,995.924147
163419.735878,-370.102971,-6957.935855,229.828649
163419.736197,-3182.885551,-5403.503377,-4903.011187
163419.736517,-1850.514855,-9474.636058,-3753.867940
163419.736836,-2738.761985,-11325.150913,-2451.505594
163419.737155,-1480.411884,-10658.965565,-1149.143247
163419.737474,-666.185348,-10732.986159,-995.924147
163419.737793,1628.453072,-11325.150913,919.314598
163419.738113,0.000000,-7179.997637,0.000000
163419.738432,296.082377,-7920.203579,919.314598
163419.738751,-74.020594,-9178.553681,-76.609550
163419.739070,-74.020594,-11251.130318,-76.609550
163419.739389,0.000000,-7179.997637,0.000000
163419.739708,2294.638420,-9178.553681,1149.143247
163419.740028,1036.288319,-9326.594869,153.219100
163419.740347,518.144159,-8882.471304,306.438199
163419.740666,444.123565,-7550.100608,-76.609550
163419.740985,-592.164754,-7179.997637,-76.609550
163419.741304,-2220.617826,-8660.409521,-4060.306139
163419.741624,-2368.659014,-9548.656652,-4443.353888
163419.741943,-1480.411884,-12065.356855,-76.609550
163419.742262,-74.020594,-11843.295072,-76.609550
163419.742581,-2368.659014,-9548.656652,0.000000
163419.742900,1998.556043,-9326.594869,1072.533697
163419.743220,1406.391290,-8216.285956,1685.410096
163419.743539,0.000000,-7994.224174,919.314598
163419.743858,-74.020594,-8882.471304,-689.485948
163419.744177,962.267725,-9474.636058,2298.286494
163419.744496,518.144159,-7994.224174,1149.143247
163419.744815,-2368.659014,-7476.080014,1225.752797
163419.745135,-666.185348,-9474.636058,-76.609550
163419.745454,-1184.329507,-9326.594869,1838.629195
163419.745773,-3552.988522,-7476.080014,-2451.505594
163419.746092,-3701.029710,-9548.656652,-3600.648841
163419.746411,-4515.256246,-10362.883188,-3370.820191
163419.746731,-3478.967927,-10288.862594,-2145.067394
163419.747050,-1850.514855,-9918.759623,-2528.115143
163419.747369,1628.453072,-11399.171507,1762.019645
163419.747688,1406.391290,-7994.224174,0.000000
163419.748007,1184.329507,-7179.997637,1225.752797
163419.748327,1258.350101,-9844.739029,3600.648841
163419.748646,-1258.350101,-10140.821405,612.876398
163419.748965,-1036.288319,-9844.739029,0.000000
163419.749284,814.226536,-9844.739029,1455.581446
163419.749603,296.082377,-9548.656652,0.000000
163419.749922,-1776.494261,-7772.162391,-2298.286494
163419.750242,592.164754,-8364.327145,306.438199
163419.750561,2072.576638,-8512.368333,1225.752797
163419.750880,1110.308913,-8290.306550,0.000000
163419.751199,-74.020594,-9474.636058,-1608.800546
163419.751518,-2368.659014,-9548.656652,0.000000
163419.751838,-1702.473667,-8364.327145,0.000000
163419.752157,148.041188,-10066.800811,0.000000
163419.752476,1036.288319,-9844.739029,0.000000
163419.752795,2220.617826,-8660.409521,766.095498
163419.753114,3182.885551,-8290.306550,-76.609550
163419.753434,-1184.329507,-9252.574275,-1378.971896
163419.753753,-1998.556043,-10436.903782,-1762.019645
163419.754072,-888.247130,-10732.986159,-612.876398
163419.754391,-962.267725,-9400.615463,-76.609550
163419.754710,-1776.494261,-10140.821405,612.876398
163419.755029,148.041188,-10140.821405,1838.629195
163419.755349,2294.638420,-8290.306550,-76.609550
163419.755668,0.000000,-5995.668130,0.000000
163419.755987,-444.123565,-8882.471304,-2451.505594
163419.756306,-74.020594,-10658.965565,-1302.362347
163419.756625,-592.164754,-9844.739029,-383.047749
163419.756945,0.000000,-9474.636058,-459.657299
163419.757264,148.041188,-10881.027347,-1532.190996
163419.757583,1628.453072,-10288.862594,612.876398
163419.757902,1554.432478,-9474.636058,-76.609550
163419.758221,0.000000,-8364.327145,0.000000
163419.758541,-74.020594,-10955.047942,0.000000
163419.758860,1036.288319,-11029.068536,2604.724693
163419.759179,0.000000,-5995.668130,0.000000
163419.759498,1110.308913,-7994.224174,1455.581446
163419.759817,888.247130,-8882.471304,1225.752797
163419.760136,444.123565,-7624.121203,1838.629195
163419.760456,-592.164754,-7105.977043,153.219100
163419.760775,-2516.700203,-9178.553681,-1455.581446
163419.761094,-3627.009116,-11695.253884,-2528.115143
163419.761413,-5329.482782,-9548.656652,-4903.011187
163419.761732,-5921.647536,-9548.656652,-2451.505594
163419.762052,-1924.535449,-10955.047942,-1915.238745
163419.762371,-3552.988522,-7179.997637,-2451.505594
163419.762690,1036.288319,-8808.450710,153.219100
163419.763009,518.144159,-7772.162391,0.000000
163419.763328,592.164754,-8882.471304,0.000000
163419.763648,1110.308913,-8734.430116,842.705048
163419.763967,2886.803174,-9474.636058,2068.457845
163419.764286,814.226536,-9474.636058,1149.143247
163419.764605,0.000000,-9548.656652,0.000000
163419.764924,1110.308913,-9474.636058,-76.609550
163419.765243,1480.411884,-9474.636058,919.314598
163419.765563,-3849.070898,-7772.162391,-2451.505594
163419.765882,-2516.700203,-10807.006753,-2451.505594
163419.766201,-2368.659014,-9918.759623,-1685.410096
163419.766520,-1924.535449,-9326.594869,-766.095498
163419.766839,-74.020594,-9474.636058,-76.609550
163419.767159,1998.556043,-8512.368333,1225.752797
163419.767478,3478.967927,-8290.306550,2374.896044
163419.767797,888.247130,-6291.750507,2374.896044
163419.768116,814.226536,-7105.977043,-1302.362347
163419.768435,0.000000,-9548.656652,1225.752797
163419.768755,-592.164754,-9844.739029,1149.143247
163419.769074,-74.020594,-10362.883188,-766.095498
163419.769393,-1258.350101,-10881.027347,-1378.971896
163419.769712,-1480.411884,-9918.759623,-1915.238745
163419.770032,-1258.350101,-8660.409521,-2451.505594
163419.770351,-2368.659014,-8364.327145,-2911.162892
163419.770670,-1850.514855,-9696.697840,-3677.258390
163419.770989,-74.020594,-11547.212695,-76.609550
163419.771308,-666.185348,-8142.265362,-459.657299
163419.771628,888.247130,-9844.739029,3370.820191
163419.771947,2072.576638,-9030.512492,842.705048
163419.772266,3182.885551,-8586.388927,2604.724693
163419.772585,1924.535449,-6883.915261,2068.457845
163419.772904,0.000000,-8364.327145,-2451.505594
163419.773224,0.000000,-9548.656652,-2451.505594
163419.773543,-592.164754,-10436.903782,-2451.505594
163419.773862,-2368.659014,-10140.821405,0.000000
163419.774181,-888.247130,-11325.150913,-612.876398
163419.774500,1998.556043,-11843.295072,-76.609550
163419.774820,1184.329507,-9400.615463,1149.143247
163419.775139,74.020594,-6809.894666,-612.876398
163419.775458,-222.061783,-8586.388927,-459.657299
163419.775777,74.020594,-8882.471304,383.047749
163419.776096,-3552.988522,-5995.668130,0.000000
163419.776416,-1850.514855,-7698.141797,-76.609550
163419.776735,-2812.782580,-7476.080014,-1532.190996
163419.777054,296.082377,-9548.656652,0.000000
163419.777373,-74.020594,-10510.924376,1378.971896
163419.777692,-74.020594,-9474.636058,-2528.115143
163419.778012,-3404.947333,-11029.068536,-2451.505594
163419.778331,-2146.597232,-11251.130318,-2528.115143
163419.778650,-1554.432478,-10732.986159,-1685.410096
163419.778969,-1850.514855,-10436.903782,-689.485948
163419.779288,-1850.514855,-8956.491898,383.047749
163419.779608,1998.556043,-8882.471304,1149.143247
163419.779927,1184.329507,-6587.832884,76.609550
163419.780246,0.000000,-6587.832884,0.000000
163419.780565,0.000000,-9548.656652,1225.752797
163419.780884,2294.638420,-8882.471304,-76.609550
163419.781204,0.000000,-8364.327145,153.219100
163419.781523,-74.020594,-9178.553681,766.095498
163419.781842,0.000000,-9104.533087,-612.876398
163419.782161,814.226536,-10436.903782,2374.896044
163419.782480,0.000000,-8956.491898,306.438199
163419.782800,-666.185348,-9474.636058,-919.314598
163419.783119,-74.020594,-11843.295072,-76.609550
163419.783438,-1258.350101,-9474.636058,-995.924147
163419.783757,-3256.906145,-8364.327145,0.000000
163419.784076,1110.308913,-9474.636058,689.485948
163419.784396,1406.391290,-8808.450710,1838.629195
163419.784715,1406.391290,-7476.080014,536.266849
163419.785034,-888.247130,-6957.935855,-1302.362347
163419.785353,-370.102971,-11843.295072,-76.609550
163419.785672,-1850.514855,-10510.924376,-1225.752797
163419.785992,-74.020594,-11843.295072,-383.047749
163419.786311,-2886.803174,-8364.327145,-3294.210641
163419.786630,-1036.288319,-8364.327145,-3524.039291
163419.786949,2886.803174,-9474.636058,-76.609550
163419.787268,1332.370696,-8364.327145,0.000000
163419.787588,222.061783,-9104.533087,-995.924147
163419.787907,370.102971,-9844.739029,-612.876398
163419.788226,1110.308913,-11843.295072,2374.896044
163419.788545,444.123565,-10362.883188,2528.115143
163419.788864,1702.473667,-9474.636058,229.828649
163419.789184,1184.329507,-8660.409521,1225.752797
163419.789503,0.000000,-7179.997637,1225.752797
163419.789822,1702.473667,-8882.471304,-76.609550
163419.790141,370.102971,-11399.171507,-76.609550
163419.790461,-2590.720797,-9326.594869,-919.314598
163419.790780,-2294.638420,-9474.636058,-1149.143247
163419.791099,-1850.514855,-8660.409521,-995.924147
163419.791418,-2368.659014,-7179.997637,0.000000
163419.791737,148.041188,-7846.182985,536.266849
163419.792057,1702.473667,-7994.224174,1532.190996
163419.792376,2146.597232,-9474.636058,-76.609550
163419.792695,-1332.370696,-8956.491898,-1991.848295
163419.793014,-148.041188,-12361.439231,2221.676944
163419.793333,-2294.638420,-9844.739029,-919.314598
163419.793653,-888.247130,-11029.068536,-1455.581446
163419.793972,-296.082377,-10436.903782,-1072.533697
163419.794291,518.144159,-9252.574275,0.000000
163419.794610,-1258.350101,-7105.977043,-1915.238745
163419.794929,-74.020594,-10066.800811,-1302.362347
163419.795249,-1406.391290,-9770.718434,-1378.971896
163419.795568,-444.123565,-8956.491898,-383.047749
163419.795887,-74.020594,-9474.636058,1149.143247
163419.796206,962.267725,-8882.471304,842.705048
163419.796525,1184.329507,-8808.450710,2451.505594
163419.796845,2294.638420,-7105.977043,3600.648841
163419.797164,1998.556043,-7994.224174,-76.609550
163419.797483,-2960.823768,-7179.997637,0.000000
163419.797802,-1406.391290,-9548.656652,-1072.533697
163419.798121,-1184.329507,-9770.718434,229.828649
163419.798441,-2294.638420,-10732.986159,-1378.971896
163419.798760,-1332.370696,-10807.006753,-1149.143247
163419.799079,-370.102971,-9474.636058,-383.047749
163419.799398,-370.102971,-8882.471304,-689.485948
163419.799717,-1702.473667,-8660.409521,-3677.258390
163419.800037,-1776.494261,-10510.924376,-536.266849
163419.800356,-222.061783,-10362.883188,-689.485948
163419.800675,-2368.659014,-7179.997637,0.000000
163419.800994,-962.267725,-9104.533087,-995.924147
163419.801313,222.061783,-9030.512492,229.828649
163419.801633,962.267725,-7920.203579,766.095498
163419.801952,1184.329507,-6587.832884,-1685.410096
163419.802271,-74.020594,-7994.224174,-3140.991542
163419.802590,-1184.329507,-9622.677246,-2068.457845
163419.802909,-2368.659014,-9548.656652,0.000000
163419.803229,-1184.329507,-9992.780217,0.000000
163419.803548,518.144159,-12435.459826,-76.609550
163419.803867,0.000000,-9548.656652,919.314598
163419.804186,1036.288319,-8438.347739,536.266849
163419.804505,296.082377,-7476.080014,-842.705048
163419.804825,-962.267725,-9474.636058,-1302.362347
163419.805144,-2442.679609,-8364.327145,-1608.800546
163419.805463,-74.020594,-10658.965565,1149.143247
163419.805782,-666.185348,-8290.306550,-842.705048
163419.806101,296.082377,-8660.409521,612.876398
163419.806421,2516.700203,-8364.327145,2451.505594
163419.806740,3478.967927,-9474.636058,2068.457845
163419.807059,0.000000,-7772.162391,306.438199
163419.807378,-370.102971,-9770.718434,-919.314598
163419.807697,-1184.329507,-10140.821405,-689.485948
163419.808017,-1776.494261,-10732.986159,-1378.971896
163419.808336,-2072.576638,-10584.944971,-1532.190996
163419.808655,-74.020594,-11251.130318,-689.485948
163419.808974,-74.020594,-9178.553681,-689.485948
163419.809293,-2220.617826,-6661.853478,-3677.258390
163419.809613,-1776.494261,-8956.491898,-2145.067394
163419.809932,-74.020594,-11843.295072,-76.609550
163419.810251,-888.247130,-8956.491898,0.000000
163419.810570,-666.185348,-9030.512492,-842.705048
163419.810889,-370.102971,-9252.574275,-153.219100
163419.811209,888.247130,-8956.491898,2145.067394
163419.811528,1184.329507,-7179.997637,2451.505594
163419.811847,1406.391290,-8290.306550,1225.752797
163419.812166,2886.803174,-10510.924376,1608.800546
163419.812486,1110.308913,-10066.800811,842.705048
163419.812805,-814.226536,-8734.430116,-842.705048
163419.813124,-74.020594,-11843.295072,-76.609550
163419.813443,0.000000,-10288.862594,0.000000
163419.813762,444.123565,-9548.656652,229.828649
163419.814082,-666.185348,-8512.368333,-689.485948
163419.814401,-2368.659014,-9548.656652,0.000000
163419.814720,-3552.988522,-9548.656652,-2221.676944
163419.815039,-3552.988522,-9548.656652,0.000000
163419.815358,-1406.391290,-9474.636058,-383.047749
163419.815678,-1554.432478,-8882.471304,-76.609550
163419.815997,0.000000,-7179.997637,0.000000
163419.816316,2294.638420,-8142.265362,2221.676944
163419.816635,814.226536,-7476.080014,612.876398
163419.816954,-666.185348,-8734.430116,-919.314598
163419.817274,-1036.288319,-9844.739029,-689.485948
163419.817593,-2368.659014,-10140.821405,0.000000
163419.817912,-1850.514855,-9548.656652,-1915.238745
163419.818231,-592.164754,-11917.315666,-229.828649
163419.818550,1406.391290,-12213.398043,1608.800546
163419.818870,1554.432478,-9474.636058,-766.095498
163419.819189,-1850.514855,-7476.080014,-3677.258390
163419.819508,-296.082377,-10658.965565,-1072.533697
163419.819827,-296.082377,-9696.697840,229.828649
163419.820146,-296.082377,-8734.430116,76.609550
163419.820466,-74.020594,-9474.636058,-76.609550
163419.820785,2146.597232,-10066.800811,1685.410096
163419.821104,1628.453072,-6809.894666,2374.896044
163419.821423,2294.638420,-6365.771101,1072.533697
163419.821742,0.000000,-7179.997637,0.000000
163419.822062,-2368.659014,-9548.656652,612.876398
163419.822381,-1924.535449,-8956.491898,-842.705048
163419.822700,0.000000,-10140.821405,-995.924147
163419.823019,-592.164754,-11103.089130,-1149.143247
163419.823338,-888.247130,-10732.986159,-689.485948
163419.823658,-74.020594,-10658.965565,-689.485948
163419.823977,-2294.638420,-9326.594869,-1302.362347
163419.824296,-1258.350101,-11251.130318,-3753.867940
163419.824615,-3478.967927,-9548.656652,-2451.505594
163419.824934,-74.020594,-9844.739029,-76.609550
163419.825254,-1258.350101,-5995.668130,-4290.134789
163419.825573,1702.473667,-9400.615463,383.047749
163419.825892,2368.659014,-7624.121203,2145.067394
163419.826211,2886.803174,-6439.791695,2298.286494
163419.826530,2294.638420,-8290.306550,-76.609550
163419.826850,592.164754,-9548.656652,-229.828649
163419.827169,0.000000,-8512.368333,0.000000
163419.827488,0.000000,-9844.739029,919.314598
163419.827807,0.000000,-9548.656652,0.000000
163419.828126,-592.164754,-9622.677246,-995.924147
163419.828446,-74.020594,-10658.965565,-383.047749
163419.828765,-1702.473667,-8586.388927,-1225.752797
163419.829084,-1924.535449,-9622.677246,-2451.505594
163419.829403,-1628.453072,-10436.903782,-842.705048
163419.829722,-1184.329507,-10140.821405,2451.505594
163419.830042,-592.164754,-9030.512492,536.266849
163419.830361,-370.102971,-8882.471304,-76.609550
163419.830680,-74.020594,-6809.894666,-536.266849
163419.830999,0.000000,-6883.915261,1072.533697
163419.831318,2294.638420,-9474.636058,-76.609550
163419.831638,-2220.617826,-9548.656652,-1072.533697
163419.831957,-1702.473667,-10066.800811,-536.266849
163419.832276,-1776.494261,-9326.594869,-306.438199
163419.832595,-1184.329507,-10732.986159,-76.609550
163419.832915,-2368.659014,-9548.656652,-2451.505594
163419.833234,222.061783,-10510.924376,-76.609550
163419.833553,-666.185348,-9104.533087,-766.095498
163419.833872,-1776.494261,-9696.697840,-1915.238745
163419.834191,-666.185348,-11843.295072,-2528.115143
163419.834511,-1110.308913,-9770.718434,-1225.752797
163419.834830,-592.164754,-10658.965565,995.924147
163419.835149,-370.102971,-10140.821405,1455.581446
163419.835468,1702.473667,-8882.471304,1149.143247
163419.835787,2072.576638,-7476.080014,4903.011187
163419.836107,0.000000,-4811.338623,1838.629195
163419.836426,1036.288319,-6883.915261,383.047749
163419.836745,0.000000,-8142.265362,1532.190996
163419.837064,74.020594,-8512.368333,1532.190996
163419.837383,296.082377,-8512.368333,0.000000
163419.837703,-296.082377,-9992.780217,-1225.752797
163419.838022,-74.020594,-11547.212695,-459.657299
163419.838341,-370.102971,-11843.295072,-689.485948
163419.838660,-3330.926739,-10807.006753,-3753.867940
163419.838979,-2072.576638,-13693.809927,-1302.362347
163419.839299,-2368.659014,-10881.027347,-2374.896044
163419.839618,-296.082377,-9918.759623,-459.657299
163419.839937,814.226536,-8734.430116,995.924147
163419.840256,2664.741391,-8364.327145,1225.752797
163419.840575,2368.659014,-4811.338623,1225.752797
163419.840895,1776.494261,-4811.338623,0.000000
163419.841214,2072.576638,-8882.471304,1149.143247
163419.841533,-814.226536,-9918.759623,-1302.362347
163419.841852,0.000000,-10066.800811,459.657299
163419.842171,1702.473667,-13175.665768,2145.067394
163419.842491,-444.123565,-11769.274478,-1532.190996
163419.842810,-296.082377,-11621.233289,-1762.019645
163419.843129,-222.061783,-9992.780217,-1072.533697
163419.843448,-3552.988522,-7179.997637,-2451.505594
163419.843767,-2368.659014,-11547.212695,-689.485948
163419.844087,-74.020594,-10658.965565,-689.485948
163419.844406,592.164754,-8068.244768,1685.410096
163419.844725,1480.411884,-7476.080014,3064.381992
163419.845044,2294.638420,-7698.141797,2374.896044
163419.845363,2220.617826,-7846.182985,3294.210641
163419.845683,1184.329507,-5403.503377,1455.581446
163419.846002,-1036.288319,-6883.915261,-1072.533697
163419.846321,-2590.720797,-9992.780217,-1455.581446
163419.846640,-3627.009116,-9844.739029,-1302.362347
163419.846959,-666.185348,-10510.924376,-689.485948
163419.847279,-666.185348,-10362.883188,-689.485948
163419.847598,-74.020594,-10362.883188,-2528.115143
163419.847917,-2368.659014,-8660.409521,-2451.505594
163419.848236,-1258.350101,-7698.141797,-3753.867940
163419.848555,-2664.741391,-10732.986159,-2451.505594
163419.848875,-1258.350101,-11621.233289,-1532.190996
163419.849194,74.020594,-10140.821405,612.876398
163419.849513,1702.473667,-9474.636058,1149.143247
163419.849832,1924.535449,-10510.924376,2374.896044
163419.850151,2294.638420,-8882.471304,3600.648841
163419.850471,4071.132681,-8290.306550,2987.772442
163419.850790,1702.473667,-6661.853478,383.047749
163419.851109,-2368.659014,-7179.997637,-2451.505594
163419.851428,-1258.350101,-9030.512492,-995.924147
163419.851747,-1332.370696,-9696.697840,383.047749
163419.852067,-74.020594,-9844.739029,0.000000
163419.852386,148.041188,-10362.883188,-766.095498
163419.852705,1702.473667,-11843.295072,2374.896044
163419.853024,-518.144159,-9548.656652,-2451.505594
163419.853344,-1258.350101,-11843.295072,-995.924147
163419.853663,-2442.679609,-11547.212695,-3140.991542
163419.853982,-2368.659014,-10140.821405,-2451.505594
163419.854301,-2368.659014,-7179.997637,0.000000
163419.854620,-74.020594,-7846.182985,-76.609550
163419.854940,518.144159,-8216.285956,1455.581446
163419.855259,1776.494261,-6217.729913,2298.286494
163419.855578,1110.308913,-5699.585753,459.657299
163419.855897,518.144159,-7772.162391,-153.219100
163419.856216,-2368.659014,-8364.327145,-1532.190996
163419.856536,-518.144159,-10510.924376,612.876398
163419.856855,1998.556043,-12435.459826,1762.019645
163419.857174,-74.020594,-11547.212695,-1302.362347
163419.857493,-2368.659014,-9548.656652,0.000000
163419.857812,-666.185348,-10066.800811,-1608.800546
163419.858132,-1554.432478,-10140.821405,-2298.286494
163419.858451,-888.247130,-11177.109724,-1838.629195
163419.858770,666.185348,-9770.718434,-689.485948
163419.859089,1702.473667,-9030.512492,1762.019645
163419.859408,1184.329507,-7179.997637,1302.362347
163419.859728,1776.494261,-8364.327145,4290.134789
163419.860047,3478.967927,-7105.977043,3600.648841
163419.860366,2294.638420,-6957.935855,3600.648841
163419.860685,-2368.659014,-6587.832884,0.000000
163419.861004,-2738.761985,-9548.656652,-1302.362347
163419.861324,-3034.844362,-10140.821405,-919.314598
163419.861643,-1702.473667,-10140.821405,-766.095498
163419.861962,-1258.350101,-9178.553681,-4060.306139
163419.862281,-1554.432478,-9992.780217,-1455.581446
163419.862600,-370.102971,-9474.636058,-1915.238745
163419.862920,-2590.720797,-7772.162391,-3064.381992
163419.863239,-1628.453072,-10436.903782,-3677.258390
163419.863558,0.000000,-9548.656652,0.000000
163419.863877,518.144159,-10066.800811,306.438199
163419.864196,444.123565,-9252.574275,536.266849
163419.864516,0.000000,-9104.533087,0.000000
163419.864835,518.144159,-6587.832884,76.609550
163419.865154,1850.514855,-7550.100608,919.314598
163419.865473,0.000000,-5995.668130,0.000000
163419.865792,-1184.329507,-9548.656652,-919.314598
163419.866112,-592.164754,-9548.656652,1838.629195
163419.866431,0.000000,-9548.656652,1225.752797
163419.866750,814.226536,-8142.265362,-459.657299
163419.867069,814.226536,-9918.759623,612.876398
163419.867388,296.082377,-8956.491898,995.924147
163419.867708,-814.226536,-8142.265362,-612.876398
163419.868027,-74.020594,-11843.295072,-76.609550
163419.868346,-1554.432478,-11843.295072,-1991.848295
163419.868665,-2368.659014,-10955.047942,0.000000
163419.868985,-74.020594,-9474.636058,-689.485948
163419.869304,-2368.659014,-8364.327145,-1532.190996
163419.869623,-74.020594,-8290.306550,-689.485948
163419.869943,2886.803174,-8882.471304,2987.772442
163419.870262,222.061783,-5625.565159,-612.876398
163419.870581,-1406.391290,-7772.162391,-1532.190996
163419.870900,-1628.453072,-9696.697840,-612.876398
163419.871220,0.000000,-10732.986159,2451.505594
163419.871539,444.123565,-9474.636058,0.000000
163419.871858,1332.370696,-10214.842000,0.000000
163419.872177,1554.432478,-9622.677246,536.266849
163419.872497,0.000000,-7772.162391,-1838.629195
163419.872816,-666.185348,-9844.739029,-2757.943793
163419.873135,-666.185348,-11843.295072,-4060.306139
163419.873454,-2368.659014,-11325.150913,-2451.505594
163419.873774,-3256.906145,-9548.656652,-2451.505594
163419.874093,1702.473667,-11843.295072,-76.609550
163419.874412,592.164754,-9844.739029,1532.190996
163419.874731,2072.576638,-7476.080014,2681.334243
163419.875051,2368.659014,-5033.400406,2451.505594
163419.875370,666.185348,-5773.606348,842.705048
163419.875689,-888.247130,-7994.224174,1225.752797
163419.876009,0.000000,-8068.244768,1838.629195
163419.876328,1110.308913,-8586.388927,1149.143247
163419.876647,-1702.473667,-7920.203579,-2451.505594
163419.876966,-2072.576638,-10732.986159,-1225.752797
163419.877286,-74.020594,-11843.295072,-1302.362347
163419.877605,-3775.050304,-10140.821405,-3064.381992
163419.877924,-3330.926739,-12361.439231,-4290.134789
163419.878243,-3108.864956,-12435.459826,-3217.601092
163419.878563,-2442.679609,-10807.006753,-76.609550
163419.878882,-888.247130,-8660.409521,0.000000
163419.879201,1406.391290,-9474.636058,612.876398
163419.879520,4663.297435,-9474.636058,3600.648841
163419.879840,1850.514855,-4885.359217,1838.629195
163419.880159,592.164754,-4811.338623,0.000000
163419.880478,2294.638420,-9474.636058,-76.609550
163419.880798,-666.185348,-9252.574275,1532.190996
163419.881117,-666.185348,-8660.409521,689.485948
163419.881436,-148.041188,-9622.677246,-766.095498
163419.881755,-592.164754,-10881.027347,-153.219100
163419.882075,-2368.659014,-8364.327145,-3064.381992
163419.882394,-4145.153275,-8068.244768,-3677.258390
163419.882713,-2368.659014,-10436.903782,-2757.943793
163419.883032,-518.144159,-13101.645173,-76.609550
163419.883352,-2590.720797,-9548.656652,-2451.505594
163419.883671,-74.020594,-9474.636058,995.924147
163419.883990,-444.123565,-8734.430116,766.095498
163419.884309,1924.535449,-8512.368333,1991.848295
163419.884629,1776.494261,-6217.729913,2374.896044
163419.884948,0.000000,-5995.668130,1225.752797
163419.885267,-1776.494261,-7624.121203,-995.924147
163419.885586,-2368.659014,-9622.677246,0.000000
163419.885906,-74.020594,-11547.212695,-76.609550
163419.886225,-2146.597232,-9030.512492,-1378.971896
163419.886544,-4145.153275,-8364.327145,-3677.258390
163419.886864,-2960.823768,-8660.409521,-1838.629195
163419.887183,-592.164754,-8956.491898,-1838.629195
163419.887502,-962.267725,-9770.718434,-2451.505594
163419.887821,0.000000,-10658.965565,-1608.800546
163419.888141,1406.391290,-11251.130318,-76.609550
163419.888460,0.000000,-9696.697840,-1225.752797
163419.888779,-4145.153275,-8364.327145,-2451.505594
163419.889098,2294.638420,-11843.295072,-76.609550
163419.889418,2294.638420,-8364.327145,3294.210641
163419.889737,0.000000,-4811.338623,1225.752797
163419.890056,666.185348,-7624.121203,1532.190996
163419.890375,666.185348,-7698.141797,2298.286494
163419.890695,1332.370696,-7846.182985,2451.505594
163419.891014,3478.967927,-7105.977043,1762.019645
163419.891333,-74.020594,-8882.471304,-153.219100
163419.891652,-74.020594,-10658.965565,-76.609550
163419.891972,-2738.761985,-8364.327145,-2298.286494
163419.892291,-2812.782580,-9548.656652,-4903.011187
163419.892610,-2368.659014,-12657.521608,-1149.143247
163419.892930,-3775.050304,-11325.150913,-3064.381992
163419.893249,-2442.679609,-11843.295072,-1762.019645
163419.893568,-1850.514855,-10584.944971,-1685.410096
163419.893887,-962.267725,-10066.800811,0.000000
163419.894207,2294.638420,-8882.471304,1762.019645
163419.894526,2368.659014,-6291.750507,2451.505594
163419.894845,2072.576638,-7772.162391,2068.457845
163419.895164,-1036.288319,-7328.038826,-76.609550
163419.895484,-1776.494261,-6587.832884,612.876398
163419.895803,740.205942,-9474.636058,3524.039291
163419.896122,444.123565,-9622.677246,-919.314598
163419.896441,0.000000,-10288.862594,-766.095498
163419.896761,0.000000,-9622.677246,-689.485948
163419.897080,-1628.453072,-8364.327145,-3677.258390
163419.897399,-2368.659014,-9548.656652,-4290.134789
163419.897718,-1776.494261,-12065.356855,-1838.629195
163419.898038,-1184.329507,-10732.986159,0.000000
163419.898357,-74.020594,-11843.295072,-76.609550
163419.898676,-74.020594,-10658.965565,-76.609550
163419.898996,2368.659014,-9104.533087,3524.039291
163419.899315,2516.700203,-5699.585753,2987.772442
163419.899634,1776.494261,-5995.668130,1608.800546
163419.899953,-814.226536,-8290.306550,1378.971896
163419.900273,-4737.318029,-5403.503377,612.876398
163419.900592,-2368.659014,-7846.182985,0.000000
163419.900911,-4145.153275,-7179.997637,-2451.505594
163419.901230,-666.185348,-11843.295072,-1915.238745
163419.901550,-1850.514855,-10658.965565,-689.485948
163419.901869,-74.020594,-9474.636058,-1608.800546
163419.902188,-1036.288319,-10510.924376,-3524.039291
163419.902507,-888.247130,-11991.336260,-3524.039291
163419.902827,-1258.350101,-11917.315666,-2374.896044
163419.903146,-1184.329507,-10732.986159,-383.047749
163419.903465,-3552.988522,-9844.739029,-1838.629195
163419.903784,1998.556043,-9474.636058,229.828649
163419.904104,1332.370696,-7179.997637,2451.505594
163419.904423,2590.720797,-6661.853478,3370.820191
163419.904742,2294.638420,-8290.306550,2374.896044
163419.905062,1776.494261,-10066.800811,3907.087040
163419.905381,370.102971,-7105.977043,1991.848295
163419.905700,370.102971,-7402.059420,612.876398
163419.906019,-814.226536,-9030.512492,-766.095498
163419.906339,-3552.988522,-8364.327145,0.000000
163419.906658,-1184.329507,-9104.533087,-919.314598
163419.906977,-666.185348,-10955.047942,-2221.676944
163419.907296,-1258.350101,-14211.954086,-1915.238745
163419.907616,-4737.318029,-10732.986159,-3677.258390
163419.907935,-2960.823768,-12509.480420,919.314598
163419.908254,-3997.112087,-9548.656652,-766.095498
163419.908573,-444.123565,-9844.739029,459.657299
163419.908893,592.164754,-7624.121203,1838.629195
163419.909212,1036.288319,-5773.606348,1302.362347
163419.909531,-74.020594,-5773.606348,-1455.581446
163419.909850,0.000000,-8438.347739,2145.067394
163419.910170,444.123565,-8216.285956,1149.143247
163419.910489,0.000000,-8512.368333,0.000000
163419.910808,-666.185348,-11547.212695,-689.485948
163419.911128,-888.247130,-11843.295072,-1915.238745
163419.911447,-2368.659014,-10732.986159,-1532.190996
163419.911766,-1258.350101,-11843.295072,-2834.553343
163419.912085,-74.020594,-14211.954086,-1915.238745
163419.912405,0.000000,-11029.068536,-3677.258390
163419.912724,-74.020594,-9918.759623,-536.266849
163419.913043,1258.350101,-9104.533087,1608.800546
163419.913362,2886.803174,-8364.327145,1685.410096
163419.913682,3997.112087,-7105.977043,3370.820191
163419.914001,3849.070898,-5699.585753,3600.648841
163419.914320,1110.308913,-7179.997637,842.705048
163419.914639,-2072.576638,-8364.327145,459.657299
163419.914959,-74.020594,-11251.130318,3753.867940
163419.915278,-74.020594,-9474.636058,536.266849
163419.915597,-3552.988522,-7772.162391,-2451.505594
163419.915916,-2146.597232,-9622.677246,-2757.943793
163419.916236,-1776.494261,-9252.574275,-2221.676944
163419.916555,-1184.329507,-8808.450710,-2681.334243
163419.916874,-1480.411884,-10140.821405,-2911.162892
163419.917194,-74.020594,-11843.295072,-3140.991542
163419.917513,-1184.329507,-10140.821405,0.000000
163419.917832,-2294.638420,-7772.162391,-2451.505594
163419.918151,296.082377,-11917.315666,1378.971896
163419.918471,2590.720797,-10066.800811,2374.896044
163419.918790,1184.329507,-7179.997637,2451.505594
163419.919109,1406.391290,-7031.956449,229.828649
163419.919428,-962.267725,-8734.430116,-383.047749
163419.919748,-962.267725,-9474.636058,229.828649
163419.920067,-962.267725,-7328.038826,-1302.362347
163419.920386,-74.020594,-7698.141797,-76.609550
163419.920705,-74.020594,-9474.636058,-1302.362347
163419.921025,-2368.659014,-7476.080014,-1225.752797
163419.921344,0.000000,-7179.997637,-2451.505594
163419.921663,2664.741391,-11547.212695,-76.609550
163419.921982,-1776.494261,-10732.986159,0.000000
163419.922302,-1850.514855,-11621.233289,-766.095498
163419.922621,-2220.617826,-10140.821405,-1225.752797
163419.922940,-1998.556043,-10955.047942,-995.924147
163419.923260,1110.308913,-9474.636058,383.047749
163419.923579,3330.926739,-8882.471304,2374.896044
163419.923898,1702.473667,-6365.771101,383.047749
163419.924217,-1406.391290,-7402.059420,-1302.362347
163419.924537,-3256.906145,-7179.997637,0.000000
163419.924856,-74.020594,-10658.965565,2374.896044
163419.925175,-888.247130,-7328.038826,-766.095498
163419.925494,0.000000,-8956.491898,-1302.362347
163419.925814,296.082377,-9104.533087,-229.828649
163419.926133,592.164754,-8364.327145,153.219100
163419.926452,0.000000,-8660.409521,-1225.752797
163419.926771,-592.164754,-12509.480420,-2604.724693
163419.927091,0.000000,-11917.315666,0.000000
163419.927410,-74.020594,-13027.624579,-76.609550
163419.927729,-370.102971,-9030.512492,-2528.115143
163419.928048,3478.967927,-13027.624579,-76.609550
163419.928368,2442.679609,-8956.491898,1532.190996
163419.928687,2368.659014,-6957.935855,1455.581446
163419.929006,1332.370696,-7105.977043,766.095498
163419.929326,0.000000,-8364.327145,1838.629195
163419.929645,0.000000,-7772.162391,1838.629195
163419.929964,0.000000,-7179.997637,1838.629195
163419.930283,1332.370696,-10066.800811,1608.800546
163419.930603,-1480.411884,-9030.512492,0.000000
163419.930922,-1850.514855,-7254.018232,-1762.019645
163419.931241,-74.020594,-9474.636058,-1302.362347
163419.931560,-2220.617826,-9696.697840,-3447.429741
163419.931880,-2812.782580,-11695.253884,-2911.162892
163419.932199,-2146.597232,-11473.192101,-2068.457845
163419.932518,-2368.659014,-9844.739029,0.000000
163419.932837,-1258.350101,-10362.883188,-1991.848295
163419.933157,0.000000,-8660.409521,0.000000
163419.933476,2738.761985,-8660.409521,3600.648841
163419.933795,2294.638420,-7105.977043,-76.609550
163419.934114,-888.247130,-6291.750507,0.000000
163419.934434,-148.041188,-8956.491898,1685.410096
163419.934753,370.102971,-8068.244768,1225.752797
163419.935072,296.082377,-8364.327145,536.266849
163419.935392,-444.123565,-9474.636058,-76.609550
163419.935711,-1776.494261,-9400.615463,1149.143247
163419.936030,-666.185348,-7402.059420,-1302.362347
163419.936349,-962.267725,-10362.883188,-2528.115143
163419.936669,-2590.720797,-10214.842000,-4443.353888
163419.936988,-3552.988522,-11029.068536,0.000000
163419.937307,-3701.029710,-9696.697840,-2911.162892
163419.937626,-962.267725,-11251.130318,-842.705048
163419.937946,1110.308913,-10288.862594,383.047749
163419.938265,2072.576638,-8068.244768,2604.724693
163419.938584,2886.803174,-8290.306550,-76.609550
163419.938903,1110.308913,-9178.553681,1455.581446
163419.939223,222.061783,-9178.553681,2374.896044
163419.939542,0.000000,-6587.832884,1225.752797
163419.939861,0.000000,-8216.285956,1378.971896
163419.940180,-1184.329507,-8660.409521,0.000000
163419.940500,-1406.391290,-8364.327145,-1225.752797
163419.940819,-1480.411884,-8290.306550,-1685.410096
163419.941138,-2368.659014,-9844.739029,-3600.648841
163419.941458,-2146.597232,-11843.295072,-4443.353888
163419.941777,-666.185348,-13027.624579,-2528.115143
163419.942096,-2072.576638,-12213.398043,0.000000
163419.942415,-74.020594,-11843.295072,-995.924147
163419.942735,592.164754,-9992.780217,0.000000
163419.943054,3552.988522,-7476.080014,4903.011187
163419.943373,1850.514855,-3627.009116,766.095498
163419.943692,2738.761985,-7105.977043,2604.724693
163419.944012,2220.617826,-8660.409521,2681.334243
163419.944331,2072.576638,-7994.224174,2604.724693
163419.944650,1702.473667,-9474.636058,2374.896044
163419.944969,-666.185348,-8956.491898,229.828649
163419.945289,-2738.761985,-8956.491898,-1455.581446
163419.945608,-592.164754,-8364.327145,-2451.505594
163419.945927,-1184.329507,-8956.491898,-1532.190996
163419.946246,-1554.432478,-9622.677246,-5286.058936
163419.946566,-1850.514855,-11843.295072,-2681.334243
163419.946885,-3478.967927,-10658.965565,-2451.505594
163419.947204,-2516.700203,-11473.192101,-2374.896044
163419.947524,-888.247130,-11029.068536,-612.876398
163419.947843,1184.329507,-10732.986159,2757.943793
163419.948162,1184.329507,-7179.997637,612.876398
163419.948481,1628.453072,-7179.997637,0.000000
163419.948801,0.000000,-8808.450710,1072.533697
163419.949120,518.144159,-9178.553681,0.000000
163419.949439,888.247130,-8808.450710,1532.190996
163419.949758,-1776.494261,-7179.997637,0.000000
163419.950078,-74.020594,-10658.965565,-76.609550
163419.950397,-370.102971,-9474.636058,-689.485948
163419.950716,-1036.288319,-8734.430116,-919.314598
163419.951035,-1406.391290,-9474.636058,-4903.011187
163419.951355,-1850.514855,-10732.986159,-1302.362347
163419.951674,-2738.761985,-10732.986159,-1915.238745
163419.951993,-1110.308913,-9474.636058,-76.609550
163419.952312,814.226536,-11251.130318,1149.143247
163419.952632,3034.844362,-9252.574275,2987.772442
163419.952951,888.247130,-6143.709319,1532.190996
163419.953270,0.000000,-6587.832884,0.000000
163419.953590,-74.020594,-11251.130318,-76.609550
163419.953909,-1850.514855,-11695.253884,1149.143247
163419.954228,-2368.659014,-9844.739029,612.876398
163419.954547,-74.020594,-9474.636058,-229.828649
163419.954867,-2072.576638,-9548.656652,-383.047749
163419.955186,-2072.576638,-8882.471304,-76.609550
163419.955505,-2960.823768,-5995.668130,-2298.286494
163419.955824,-1776.494261,-6587.832884,-2298.286494
163419.956144,-3034.844362,-8808.450710,-3064.381992
163419.956463,-3182.885551,-9548.656652,-3677.258390
163419.956782,-2368.659014,-10732.986159,-1838.629195
163419.957101,1554.432478,-12435.459826,-76.609550
163419.957421,370.102971,-9844.739029,0.000000
163419.957740,1406.391290,-9696.697840,153.219100
163419.958059,-370.102971,-8290.306550,-229.828649
163419.958378,-1332.370696,-9400.615463,-1149.143247
163419.958698,-74.020594,-10955.047942,153.219100
163419.959017,1554.432478,-8734.430116,2374.896044
163419.959336,3034.844362,-8956.491898,3217.601092
163419.959656,2294.638420,-9474.636058,4213.525239
163419.959975,1702.473667,-6957.935855,1455.581446
163419.960294,1184.329507,-6587.832884,3064.381992
163419.960613,0.000000,-6735.874072,-1225.752797
163419.960933,-74.020594,-9918.759623,-1915.238745
163419.961252,-2146.597232,-11251.130318,-1532.190996
163419.961571,-2664.741391,-12065.356855,-2068.457845
163419.961890,-2590.720797,-9844.739029,-3983.696590
163419.962210,-1480.411884,-11103.089130,-2068.457845
163419.962529,0.000000,-9548.656652,0.000000
163419.962848,1110.308913,-9474.636058,-76.609550
163419.963167,-962.267725,-8586.388927,-1302.362347
163419.963487,0.000000,-10214.842000,3140.991542
163419.963806,592.164754,-7698.141797,995.924147
163419.964125,1702.473667,-8068.244768,1685.410096
163419.964444,1628.453072,-8438.347739,1072.533697
163419.964764,0.000000,-7772.162391,0.000000
163419.965083,-2368.659014,-5995.668130,-1762.019645
163419.965402,-2960.823768,-7179.997637,-3064.381992
163419.965722,-1776.494261,-9844.739029,-3677.258390
163419.966041,-1184.329507,-11547.212695,-4903.011187
163419.966360,-962.267725,-12435.459826,-1915.238745
163419.966679,-888.247130,-11769.274478,-612.876398
163419.966999,592.164754,-10881.027347,-153.219100
163419.967318,2146.597232,-9104.533087,1608.800546
163419.967637,1776.494261,-7254.018232,1762.019645
163419.967957,0.000000,-5995.668130,0.000000
163419.968276,-74.020594,-8882.471304,1149.143247
163419.968596,-888.247130,-6883.915261,2145.067394
163419.968915,0.000000,-7772.162391,2451.505594
163419.969234,888.247130,-9474.636058,2221.676944
163419.969554,-74.020594,-9474.636058,-76.609550
163419.969873,-1184.329507,-9548.656652,1838.629195
163419.970192,-3552.988522,-7772.162391,-2757.943793
163419.970512,-3108.864956,-10362.883188,-4366.744339
163419.970831,-4219.173869,-11029.068536,-4749.792088
163419.971150,-4737.318029,-10436.903782,-1915.238745
163419.971470,-2072.576638,-10658.965565,-1762.019645
163419.971789,-962.267725,-10436.903782,-689.485948
163419.972108,0.000000,-7179.997637,0.000000
163419.972428,1628.453072,-7624.121203,2145.067394
163419.972747,-74.020594,-6143.709319,-1915.238745
163419.973066,0.000000,-9474.636058,229.828649
163419.973386,666.185348,-9696.697840,1072.533697
163419.973705,1554.432478,-9178.553681,2221.676944
163419.974024,1110.308913,-9474.636058,-76.609550
163419.974344,1110.308913,-11843.295072,1762.019645
163419.974663,-74.020594,-9326.594869,1762.019645
163419.974982,2294.638420,-8882.471304,-76.609550
163419.975302,-1480.411884,-7328.038826,-2911.162892
163419.975621,-3552.988522,-8956.491898,-3064.381992
163419.975941,-2590.720797,-8956.491898,-3064.381992
163419.976260,-370.102971,-9474.636058,0.000000
163419.976579,1110.308913,-10140.821405,766.095498
163419.976899,2368.659014,-9474.636058,1685.410096
163419.977218,4663.297435,-9474.636058,2987.772442
163419.977537,1554.432478,-8882.471304,1532.190996
163419.977857,-74.020594,-10658.965565,-1302.362347
163419.978176,-1776.494261,-9844.739029,-1532.190996
163419.978495,0.000000,-9548.656652,0.000000
163419.978815,0.000000,-7179.997637,306.438199
163419.979134,-666.185348,-8216.285956,-1455.581446
163419.979453,222.061783,-8660.409521,-76.609550
163419.979773,296.082377,-7105.977043,-919.314598
163419.980092,-518.144159,-7994.224174,-2145.067394
163419.980411,-74.020594,-12287.418637,-2604.724693
163419.980731,-2368.659014,-11325.150913,-1838.629195
163419.981050,-74.020594,-11547.212695,-76.609550
163419.981369,296.082377,-9548.656652,-1608.800546
163419.981689,592.164754,-9548.656652,0.000000
163419.982008,1776.494261,-9548.656652,2451.505594
163419.982328,962.267725,-7698.141797,229.828649
163419.982647,0.000000,-8142.265362,-229.828649
163419.982966,0.000000,-9844.739029,306.438199
163419.983286,0.000000,-7476.080014,0.000000
163419.983605,222.061783,-8364.327145,1149.143247
163419.983924,-1184.329507,-7920.203579,612.876398
163419.984244,-2368.659014,-7772.162391,0.000000
163419.984563,0.000000,-8364.327145,1532.190996
163419.984882,-74.020594,-9474.636058,-76.609550
163419.985202,-3552.988522,-8364.327145,-2145.067394
163419.985521,-3330.926739,-10066.800811,-2604.724693
163419.985840,-2886.803174,-10584.944971,-1838.629195
163419.986160,-2368.659014,-10658.965565,-1532.190996
163419.986479,-3034.844362,-9548.656652,-3370.820191
163419.986798,-592.164754,-10066.800811,919.314598
163419.987118,-2368.659014,-5995.668130,0.000000
163419.987437,1110.308913,-9326.594869,1149.143247
163419.987756,-1554.432478,-8290.306550,-1302.362347
163419.988076,-2368.659014,-9548.656652,1225.752797
163419.988395,-518.144159,-8882.471304,229.828649
163419.988715,-888.247130,-9992.780217,0.000000
163419.989034,-1702.473667,-10140.821405,-306.438199
163419.989353,-740.205942,-8364.327145,-1685.410096
163419.989673,1406.391290,-8882.471304,-995.924147
163419.989992,-1184.329507,-8956.491898,-612.876398
163419.990311,-74.020594,-10658.965565,-1149.143247
163419.990631,-666.185348,-11843.295072,-76.609550
163419.990950,0.000000,-8364.327145,0.000000
163419.991269,0.000000,-8660.409521,0.000000
163419.991589,1998.556043,-9918.759623,1991.848295
163419.991908,2072.576638,-7698.141797,1608.800546
163419.992227,296.082377,-7179.997637,76.609550
163419.992547,-74.020594,-9474.636058,-76.609550
163419.992866,222.061783,-9918.759623,76.609550
163419.993185,-518.144159,-8808.450710,536.266849
163419.993505,-2368.659014,-7179.997637,-2145.067394
163419.993824,-1776.494261,-9844.739029,0.000000
163419.994143,-1258.350101,-7402.059420,-1991.848295
163419.994463,-148.041188,-8068.244768,-536.266849
163419.994782,-2368.659014,-7772.162391,-2451.505594
163419.995101,-1480.411884,-9474.636058,-2834.553343
163419.995421,-1184.329507,-10288.862594,-1302.362347
163419.995740,296.082377,-10881.027347,2374.896044
163419.996060,666.185348,-9844.739029,-689.485948
163419.996379,1628.453072,-9918.759623,-76.609550
163419.996698,2294.638420,-8660.409521,995.924147
163419.997018,296.082377,-6291.750507,0.000000
163419.997337,0.000000,-8364.327145,0.000000
163419.997656,-370.102971,-9252.574275,-1685.410096
163419.997976,296.082377,-10140.821405,919.314598
163419.998295,1184.329507,-9548.656652,1225.752797
163419.998614,1998.556043,-11251.130318,-76.609550
163419.998934,1036.288319,-10140.821405,1991.848295
163419.999253,0.000000,-7476.080014,229.828649
163419.999572,-814.226536,-7254.018232,-1149.143247
163419.999892,-1332.370696,-8438.347739,-1991.848295
163420.000211,-740.205942,-8956.491898,-383.047749
163420.000530,-1332.370696,-9844.739029,0.000000
163420.000850,-962.267725,-9918.759623,-76.609550
163420.001169,-666.185348,-9474.636058,-1608.800546
163420.001488,-2072.576638,-9548.656652,0.000000
163420.001808,-74.020594,-9474.636058,-76.609550
163420.002127,-1924.535449,-8660.409521,-1225.752797
163420.002447,-2220.617826,-9918.759623,-1072.533697
163420.002766,-1332.370696,-10140.821405,0.000000
163420.003085,0.000000,-9622.677246,1149.143247
163420.003405,296.082377,-9844.739029,1838.629195
163420.003724,222.061783,-10288.862594,612.876398
163420.004043,2294.638420,-9474.636058,2374.896044
163420.004363,518.144159,-7105.977043,-1302.362347
163420.004682,-370.102971,-8216.285956,-3370.820191
163420.005001,-74.020594,-9474.636058,-1302.362347
163420.005321,-888.247130,-9844.739029,153.219100
163420.005640,0.000000,-9918.759623,383.047749
163420.005959,0.000000,-10066.800811,0.000000
163420.006279,1332.370696,-10732.986159,2374.896044
163420.006598,0.000000,-7179.997637,0.000000
163420.006917,296.082377,-9252.574275,1302.362347
163420.007237,-74.020594,-10066.800811,-76.609550
163420.007556,-1110.308913,-9474.636058,-76.609550
163420.007875,-2368.659014,-7179.997637,0.000000
163420.008195,-74.020594,-10658.965565,-76.609550
163420.008514,-1184.329507,-10140.821405,-229.828649
163420.008834,-740.205942,-9844.739029,0.000000
163420.009153,-296.082377,-8068.244768,-536.266849
163420.009472,-1184.329507,-8216.285956,-1072.533697
163420.009792,-2590.720797,-8660.409521,-2451.505594
163420.010111,-1480.411884,-9696.697840,0.000000
163420.010430,1702.473667,-11843.295072,2374.896044
163420.010750,370.102971,-8734.430116,-1149.143247
163420.011069,0.000000,-5995.668130,0.000000
163420.011388,962.267725,-8882.471304,536.266849
163420.011708,296.082377,-7772.162391,-689.485948
163420.012027,148.041188,-9696.697840,-1149.143247
163420.012346,1110.308913,-10066.800811,-229.828649
163420.012666,814.226536,-9178.553681,-76.609550
163420.012985,0.000000,-9548.656652,0.000000
163420.013304,-2368.659014,-9548.656652,0.000000
163420.013624,888.247130,-10584.944971,1302.362347
163420.013943,2294.638420,-9474.636058,1762.019645
163420.014262,-2368.659014,-5995.668130,0.000000
163420.014582,-74.020594,-9030.512492,-76.609550
163420.014901,296.082377,-9178.553681,919.314598
163420.015220,370.102971,-8808.450710,842.705048
163420.015540,-74.020594,-8290.306550,-383.047749
163420.015859,-370.102971,-9474.636058,-76.609550
163420.016179,-74.020594,-9474.636058,-76.609550
163420.016498,-1480.411884,-7254.018232,-1378.971896
163420.016817,-1628.453072,-9400.615463,-1225.752797
163420.017137,-1776.494261,-11917.315666,-153.219100
163420.017456,-2960.823768,-10288.862594,-1838.629195
163420.017775,-740.205942,-10584.944971,-842.705048
163420.018095,-296.082377,-10510.924376,-536.266849
163420.018414,-222.061783,-9770.718434,0.000000
163420.018733,1998.556043,-8882.471304,-76.609550
163420.019053,1776.494261,-9474.636058,1149.143247
163420.019372,-74.020594,-8734.430116,-1455.581446
163420.019691,-1184.329507,-7179.997637,-2757.943793
163420.020011,0.000000,-9548.656652,1225.752797
163420.020330,1184.329507,-11103.089130,2374.896044
163420.020649,148.041188,-9030.512492,0.000000
163420.020969,296.082377,-9844.739029,689.485948
163420.021288,888.247130,-7254.018232,536.266849
163420.021607,-2368.659014,-6587.832884,-2451.505594
163420.021927,-2960.823768,-7772.162391,-2451.505594
163420.022246,-2294.638420,-10436.903782,-536.266849
163420.022566,-74.020594,-12361.439231,2374.896044
163420.022885,-1406.391290,-9474.636058,-1302.362347
163420.023204,-962.267725,-10066.800811,-76.609550
163420.023524,1036.288319,-10066.800811,1608.800546
163420.023843,0.000000,-7031.956449,76.609550
163420.024162,-296.082377,-8216.285956,-995.924147
163420.024482,-1258.350101,-9104.533087,-919.314598
163420.024801,-3552.988522,-7179.997637,0.000000
163420.025120,-1998.556043,-8438.347739,-1149.143247
163420.025440,-4145.153275,-8364.327145,0.000000
163420.025759,-296.082377,-10658.965565,612.876398
163420.026078,-962.267725,-9326.594869,-76.609550
163420.026398,-74.020594,-7698.141797,-2528.115143
163420.026717,-1776.494261,-9696.697840,-1838.629195
163420.027036,-1406.391290,-10881.027347,-842.705048
163420.027356,-370.102971,-10584.944971,459.657299
163420.027675,518.144159,-10510.924376,1455.581446
163420.027994,0.000000,-9548.656652,0.000000
163420.028314,0.000000,-7179.997637,0.000000
163420.028633,1184.329507,-7179.997637,1838.629195
163420.028952,1998.556043,-7846.182985,2374.896044
163420.029272,2294.638420,-9474.636058,-1302.362347
163420.029591,1406.391290,-11695.253884,2221.676944
163420.029911,0.000000,-8956.491898,-459.657299
163420.030230,-666.185348,-9474.636058,-842.705048
163420.030549,-518.144159,-9918.759623,-995.924147
163420.030869,-2368.659014,-7179.997637,0.000000
163420.031188,148.041188,-7920.203579,0.000000
163420.031507,1036.288319,-9474.636058,-76.609550
163420.031827,148.041188,-9474.636058,-1915.238745
163420.032146,0.000000,-10140.821405,2145.067394
163420.032465,3182.885551,-12435.459826,2374.896044
163420.032785,0.000000,-9548.656652,0.000000
163420.033104,-222.061783,-10214.842000,-536.266849
163420.033423,0.000000,-8734.430116,-612.876398
163420.033743,-518.144159,-8586.388927,-1838.629195
163420.034062,-74.020594,-8438.347739,-3294.210641
163420.034381,1258.350101,-10510.924376,-995.924147
163420.034701,962.267725,-9326.594869,-76.609550
163420.035020,814.226536,-9104.533087,-995.924147
163420.035339,1258.350101,-10066.800811,-76.609550
163420.035659,3478.967927,-10955.047942,1149.143247
163420.035978,2664.741391,-9252.574275,2145.067394
163420.036298,1702.473667,-8290.306550,-229.828649
163420.036617,0.000000,-7772.162391,-2298.286494
163420.036936,0.000000,-10140.821405,306.438199
163420.037256,-666.185348,-9548.656652,0.000000
163420.037575,-444.123565,-10658.965565,536.266849
163420.037894,-740.205942,-10436.903782,1072.533697
163420.038214,296.082377,-8364.327145,1149.143247
163420.038533,1332.370696,-6883.915261,842.705048
163420.038852,-222.061783,-7402.059420,-76.609550
163420.039172,-2220.617826,-8068.244768,0.000000
163420.039491,-3552.988522,-8364.327145,0.000000
163420.039810,-2442.679609,-11103.089130,-536.266849
163420.040130,-4737.318029,-9548.656652,0.000000
163420.040449,-3330.926739,-9474.636058,-1149.143247
163420.040768,-1332.370696,-8734.430116,689.485948
163420.041088,-1110.308913,-8068.244768,0.000000
163420.041407,-1036.288319,-8734.430116,153.219100
163420.041726,-666.185348,-8586.388927,-689.485948
163420.042046,-2368.659014,-9622.677246,-766.095498
163420.042365,-4737.318029,-9548.656652,-2451.505594
163420.042685,-888.247130,-12139.377449,-76.609550
163420.043004,-1258.350101,-10066.800811,536.266849
163420.043323,0.000000,-7772.162391,612.876398
163420.043643,-962.267725,-9326.594869,-1608.800546
163420.043962,-1998.556043,-9770.718434,-1532.190996
163420.044281,-1258.350101,-10140.821405,-842.705048
163420.044601,-2294.638420,-7179.997637,-1991.848295
163420.044920,-1850.514855,-7698.141797,-1302.362347
163420.045239,-74.020594,-8882.471304,-76.609550
163420.045559,0.000000,-6291.750507,919.314598
163420.045878,1776.494261,-6957.935855,0.000000
163420.046197,1998.556043,-10658.965565,2374.896044
163420.046517,-2368.659014,-8956.491898,919.314598
163420.046836,-1406.391290,-9178.553681,0.000000
163420.047155,-1776.494261,-10732.986159,-1302.362347
163420.047475,-222.061783,-12953.603985,-383.047749
163420.047794,-1258.350101,-9030.512492,-1685.410096
163420.048113,-1776.494261,-7179.997637,-3983.696590
163420.048433,-2368.659014,-9548.656652,-2145.067394
163420.048752,-1554.432478,-10807.006753,-2068.457845
163420.049071,-74.020594,-11547.212695,842.705048
163420.049391,-74.020594,-8882.471304,-76.609550
163420.049710,74.020594,-9104.533087,0.000000
163420.050030,1184.329507,-8734.430116,536.266849
163420.050349,2590.720797,-7105.977043,2145.067394
163420.050668,3182.885551,-6513.812290,1762.019645
163420.050988,3182.885551,-7846.182985,536.266849
163420.051307,2294.638420,-11251.130318,-76.609550
163420.051626,74.020594,-11843.295072,-76.609550
163420.051946,-1036.288319,-10140.821405,-2451.505594
163420.052265,0.000000,-11917.315666,-2451.505594
163420.052584,2294.638420,-12435.459826,-1302.362347
163420.052904,1036.288319,-9548.656652,689.485948
163420.053223,518.144159,-7772.162391,0.000000
163420.053542,148.041188,-8512.368333,-995.924147
163420.053862,1332.370696,-10510.924376,1762.019645
163420.054181,888.247130,-9400.615463,1991.848295
163420.054500,1998.556043,-10658.965565,2987.772442
163420.054820,-370.102971,-7994.224174,-383.047749
163420.055139,0.000000,-8364.327145,612.876398
163420.055458,0.000000,-5699.585753,0.000000
163420.055778,-74.020594,-7994.224174,-1302.362347
163420.056097,-1924.535449,-9770.718434,-1685.410096
163420.056417,-2738.761985,-10955.047942,-1378.971896
163420.056736,-1924.535449,-10362.883188,-919.314598
163420.057055,-296.082377,-12065.356855,306.438199
163420.057375,-3552.988522,-9548.656652,-2451.505594
163420.057694,0.000000,-11177.109724,1072.533697
163420.058013,-74.020594,-8882.471304,-76.609550
163420.058333,-74.020594,-9474.636058,-1915.238745
163420.058652,-3552.988522,-7179.997637,0.000000
163420.058971,518.144159,-9326.594869,842.705048
163420.059291,222.061783,-8512.368333,919.314598
163420.059610,296.082377,-8956.491898,842.705048
163420.059929,370.102971,-7994.224174,842.705048
163420.060249,592.164754,-6587.832884,1762.019645
163420.060568,-1924.535449,-6661.853478,-1225.752797
163420.060887,-2368.659014,-8438.347739,-2528.115143
163420.061207,-2368.659014,-9844.739029,0.000000
163420.061526,-74.020594,-12287.418637,2374.896044
163420.061845,-4145.153275,-9548.656652,0.000000
163420.062165,-1332.370696,-11103.089130,-383.047749
163420.062484,-888.247130,-9918.759623,306.438199
163420.062804,-1258.350101,-8216.285956,-536.266849
163420.063123,-666.185348,-8290.306550,-2221.676944
163420.063442,-1258.350101,-10066.800811,-842.705048
163420.063762,-1110.308913,-9178.553681,-689.485948
163420.064081,-2368.659014,-8364.327145,0.000000
163420.064400,-222.061783,-9770.718434,-76.609550
163420.064720,-592.164754,-9992.780217,1455.581446
163420.065039,-1184.329507,-7328.038826,0.000000
163420.065358,0.000000,-7624.121203,-995.924147
163420.065678,-1776.494261,-8956.491898,-1685.410096
163420.065997,-1850.514855,-10214.842000,-1225.752797
163420.066316,-74.020594,-9474.636058,-689.485948
163420.066636,2294.638420,-12731.542202,2374.896044
163420.066955,2886.803174,-11251.130318,-76.609550
163420.067274,1850.514855,-9548.656652,842.705048
163420.067594,0.000000,-6291.750507,1225.752797
163420.067913,0.000000,-7179.997637,0.000000
163420.068232,370.102971,-10066.800811,-1149.143247
163420.068552,-518.144159,-10955.047942,-612.876398
163420.068871,-148.041188,-9918.759623,-153.219100
163420.069191,-1258.350101,-8586.388927,-1455.581446
163420.069510,-148.041188,-9696.697840,842.705048
163420.069830,666.185348,-5773.606348,612.876398
163420.070149,0.000000,-4811.338623,0.000000
163420.070468,1998.556043,-9474.636058,1149.143247
163420.070788,-2960.823768,-6587.832884,-2451.505594
163420.071107,-4737.318029,-6291.750507,-2451.505594
163420.071427,-444.123565,-10584.944971,842.705048
163420.071746,592.164754,-11769.274478,-842.705048
163420.072066,0.000000,-11325.150913,-536.266849
163420.072385,-74.020594,-9474.636058,-76.609550
163420.072705,-740.205942,-8808.450710,-2221.676944
163420.073024,-2072.576638,-10732.986159,-3753.867940
163420.073343,-1998.556043,-11621.233289,-1685.410096
163420.073663,-888.247130,-10214.842000,-383.047749
163420.073982,0.000000,-9548.656652,1838.629195
163420.074302,0.000000,-7179.997637,0.000000
163420.074621,2886.803174,-8882.471304,4136.915689
163420.074941,2072.576638,-4737.318029,1838.629195
163420.075260,1184.329507,-5625.565159,0.000000
163420.075579,1702.473667,-9474.636058,-76.609550
163420.075899,-1184.329507,-8956.491898,919.314598
163420.076218,-1184.329507,-10214.842000,229.828649
163420.076538,-814.226536,-10955.047942,-459.657299
163420.076857,-296.082377,-11917.315666,-306.438199
163420.077177,-4145.153275,-8660.409521,-1838.629195
163420.077496,-4737.318029,-7920.203579,-3524.039291
163420.077816,-4071.132681,-10066.800811,-6128.763984
163420.078135,-4145.153275,-11325.150913,-2145.067394
163420.078454,-3552.988522,-8364.327145,0.000000
163420.078774,-962.267725,-7476.080014,0.000000
163420.079093,370.102971,-8216.285956,1838.629195
163420.079413,1480.411884,-7698.141797,3907.087040
163420.079732,518.144159,-5921.647536,2374.896044
163420.080052,-222.061783,-6513.812290,-1302.362347
163420.080371,-2368.659014,-9548.656652,-612.876398
163420.080691,-1554.432478,-11103.089130,-76.609550
163420.081010,-74.020594,-11843.295072,-76.609550
163420.081329,-814.226536,-10584.944971,-2757.943793
163420.081649,0.000000,-11917.315666,-1225.752797
163420.081968,518.144159,-10881.027347,-2068.457845
163420.082288,296.082377,-9252.574275,-995.924147
163420.082607,-518.144159,-9770.718434,-1838.629195
163420.082927,370.102971,-9844.739029,-1838.629195
163420.083246,1998.556043,-8808.450710,-1608.800546
163420.083565,1776.494261,-5995.668130,0.000000
163420.083885,2368.659014,-8660.409521,3677.258390
163420.084204,2886.803174,-7698.141797,2681.334243
163420.084524,1776.494261,-6291.750507,995.924147
163420.084843,0.000000,-4811.338623,0.000000
163420.085163,-74.020594,-8882.471304,-383.047749
163420.085482,-1702.473667,-10436.903782,-766.095498
163420.085802,-1258.350101,-10362.883188,-995.924147
163420.086121,-74.020594,-10066.800811,-1608.800546
163420.086440,-74.020594,-11843.295072,-76.609550
163420.086760,-74.020594,-11251.130318,-1915.238745
163420.087079,-2072.576638,-8068.244768,-2451.505594
163420.087399,-2516.700203,-8956.491898,-4903.011187
163420.087718,-296.082377,-11325.150913,153.219100
163420.088038,0.000000,-9548.656652,-1685.410096
163420.088357,1332.370696,-9030.512492,0.000000
163420.088677,1110.308913,-8882.471304,766.095498
163420.088996,1110.308913,-8882.471304,689.485948
163420.089315,3478.967927,-8290.306550,2068.457845
163420.089635,3701.029710,-7105.977043,2068.457845
163420.089954,2294.638420,-7550.100608,-383.047749
163420.090274,-518.144159,-9474.636058,-76.609550
163420.090593,-1702.473667,-7402.059420,0.000000
163420.090913,1480.411884,-11325.150913,2221.676944
163420.091232,74.020594,-10732.986159,-612.876398
163420.091551,592.164754,-11103.089130,0.000000
163420.091871,-592.164754,-10066.800811,153.219100
163420.092190,-2516.700203,-8956.491898,-2451.505594
163420.092510,-4145.153275,-9548.656652,-4290.134789
163420.092829,-1998.556043,-10881.027347,-306.438199
163420.093149,-74.020594,-11843.295072,2374.896044
163420.093468,-1998.556043,-7994.224174,-689.485948
163420.093788,-2368.659014,-8142.265362,689.485948
163420.094107,1184.329507,-8956.491898,4213.525239
163420.094426,592.164754,-4885.359217,1149.143247
163420.094746,-1924.535449,-4959.379811,-1225.752797
163420.095065,-1850.514855,-9104.533087,-689.485948
163420.095385,-4737.318029,-8364.327145,0.000000
163420.095704,-4145.153275,-9548.656652,-1225.752797
163420.096024,-4737.318029,-9548.656652,-3677.258390
163420.096343,-2368.659014,-12213.398043,-1378.971896
163420.096663,-1480.411884,-10955.047942,-1302.362347
163420.096982,-1258.350101,-10362.883188,-1302.362347
163420.097301,-1480.411884,-11399.171507,-1915.238745
163420.097621,-1406.391290,-10214.842000,-1149.143247
163420.097940,518.144159,-9030.512492,766.095498
163420.098260,1110.308913,-7402.059420,1838.629195
163420.098579,0.000000,-6587.832884,1225.752797
163420.098899,2886.803174,-7698.141797,2374.896044
163420.099218,1184.329507,-5403.503377,2451.505594
163420.099537,888.247130,-6661.853478,1225.752797
163420.099857,-222.061783,-10658.965565,-76.609550
163420.100176,-1258.350101,-9474.636058,-1915.238745
163420.100496,-1924.535449,-10140.821405,-1072.533697
163420.100815,-1184.329507,-10584.944971,-1302.362347
163420.101135,-518.144159,-11251.130318,-1838.629195
163420.101454,-74.020594,-11843.295072,-76.609550
163420.101774,-1258.350101,-9474.636058,-76.609550
163420.102093,-1258.350101,-9474.636058,-2528.115143
163420.102412,-2368.659014,-7772.162391,-4903.011187
163420.102732,2368.659014,-11473.192101,1762.019645
163420.103051,962.267725,-7772.162391,0.000000
163420.103371,2294.638420,-8586.388927,536.266849
163420.103690,1480.411884,-9104.533087,1532.190996
163420.104010,2220.617826,-7476.080014,1455.581446
163420.104329,1184.329507,-6513.812290,-459.657299
163420.104649,1110.308913,-9474.636058,-76.609550
163420.104968,-444.123565,-10955.047942,-612.876398
163420.105287,1702.473667,-11843.295072,2068.457845
163420.105607,814.226536,-9030.512492,-919.314598
163420.105926,296.082377,-9844.739029,0.000000
163420.106246,0.000000,-8364.327145,0.000000
163420.106565,1110.308913,-8734.430116,-76.609550
163420.106885,-296.082377,-8512.368333,-842.705048
163420.107204,148.041188,-10362.883188,-919.314598
163420.107523,296.082377,-10658.965565,-689.485948
163420.107843,1702.473667,-11621.233289,1532.190996
163420.108162,0.000000,-8364.327145,0.000000
163420.108482,1110.308913,-10658.965565,1762.019645
163420.108801,1110.308913,-8290.306550,2374.896044
163420.109121,1702.473667,-6513.812290,0.000000
163420.109440,-1258.350101,-6513.812290,-1608.800546
163420.109760,-2072.576638,-8808.450710,-919.314598
163420.110079,-1258.350101,-8882.471304,153.219100
163420.110398,-370.102971,-8956.491898,383.047749
163420.110718,1110.308913,-11251.130318,2374.896044
163420.111037,-74.020594,-10658.965565,-689.485948
163420.111357,-1258.350101,-8586.388927,-1838.629195
163420.111676,-2368.659014,-8956.491898,-3140.991542
163420.111996,-4737.318029,-10732.986159,-2451.505594
163420.112315,-666.185348,-12435.459826,-2528.115143
163420.112635,-1258.350101,-11547.212695,-383.047749
163420.112954,-1480.411884,-9622.677246,-842.705048
163420.113273,-148.041188,-10510.924376,842.705048
163420.113593,2368.659014,-7994.224174,2298.286494
163420.113912,592.164754,-4811.338623,2451.505594
163420.114232,1258.350101,-6143.709319,842.705048
163420.114551,-888.247130,-7772.162391,306.438199
163420.114871,-740.205942,-8808.450710,1302.362347
163420.115190,148.041188,-8364.327145,0.000000
163420.115509,-74.020594,-9474.636058,-689.485948
163420.115829,-74.020594,-11843.295072,-76.609550
163420.116148,-2220.617826,-9548.656652,0.000000
163420.116468,-2664.741391,-7772.162391,-4213.525239
163420.116787,-2516.700203,-13027.624579,-2528.115143
163420.117107,-4145.153275,-10732.986159,-3677.258390
163420.117426,-1036.288319,-10510.924376,-1762.019645
163420.117746,-666.185348,-9696.697840,-689.485948
163420.118065,74.020594,-9474.636058,0.000000
163420.118384,518.144159,-8290.306550,459.657299
163420.118704,592.164754,-4811.338623,842.705048
163420.119023,1110.308913,-5773.606348,-689.485948
163420.119343,-1184.329507,-6587.832884,-2911.162892
163420.119662,0.000000,-10436.903782,1225.752797
163420.119982,2294.638420,-11843.295072,2987.772442
163420.120301,296.082377,-9844.739029,0.000000
163420.120621,1110.308913,-11621.233289,-536.266849
163420.120940,1110.308913,-10510.924376,-612.876398
163420.121259,148.041188,-8808.450710,-919.314598
163420.121579,-1776.494261,-9548.656652,-2451.505594
163420.121898,-1628.453072,-10732.986159,-3370.820191
163420.122218,0.000000,-11325.150913,0.000000
163420.122537,1998.556043,-10066.800811,1149.143247
163420.122857,0.000000,-8512.368333,0.000000
163420.123176,2886.803174,-11251.130318,3600.648841
163420.123495,1036.288319,-6587.832884,1532.190996
163420.123815,1036.288319,-6217.729913,1302.362347
163420.124134,-1036.288319,-8142.265362,229.828649
163420.124454,-1184.329507,-8660.409521,1225.752797
163420.124773,-2368.659014,-7179.997637,1225.752797
163420.125093,-2368.659014,-7179.997637,0.000000
163420.125412,-1480.411884,-10288.862594,-766.095498
163420.125732,-814.226536,-10658.965565,-1838.629195
163420.126051,-2442.679609,-8956.491898,-3140.991542
163420.126370,-666.185348,-11843.295072,-1685.410096
163420.126690,-2664.741391,-11251.130318,-4366.744339
163420.127009,-1776.494261,-11843.295072,-2604.724693
163420.127329,-740.205942,-10955.047942,-1378.971896
163420.127648,-2072.576638,-9548.656652,0.000000
163420.127968,370.102971,-9474.636058,536.266849
163420.128287,888.247130,-7179.997637,1532.190996
163420.128607,1924.535449,-6587.832884,0.000000
163420.128926,2886.803174,-7402.059420,3294.210641
163420.129245,-370.102971,-6513.812290,-1455.581446
163420.129565,296.082377,-8882.471304,2221.676944
163420.129884,-296.082377,-8216.285956,1149.143247
163420.130204,-296.082377,-9252.574275,0.000000
163420.130523,-1554.432478,-10214.842000,-995.924147
163420.130843,-1850.514855,-10510.924376,-76.609550
163420.131162,-2738.761985,-8882.471304,-2987.772442
163420.131481,-3849.070898,-9474.636058,-4060.306139
163420.131801,-4737.318029,-10140.821405,-4290.134789
163420.132120,-1702.473667,-12213.398043,-1225.752797
163420.132440,-3108.864956,-8512.368333,-2987.772442
163420.132759,-518.144159,-9474.636058,1225.752797
163420.133079,1258.350101,-8216.285956,2145.067394
163420.133398,2146.597232,-5477.523971,1685.410096
163420.133718,2294.638420,-8882.471304,2374.896044
163420.134037,1702.473667,-9474.636058,-76.609550
163420.134356,518.144159,-11843.295072,-76.609550
163420.134676,-1776.494261,-8364.327145,0.000000
163420.134995,-1184.329507,-10140.821405,-612.876398
163420.135315,-2368.659014,-10140.821405,0.000000
163420.135634,-1628.453072,-9622.677246,-2374.896044
163420.135954,-518.144159,-9030.512492,-2374.896044
163420.136273,-888.247130,-10066.800811,-2145.067394
163420.136593,0.000000,-10807.006753,-1838.629195
163420.136912,3478.967927,-11843.295072,-76.609550
163420.137231,0.000000,-9548.656652,612.876398
163420.137551,2590.720797,-10658.965565,1762.019645
163420.137870,1702.473667,-8882.471304,1149.143247
163420.138190,0.000000,-6291.750507,612.876398
163420.138509,1184.329507,-7179.997637,2757.943793
163420.138829,222.061783,-8660.409521,689.485948
163420.139148,148.041188,-8882.471304,1072.533697
163420.139467,1258.350101,-8882.471304,1838.629195
163420.139787,1184.329507,-7772.162391,0.000000
163420.140106,222.061783,-9548.656652,-1838.629195
163420.140426,-2368.659014,-8956.491898,0.000000
163420.140745,148.041188,-8734.430116,-2451.505594
163420.141065,-74.020594,-11251.130318,-1608.800546
163420.141384,-1998.556043,-12435.459826,-3140.991542
163420.141704,-2368.659014,-11917.315666,-2451.505594
163420.142023,-2368.659014,-11251.130318,-2528.115143
163420.142342,-1554.432478,-11473.192101,-1608.800546
163420.142662,-370.102971,-10510.924376,-306.438199
163420.142981,0.000000,-6587.832884,0.000000
163420.143301,2590.720797,-5699.585753,995.924147
163420.143620,1776.494261,-5995.668130,0.000000
163420.143940,4589.276840,-9474.636058,3907.087040
163420.144259,2294.638420,-6957.935855,2681.334243
163420.144579,3923.091493,-9326.594869,4213.525239
163420.144898,148.041188,-9252.574275,459.657299
163420.145217,-962.267725,-10140.821405,-1378.971896
163420.145537,-1850.514855,-10066.800811,-1762.019645
163420.145856,-2220.617826,-10288.862594,-2834.553343
163420.146176,-4737.318029,-9548.656652,-4903.011187
163420.146495,-2146.597232,-14211.954086,-1915.238745
163420.146815,-1850.514855,-11547.212695,-2221.676944
163420.147134,-2960.823768,-10140.821405,0.000000
163420.147453,-74.020594,-10732.986159,3217.601092
163420.147773,0.000000,-7179.997637,4290.134789
163420.148092,1850.514855,-5329.482782,3447.429741
163420.148412,1480.411884,-5329.482782,2145.067394
163420.148731,-518.144159,-7328.038826,1378.971896
163420.149051,-2886.803174,-6587.832884,0.000000
163420.149370,-2072.576638,-8364.327145,0.000000
163420.149690,-3552.988522,-10584.944971,-2221.676944
163420.150009,-3627.009116,-12287.418637,-2757.943793
163420.150328,-2442.679609,-12879.583391,-1608.800546
163420.150648,-2960.823768,-10140.821405,-2145.067394
163420.150967,-3552.988522,-9844.739029,-4290.134789
163420.151287,-1776.494261,-11251.130318,-2681.334243
163420.151606,-666.185348,-10214.842000,-689.485948
163420.151926,296.082377,-9326.594869,689.485948
163420.152245,3478.967927,-9474.636058,3600.648841
163420.152565,2664.741391,-8364.327145,3600.648841
163420.152884,2886.803174,-5773.606348,3370.820191
163420.153203,1332.370696,-6587.832884,1455.581446
163420.153523,0.000000,-8734.430116,2374.896044
163420.153842,0.000000,-9548.656652,2451.505594
163420.154162,0.000000,-7179.997637,0.000000
163420.154481,-74.020594,-10658.965565,-76.609550
163420.154801,-1258.350101,-9474.636058,-76.609550
163420.155120,-1924.535449,-9548.656652,-2451.505594
163420.155439,-74.020594,-8882.471304,-2528.115143
163420.155759,-2146.597232,-9252.574275,-2451.505594
163420.156078,-1258.350101,-10658.965565,-2834.553343
163420.156398,-666.185348,-10658.965565,-1532.190996
163420.156717,-592.164754,-10140.821405,0.000000
163420.157037,-74.020594,-10510.924376,-76.609550
163420.157356,0.000000,-9548.656652,919.314598
163420.157676,3552.988522,-8290.306550,1838.629195
163420.157995,4071.132681,-7105.977043,-76.609550
163420.158314,-1924.535449,-5995.668130,-2451.505594
163420.158634,1998.556043,-9474.636058,383.047749
163420.158953,1480.411884,-8586.388927,459.657299
163420.159273,1110.308913,-9104.533087,153.219100
163420.159592,-148.041188,-10140.821405,-1455.581446
163420.159912,444.123565,-10658.965565,-76.609550
163420.160231,0.000000,-8956.491898,-1225.752797
163420.160551,0.000000,-8956.491898,-3370.820191
163420.160870,0.000000,-10732.986159,-1149.143247
163420.161189,1406.391290,-11251.130318,-383.047749
163420.161509,-2368.659014,-8364.327145,0.000000
163420.161828,-370.102971,-10066.800811,689.485948
163420.162148,148.041188,-9548.656652,536.266849
163420.162467,2072.576638,-7402.059420,1838.629195
163420.162787,1628.453072,-5625.565159,536.266849
163420.163106,-74.020594,-7105.977043,-76.609550
163420.163425,-1850.514855,-9474.636058,-76.609550
163420.163745,-2664.741391,-7772.162391,0.000000
163420.164064,-1184.329507,-9252.574275,76.609550
163420.164384,-370.102971,-11029.068536,-76.609550
163420.164703,-4737.318029,-8364.327145,-2451.505594
163420.165023,-148.041188,-8438.347739,-383.047749
163420.165342,0.000000,-8438.347739,-2145.067394
163420.165662,-1036.288319,-9844.739029,-2451.505594
163420.165981,-74.020594,-11843.295072,-1302.362347
163420.166300,-74.020594,-10881.027347,919.314598
163420.166620,-74.020594,-11843.295072,-76.609550
163420.166939,-2072.576638,-9992.780217,0.000000
163420.167259,0.000000,-8364.327145,0.000000
163420.167578,2368.659014,-7772.162391,4136.915689
163420.167898,0.000000,-6291.750507,306.438199
163420.168217,-444.123565,-8808.450710,1072.533697
163420.168537,-296.082377,-8438.347739,1225.752797
163420.168856,592.164754,-8068.244768,1225.752797
163420.169176,-74.020594,-9326.594869,-1225.752797
163420.169495,-1776.494261,-10584.944971,229.828649
163420.169815,-370.102971,-9474.636058,766.095498
163420.170134,-74.020594,-9178.553681,-76.609550
163420.170454,-2072.576638,-8364.327145,-3370.820191
163420.170773,0.000000,-12731.542202,-76.609550
163420.171093,-2368.659014,-9548.656652,-1838.629195
163420.171412,-2442.679609,-10658.965565,-1302.362347
163420.171732,-2072.576638,-11399.171507,-1915.238745
163420.172051,0.000000,-9548.656652,0.000000
163420.172371,0.000000,-5995.668130,0.000000
163420.172690,74.020594,-6809.894666,0.000000
163420.173010,-74.020594,-9474.636058,842.705048
163420.173329,-1702.473667,-7624.121203,-536.266849
163420.173649,-74.020594,-7994.224174,-76.609550
163420.173968,1628.453072,-9474.636058,1455.581446
163420.174288,0.000000,-9104.533087,0.000000
163420.174608,1036.288319,-9030.512492,919.314598
163420.174927,888.247130,-7994.224174,536.266849
163420.175247,-2368.659014,-7179.997637,-3677.258390
163420.175566,-2368.659014,-9918.759623,-4979.620737
163420.175886,-4145.153275,-10288.862594,-3983.696590
163420.176205,-2812.782580,-11917.315666,-1225.752797
163420.176525,-1554.432478,-13027.624579,-76.609550
163420.176844,-74.020594,-10362.883188,-689.485948
163420.177164,1628.453072,-8364.327145,1302.362347
163420.177483,1184.329507,-6439.791695,995.924147
163420.177803,296.082377,-7179.997637,1302.362347
163420.178122,222.061783,-8660.409521,2374.896044
163420.178442,0.000000,-7179.997637,2757.943793
163420.178761,-74.020594,-7402.059420,1455.581446
163420.179081,-1776.494261,-8660.409521,306.438199
163420.179400,0.000000,-10140.821405,1532.190996
163420.179720,-74.020594,-9326.594869,0.000000
163420.180039,-1258.350101,-8882.471304,-4060.306139
163420.180359,-3627.009116,-10807.006753,-4903.011187
163420.180678,-3330.926739,-12287.418637,-4826.401637
163420.180998,-2590.720797,-11621.233289,-2681.334243
163420.181317,-74.020594,-13027.624579,1149.143247
163420.181637,1776.494261,-11473.192101,1225.752797
163420.181956,4663.297435,-8882.471304,2374.896044
163420.182276,2368.659014,-4811.338623,1225.752797
163420.182595,2812.782580,-7698.141797,2987.772442
163420.182915,0.000000,-5995.668130,306.438199
163420.183234,1702.473667,-8586.388927,1608.800546
163420.183554,1554.432478,-8808.450710,1685.410096
163420.183873,0.000000,-9474.636058,153.219100
163420.184193,-518.144159,-10066.800811,0.000000
163420.184512,-74.020594,-11547.212695,-76.609550
163420.184832,-1924.535449,-8290.306550,-1838.629195
163420.185151,-666.185348,-11103.089130,-2528.115143
163420.185471,-1554.432478,-11251.130318,-3140.991542
163420.185791,-2294.638420,-9548.656652,-2221.676944
163420.186110,-74.020594,-10658.965565,-689.485948
163420.186430,-1332.370696,-10510.924376,1072.533697
163420.186749,1110.308913,-8808.450710,1838.629195
163420.187069,1332.370696,-6809.894666,1072.533697
163420.187388,-74.020594,-7994.224174,1455.581446
163420.187708,-4441.235652,-8734.430116,153.219100
163420.188027,-1850.514855,-8586.388927,-689.485948
163420.188347,148.041188,-10362.883188,1225.752797
163420.188666,-74.020594,-11843.295072,1762.019645
163420.188986,-74.020594,-9474.636058,-2528.115143
163420.189305,-74.020594,-9474.636058,-76.609550
163420.189625,0.000000,-7105.977043,-1149.143247
163420.189944,-666.185348,-8882.471304,-2068.457845
163420.190264,-444.123565,-9918.759623,-2298.286494
163420.190583,0.000000,-9548.656652,0.000000
163420.190903,592.164754,-10732.986159,536.266849
163420.191222,814.226536,-11325.150913,766.095498
163420.191542,4663.297435,-11251.130318,-76.609550
163420.191861,2664.741391,-7179.997637,919.314598
163420.192181,3552.988522,-9400.615463,2987.772442
163420.192500,-888.247130,-8512.368333,0.000000
163420.192820,74.020594,-9474.636058,383.047749
163420.193139,1702.473667,-8956.491898,1378.971896
163420.193459,962.267725,-9104.533087,0.000000
163420.193778,-666.185348,-8290.306550,-1302.362347
163420.194098,-666.185348,-9400.615463,76.609550
163420.194417,-518.144159,-7105.977043,-459.657299
163420.194737,-666.185348,-8290.306550,-3753.867940
163420.195056,-1258.350101,-11251.130318,-2987.772442
163420.195376,-1850.514855,-11547.212695,-2528.115143
163420.195695,-2368.659014,-11029.068536,0.000000
163420.196015,-1258.350101,-12139.377449,-919.314598
163420.196334,-74.020594,-12731.542202,-76.609550
163420.196654,0.000000,-7179.997637,0.000000
163420.196974,814.226536,-6735.874072,-383.047749
163420.197293,-370.102971,-7994.224174,-306.438199
163420.197613,-814.226536,-9252.574275,919.314598
163420.197932,1332.370696,-8438.347739,1838.629195
163420.198252,2146.597232,-8364.327145,2068.457845
163420.198571,740.205942,-10658.965565,1455.581446
163420.198891,-74.020594,-9474.636058,2451.505594
163420.199210,1702.473667,-9474.636058,2374.896044
163420.199530,-74.020594,-7105.977043,-1302.362347
163420.199849,-2960.823768,-7772.162391,-2451.505594
163420.200169,-1850.514855,-10288.862594,-1915.238745
163420.200488,-2442.679609,-10881.027347,-536.266849
163420.200808,-2738.761985,-10658.965565,-1149.143247
163420.201127,-2368.659014,-10732.986159,-2451.505594
163420.201447,-74.020594,-9770.718434,-2221.676944
163420.201766,0.000000,-6143.709319,-995.924147
163420.202086,-2368.659014,-7179.997637,0.000000
163420.202405,-1258.350101,-9474.636058,-76.609550
163420.202725,-666.185348,-9474.636058,-76.609550
163420.203044,-2368.659014,-7772.162391,1225.752797
163420.203364,-1406.391290,-8882.471304,536.266849
163420.203683,-1332.370696,-9400.615463,766.095498
163420.204003,-518.144159,-8290.306550,306.438199
163420.204322,-1850.514855,-6143.709319,-3907.087040
163420.204642,-1258.350101,-11251.130318,-2834.553343
163420.204961,-2442.679609,-11695.253884,-4673.182538
163420.205281,-2664.741391,-10436.903782,-2987.772442
163420.205600,-3404.947333,-9548.656652,-2298.286494
163420.205920,2294.638420,-13619.789333,-76.609550
163420.206239,1184.329507,-10140.821405,0.000000
163420.206559,3404.947333,-8586.388927,1685.410096
163420.206878,1554.432478,-7105.977043,1455.581446
163420.207198,666.185348,-8586.388927,919.314598
163420.207517,2516.700203,-9178.553681,2451.505594
163420.207837,4071.132681,-9474.636058,2374.896044
163420.208157,1110.308913,-8512.368333,1762.019645
163420.208476,-666.185348,-7179.997637,-919.314598
163420.208796,0.000000,-7179.997637,0.000000
163420.209115,1998.556043,-9474.636058,-76.609550
163420.209435,-2886.803174,-7476.080014,-3677.258390
163420.209754,-3404.947333,-10140.821405,-4443.353888
163420.210074,-1628.453072,-11473.192101,-2834.553343
163420.210393,-1184.329507,-10732.986159,0.000000
163420.210713,-2368.659014,-10140.821405,0.000000
163420.211032,1110.308913,-11251.130318,1149.143247
163420.211352,4071.132681,-9474.636058,-76.609550
163420.211671,296.082377,-6587.832884,0.000000
163420.211991,-74.020594,-7846.182985,0.000000
163420.212310,1702.473667,-10658.965565,-76.609550
163420.212630,1776.494261,-8956.491898,1455.581446
163420.212949,2294.638420,-9400.615463,1378.971896
163420.213269,1184.329507,-9400.615463,919.314598
163420.213588,0.000000,-8364.327145,1225.752797
163420.213908,0.000000,-5995.668130,-2221.676944
163420.214227,-2368.659014,-7772.162391,-3064.381992
163420.214547,-2072.576638,-10436.903782,-2911.162892
163420.214866,-370.102971,-13027.624579,-689.485948
163420.215186,-1258.350101,-9400.615463,-2834.553343
163420.215505,-74.020594,-11251.130318,536.266849
163420.215825,222.061783,-10658.965565,919.314598
163420.216144,2146.597232,-8290.306550,1225.752797
163420.216464,1406.391290,-7031.956449,842.705048
163420.216783,-2368.659014,-7920.203579,0.000000
163420.217103,-2738.761985,-8364.327145,-1302.362347
163420.217422,-1628.453072,-9696.697840,1225.752797
163420.217742,1110.308913,-11843.295072,2374.896044
163420.218061,-74.020594,-10066.800811,306.438199
163420.218381,-2738.761985,-7179.997637,-2374.896044
163420.218700,-518.144159,-6883.915261,-383.047749
163420.219020,-1776.494261,-7476.080014,-2528.115143
163420.219340,-3034.844362,-9474.636058,-3830.477490
163420.219659,-1554.432478,-11843.295072,-2528.115143
163420.219979,-1554.432478,-12731.542202,-995.924147
163420.220298,-2294.638420,-10955.047942,-1072.533697
163420.220618,-1850.514855,-10140.821405,-1991.848295
163420.220937,0.000000,-9548.656652,0.000000
163420.221257,592.164754,-7179.997637,2451.505594
163420.221576,-666.185348,-6735.874072,-612.876398
163420.221896,296.082377,-10140.821405,536.266849
163420.222215,1332.370696,-9326.594869,1991.848295
163420.222535,1702.473667,-8808.450710,2068.457845
163420.222854,2886.803174,-11251.130318,2374.896044
163420.223174,148.041188,-9548.656652,1225.752797
163420.223493,2294.638420,-9474.636058,1762.019645
163420.223813,-666.185348,-6957.935855,-1149.143247
163420.224132,-2886.803174,-8142.265362,-2528.115143
163420.224452,-3034.844362,-9252.574275,-4903.011187
163420.224771,-1998.556043,-10362.883188,-1378.971896
163420.225091,-2368.659014,-10436.903782,-995.924147
163420.225410,-1554.432478,-10807.006753,-1072.533697
163420.225730,1036.288319,-10658.965565,-76.609550
163420.226049,0.000000,-6587.832884,229.828649
163420.226369,-1776.494261,-5995.668130,-1225.752797
163420.226688,-2220.617826,-9400.615463,-995.924147
163420.227008,1702.473667,-13027.624579,-76.609550
163420.227327,1702.473667,-8882.471304,-383.047749
163420.227647,3478.967927,-11695.253884,2374.896044
163420.227966,370.102971,-9770.718434,612.876398
163420.228286,1184.329507,-8808.450710,766.095498
163420.228605,1184.329507,-7179.997637,-689.485948
163420.228925,0.000000,-7920.203579,-306.438199
163420.229244,-1184.329507,-10584.944971,-2911.162892
163420.229564,-74.020594,-11695.253884,-842.705048
163420.229883,-74.020594,-10658.965565,-1302.362347
163420.230203,-1776.494261,-10436.903782,0.000000
163420.230522,2886.803174,-11547.212695,-76.609550
163420.230842,1776.494261,-8660.409521,1838.629195
163420.231162,1110.308913,-7328.038826,1225.752797
163420.231481,-444.123565,-7994.224174,229.828649
163420.231801,0.000000,-10066.800811,2298.286494
163420.232120,0.000000,-7179.997637,0.000000
163420.232440,74.020594,-9400.615463,1532.190996
163420.232759,-1776.494261,-9252.574275,-153.219100
163420.233079,-1850.514855,-8956.491898,-612.876398
163420.233398,-74.020594,-8882.471304,-689.485948
163420.233718,-74.020594,-8068.244768,-1455.581446
163420.234037,-1258.350101,-10658.965565,-1915.238745
163420.234357,-3330.926739,-10214.842000,-1991.848295
163420.234676,-1258.350101,-10658.965565,-1608.800546
163420.234996,-1184.329507,-10732.986159,0.000000
163420.235315,0.000000,-8364.327145,0.000000
163420.235635,2220.617826,-9030.512492,1149.143247
163420.235954,1480.411884,-7254.018232,689.485948
163420.236274,-962.267725,-7476.080014,-1532.190996
163420.236593,-814.226536,-10140.821405,-2145.067394
163420.236913,1702.473667,-11547.212695,383.047749
163420.237232,1110.308913,-10658.965565,1762.019645
163420.237552,-1998.556043,-8364.327145,0.000000
163420.237871,-1184.329507,-8956.491898,0.000000
163420.238191,2368.659014,-8956.491898,3370.820191
163420.238510,74.020594,-5773.606348,-306.438199
163420.238830,-1110.308913,-8290.306550,-1225.752797
163420.239149,-1702.473667,-9400.615463,-1762.019645
163420.239469,-1332.370696,-10140.821405,0.000000
163420.239788,-2960.823768,-9548.656652,0.000000
163420.240108,-1924.535449,-9548.656652,-2451.505594
163420.240427,1406.391290,-11177.109724,1149.143247
163420.240747,-74.020594,-7698.141797,-689.485948
163420.241066,-1850.514855,-7994.224174,-1915.238745
163420.241386,-1332.370696,-11769.274478,-306.438199
163420.241705,-222.061783,-10732.986159,-383.047749
163420.242025,592.164754,-10362.883188,919.314598
163420.242345,0.000000,-9918.759623,842.705048
163420.242664,-2368.659014,-7179.997637,0.000000
163420.242984,0.000000,-7698.141797,-76.609550
163420.243303,0.000000,-5107.421000,-1685.410096
163420.243623,0.000000,-8438.347739,-919.314598
163420.243942,-74.020594,-12139.377449,-76.609550
163420.244262,2294.638420,-11251.130318,-689.485948
163420.244581,592.164754,-10362.883188,306.438199
163420.244901,-296.082377,-10732.986159,-995.924147
163420.245220,1332.370696,-10362.883188,-459.657299
163420.245540,1702.473667,-9326.594869,0.000000
163420.245859,222.061783,-7476.080014,842.705048
163420.246179,-74.020594,-10066.800811,-689.485948
163420.246498,518.144159,-10510.924376,229.828649
163420.246818,0.000000,-7772.162391,0.000000
163420.247137,296.082377,-9548.656652,2451.505594
163420.247457,-74.020594,-9474.636058,-689.485948
163420.247776,814.226536,-8734.430116,1302.362347
163420.248096,814.226536,-6661.853478,306.438199
163420.248415,-962.267725,-6735.874072,-1838.629195
163420.248735,-3627.009116,-10658.965565,-1608.800546
163420.249054,-2664.741391,-11843.295072,-1302.362347
163420.249374,-3034.844362,-10955.047942,-1302.362347
163420.249693,-2442.679609,-11843.295072,-2528.115143
