#time,accel_x,accel_y,accel_z
163485.867461,0.000000,-9548.656652,1838.629195
163485.867780,0.000000,-8364.327145,0.000000
163485.868100,1554.432478,-9474.636058,995.924147
163485.868419,814.226536,-9474.636058,1149.143247
163485.868739,-1850.514855,-7179.997637,0.000000
163485.869059,-74.020594,-9474.636058,-76.609550
163485.869378,-740.205942,-9252.574275,0.000000
163485.869698,-592.164754,-8956.491898,153.219100
163485.870017,-666.185348,-8956.491898,0.000000
163485.870337,0.000000,-8512.368333,0.000000
163485.870657,-888.247130,-8956.491898,-1302.362347
163485.870976,-1184.329507,-9548.656652,0.000000
163485.871296,-222.061783,-9474.636058,-153.219100
163485.871615,-74.020594,-9474.636058,-1302.362347
163485.871935,-2886.803174,-7328.038826,-2451.505594
163485.872255,-74.020594,-10362.883188,-689.485948
163485.872574,-1184.329507,-9474.636058,-766.095498
163485.872894,-518.144159,-9400.615463,-383.047749
163485.873213,0.000000,-9548.656652,-766.095498
163485.873533,296.082377,-10658.965565,1149.143247
163485.873852,-74.020594,-8882.471304,-995.924147
163485.874172,-1036.288319,-8956.491898,-2451.505594
163485.874492,2294.638420,-11843.295072,1149.143247
163485.874811,0.000000,-9030.512492,0.000000
163485.875131,-1776.494261,-7476.080014,0.000000
163485.875450,296.082377,-9474.636058,459.657299
163485.875770,148.041188,-9252.574275,153.219100
163485.876090,222.061783,-9548.656652,76.609550
163485.876409,-74.020594,-9474.636058,-76.609550
163485.876729,-74.020594,-10658.965565,-76.609550
163485.877048,592.164754,-10510.924376,2374.896044
163485.877368,-74.020594,-9474.636058,-76.609550
163485.877688,-1258.350101,-8512.368333,0.000000
163485.878007,-2368.659014,-7179.997637,0.000000
163485.878327,-1258.350101,-8290.306550,-1225.752797
163485.878646,-666.185348,-9474.636058,-306.438199
163485.878966,-962.267725,-9104.533087,-536.266849
163485.879286,-962.267725,-8882.471304,-612.876398
163485.879605,-74.020594,-11547.212695,-76.609550
163485.879925,-2368.659014,-7772.162391,0.000000
163485.880244,1110.308913,-10658.965565,-76.609550
163485.880564,-740.205942,-8586.388927,-995.924147
163485.880884,-2368.659014,-7772.162391,-2451.505594
163485.881203,0.000000,-8364.327145,0.000000
163485.881523,-74.020594,-9696.697840,-689.485948
163485.881842,0.000000,-9400.615463,-383.047749
163485.882162,148.041188,-9548.656652,-842.705048
163485.882482,222.061783,-7772.162391,-1302.362347
163485.882801,518.144159,-9696.697840,-76.609550
163485.883121,-962.267725,-8364.327145,0.000000
163485.883440,0.000000,-8956.491898,0.000000
163485.883760,592.164754,-9548.656652,1225.752797
163485.884079,2294.638420,-11251.130318,1762.019645
163485.884399,-2368.659014,-7772.162391,0.000000
163485.884719,-370.102971,-9252.574275,-76.609550
163485.885038,-518.144159,-9252.574275,0.000000
163485.885358,-740.205942,-9326.594869,-306.438199
163485.885677,-74.020594,-8882.471304,-1608.800546
163485.885997,-74.020594,-9326.594869,-76.609550
163485.886317,-1110.308913,-9178.553681,-689.485948
163485.886636,-2146.597232,-7772.162391,-1225.752797
163485.886956,-592.164754,-9326.594869,-383.047749
163485.887275,-296.082377,-10288.862594,1149.143247
163485.887595,-2368.659014,-8364.327145,-1532.190996
163485.887915,-518.144159,-9326.594869,-689.485948
163485.888234,-222.061783,-9030.512492,-536.266849
163485.888554,0.000000,-9548.656652,-995.924147
163485.888873,-74.020594,-9178.553681,-689.485948
163485.889193,0.000000,-10140.821405,1378.971896
163485.889513,-74.020594,-10066.800811,-689.485948
163485.889832,-888.247130,-8660.409521,-919.314598
163485.890152,-2368.659014,-7772.162391,0.000000
163485.890471,-2368.659014,-7179.997637,0.000000
163485.890791,444.123565,-9178.553681,229.828649
163485.891111,666.185348,-9252.574275,0.000000
163485.891430,666.185348,-9474.636058,306.438199
163485.891750,1702.473667,-9474.636058,-76.609550
163485.892069,814.226536,-8512.368333,229.828649
163485.892389,0.000000,-8364.327145,0.000000
163485.892709,1480.411884,-9104.533087,-2451.505594
163485.893028,1184.329507,-10658.965565,766.095498
163485.893348,814.226536,-7846.182985,-2987.772442
163485.893667,2294.638420,-10658.965565,-383.047749
163485.893987,1554.432478,-9622.677246,-536.266849
163485.894306,2294.638420,-9400.615463,-383.047749
163485.894626,2368.659014,-9178.553681,229.828649
163485.894946,3552.988522,-9252.574275,2145.067394
163485.895265,3775.050304,-8364.327145,0.000000
163485.895585,1924.535449,-7179.997637,0.000000
163485.895904,5107.421000,-8956.491898,306.438199
163485.896224,5403.503377,-8808.450710,0.000000
163485.896544,4959.379811,-8068.244768,-1608.800546
163485.896863,5847.626942,-9474.636058,-1302.362347
163485.897183,2960.823768,-9548.656652,-2451.505594
163485.897502,5551.544565,-10881.027347,-2451.505594
163485.897822,6883.915261,-11251.130318,-1302.362347
163485.898142,7105.977043,-9548.656652,919.314598
163485.898461,8216.285956,-8882.471304,459.657299
163485.898781,8512.368333,-9178.553681,459.657299
163485.899100,7846.182985,-10066.800811,306.438199
163485.899420,5329.482782,-10066.800811,0.000000
163485.899740,2960.823768,-11547.212695,-612.876398
163485.900059,3182.885551,-12879.583391,-76.609550
163485.900379,2368.659014,-9548.656652,0.000000
163485.900698,2368.659014,-9992.780217,1838.629195
163485.901018,5847.626942,-9474.636058,2374.896044
163485.901338,3552.988522,-5995.668130,0.000000
163485.901657,3627.009116,-5477.523971,-919.314598
163485.901977,3256.906145,-5551.544565,-2298.286494
163485.902296,3552.988522,-7179.997637,-2681.334243
163485.902616,2442.679609,-7772.162391,-2451.505594
163485.902935,3256.906145,-11917.315666,-2528.115143
163485.903255,2368.659014,-14582.057057,612.876398
163485.903575,3478.967927,-16580.613101,1149.143247
163485.903894,2294.638420,-14211.954086,1608.800546
163485.904214,4663.297435,-13915.871710,4213.525239
163485.904533,1850.514855,-6365.771101,0.000000
163485.904853,1110.308913,-5255.462188,-1149.143247
163485.905173,1924.535449,-6291.750507,-766.095498
163485.905492,2368.659014,-5995.668130,0.000000
163485.905812,0.000000,-4811.338623,0.000000
163485.906131,-2368.659014,-5995.668130,0.000000
163485.906451,-2368.659014,-9104.533087,0.000000
163485.906771,518.144159,-10955.047942,1225.752797
163485.907090,2294.638420,-9474.636058,-76.609550
163485.907410,2960.823768,-10658.965565,1532.190996
163485.907729,740.205942,-10140.821405,995.924147
163485.908049,962.267725,-9992.780217,1762.019645
163485.908369,1110.308913,-8882.471304,842.705048
163485.908688,-1776.494261,-6587.832884,-3447.429741
163485.909008,-1628.453072,-8660.409521,-4519.963438
163485.909327,-2146.597232,-10066.800811,-5132.839837
163485.909647,-962.267725,-11843.295072,-2528.115143
163485.909967,0.000000,-11917.315666,1532.190996
163485.910286,2294.638420,-11251.130318,2374.896044
163485.910606,592.164754,-8364.327145,612.876398
163485.910925,2146.597232,-7254.018232,-229.828649
163485.911245,4811.338623,-8290.306550,1685.410096
163485.911565,6735.874072,-8882.471304,5745.716235
163485.911884,6661.853478,-7624.121203,5592.497135
163485.912204,3701.029710,-7179.997637,76.609550
163485.912523,-148.041188,-8956.491898,-4290.134789
163485.912843,-666.185348,-13027.624579,-6818.249932
163485.913162,-1554.432478,-13397.727550,-6665.030833
163485.913482,2294.638420,-15396.283594,-2528.115143
163485.913802,444.123565,-11843.295072,-2145.067394
163485.914121,1702.473667,-10362.883188,-1149.143247
163485.914441,6735.874072,-9992.780217,2911.162892
163485.914760,12435.459826,-6883.915261,8580.269578
163485.915080,13027.624579,-3627.009116,9193.145976
163485.915400,6513.812290,-74.020594,4903.011187
163485.915719,5921.647536,-4293.194464,1455.581446
163485.916039,4663.297435,-9474.636058,-76.609550
163485.916358,2738.761985,-10362.883188,-2374.896044
163485.916678,814.226536,-13545.768739,-2221.676944
163485.916998,-3552.988522,-13693.809927,-7124.688131
163485.917317,-3552.988522,-14285.974681,-8810.098227
163485.917637,-740.205942,-14285.974681,-5439.278036
163485.917956,2368.659014,-10140.821405,-1838.629195
163485.918276,4663.297435,-9178.553681,536.266849
163485.918596,5625.565159,-6365.771101,1225.752797
163485.918915,6809.894666,-4811.338623,306.438199
163485.919235,7105.977043,-4811.338623,5209.449386
163485.919554,7031.956449,-5699.585753,2451.505594
163485.919874,8216.285956,-8882.471304,5132.839837
163485.920194,6143.709319,-7031.956449,1608.800546
163485.920513,1554.432478,-9104.533087,-2681.334243
163485.920833,-2294.638420,-13619.789333,-4979.620737
163485.921152,-3034.844362,-15100.201217,-5745.716235
163485.921472,-222.061783,-15100.201217,-4979.620737
163485.921792,-148.041188,-14211.954086,-3140.991542
163485.922111,0.000000,-9548.656652,-2451.505594
163485.922431,2664.741391,-7179.997637,0.000000
163485.922750,5847.626942,-5033.400406,1149.143247
163485.923070,7550.100608,-5625.565159,3983.696590
163485.923389,7328.038826,-5625.565159,5056.230287
163485.923709,5699.585753,-5551.544565,4519.963438
163485.924029,5551.544565,-9474.636058,4213.525239
163485.924348,962.267725,-9548.656652,-153.219100
163485.924668,-1776.494261,-10732.986159,-1838.629195
163485.924987,-1850.514855,-13027.624579,-4060.306139
163485.925307,-3775.050304,-13027.624579,-4673.182538
163485.925627,-4737.318029,-10140.821405,-4903.011187
163485.925946,1110.308913,-11473.192101,-1302.362347
163485.926266,4145.153275,-8808.450710,1685.410096
163485.926585,4959.379811,-6217.729913,1838.629195
163485.926905,4737.318029,-6735.874072,2374.896044
163485.927225,6439.791695,-8956.491898,3524.039291
163485.927544,740.205942,-5403.503377,0.000000
163485.927864,1776.494261,-10140.821405,536.266849
163485.928183,888.247130,-10066.800811,-1302.362347
163485.928503,2294.638420,-10658.965565,-5898.935335
163485.928823,-74.020594,-11843.295072,-3753.867940
163485.929142,740.205942,-12065.356855,-2757.943793
163485.929462,2664.741391,-11769.274478,-995.924147
163485.929781,4737.318029,-10732.986159,1072.533697
163485.930101,5847.626942,-10140.821405,5439.278036
163485.930421,5847.626942,-9030.512492,4903.011187
163485.930740,9104.533087,-7698.141797,6052.154434
163485.931060,6439.791695,-6513.812290,6052.154434
163485.931379,3552.988522,-4811.338623,3064.381992
163485.931699,2738.761985,-7994.224174,-76.609550
163485.932019,-4145.153275,-8364.327145,-4136.915689
163485.932338,-5625.565159,-11843.295072,-6665.030833
163485.932658,-5403.503377,-12805.562797,-6894.859482
163485.932977,-4663.297435,-12731.542202,-6128.763984
163485.933297,-4737.318029,-10732.986159,-4903.011187
163485.933617,-666.185348,-11251.130318,-1302.362347
163485.933936,1184.329507,-9918.759623,2451.505594
163485.934256,3330.926739,-7698.141797,4979.620737
163485.934575,5107.421000,-5921.647536,7277.907231
163485.934895,6143.709319,-5921.647536,4519.963438
163485.935215,0.000000,-3923.091493,2604.724693
163485.935534,-2442.679609,-9030.512492,-689.485948
163485.935854,-3330.926739,-11843.295072,-1302.362347
163485.936174,-3552.988522,-11029.068536,-3677.258390
163485.936493,-7105.977043,-10140.821405,-7201.297681
163485.936813,-6661.853478,-12805.562797,-6511.811733
163485.937133,-7105.977043,-12953.603985,-5286.058936
163485.937452,-3627.009116,-13693.809927,0.000000
163485.937772,0.000000,-9474.636058,4060.306139
163485.938091,2294.638420,-9326.594869,4903.011187
163485.938411,-74.020594,-4737.318029,5745.716235
163485.938731,-74.020594,-2738.761985,3600.648841
163485.939050,-370.102971,-3849.070898,1762.019645
163485.939370,0.000000,-4811.338623,2451.505594
163485.939690,-1628.453072,-7179.997637,689.485948
163485.940009,-2442.679609,-10066.800811,-1685.410096
163485.940329,-5255.462188,-11621.233289,-4673.182538
163485.940648,-6587.832884,-14582.057057,-4596.572988
163485.940968,-4811.338623,-14063.912898,-3907.087040
163485.941288,-2664.741391,-12509.480420,-2221.676944
163485.941607,-4959.379811,-8364.327145,-2987.772442
163485.941927,-4737.318029,-8068.244768,-1072.533697
163485.942247,-2146.597232,-7105.977043,-76.609550
163485.942566,296.082377,-5995.668130,4903.011187
163485.942886,5033.400406,-4071.132681,2834.553343
163485.943206,4441.235652,-5329.482782,3524.039291
163485.943525,2220.617826,-6883.915261,995.924147
163485.943845,-1184.329507,-8364.327145,-1685.410096
163485.944164,-666.185348,-12731.542202,-689.485948
163485.944484,-74.020594,-11843.295072,-2221.676944
163485.944804,-3849.070898,-11621.233289,-2911.162892
163485.945123,-3256.906145,-10140.821405,-5592.497135
163485.945443,-2146.597232,-11843.295072,-2834.553343
163485.945763,-1184.329507,-10732.986159,-1225.752797
163485.946082,3775.050304,-7624.121203,766.095498
163485.946402,5699.585753,-5847.626942,2528.115143
163485.946721,6143.709319,-5329.482782,3983.696590
163485.947041,6735.874072,-6513.812290,3830.477490
163485.947361,9400.615463,-11251.130318,7277.907231
163485.947680,7031.956449,-10658.965565,6052.154434
163485.948000,370.102971,-10658.965565,2068.457845
163485.948320,-5625.565159,-8956.491898,-4443.353888
163485.948639,-6883.915261,-13027.624579,-6205.373534
163485.948959,-6513.812290,-12657.521608,-6128.763984
163485.949278,-1998.556043,-10214.842000,-4596.572988
163485.949598,-370.102971,-8364.327145,-2987.772442
163485.949918,518.144159,-7105.977043,0.000000
163485.950237,592.164754,-6143.709319,-1225.752797
163485.950557,2812.782580,-8956.491898,1762.019645
163485.950877,5625.565159,-11103.089130,5515.887586
163485.951196,4663.297435,-11103.089130,3600.648841
163485.951516,1628.453072,-9548.656652,2834.553343
163485.951836,1998.556043,-11843.295072,1762.019645
163485.952155,-3404.947333,-9326.594869,-3217.601092
163485.952475,-2812.782580,-9844.739029,-3447.429741
163485.952794,-814.226536,-10066.800811,-2987.772442
163485.953114,-2368.659014,-9548.656652,-2451.505594
163485.953434,-2960.823768,-7772.162391,-2451.505594
163485.953753,-3923.091493,-6587.832884,-2834.553343
163485.954073,0.000000,-9548.656652,1532.190996
163485.954393,3775.050304,-9326.594869,4903.011187
163485.954712,3478.967927,-8882.471304,3600.648841
163485.955032,-1480.411884,-7994.224174,3447.429741
163485.955351,-5033.400406,-7254.018232,-1532.190996
163485.955671,-5995.668130,-9104.533087,-2604.724693
163485.955991,-3552.988522,-9770.718434,-2604.724693
163485.956310,-4737.318029,-7476.080014,-3677.258390
163485.956630,-2442.679609,-9474.636058,-2834.553343
163485.956950,-3552.988522,-7772.162391,-3983.696590
163485.957269,-3182.885551,-9548.656652,-4290.134789
163485.957589,0.000000,-11325.150913,2451.505594
163485.957909,4071.132681,-9474.636058,2374.896044
163485.958228,0.000000,-9252.574275,2528.115143
163485.958548,-2590.720797,-7254.018232,-306.438199
163485.958867,-3256.906145,-8660.409521,-1302.362347
163485.959187,-74.020594,-9474.636058,1149.143247
163485.959507,1406.391290,-8734.430116,612.876398
163485.959826,-74.020594,-8290.306550,-1608.800546
163485.960146,-2738.761985,-7994.224174,-2528.115143
163485.960466,-2960.823768,-9548.656652,-2451.505594
163485.960785,0.000000,-11917.315666,0.000000
163485.961105,4663.297435,-11843.295072,1762.019645
163485.961424,888.247130,-9918.759623,3217.601092
163485.961744,-2146.597232,-8438.347739,383.047749
163485.962064,-3108.864956,-7772.162391,-2145.067394
163485.962383,-444.123565,-11251.130318,1149.143247
163485.962703,1036.288319,-8956.491898,1225.752797
163485.963023,4663.297435,-8882.471304,3600.648841
163485.963342,2294.638420,-5921.647536,-76.609550
163485.963662,592.164754,-7920.203579,0.000000
163485.963982,0.000000,-8512.368333,0.000000
163485.964301,2294.638420,-12731.542202,1302.362347
163485.964621,1184.329507,-12213.398043,842.705048
163485.964940,-3034.844362,-10658.965565,-1838.629195
163485.965260,-5477.523971,-10140.821405,-3830.477490
163485.965580,-3034.844362,-11325.150913,-3983.696590
163485.965899,0.000000,-8364.327145,-2451.505594
163485.966219,3775.050304,-8734.430116,842.705048
163485.966539,2886.803174,-6513.812290,1149.143247
163485.966858,0.000000,-3627.009116,-3677.258390
163485.967178,4663.297435,-9178.553681,-76.609550
163485.967497,4145.153275,-10732.986159,2757.943793
163485.967817,4811.338623,-11621.233289,4826.401637
163485.968137,2146.597232,-11399.171507,3064.381992
163485.968456,-1924.535449,-11029.068536,1532.190996
163485.968776,-5107.421000,-10214.842000,-4366.744339
163485.969096,-4811.338623,-10658.965565,-4060.306139
163485.969415,-666.185348,-9474.636058,-1302.362347
163485.969735,-962.267725,-6513.812290,-2068.457845
163485.970054,1702.473667,-8882.471304,-76.609550
163485.970374,148.041188,-7105.977043,919.314598
163485.970694,1850.514855,-8734.430116,2681.334243
163485.971013,4737.318029,-9844.739029,4366.744339
163485.971333,3256.906145,-9992.780217,4826.401637
163485.971653,-4145.153275,-7179.997637,0.000000
163485.971972,-5625.565159,-9770.718434,-2834.553343
163485.972292,-7328.038826,-10955.047942,-4749.792088
163485.972612,-4293.194464,-10807.006753,-3753.867940
163485.972931,-3404.947333,-8882.471304,-3753.867940
163485.973251,-1258.350101,-9474.636058,-3447.429741
163485.973570,-296.082377,-9030.512492,-1685.410096
163485.973890,1110.308913,-9178.553681,-995.924147
163485.974210,4367.215058,-11251.130318,4826.401637
163485.974529,6069.688724,-8956.491898,6128.763984
163485.974849,1480.411884,-7476.080014,3677.258390
163485.975169,-518.144159,-8438.347739,1072.533697
163485.975488,-3478.967927,-9918.759623,-1378.971896
163485.975808,-2812.782580,-11029.068536,-2221.676944
163485.976127,-444.123565,-11473.192101,-2068.457845
163485.976447,-1554.432478,-9178.553681,-1915.238745
163485.976767,-74.020594,-9030.512492,-1302.362347
163485.977086,-74.020594,-9474.636058,-76.609550
163485.977406,3478.967927,-9474.636058,1149.143247
163485.977726,3552.988522,-9548.656652,3677.258390
163485.978045,2368.659014,-8364.327145,3064.381992
163485.978365,-592.164754,-9104.533087,1302.362347
163485.978685,-3923.091493,-9400.615463,-1149.143247
163485.979004,-4589.276840,-10362.883188,-2221.676944
163485.979324,-1406.391290,-8956.491898,-2834.553343
163485.979643,-1184.329507,-8956.491898,-1838.629195
163485.979963,-1776.494261,-7179.997637,-1225.752797
163485.980283,-888.247130,-9252.574275,-2145.067394
163485.980602,962.267725,-11177.109724,-383.047749
163485.980922,2960.823768,-11325.150913,2451.505594
163485.981242,4737.318029,-10955.047942,3064.381992
163485.981561,2072.576638,-9548.656652,2221.676944
163485.981881,-2220.617826,-7772.162391,-842.705048
163485.982200,-5033.400406,-7179.997637,-4596.572988
163485.982520,-4219.173869,-9030.512492,-3140.991542
163485.982840,-962.267725,-8734.430116,-3447.429741
163485.983159,-3552.988522,-8364.327145,-1532.190996
163485.983479,-1480.411884,-6883.915261,-3677.258390
163485.983799,1702.473667,-11251.130318,-76.609550
163485.984118,2368.659014,-10436.903782,2757.943793
163485.984438,4885.359217,-8956.491898,2987.772442
163485.984758,2960.823768,-10140.821405,4060.306139
163485.985077,-1702.473667,-8512.368333,229.828649
163485.985397,-4515.256246,-8290.306550,-3140.991542
163485.985716,-3256.906145,-11843.295072,-383.047749
163485.986036,-666.185348,-10066.800811,-1302.362347
163485.986356,-1184.329507,-9474.636058,-76.609550
163485.986675,-962.267725,-7105.977043,-919.314598
163485.986995,1702.473667,-8882.471304,-76.609550
163485.987315,518.144159,-9252.574275,0.000000
163485.987634,3182.885551,-9918.759623,1762.019645
163485.987954,2146.597232,-10140.821405,3064.381992
163485.988273,-296.082377,-9992.780217,2451.505594
163485.988593,-3552.988522,-8956.491898,-2451.505594
163485.988913,-5107.421000,-12213.398043,-2298.286494
163485.989232,-3997.112087,-10732.986159,-1225.752797
163485.989552,-666.185348,-9474.636058,-1302.362347
163485.989872,-1850.514855,-7254.018232,-1915.238745
163485.990191,2294.638420,-9474.636058,-689.485948
163485.990511,888.247130,-8364.327145,-1149.143247
163485.990830,4663.297435,-10436.903782,3140.991542
163485.991150,6217.729913,-9918.759623,4213.525239
163485.991470,2368.659014,-9548.656652,4903.011187
163485.991789,0.000000,-8660.409521,612.876398
163485.992109,-4737.318029,-9548.656652,-2451.505594
163485.992429,-2960.823768,-12509.480420,-536.266849
163485.992748,-3034.844362,-10658.965565,-1225.752797
163485.993068,-1258.350101,-9474.636058,-1915.238745
163485.993388,-666.185348,-8142.265362,-995.924147
163485.993707,0.000000,-6291.750507,-2068.457845
163485.994027,2442.679609,-8438.347739,1225.752797
163485.994346,5107.421000,-7994.224174,3140.991542
163485.994666,1184.329507,-6587.832884,2451.505594
163485.994986,-74.020594,-9326.594869,-76.609550
163485.995305,-5329.482782,-8808.450710,-3064.381992
163485.995625,-4515.256246,-13101.645173,-3677.258390
163485.995945,-2960.823768,-11917.315666,-1685.410096
163485.996264,-1554.432478,-10066.800811,-3753.867940
163485.996584,-1554.432478,-9474.636058,-1608.800546
163485.996903,-666.185348,-7031.956449,-3140.991542
163485.997223,1110.308913,-7920.203579,-1149.143247
163485.997543,5847.626942,-10658.965565,3600.648841
163485.997862,6735.874072,-9474.636058,5132.839837
163485.998182,4663.297435,-8734.430116,4213.525239
163485.998502,-74.020594,-8290.306550,-76.609550
163485.998821,-4737.318029,-9548.656652,-3064.381992
163485.999141,-4737.318029,-10140.821405,-3677.258390
163485.999461,-2442.679609,-10658.965565,-2834.553343
163485.999780,-2812.782580,-10436.903782,-2068.457845
163486.000100,-1850.514855,-8364.327145,-2451.505594
163486.000419,592.164754,-8438.347739,-1455.581446
163486.000739,5107.421000,-10955.047942,4213.525239
163486.001059,4737.318029,-8808.450710,4290.134789
163486.001378,2368.659014,-7179.997637,3677.258390
163486.001698,1998.556043,-9474.636058,2681.334243
163486.002018,-3404.947333,-8068.244768,-2221.676944
163486.002337,-7105.977043,-9548.656652,-3064.381992
163486.002657,-3182.885551,-10955.047942,-1915.238745
163486.002976,-3256.906145,-10732.986159,-1991.848295
163486.003296,-2886.803174,-8808.450710,-2374.896044
163486.003616,-2220.617826,-7105.977043,-3064.381992
163486.003935,1110.308913,-11251.130318,-383.047749
163486.004255,0.000000,-8364.327145,0.000000
163486.004575,4441.235652,-10584.944971,4290.134789
163486.004894,2738.761985,-9474.636058,3600.648841
163486.005214,-2146.597232,-6883.915261,-2451.505594
163486.005534,-1258.350101,-10658.965565,-1302.362347
163486.005853,-2590.720797,-9844.739029,-842.705048
163486.006173,-2664.741391,-9252.574275,-995.924147
163486.006492,-1924.535449,-9400.615463,-919.314598
163486.006812,-370.102971,-8586.388927,-76.609550
163486.007132,370.102971,-8808.450710,-1302.362347
163486.007451,3182.885551,-9474.636058,1455.581446
163486.007771,3775.050304,-9474.636058,2987.772442
163486.008091,1184.329507,-8364.327145,3064.381992
163486.008410,2886.803174,-9474.636058,3600.648841
163486.008730,-1776.494261,-9400.615463,612.876398
163486.009049,-2590.720797,-10881.027347,-1225.752797
163486.009369,-1850.514855,-10658.965565,-612.876398
163486.009689,-2146.597232,-9030.512492,-919.314598
163486.010008,-4737.318029,-5403.503377,-3677.258390
163486.010328,-1258.350101,-7402.059420,-3370.820191
163486.010648,0.000000,-9252.574275,-2221.676944
163486.010967,2664.741391,-10288.862594,1302.362347
163486.011287,3182.885551,-8586.388927,1455.581446
163486.011606,2886.803174,-10362.883188,842.705048
163486.011926,-74.020594,-11251.130318,-76.609550
163486.012246,-3034.844362,-11103.089130,-2528.115143
163486.012565,-2368.659014,-9548.656652,-3370.820191
163486.012885,-74.020594,-11325.150913,612.876398
163486.013205,-3552.988522,-7179.997637,-2145.067394
163486.013524,-962.267725,-7105.977043,-2681.334243
163486.013844,518.144159,-7994.224174,-2298.286494
163486.014164,2886.803174,-10436.903782,0.000000
163486.014483,5255.462188,-10658.965565,2374.896044
163486.014803,3182.885551,-9400.615463,2681.334243
163486.015122,2072.576638,-10066.800811,2374.896044
163486.015442,-1110.308913,-10732.986159,842.705048
163486.015762,-1850.514855,-11251.130318,-689.485948
163486.016081,-1776.494261,-10732.986159,1225.752797
163486.016401,-1480.411884,-9104.533087,306.438199
163486.016721,-222.061783,-6809.894666,-459.657299
163486.017040,-2368.659014,-6291.750507,-2757.943793
163486.017360,-888.247130,-8512.368333,-995.924147
163486.017679,1702.473667,-7994.224174,0.000000
163486.017999,2368.659014,-8956.491898,2451.505594
163486.018319,-2368.659014,-7476.080014,0.000000
163486.018638,-3034.844362,-10658.965565,-1608.800546
163486.018958,-4811.338623,-13027.624579,-1915.238745
163486.019278,-2368.659014,-14285.974681,612.876398
163486.019597,-1480.411884,-11029.068536,-995.924147
163486.019917,-2072.576638,-8438.347739,-229.828649
163486.020237,-444.123565,-6291.750507,-1762.019645
163486.020556,0.000000,-5995.668130,-3064.381992
163486.020876,1406.391290,-7179.997637,229.828649
163486.021195,3182.885551,-7402.059420,766.095498
163486.021515,592.164754,-8956.491898,3064.381992
163486.021835,-74.020594,-9178.553681,1608.800546
163486.022154,-2442.679609,-12731.542202,-1302.362347
163486.022474,-3552.988522,-11917.315666,306.438199
163486.022794,-1184.329507,-10362.883188,306.438199
163486.023113,-1258.350101,-9474.636058,0.000000
163486.023433,-2220.617826,-7772.162391,-1225.752797
163486.023752,-3627.009116,-6217.729913,-2068.457845
163486.024072,962.267725,-9474.636058,1532.190996
163486.024392,5255.462188,-9326.594869,3600.648841
163486.024711,4663.297435,-8882.471304,4826.401637
163486.025031,592.164754,-5995.668130,1838.629195
163486.025351,-74.020594,-9474.636058,-76.609550
163486.025670,-3627.009116,-11029.068536,-2221.676944
163486.025990,-2294.638420,-11399.171507,-1838.629195
163486.026310,-3182.885551,-11769.274478,-2145.067394
163486.026629,-4441.235652,-10140.821405,-3064.381992
163486.026949,-4293.194464,-8364.327145,-3677.258390
163486.027268,-370.102971,-10732.986159,-1302.362347
163486.027588,4367.215058,-10658.965565,2374.896044
163486.027908,4811.338623,-7402.059420,2221.676944
163486.028227,2960.823768,-5995.668130,1991.848295
163486.028547,3182.885551,-8290.306550,-76.609550
163486.028867,-2220.617826,-9104.533087,-1608.800546
163486.029186,-370.102971,-12213.398043,-459.657299
163486.029506,296.082377,-11029.068536,0.000000
163486.029825,-2368.659014,-9548.656652,306.438199
163486.030145,-3552.988522,-8364.327145,-3064.381992
163486.030465,-4219.173869,-6735.874072,-6052.154434
163486.030784,0.000000,-9548.656652,-1225.752797
163486.031104,5033.400406,-9178.553681,0.000000
163486.031424,6439.791695,-8290.306550,2834.553343
163486.031743,3478.967927,-7698.141797,2987.772442
163486.032063,-1110.308913,-6883.915261,-842.705048
163486.032382,-2072.576638,-10288.862594,-1149.143247
163486.032702,-814.226536,-10732.986159,0.000000
163486.033022,-3552.988522,-9548.656652,0.000000
163486.033341,-5699.585753,-8438.347739,-3447.429741
163486.033661,-6513.812290,-7179.997637,-5209.449386
163486.033981,-2590.720797,-10510.924376,-2451.505594
163486.034300,3108.864956,-11103.089130,1762.019645
163486.034620,3478.967927,-6809.894666,-995.924147
163486.034940,2516.700203,-8512.368333,2298.286494
163486.035259,-962.267725,-7105.977043,-1302.362347
163486.035579,-2738.761985,-10584.944971,-2221.676944
163486.035898,-370.102971,-13619.789333,-76.609550
163486.036218,0.000000,-11843.295072,-76.609550
163486.036537,-666.185348,-11695.253884,-76.609550
163486.036857,-2294.638420,-9474.636058,-1302.362347
163486.037176,-2442.679609,-8068.244768,-3064.381992
163486.037496,0.000000,-8364.327145,0.000000
163486.037815,4663.297435,-7698.141797,1608.800546
163486.038135,2368.659014,-6291.750507,2451.505594
163486.038454,1702.473667,-6735.874072,1149.143247
163486.038774,-1776.494261,-7550.100608,-1302.362347
163486.039093,-74.020594,-13027.624579,2374.896044
163486.039413,74.020594,-11177.109724,459.657299
163486.039732,-1184.329507,-11621.233289,1838.629195
163486.040052,-2442.679609,-10658.965565,-995.924147
163486.040371,-5107.421000,-8216.285956,-3753.867940
163486.040691,-4737.318029,-8364.327145,-3064.381992
163486.041010,3182.885551,-9474.636058,1149.143247
163486.041330,3923.091493,-8364.327145,2374.896044
163486.041649,1776.494261,-7254.018232,2298.286494
163486.041969,-2072.576638,-7031.956449,-1455.581446
163486.042288,-1850.514855,-11621.233289,-689.485948
163486.042608,-2368.659014,-10732.986159,0.000000
163486.042927,1702.473667,-11547.212695,-76.609550
163486.043247,-1554.432478,-10658.965565,-76.609550
163486.043567,-666.185348,-9474.636058,-2221.676944
163486.043886,-74.020594,-8882.471304,-3753.867940
163486.044206,1184.329507,-10140.821405,-459.657299
163486.044525,2886.803174,-9474.636058,153.219100
163486.044845,2072.576638,-9030.512492,306.438199
163486.045164,-74.020594,-9252.574275,1149.143247
163486.045484,-1850.514855,-9474.636058,-2451.505594
163486.045803,-962.267725,-10955.047942,-1149.143247
163486.046123,1924.535449,-9548.656652,0.000000
163486.046442,592.164754,-9548.656652,1225.752797
163486.046762,-74.020594,-9474.636058,-76.609550
163486.047081,-1998.556043,-8956.491898,-919.314598
163486.047401,0.000000,-9030.512492,-153.219100
163486.047720,3478.967927,-10140.821405,1455.581446
163486.048040,3775.050304,-8290.306550,2145.067394
163486.048359,-1776.494261,-6291.750507,612.876398
163486.048679,-2442.679609,-6513.812290,-2834.553343
163486.048998,-4737.318029,-9548.656652,-3064.381992
163486.049318,-1480.411884,-11325.150913,-1225.752797
163486.049637,-74.020594,-11843.295072,-76.609550
163486.049957,-2442.679609,-10066.800811,-1302.362347
163486.050276,-4145.153275,-8660.409521,-2451.505594
163486.050596,-2664.741391,-8734.430116,-2528.115143
163486.050915,0.000000,-9622.677246,0.000000
163486.051235,3627.009116,-8586.388927,2068.457845
163486.051555,1184.329507,-7179.997637,2757.943793
163486.051874,-814.226536,-7402.059420,0.000000
163486.052194,-1332.370696,-9030.512492,-1915.238745
163486.052513,888.247130,-10881.027347,306.438199
163486.052833,1850.514855,-9770.718434,1685.410096
163486.053152,1554.432478,-9844.739029,1225.752797
163486.053472,-74.020594,-10658.965565,-76.609550
163486.053791,-3256.906145,-7920.203579,-1838.629195
163486.054111,-2368.659014,-9548.656652,0.000000
163486.054430,4663.297435,-11251.130318,3600.648841
163486.054750,1776.494261,-7179.997637,2604.724693
163486.055069,444.123565,-6143.709319,1991.848295
163486.055389,-2442.679609,-6291.750507,-2221.676944
163486.055708,-3182.885551,-9918.759623,-1378.971896
163486.056028,-2442.679609,-9918.759623,-1225.752797
163486.056347,-962.267725,-11103.089130,766.095498
163486.056667,-3034.844362,-10214.842000,842.705048
163486.056986,-2442.679609,-7698.141797,-2987.772442
163486.057306,-3256.906145,-7624.121203,-1838.629195
163486.057625,2368.659014,-9474.636058,2298.286494
163486.057945,2886.803174,-9474.636058,-76.609550
163486.058264,444.123565,-9474.636058,-306.438199
163486.058584,-3330.926739,-6587.832884,-3753.867940
163486.058903,-3552.988522,-9548.656652,-4903.011187
163486.059223,0.000000,-11399.171507,-1225.752797
163486.059542,3849.070898,-11325.150913,995.924147
163486.059862,4071.132681,-13027.624579,3600.648841
163486.060182,2294.638420,-8216.285956,842.705048
163486.060501,-74.020594,-9326.594869,-1608.800546
163486.060821,1110.308913,-7846.182985,995.924147
163486.061140,3478.967927,-8586.388927,1991.848295
163486.061460,2590.720797,-7402.059420,2604.724693
163486.061779,592.164754,-6587.832884,0.000000
163486.062099,-2220.617826,-6587.832884,-3907.087040
163486.062418,-3256.906145,-8956.491898,-3677.258390
163486.062738,-962.267725,-9992.780217,-1915.238745
163486.063057,-4145.153275,-9548.656652,-3677.258390
163486.063377,-2960.823768,-11917.315666,-1302.362347
163486.063696,-3034.844362,-11251.130318,-2528.115143
163486.064016,-74.020594,-11251.130318,-76.609550
163486.064335,2146.597232,-9252.574275,1455.581446
163486.064655,5181.441594,-8364.327145,3830.477490
163486.064974,1332.370696,-5625.565159,1225.752797
163486.065294,-1776.494261,-4811.338623,0.000000
163486.065613,-370.102971,-9474.636058,-3753.867940
163486.065933,0.000000,-10807.006753,0.000000
163486.066252,2294.638420,-11325.150913,-76.609550
163486.066572,-1554.432478,-11843.295072,-76.609550
163486.066891,-3552.988522,-9844.739029,-2451.505594
163486.067211,-2368.659014,-11843.295072,-3217.601092
163486.067530,-1628.453072,-11103.089130,-76.609550
163486.067850,2294.638420,-8660.409521,536.266849
163486.068169,-370.102971,-8216.285956,1072.533697
163486.068489,1628.453072,-8660.409521,3677.258390
163486.068809,3775.050304,-7254.018232,1149.143247
163486.069128,1702.473667,-7031.956449,1072.533697
163486.069448,1184.329507,-8364.327145,1838.629195
163486.069767,-74.020594,-10658.965565,2374.896044
163486.070087,-4737.318029,-8364.327145,-2451.505594
163486.070406,-3034.844362,-9474.636058,-2834.553343
163486.070726,-4663.297435,-13619.789333,-1225.752797
163486.071045,0.000000,-10510.924376,1225.752797
163486.071365,1702.473667,-8290.306550,1532.190996
163486.071684,-370.102971,-6513.812290,842.705048
163486.072004,-3552.988522,-4811.338623,-3217.601092
163486.072323,-2072.576638,-9104.533087,-3677.258390
163486.072643,4071.132681,-11843.295072,2374.896044
163486.072962,2886.803174,-8882.471304,1072.533697
163486.073282,-4145.153275,-9548.656652,612.876398
163486.073601,-1480.411884,-9474.636058,-1302.362347
163486.073921,-888.247130,-11473.192101,-1762.019645
163486.074240,518.144159,-11843.295072,383.047749
163486.074560,1110.308913,-9474.636058,-76.609550
163486.074879,-74.020594,-9474.636058,-76.609550
163486.075199,-1258.350101,-7105.977043,-2528.115143
163486.075518,-2368.659014,-5995.668130,-4903.011187
163486.075838,0.000000,-10140.821405,-1149.143247
163486.076157,2368.659014,-9696.697840,459.657299
163486.076477,0.000000,-9548.656652,0.000000
163486.076796,-740.205942,-9770.718434,689.485948
163486.077116,0.000000,-9474.636058,-153.219100
163486.077436,1110.308913,-10658.965565,1762.019645
163486.077755,4663.297435,-9474.636058,2374.896044
163486.078075,2368.659014,-8660.409521,3677.258390
163486.078394,-74.020594,-7698.141797,-76.609550
163486.078714,-2368.659014,-6143.709319,-3677.258390
163486.079033,-3552.988522,-9548.656652,-2451.505594
163486.079353,444.123565,-11103.089130,1455.581446
163486.079672,-1702.473667,-8882.471304,-1608.800546
163486.079992,-2072.576638,-10066.800811,-919.314598
163486.080311,-2368.659014,-10066.800811,-1762.019645
163486.080631,-1776.494261,-11251.130318,0.000000
163486.080950,1110.308913,-11547.212695,0.000000
163486.081270,888.247130,-9696.697840,2757.943793
163486.081589,-74.020594,-7994.224174,1762.019645
163486.081909,-2146.597232,-3627.009116,-3830.477490
163486.082228,-2368.659014,-7698.141797,-2528.115143
163486.082548,2886.803174,-11843.295072,-76.609550
163486.082867,1110.308913,-9548.656652,-536.266849
163486.083187,518.144159,-9992.780217,0.000000
163486.083506,-814.226536,-9622.677246,-1991.848295
163486.083826,-2368.659014,-10732.986159,0.000000
163486.084145,0.000000,-11917.315666,0.000000
163486.084465,3182.885551,-10362.883188,612.876398
163486.084784,1628.453072,-9844.739029,3064.381992
163486.085104,-74.020594,-7105.977043,-76.609550
163486.085423,-1258.350101,-6809.894666,-1915.238745
163486.085743,-2368.659014,-7476.080014,0.000000
163486.086063,1332.370696,-9178.553681,766.095498
163486.086382,814.226536,-9400.615463,689.485948
163486.086702,-1036.288319,-9548.656652,229.828649
163486.087021,-4737.318029,-7179.997637,-4290.134789
163486.087341,-2886.803174,-12139.377449,-306.438199
163486.087660,-3552.988522,-9548.656652,0.000000
163486.087980,-74.020594,-10362.883188,1762.019645
163486.088299,-1998.556043,-7179.997637,0.000000
163486.088619,-2960.823768,-6587.832884,306.438199
163486.088938,-1998.556043,-7846.182985,-2298.286494
163486.089258,740.205942,-8956.491898,-383.047749
163486.089577,2072.576638,-8364.327145,0.000000
163486.089897,0.000000,-9548.656652,-1532.190996
163486.090216,-74.020594,-11251.130318,-1225.752797
163486.090536,-592.164754,-12509.480420,0.000000
163486.090855,1702.473667,-12731.542202,1302.362347
163486.091175,1332.370696,-9548.656652,-689.485948
163486.091494,-2368.659014,-7772.162391,1225.752797
163486.091814,-2368.659014,-5847.626942,-2451.505594
163486.092133,-1702.473667,-6883.915261,-3064.381992
163486.092453,148.041188,-9918.759623,-383.047749
163486.092772,3627.009116,-8882.471304,1455.581446
163486.093092,4663.297435,-9474.636058,3600.648841
163486.093411,666.185348,-8290.306550,2068.457845
163486.093731,-962.267725,-7772.162391,-1149.143247
163486.094050,0.000000,-10732.986159,612.876398
163486.094370,3182.885551,-11991.336260,3524.039291
163486.094690,-74.020594,-8586.388927,536.266849
163486.095009,-1924.535449,-9104.533087,-842.705048
163486.095329,-3849.070898,-7105.977043,-4519.963438
163486.095648,-5107.421000,-8660.409521,-5745.716235
163486.095968,-2146.597232,-9474.636058,-2221.676944
163486.096287,-2368.659014,-9844.739029,0.000000
163486.096607,-1332.370696,-10066.800811,-689.485948
163486.096926,-962.267725,-8438.347739,-1149.143247
163486.097246,666.185348,-10288.862594,306.438199
163486.097565,2368.659014,-9548.656652,3370.820191
163486.097885,4071.132681,-9474.636058,4519.963438
163486.098204,-296.082377,-7402.059420,842.705048
163486.098524,-3552.988522,-6587.832884,-2451.505594
163486.098843,-4737.318029,-8364.327145,-4290.134789
163486.099163,-74.020594,-13619.789333,-76.609550
163486.099482,0.000000,-9548.656652,0.000000
163486.099802,222.061783,-9696.697840,-689.485948
163486.100121,370.102971,-9030.512492,-612.876398
163486.100441,0.000000,-9104.533087,-1149.143247
163486.100760,740.205942,-11325.150913,1225.752797
163486.101080,2886.803174,-10658.965565,4366.744339
163486.101399,1110.308913,-10066.800811,4826.401637
163486.101719,-74.020594,-8882.471304,2374.896044
163486.102038,-3627.009116,-5403.503377,-2911.162892
163486.102358,-2146.597232,-10658.965565,-689.485948
163486.102677,-2960.823768,-8364.327145,-2298.286494
163486.102997,-2664.741391,-8660.409521,-2298.286494
163486.103317,-2960.823768,-9696.697840,-1455.581446
163486.103636,-2590.720797,-8068.244768,-3064.381992
163486.103956,-4737.318029,-10140.821405,-2451.505594
163486.104275,814.226536,-11917.315666,0.000000
163486.104595,3034.844362,-12139.377449,4213.525239
163486.104914,814.226536,-9326.594869,2374.896044
163486.105234,-2442.679609,-5033.400406,-2528.115143
163486.105553,-1850.514855,-10658.965565,-1302.362347
163486.105873,-1628.453072,-9548.656652,-1225.752797
163486.106192,2368.659014,-9104.533087,229.828649
163486.106512,3034.844362,-9030.512492,1378.971896
163486.106831,0.000000,-7179.997637,0.000000
163486.107151,-2368.659014,-8660.409521,-1915.238745
163486.107470,-1480.411884,-11029.068536,0.000000
163486.107790,1776.494261,-11325.150913,1455.581446
163486.108109,0.000000,-9548.656652,1532.190996
163486.108429,-370.102971,-8290.306550,-76.609550
163486.108748,-2368.659014,-7846.182985,-1302.362347
163486.109068,-1332.370696,-8956.491898,-1302.362347
163486.109387,1480.411884,-7772.162391,-76.609550
163486.109707,2294.638420,-7476.080014,459.657299
163486.110026,0.000000,-7179.997637,612.876398
163486.110346,222.061783,-8512.368333,-1608.800546
163486.110665,-1184.329507,-11029.068536,-1225.752797
163486.110985,2368.659014,-13693.809927,3830.477490
163486.111304,3478.967927,-13027.624579,2681.334243
163486.111624,-74.020594,-10362.883188,-1302.362347
163486.111944,-4737.318029,-8216.285956,-3064.381992
163486.112263,-5107.421000,-9104.533087,-4903.011187
163486.112583,-1406.391290,-9770.718434,-1532.190996
163486.112902,4071.132681,-9326.594869,2374.896044
163486.113222,3701.029710,-8956.491898,2604.724693
163486.113541,1998.556043,-6513.812290,612.876398
163486.113861,2294.638420,-9474.636058,-383.047749
163486.114180,1776.494261,-10732.986159,1838.629195
163486.114500,2960.823768,-10436.903782,612.876398
163486.114819,-74.020594,-11843.295072,1455.581446
163486.115139,-4737.318029,-10066.800811,-2145.067394
163486.115458,-5033.400406,-9178.553681,-4903.011187
163486.115778,-3182.885551,-10436.903782,-2757.943793
163486.116097,2368.659014,-9918.759623,1378.971896
163486.116417,2664.741391,-6735.874072,0.000000
163486.116736,3849.070898,-7476.080014,2604.724693
163486.117056,1998.556043,-7698.141797,536.266849
163486.117375,740.205942,-8364.327145,536.266849
163486.117695,888.247130,-8364.327145,1225.752797
163486.118014,2294.638420,-11695.253884,3524.039291
163486.118334,-3849.070898,-9548.656652,-306.438199
163486.118653,-8068.244768,-8734.430116,-4596.572988
163486.118973,-7920.203579,-10955.047942,-4979.620737
163486.119292,-4737.318029,-9548.656652,-3677.258390
163486.119612,-2368.659014,-6587.832884,-3677.258390
163486.119931,0.000000,-7476.080014,612.876398
163486.120251,0.000000,-5403.503377,612.876398
163486.120571,1332.370696,-9474.636058,1532.190996
163486.120890,1184.329507,-7772.162391,1225.752797
163486.121210,3775.050304,-10955.047942,4213.525239
163486.121529,-1110.308913,-11399.171507,2834.553343
163486.121849,-4367.215058,-9474.636058,-1455.581446
163486.122168,-4811.338623,-11251.130318,-3140.991542
163486.122488,-2442.679609,-11843.295072,-1915.238745
163486.122807,-888.247130,-8364.327145,-1915.238745
163486.123127,-1480.411884,-5551.544565,-2374.896044
163486.123446,148.041188,-7920.203579,459.657299
163486.123766,-1184.329507,-7179.997637,0.000000
163486.124085,370.102971,-9104.533087,919.314598
163486.124405,4293.194464,-11029.068536,3524.039291
163486.124724,2294.638420,-10955.047942,4366.744339
163486.125044,-1850.514855,-8882.471304,1378.971896
163486.125363,-2442.679609,-8882.471304,-383.047749
163486.125683,-3701.029710,-9178.553681,-1608.800546
163486.126002,1998.556043,-10658.965565,-153.219100
163486.126322,1110.308913,-8142.265362,-1608.800546
163486.126641,296.082377,-8882.471304,-76.609550
163486.126961,-74.020594,-6809.894666,-4673.182538
163486.127280,1628.453072,-11473.192101,-383.047749
163486.127600,2738.761985,-11843.295072,2221.676944
163486.127919,2886.803174,-10584.944971,1838.629195
163486.128239,-444.123565,-11843.295072,2374.896044
163486.128558,-4441.235652,-7772.162391,-689.485948
163486.128878,-4737.318029,-7179.997637,-4903.011187
163486.129198,-2368.659014,-9252.574275,-1838.629195
163486.129517,3404.947333,-10362.883188,1455.581446
163486.129837,4663.297435,-7105.977043,-76.609550
163486.130156,3478.967927,-8586.388927,-76.609550
163486.130476,814.226536,-9178.553681,-1225.752797
163486.130795,2664.741391,-11695.253884,1455.581446
163486.131115,5551.544565,-12435.459826,3600.648841
163486.131434,2368.659014,-10732.986159,4903.011187
163486.131754,-2146.597232,-10140.821405,0.000000
163486.132073,-4219.173869,-9178.553681,-1685.410096
163486.132393,-2442.679609,-11251.130318,-3140.991542
163486.132712,-2072.576638,-7772.162391,-2604.724693
163486.133032,1480.411884,-9400.615463,1762.019645
163486.133351,0.000000,-6587.832884,0.000000
163486.133671,0.000000,-5625.565159,-1378.971896
163486.133990,296.082377,-9992.780217,229.828649
163486.134310,3108.864956,-10436.903782,1838.629195
163486.134629,518.144159,-9548.656652,689.485948
163486.134949,-3256.906145,-11769.274478,1225.752797
163486.135268,-7402.059420,-9326.594869,-4749.792088
163486.135588,-8290.306550,-10658.965565,-4979.620737
163486.135907,-2442.679609,-11177.109724,-1915.238745
163486.136227,1702.473667,-8586.388927,-995.924147
163486.136546,1776.494261,-7179.997637,1378.971896
163486.136866,2294.638420,-5625.565159,919.314598
163486.137185,2294.638420,-9474.636058,1455.581446
163486.137505,1776.494261,-9548.656652,2451.505594
163486.137824,4663.297435,-10066.800811,2681.334243
163486.138144,296.082377,-11843.295072,3064.381992
163486.138463,-4663.297435,-10362.883188,-306.438199
163486.138783,-6439.791695,-9474.636058,-4519.963438
163486.139102,-5033.400406,-11547.212695,-2528.115143
163486.139422,-1258.350101,-9474.636058,-2528.115143
163486.139741,-3404.947333,-7476.080014,-1225.752797
163486.140061,1184.329507,-6809.894666,1225.752797
163486.140380,2072.576638,-6587.832884,536.266849
163486.140700,1184.329507,-7179.997637,1532.190996
163486.141019,5255.462188,-8882.471304,4519.963438
163486.141339,4441.235652,-9844.739029,5056.230287
163486.141658,-1110.308913,-11251.130318,2068.457845
163486.141978,-6143.709319,-9326.594869,-3524.039291
163486.142297,-6809.894666,-10732.986159,-6052.154434
163486.142617,-3404.947333,-11843.295072,-3217.601092
163486.142936,-2368.659014,-8364.327145,-2451.505594
163486.143256,-222.061783,-8734.430116,-689.485948
163486.143576,518.144159,-7105.977043,-1991.848295
163486.143895,0.000000,-8364.327145,612.876398
163486.144215,4367.215058,-9178.553681,2221.676944
163486.144534,4959.379811,-9400.615463,4060.306139
163486.144854,814.226536,-10510.924376,2528.115143
163486.145173,-3923.091493,-8364.327145,-2068.457845
163486.145493,-4811.338623,-7846.182985,-3600.648841
163486.145812,-5625.565159,-9548.656652,-4290.134789
163486.146132,-1184.329507,-9696.697840,-1532.190996
163486.146451,592.164754,-8956.491898,0.000000
163486.146771,3182.885551,-9178.553681,2374.896044
163486.147090,592.164754,-7179.997637,0.000000
163486.147410,4811.338623,-9992.780217,1838.629195
163486.147729,6883.915261,-10066.800811,3753.867940
163486.148049,4663.297435,-9696.697840,3983.696590
163486.148368,-2072.576638,-9326.594869,1455.581446
163486.148688,-4811.338623,-11251.130318,-2528.115143
163486.149007,-7105.977043,-10288.862594,-4596.572988
163486.149327,-3552.988522,-8364.327145,-4290.134789
163486.149646,-4145.153275,-7179.997637,-2451.505594
163486.149966,-74.020594,-8290.306550,-76.609550
163486.150285,0.000000,-5551.544565,-2451.505594
163486.150605,1184.329507,-8364.327145,-689.485948
163486.150924,4293.194464,-10436.903782,1685.410096
163486.151244,4441.235652,-10881.027347,3217.601092
163486.151563,296.082377,-11621.233289,2451.505594
163486.151883,-2442.679609,-11251.130318,-995.924147
163486.152202,-5699.585753,-10362.883188,-3753.867940
163486.152522,-5921.647536,-10288.862594,-3983.696590
163486.152841,-2220.617826,-8364.327145,-2451.505594
163486.153161,2294.638420,-10658.965565,-76.609550
163486.153480,888.247130,-5551.544565,0.000000
163486.153800,2220.617826,-6661.853478,0.000000
163486.154119,4885.359217,-8956.491898,3524.039291
163486.154439,5921.647536,-7476.080014,5515.887586
163486.154758,2368.659014,-9548.656652,3983.696590
163486.155078,-4737.318029,-9548.656652,612.876398
163486.155397,-8142.265362,-11325.150913,-2911.162892
163486.155717,-6291.750507,-12657.521608,-3064.381992
163486.156036,-4219.173869,-11547.212695,-4366.744339
163486.156356,-1702.473667,-9918.759623,-689.485948
163486.156675,-1110.308913,-6365.771101,-612.876398
163486.156995,592.164754,-5847.626942,-1762.019645
163486.157314,2072.576638,-8364.327145,919.314598
163486.157634,2368.659014,-7772.162391,2451.505594
163486.157953,4663.297435,-10066.800811,3600.648841
163486.158273,-2368.659014,-9548.656652,1838.629195
163486.158592,-4737.318029,-10510.924376,-1838.629195
163486.158912,-4219.173869,-12139.377449,-1762.019645
163486.159231,-2442.679609,-10658.965565,-3753.867940
163486.159551,-3182.885551,-10066.800811,-2298.286494
163486.159870,-3108.864956,-8364.327145,-2374.896044
163486.160190,-296.082377,-6217.729913,-2528.115143
163486.160509,3478.967927,-9326.594869,-76.609550
163486.160829,5477.523971,-9992.780217,4673.182538
163486.161148,7624.121203,-8882.471304,4519.963438
163486.161468,3330.926739,-10658.965565,4826.401637
163486.161787,-3552.988522,-8364.327145,0.000000
163486.162107,-6513.812290,-9548.656652,-4903.011187
163486.162426,-2442.679609,-12435.459826,-1608.800546
163486.162746,-1924.535449,-10807.006753,-1302.362347
163486.163065,-1184.329507,-8438.347739,-1378.971896
163486.163385,-74.020594,-6143.709319,-1149.143247
163486.163704,2738.761985,-7402.059420,-76.609550
163486.164024,3849.070898,-9474.636058,2068.457845
163486.164343,5625.565159,-9696.697840,4596.572988
163486.164663,4663.297435,-11251.130318,3447.429741
163486.164982,-2368.659014,-10140.821405,0.000000
163486.165302,-8142.265362,-7772.162391,-6128.763984
163486.165621,-5107.421000,-13619.789333,-3140.991542
163486.165941,-3478.967927,-11399.171507,-2451.505594
163486.166260,-2664.741391,-9400.615463,-2221.676944
163486.166580,-1924.535449,-7402.059420,-1378.971896
163486.166899,592.164754,-5995.668130,-2145.067394
163486.167219,0.000000,-6587.832884,0.000000
163486.167538,6217.729913,-9918.759623,4366.744339
163486.167858,6587.832884,-8882.471304,3600.648841
163486.168177,3182.885551,-9030.512492,612.876398
163486.168497,-74.020594,-10658.965565,-76.609550
163486.168816,-3923.091493,-11325.150913,-1915.238745
163486.169136,-2812.782580,-12361.439231,-1915.238745
163486.169455,-3330.926739,-11103.089130,-2145.067394
163486.169775,-2368.659014,-9548.656652,0.000000
163486.170094,-1332.370696,-7031.956449,-689.485948
163486.170414,2590.720797,-6513.812290,-1149.143247
163486.170733,3478.967927,-9474.636058,3294.210641
163486.171053,3923.091493,-7254.018232,2451.505594
163486.171372,5255.462188,-9474.636058,6052.154434
163486.171692,296.082377,-8956.491898,3064.381992
163486.172011,-3923.091493,-9770.718434,-1149.143247
163486.172331,-4663.297435,-11843.295072,-1378.971896
163486.172650,-2590.720797,-10658.965565,-1225.752797
163486.172970,-4737.318029,-8364.327145,-4903.011187
163486.173289,-2886.803174,-8882.471304,-1532.190996
163486.173609,-2220.617826,-6587.832884,-4903.011187
163486.173928,-740.205942,-9548.656652,-1991.848295
163486.174248,3775.050304,-9474.636058,1149.143247
163486.174567,6439.791695,-10658.965565,3600.648841
163486.174887,4663.297435,-10955.047942,4673.182538
163486.175206,-1258.350101,-9474.636058,-842.705048
163486.175526,-4811.338623,-11843.295072,-1302.362347
163486.175845,-2960.823768,-11621.233289,0.000000
163486.176165,-3552.988522,-9548.656652,-2451.505594
163486.176484,-2220.617826,-9400.615463,-306.438199
163486.176804,-296.082377,-7179.997637,-1455.581446
163486.177123,1850.514855,-7179.997637,-1149.143247
163486.177443,5551.544565,-8364.327145,2681.334243
163486.177762,5551.544565,-7994.224174,2604.724693
163486.178082,3775.050304,-10066.800811,2987.772442
163486.178401,-74.020594,-11843.295072,2298.286494
163486.178721,-3034.844362,-11843.295072,-1608.800546
163486.179040,-4737.318029,-11917.315666,0.000000
163486.179360,-1332.370696,-10288.862594,-766.095498
163486.179679,-1184.329507,-8734.430116,76.609550
163486.179999,-2368.659014,-6587.832884,-1685.410096
163486.180318,-1998.556043,-5847.626942,-3064.381992
163486.180638,-74.020594,-7994.224174,-1915.238745
163486.180957,1776.494261,-8364.327145,1225.752797
163486.181277,2368.659014,-8364.327145,2451.505594
163486.181596,1036.288319,-10214.842000,1762.019645
163486.181916,-3034.844362,-10510.924376,-1915.238745
163486.182235,-5921.647536,-11917.315666,-2451.505594
163486.182555,-3330.926739,-12509.480420,-2604.724693
163486.182874,-2738.761985,-12139.377449,-1685.410096
163486.183194,-3330.926739,-9178.553681,-1838.629195
163486.183513,-1702.473667,-6069.688724,-2987.772442
163486.183833,2294.638420,-5921.647536,-76.609550
163486.184152,6735.874072,-8882.471304,2987.772442
163486.184472,5329.482782,-6587.832884,3753.867940
163486.184791,4885.359217,-8660.409521,2451.505594
163486.185111,3182.885551,-11177.109724,3600.648841
163486.185430,-4737.318029,-10140.821405,-2298.286494
163486.185750,-4219.173869,-13619.789333,-1685.410096
163486.186069,-2960.823768,-11991.336260,-2068.457845
163486.186389,-2812.782580,-9992.780217,-1762.019645
163486.186708,-2146.597232,-7698.141797,-2374.896044
163486.187028,-888.247130,-8142.265362,-1915.238745
163486.187347,1702.473667,-8882.471304,-76.609550
163486.187667,4071.132681,-8290.306550,3600.648841
163486.187986,3034.844362,-6661.853478,2451.505594
163486.188306,3997.112087,-9474.636058,4826.401637
163486.188625,-2368.659014,-8512.368333,-1378.971896
163486.188945,-3034.844362,-11843.295072,-459.657299
163486.189264,-1776.494261,-12139.377449,-842.705048
163486.189584,-1776.494261,-11325.150913,-1225.752797
163486.189903,-4441.235652,-9548.656652,-2451.505594
163486.190223,-2812.782580,-8068.244768,-3447.429741
163486.190542,0.000000,-8364.327145,-1225.752797
163486.190862,4589.276840,-9696.697840,1915.238745
163486.191181,6291.750507,-8882.471304,2987.772442
163486.191501,5847.626942,-10658.965565,4826.401637
163486.191820,148.041188,-7476.080014,0.000000
163486.192140,-1998.556043,-10214.842000,-1072.533697
163486.192459,-666.185348,-12287.418637,0.000000
163486.192779,-2368.659014,-9548.656652,0.000000
163486.193098,-3256.906145,-9548.656652,0.000000
163486.193418,-4589.276840,-6587.832884,-2451.505594
163486.193737,-2368.659014,-7476.080014,-2451.505594
163486.194057,1628.453072,-9770.718434,919.314598
163486.194376,5847.626942,-8882.471304,2374.896044
163486.194696,2664.741391,-9252.574275,3370.820191
163486.195015,-222.061783,-7994.224174,612.876398
163486.195335,-3404.947333,-7698.141797,-2145.067394
163486.195654,-4737.318029,-10732.986159,-2451.505594
163486.195974,-4145.153275,-10140.821405,-2987.772442
163486.196293,-1258.350101,-11843.295072,-1302.362347
163486.196613,-5625.565159,-8364.327145,-2451.505594
163486.196932,-4737.318029,-7476.080014,-4903.011187
163486.197252,-2072.576638,-10140.821405,-1225.752797
163486.197571,4663.297435,-9474.636058,-76.609550
163486.197891,4441.235652,-7179.997637,3524.039291
163486.198210,2368.659014,-7476.080014,2681.334243
163486.198530,-1702.473667,-6883.915261,-1378.971896
163486.198849,-1924.535449,-10881.027347,-1302.362347
163486.199169,-1258.350101,-11917.315666,0.000000
163486.199488,-74.020594,-11251.130318,-383.047749
163486.199808,-2516.700203,-11103.089130,-689.485948
163486.200127,-5033.400406,-7179.997637,-3677.258390
163486.200447,-4145.153275,-5995.668130,-4290.134789
163486.200766,2294.638420,-10658.965565,1149.143247
163486.201086,4959.379811,-8660.409521,2911.162892
163486.201405,4071.132681,-7920.203579,2911.162892
163486.201725,222.061783,-6735.874072,1225.752797
163486.202044,-2368.659014,-8660.409521,306.438199
163486.202364,-2368.659014,-11843.295072,-306.438199
163486.202683,0.000000,-10732.986159,612.876398
163486.203003,-592.164754,-12435.459826,1532.190996
163486.203322,-3775.050304,-10066.800811,-76.609550
163486.203642,-5107.421000,-7179.997637,-5669.106685
163486.203961,-370.102971,-10214.842000,-1302.362347
163486.204281,2812.782580,-8586.388927,1225.752797
163486.204600,3775.050304,-8068.244768,2451.505594
163486.204920,1998.556043,-7772.162391,2068.457845
163486.205239,-1184.329507,-7179.997637,-919.314598
163486.205559,-5773.606348,-7772.162391,-4290.134789
163486.205878,-296.082377,-13027.624579,459.657299
163486.206198,-74.020594,-11251.130318,-76.609550
163486.206517,-666.185348,-9770.718434,-1608.800546
163486.206837,-74.020594,-10658.965565,-689.485948
163486.207156,-2368.659014,-8438.347739,-3064.381992
163486.207476,2886.803174,-9474.636058,919.314598
163486.207795,6809.894666,-8364.327145,2298.286494
163486.208115,4737.318029,-7476.080014,4903.011187
163486.208434,1850.514855,-7031.956449,1225.752797
163486.208754,-74.020594,-8882.471304,-2528.115143
163486.209073,74.020594,-11843.295072,-689.485948
163486.209393,0.000000,-10436.903782,0.000000
163486.209712,1702.473667,-13915.871710,3600.648841
163486.210032,-2368.659014,-8364.327145,0.000000
163486.210351,-1850.514855,-7402.059420,-2221.676944
163486.210671,444.123565,-8734.430116,-383.047749
163486.210990,4071.132681,-8068.244768,919.314598
163486.211310,2590.720797,-5995.668130,0.000000
163486.211629,1702.473667,-7698.141797,1532.190996
163486.211949,-1998.556043,-6883.915261,-2987.772442
163486.212268,-3701.029710,-10436.903782,-3370.820191
163486.212588,-1850.514855,-14211.954086,-1915.238745
163486.212907,-74.020594,-14211.954086,-1838.629195
163486.213227,-2442.679609,-13397.727550,-76.609550
163486.213546,-3627.009116,-8882.471304,-3140.991542
163486.213866,-2368.659014,-7624.121203,-3447.429741
163486.214185,3552.988522,-8364.327145,2451.505594
163486.214505,5847.626942,-5403.503377,2604.724693
163486.214824,4293.194464,-6661.853478,3600.648841
163486.215144,-296.082377,-6661.853478,0.000000
163486.215463,-2072.576638,-9104.533087,-2221.676944
163486.215783,-74.020594,-11769.274478,-383.047749
163486.216102,1406.391290,-12435.459826,229.828649
163486.216422,-2072.576638,-12509.480420,1072.533697
163486.216741,-4737.318029,-9548.656652,0.000000
163486.217061,-4293.194464,-9474.636058,-2834.553343
163486.217380,-4737.318029,-8364.327145,0.000000
163486.217700,1702.473667,-7920.203579,995.924147
163486.218019,1480.411884,-7328.038826,1915.238745
163486.218339,-1332.370696,-6735.874072,2068.457845
163486.218658,-2812.782580,-5995.668130,-1762.019645
163486.218978,-2590.720797,-9474.636058,-1455.581446
163486.219297,-2664.741391,-10140.821405,-919.314598
163486.219617,-4737.318029,-9548.656652,0.000000
163486.219936,-3182.885551,-13027.624579,1455.581446
163486.220256,-2664.741391,-9474.636058,-1302.362347
163486.220575,-3552.988522,-8364.327145,0.000000
163486.220895,1702.473667,-9474.636058,229.828649
163486.221214,1628.453072,-7772.162391,-383.047749
163486.221534,-1258.350101,-8956.491898,229.828649
163486.221853,-1258.350101,-6513.812290,-2834.553343
163486.222173,-2442.679609,-9474.636058,-1302.362347
163486.222492,2294.638420,-11843.295072,1149.143247
163486.222812,1998.556043,-9252.574275,689.485948
163486.223131,1184.329507,-9770.718434,2987.772442
163486.223451,1628.453072,-9252.574275,2757.943793
163486.223770,-2368.659014,-7179.997637,-1225.752797
163486.224090,666.185348,-9474.636058,229.828649
163486.224409,3108.864956,-8882.471304,306.438199
163486.224729,1628.453072,-9104.533087,919.314598
163486.225048,1110.308913,-8734.430116,-919.314598
163486.225368,-74.020594,-9474.636058,-689.485948
163486.225687,-666.185348,-9918.759623,-2221.676944
163486.226007,1184.329507,-9770.718434,-689.485948
163486.226326,0.000000,-9548.656652,0.000000
163486.226646,-296.082377,-12805.562797,2681.334243
163486.226965,-1924.535449,-8364.327145,-2451.505594
163486.227285,444.123565,-9844.739029,229.828649
163486.227604,3997.112087,-9030.512492,2145.067394
163486.227924,3627.009116,-7476.080014,612.876398
163486.228243,0.000000,-7031.956449,0.000000
163486.228563,-444.123565,-6661.853478,-2221.676944
163486.228882,-74.020594,-11547.212695,-1608.800546
163486.229202,-74.020594,-11695.253884,-2834.553343
163486.229521,814.226536,-12435.459826,-1608.800546
163486.229841,0.000000,-13693.809927,1455.581446
163486.230160,-1776.494261,-10955.047942,-1072.533697
163486.230480,-1036.288319,-10658.965565,-612.876398
163486.230799,1628.453072,-10288.862594,1608.800546
163486.231119,1776.494261,-4811.338623,612.876398
163486.231438,888.247130,-4219.173869,2451.505594
163486.231758,0.000000,-2442.679609,0.000000
163486.232077,0.000000,-6291.750507,-842.705048
163486.232397,-74.020594,-9474.636058,-76.609550
163486.232716,-74.020594,-11843.295072,-689.485948
163486.233036,-3552.988522,-12065.356855,-1532.190996
163486.233355,-5403.503377,-12583.501014,-2834.553343
163486.233675,-4515.256246,-11843.295072,-3064.381992
163486.233994,-2960.823768,-11251.130318,-842.705048
163486.234314,-666.185348,-8438.347739,1149.143247
163486.234633,3478.967927,-8882.471304,2987.772442
163486.234953,0.000000,-4663.297435,153.219100
163486.235272,-1184.329507,-4293.194464,-3677.258390
163486.235592,-74.020594,-9474.636058,-76.609550
163486.235911,2294.638420,-11843.295072,-76.609550
163486.236231,-666.185348,-10140.821405,0.000000
163486.236550,-2146.597232,-12435.459826,153.219100
163486.236870,-3627.009116,-10955.047942,-2528.115143
163486.237189,-3849.070898,-11917.315666,-1838.629195
163486.237509,-1702.473667,-10732.986159,0.000000
163486.237828,1036.288319,-10066.800811,-76.609550
163486.238148,-592.164754,-8660.409521,1532.190996
163486.238467,-74.020594,-6809.894666,-76.609550
163486.238787,-1924.535449,-3923.091493,-2604.724693
163486.239107,3478.967927,-9474.636058,2987.772442
163486.239426,3330.926739,-7476.080014,2681.334243
163486.239746,1184.329507,-9696.697840,1991.848295
163486.240065,-1258.350101,-9992.780217,689.485948
163486.240385,-4145.153275,-10732.986159,-1838.629195
163486.240704,-2960.823768,-12213.398043,0.000000
163486.241024,0.000000,-9548.656652,0.000000
163486.241343,-1036.288319,-9548.656652,612.876398
163486.241663,-1258.350101,-8882.471304,1762.019645
163486.241982,-370.102971,-3108.864956,-3753.867940
163486.242302,-666.185348,-7772.162391,-1072.533697
163486.242621,2294.638420,-7772.162391,766.095498
163486.242941,1702.473667,-8808.450710,229.828649
163486.243260,222.061783,-11547.212695,1685.410096
163486.243580,-2368.659014,-8364.327145,-1225.752797
163486.243900,-4367.215058,-10732.986159,-3370.820191
163486.244219,-2368.659014,-11917.315666,-1225.752797
163486.244539,592.164754,-10658.965565,0.000000
163486.244858,1406.391290,-10658.965565,-76.609550
163486.245178,1998.556043,-8586.388927,-1302.362347
163486.245497,0.000000,-7624.121203,-2528.115143
163486.245817,3478.967927,-8956.491898,306.438199
163486.246136,4959.379811,-7920.203579,1149.143247
163486.246456,592.164754,-7772.162391,2451.505594
163486.246775,1406.391290,-9252.574275,612.876398
163486.247095,1998.556043,-11177.109724,-76.609550
163486.247414,666.185348,-13027.624579,1762.019645
163486.247734,0.000000,-7920.203579,0.000000
163486.248053,444.123565,-10658.965565,3217.601092
163486.248373,-2368.659014,-6587.832884,-1225.752797
163486.248693,-1628.453072,-6365.771101,-3677.258390
163486.249012,-1776.494261,-8660.409521,-1762.019645
163486.249332,444.123565,-8586.388927,-612.876398
163486.249651,-74.020594,-8290.306550,-4979.620737
163486.249971,-1480.411884,-10955.047942,-306.438199
163486.250290,-1850.514855,-9622.677246,-1762.019645
163486.250610,-1776.494261,-12065.356855,229.828649
163486.250929,1702.473667,-12435.459826,2987.772442
163486.251249,2220.617826,-10140.821405,1225.752797
163486.251568,0.000000,-9104.533087,2451.505594
163486.251888,-666.185348,-6809.894666,-2528.115143
163486.252207,-1850.514855,-7698.141797,-3140.991542
163486.252527,-2368.659014,-8364.327145,-2451.505594
163486.252846,-74.020594,-8882.471304,-1915.238745
163486.253166,-1924.535449,-11473.192101,0.000000
163486.253486,-1184.329507,-10436.903782,-1302.362347
163486.253805,-2294.638420,-10658.965565,0.000000
163486.254125,-814.226536,-11695.253884,2451.505594
163486.254444,814.226536,-9474.636058,1915.238745
163486.254764,-2072.576638,-7920.203579,1532.190996
163486.255083,-3552.988522,-5995.668130,306.438199
163486.255403,-2516.700203,-7179.997637,-1302.362347
163486.255722,-4737.318029,-6587.832884,0.000000
163486.256042,-74.020594,-8882.471304,-306.438199
163486.256361,-370.102971,-9030.512492,-383.047749
163486.256681,0.000000,-10140.821405,536.266849
163486.257000,-370.102971,-10658.965565,0.000000
163486.257320,-74.020594,-13027.624579,2374.896044
163486.257639,0.000000,-10214.842000,1072.533697
163486.257959,-1406.391290,-6735.874072,-1762.019645
163486.258279,-2368.659014,-8068.244768,306.438199
163486.258598,-1258.350101,-7031.956449,-76.609550
163486.258918,-4737.318029,-5403.503377,-2451.505594
163486.259237,-74.020594,-7846.182985,-612.876398
163486.259557,444.123565,-8364.327145,-1608.800546
163486.259876,592.164754,-9918.759623,459.657299
163486.260196,2294.638420,-9474.636058,-689.485948
163486.260515,-74.020594,-13027.624579,-76.609550
163486.260835,2294.638420,-13915.871710,-76.609550
163486.261154,444.123565,-9696.697840,-383.047749
163486.261474,-2072.576638,-9548.656652,-2451.505594
163486.261793,-2072.576638,-8068.244768,-1532.190996
163486.262113,-2960.823768,-5995.668130,-3983.696590
163486.262432,1702.473667,-8882.471304,459.657299
163486.262752,5033.400406,-7476.080014,1302.362347
163486.263072,3997.112087,-8512.368333,2528.115143
163486.263391,4071.132681,-9474.636058,2298.286494
163486.263711,1184.329507,-9548.656652,153.219100
163486.264030,1850.514855,-13323.706956,1149.143247
163486.264350,1110.308913,-14211.954086,2374.896044
163486.264669,-1184.329507,-9548.656652,-1302.362347
163486.264989,-3552.988522,-8956.491898,0.000000
163486.265308,-4219.173869,-7179.997637,-4673.182538
163486.265628,-3701.029710,-8734.430116,-3983.696590
163486.265947,-740.205942,-8512.368333,-2528.115143
163486.266267,370.102971,-7772.162391,-2451.505594
163486.266586,0.000000,-8956.491898,0.000000
163486.266906,0.000000,-9548.656652,153.219100
163486.267225,0.000000,-9548.656652,612.876398
163486.267545,3478.967927,-12879.583391,4519.963438
163486.267865,1702.473667,-11251.130318,2374.896044
163486.268184,-2960.823768,-9548.656652,1225.752797
163486.268504,-3923.091493,-7105.977043,-3064.381992
163486.268823,-3478.967927,-8142.265362,-4443.353888
163486.269143,-962.267725,-9918.759623,-1991.848295
163486.269462,148.041188,-6587.832884,-3677.258390
163486.269782,-74.020594,-8882.471304,-76.609550
163486.270101,-74.020594,-9474.636058,-1608.800546
163486.270421,0.000000,-9548.656652,0.000000
163486.270740,1998.556043,-12805.562797,4826.401637
163486.271060,3478.967927,-12435.459826,4826.401637
163486.271379,0.000000,-8956.491898,3217.601092
163486.271699,-1628.453072,-7328.038826,995.924147
163486.272018,-3330.926739,-6291.750507,-2298.286494
163486.272338,-3997.112087,-8660.409521,-1762.019645
163486.272658,-2590.720797,-6809.894666,-1915.238745
163486.272977,-74.020594,-9474.636058,-383.047749
163486.273297,-1850.514855,-9474.636058,-689.485948
163486.273616,-2072.576638,-7105.977043,-3140.991542
163486.273936,-3552.988522,-10732.986159,0.000000
163486.274255,2294.638420,-14211.954086,3600.648841
163486.274575,0.000000,-9844.739029,995.924147
163486.274894,-2368.659014,-9326.594869,766.095498
163486.275214,-3256.906145,-7328.038826,-2528.115143
163486.275533,-4145.153275,-7772.162391,-2451.505594
163486.275853,0.000000,-7179.997637,0.000000
163486.276172,2368.659014,-7846.182985,-306.438199
163486.276492,1258.350101,-9844.739029,1225.752797
163486.276811,4071.132681,-9474.636058,-76.609550
163486.277131,2294.638420,-9474.636058,-76.609550
163486.277451,4367.215058,-14211.954086,3753.867940
163486.277770,2072.576638,-11029.068536,1608.800546
163486.278090,222.061783,-10732.986159,1991.848295
163486.278409,-1998.556043,-7624.121203,-612.876398
163486.278729,-4737.318029,-5995.668130,-3370.820191
163486.279048,-4293.194464,-7772.162391,-1685.410096
163486.279368,592.164754,-6587.832884,0.000000
163486.279687,4663.297435,-8882.471304,1762.019645
163486.280007,1332.370696,-7476.080014,612.876398
163486.280326,2294.638420,-7698.141797,-2528.115143
163486.280646,518.144159,-12435.459826,-76.609550
163486.280965,2368.659014,-12657.521608,995.924147
163486.281285,962.267725,-12435.459826,76.609550
163486.281604,-2516.700203,-11029.068536,-1378.971896
163486.281924,-7105.977043,-7179.997637,-5822.325785
163486.282244,-3627.009116,-8290.306550,-5592.497135
163486.282563,148.041188,-7772.162391,-2451.505594
163486.282883,3997.112087,-7179.997637,0.000000
163486.283202,4737.318029,-8290.306550,2681.334243
163486.283522,5107.421000,-9474.636058,2068.457845
163486.283841,2368.659014,-9030.512492,-306.438199
163486.284161,4515.256246,-11843.295072,2374.896044
163486.284480,3997.112087,-10807.006753,2298.286494
163486.284800,-2368.659014,-9548.656652,306.438199
163486.285119,-3552.988522,-8882.471304,-1838.629195
163486.285439,-5033.400406,-8734.430116,-3524.039291
163486.285758,-2442.679609,-11843.295072,-842.705048
163486.286078,-74.020594,-7105.977043,-2528.115143
163486.286397,0.000000,-8364.327145,1838.629195
163486.286717,0.000000,-6291.750507,612.876398
163486.287037,1332.370696,-8364.327145,383.047749
163486.287356,2072.576638,-11325.150913,3140.991542
163486.287676,3256.906145,-11621.233289,3907.087040
163486.287995,1110.308913,-10362.883188,2374.896044
163486.288315,-3256.906145,-10436.903782,1302.362347
163486.288634,-5329.482782,-8216.285956,-2451.505594
163486.288954,-5921.647536,-9770.718434,-2451.505594
163486.289273,-370.102971,-10510.924376,-76.609550
163486.289593,888.247130,-7772.162391,-76.609550
163486.289912,-2368.659014,-7179.997637,0.000000
163486.290232,-148.041188,-7698.141797,-1302.362347
163486.290551,-1258.350101,-11843.295072,-76.609550
163486.290871,-2368.659014,-11325.150913,0.000000
163486.291190,-74.020594,-11843.295072,-76.609550
163486.291510,-3997.112087,-12065.356855,1225.752797
163486.291830,-4293.194464,-9104.533087,-1149.143247
163486.292149,-5107.421000,-7846.182985,-2911.162892
163486.292469,-2072.576638,-8734.430116,-76.609550
163486.292788,1998.556043,-7105.977043,-76.609550
163486.293108,592.164754,-5995.668130,306.438199
163486.293427,0.000000,-5995.668130,0.000000
163486.293747,1480.411884,-10436.903782,689.485948
163486.294066,0.000000,-10732.986159,0.000000
163486.294386,3478.967927,-12139.377449,2374.896044
163486.294705,370.102971,-11917.315666,1532.190996
163486.295025,-2442.679609,-10658.965565,306.438199
163486.295344,-3923.091493,-7772.162391,-3140.991542
163486.295664,-3330.926739,-8882.471304,-2068.457845
163486.295983,-370.102971,-6587.832884,-1915.238745
163486.296303,222.061783,-4293.194464,-2911.162892
163486.296623,296.082377,-5995.668130,0.000000
163486.296942,888.247130,-6809.894666,-76.609550
163486.297262,0.000000,-9548.656652,0.000000
163486.297581,3478.967927,-12731.542202,1149.143247
163486.297901,1776.494261,-12509.480420,995.924147
163486.298220,-2368.659014,-11769.274478,0.000000
163486.298540,-4811.338623,-8882.471304,-4979.620737
163486.298859,-1850.514855,-9474.636058,-4366.744339
163486.299179,1702.473667,-10658.965565,-1302.362347
163486.299498,2368.659014,-6143.709319,-1225.752797
163486.299818,2960.823768,-6217.729913,229.828649
163486.300137,3552.988522,-7179.997637,1225.752797
163486.300457,1184.329507,-7179.997637,-1838.629195
163486.300776,3478.967927,-11769.274478,1915.238745
163486.301096,4589.276840,-11621.233289,2757.943793
163486.301416,2146.597232,-11843.295072,2834.553343
163486.301735,-370.102971,-11547.212695,306.438199
163486.302055,-4737.318029,-8364.327145,-2451.505594
163486.302374,-3627.009116,-9474.636058,-3140.991542
163486.302694,-962.267725,-7698.141797,-2528.115143
163486.303013,-1406.391290,-6291.750507,-2374.896044
163486.303333,0.000000,-7179.997637,1225.752797
163486.303652,148.041188,-7254.018232,-1149.143247
163486.303972,2516.700203,-10140.821405,2374.896044
163486.304291,4219.173869,-10658.965565,3983.696590
163486.304611,2368.659014,-10732.986159,1685.410096
163486.304930,-3330.926739,-9844.739029,0.000000
163486.305250,-7105.977043,-8512.368333,-3217.601092
163486.305569,-9474.636058,-7772.162391,-6128.763984
163486.305889,-3552.988522,-10436.903782,-1378.971896
163486.306209,-74.020594,-9474.636058,-1302.362347
163486.306528,-2072.576638,-8364.327145,153.219100
163486.306848,222.061783,-7105.977043,-1072.533697
163486.307167,888.247130,-8660.409521,-536.266849
163486.307487,3552.988522,-11029.068536,3370.820191
163486.307806,3478.967927,-9548.656652,0.000000
163486.308126,814.226536,-10658.965565,3600.648841
163486.308445,-1850.514855,-8882.471304,229.828649
163486.308765,-5921.647536,-8364.327145,-2451.505594
163486.309084,-4145.153275,-9548.656652,-3677.258390
163486.309404,-74.020594,-9474.636058,-76.609550
163486.309723,-2368.659014,-7772.162391,-1225.752797
163486.310043,0.000000,-7031.956449,-536.266849
163486.310362,1332.370696,-7624.121203,0.000000
163486.310682,2590.720797,-10362.883188,1838.629195
163486.311002,3478.967927,-9326.594869,2374.896044
163486.311321,2812.782580,-12731.542202,3524.039291
163486.311641,-2442.679609,-10658.965565,536.266849
163486.311960,-6513.812290,-8290.306550,-4979.620737
163486.312280,-7105.977043,-9548.656652,-3677.258390
163486.312599,-1258.350101,-11843.295072,-76.609550
163486.312919,-1702.473667,-6735.874072,-2451.505594
163486.313238,-518.144159,-7846.182985,-1225.752797
163486.313558,962.267725,-6069.688724,-1685.410096
163486.313877,592.164754,-8364.327145,0.000000
163486.314197,2368.659014,-10140.821405,1225.752797
163486.314516,4293.194464,-12953.603985,2681.334243
163486.314836,1110.308913,-14211.954086,3600.648841
163486.315155,-3330.926739,-7920.203579,-1915.238745
163486.315475,-3627.009116,-8290.306550,-3753.867940
163486.315795,-666.185348,-11029.068536,-383.047749
163486.316114,222.061783,-6883.915261,-842.705048
163486.316434,518.144159,-7402.059420,612.876398
163486.316753,1480.411884,-5625.565159,-153.219100
163486.317073,0.000000,-5995.668130,0.000000
163486.317392,3552.988522,-10140.821405,1838.629195
163486.317712,2368.659014,-7772.162391,0.000000
163486.318031,1776.494261,-12065.356855,2757.943793
163486.318351,-962.267725,-11843.295072,612.876398
163486.318670,-1258.350101,-9474.636058,-3753.867940
163486.318990,-4293.194464,-11029.068536,-2451.505594
163486.319309,-2146.597232,-9030.512492,-1915.238745
163486.319629,-444.123565,-7698.141797,-1532.190996
163486.319948,1332.370696,-7031.956449,1762.019645
163486.320268,296.082377,-4367.215058,0.000000
163486.320588,4663.297435,-8882.471304,536.266849
163486.320907,3552.988522,-9548.656652,2451.505594
163486.321227,3849.070898,-10955.047942,3600.648841
163486.321546,-74.020594,-14211.954086,-76.609550
163486.321866,-3256.906145,-11473.192101,-612.876398
163486.322185,-5995.668130,-10881.027347,-4060.306139
163486.322505,-3923.091493,-10658.965565,-2451.505594
163486.322824,-2294.638420,-8290.306550,-1838.629195
163486.323144,-2960.823768,-5995.668130,-2451.505594
163486.323463,1480.411884,-6143.709319,-383.047749
163486.323783,4145.153275,-7254.018232,1455.581446
163486.324102,7031.956449,-11843.295072,6052.154434
163486.324422,4737.318029,-7772.162391,2911.162892
163486.324741,2960.823768,-11029.068536,6741.640382
163486.325061,-2368.659014,-9548.656652,306.438199
163486.325381,-4737.318029,-10955.047942,-2528.115143
163486.325700,-5921.647536,-12139.377449,-2681.334243
163486.326020,-3256.906145,-10436.903782,-1915.238745
163486.326339,-74.020594,-9178.553681,-1302.362347
163486.326659,-1184.329507,-7031.956449,0.000000
163486.326978,592.164754,-4959.379811,-995.924147
163486.327298,1998.556043,-6957.935855,766.095498
163486.327617,4219.173869,-9252.574275,2451.505594
163486.327937,0.000000,-9548.656652,2068.457845
163486.328256,-4737.318029,-10288.862594,0.000000
163486.328576,-4959.379811,-10955.047942,-1991.848295
163486.328895,-4811.338623,-13027.624579,-1915.238745
163486.329215,-5773.606348,-9548.656652,-4290.134789
163486.329534,-2442.679609,-9474.636058,-3140.991542
163486.329854,-2220.617826,-7772.162391,-1685.410096
163486.330174,444.123565,-5477.523971,-2221.676944
163486.330493,2960.823768,-7772.162391,-689.485948
163486.330813,4737.318029,-9474.636058,3677.258390
163486.331132,6143.709319,-10658.965565,3677.258390
163486.331452,1850.514855,-9992.780217,2451.505594
163486.331771,-3552.988522,-9548.656652,0.000000
163486.332091,-3404.947333,-11843.295072,-1838.629195
163486.332410,-5699.585753,-9696.697840,-4749.792088
163486.332730,-2738.761985,-9474.636058,-1302.362347
163486.333049,-1628.453072,-7476.080014,-995.924147
163486.333369,518.144159,-6365.771101,0.000000
163486.333688,1258.350101,-5107.421000,-995.924147
163486.334008,3478.967927,-9474.636058,2374.896044
163486.334327,2886.803174,-9474.636058,2374.896044
163486.334647,2294.638420,-11843.295072,-76.609550
163486.334967,-3404.947333,-10955.047942,-1608.800546
163486.335286,-5921.647536,-10362.883188,-2451.505594
163486.335606,-6883.915261,-10140.821405,-5286.058936
163486.335925,-2368.659014,-10807.006753,-1991.848295
163486.336245,-1406.391290,-8142.265362,-919.314598
163486.336564,222.061783,-7179.997637,0.000000
163486.336884,3478.967927,-8290.306550,-383.047749
163486.337203,6439.791695,-9474.636058,0.000000
163486.337523,5329.482782,-10881.027347,3983.696590
163486.337842,4663.297435,-10362.883188,2681.334243
163486.338162,1998.556043,-13027.624579,3600.648841
163486.338481,-3552.988522,-8364.327145,0.000000
163486.338801,-3627.009116,-10140.821405,-2528.115143
163486.339121,-2664.741391,-10510.924376,-919.314598
163486.339441,-1036.288319,-9178.553681,-842.705048
163486.339760,-370.102971,-7698.141797,306.438199
163486.340080,740.205942,-6587.832884,689.485948
163486.340400,592.164754,-5403.503377,-1225.752797
163486.340720,3552.988522,-8956.491898,1838.629195
163486.341039,5403.503377,-10066.800811,6052.154434
163486.341359,3478.967927,-11251.130318,3294.210641
163486.341679,-2960.823768,-9548.656652,612.876398
163486.341998,-3997.112087,-8364.327145,-4060.306139
163486.342318,-4737.318029,-12287.418637,-1915.238745
163486.342638,-3330.926739,-11029.068536,-1838.629195
163486.342958,-2738.761985,-8734.430116,-1608.800546
163486.343277,-1406.391290,-7550.100608,-1302.362347
163486.343597,-1332.370696,-5403.503377,-3064.381992
163486.343917,296.082377,-6957.935855,-2528.115143
163486.344237,2368.659014,-8364.327145,2451.505594
163486.344556,5921.647536,-10066.800811,4519.963438
163486.344876,0.000000,-9548.656652,2451.505594
163486.345196,-888.247130,-9622.677246,-76.609550
163486.345516,-3034.844362,-10732.986159,-2451.505594
163486.345835,-2812.782580,-11843.295072,-2068.457845
163486.346155,-1406.391290,-8882.471304,-2834.553343
163486.346475,-1258.350101,-9178.553681,-1915.238745
163486.346794,-296.082377,-7550.100608,-1302.362347
163486.347114,1110.308913,-6661.853478,-2834.553343
163486.347434,2368.659014,-9252.574275,1608.800546
163486.347754,5921.647536,-9252.574275,4596.572988
163486.348073,2368.659014,-7772.162391,2451.505594
163486.348393,-666.185348,-9474.636058,-76.609550
163486.348713,-4737.318029,-9548.656652,-2528.115143
163486.349033,-4737.318029,-11843.295072,-1532.190996
163486.349352,-1258.350101,-9474.636058,-76.609550
163486.349672,-1480.411884,-10066.800811,-76.609550
163486.349992,-3627.009116,-9474.636058,-1302.362347
163486.350311,-2664.741391,-6069.688724,-3140.991542
163486.350631,-74.020594,-8290.306550,-1302.362347
163486.350951,4145.153275,-11547.212695,3524.039291
163486.351271,1924.535449,-9548.656652,1608.800546
163486.351590,296.082377,-10288.862594,1762.019645
163486.351910,-2516.700203,-8216.285956,-1455.581446
163486.352230,-4515.256246,-11029.068536,-3370.820191
163486.352550,-2442.679609,-11695.253884,-1838.629195
163486.352869,-2368.659014,-9992.780217,-842.705048
163486.353189,-2442.679609,-9178.553681,1149.143247
163486.353509,-666.185348,-7105.977043,-2528.115143
163486.353829,74.020594,-8290.306550,-1302.362347
163486.354148,5329.482782,-10436.903782,4519.963438
163486.354468,5847.626942,-7476.080014,2681.334243
163486.354788,2886.803174,-10066.800811,3140.991542
163486.355107,-592.164754,-9252.574275,-306.438199
163486.355427,-4737.318029,-7179.997637,-4903.011187
163486.355747,-3034.844362,-11769.274478,-1762.019645
163486.356067,0.000000,-9696.697840,-1915.238745
163486.356386,-2368.659014,-9548.656652,0.000000
163486.356706,-1036.288319,-7772.162391,153.219100
163486.357026,2294.638420,-8290.306550,-76.609550
163486.357346,3256.906145,-8512.368333,1378.971896
163486.357665,6513.812290,-8142.265362,3217.601092
163486.357985,4367.215058,-7920.203579,2911.162892
163486.358305,-444.123565,-9252.574275,1149.143247
163486.358625,-4737.318029,-6587.832884,-3677.258390
163486.358944,-3627.009116,-11843.295072,-3140.991542
163486.359264,-4737.318029,-10140.821405,-2451.505594
163486.359584,-2516.700203,-10658.965565,-2451.505594
163486.359903,-2812.782580,-10732.986159,612.876398
163486.360223,-1184.329507,-7476.080014,-1225.752797
163486.360543,1628.453072,-7179.997637,-1608.800546
163486.360863,4589.276840,-8660.409521,1838.629195
163486.361182,6069.688724,-8660.409521,2374.896044
163486.361502,3256.906145,-8364.327145,2451.505594
163486.361822,1776.494261,-7772.162391,306.438199
163486.362142,-1184.329507,-10140.821405,-612.876398
163486.362461,-740.205942,-12731.542202,-76.609550
163486.362781,2294.638420,-13027.624579,-76.609550
163486.363101,-1776.494261,-8364.327145,0.000000
163486.363420,-3330.926739,-7179.997637,-2451.505594
163486.363740,-2368.659014,-7328.038826,-2604.724693
163486.364060,-222.061783,-9400.615463,383.047749
163486.364380,3108.864956,-6735.874072,1149.143247
163486.364699,4071.132681,-9474.636058,2374.896044
163486.365019,-2072.576638,-8068.244768,612.876398
163486.365339,-4219.173869,-8290.306550,-2681.334243
163486.365659,-5255.462188,-11251.130318,-2145.067394
163486.365978,-4219.173869,-11473.192101,-383.047749
163486.366298,-4737.318029,-10140.821405,0.000000
163486.366618,-7105.977043,-8364.327145,-2451.505594
163486.366938,-2442.679609,-8586.388927,-1991.848295
163486.367257,-1258.350101,-8882.471304,-842.705048
163486.367577,2738.761985,-7179.997637,0.000000
163486.367897,7031.956449,-9474.636058,2374.896044
163486.368216,1332.370696,-9178.553681,2451.505594
163486.368536,-1924.535449,-8216.285956,-2068.457845
163486.368856,-3997.112087,-11103.089130,-2451.505594
163486.369176,-2368.659014,-11917.315666,-1149.143247
163486.369495,-370.102971,-10140.821405,-612.876398
163486.369815,-2960.823768,-8956.491898,306.438199
163486.370135,-1776.494261,-7698.141797,-2451.505594
163486.370455,-2368.659014,-7476.080014,-1072.533697
163486.370774,1406.391290,-7105.977043,-536.266849
163486.371094,4663.297435,-7698.141797,2987.772442
163486.371414,2368.659014,-8586.388927,2911.162892
163486.371734,-370.102971,-7772.162391,612.876398
163486.372053,-2886.803174,-8882.471304,-2145.067394
163486.372373,-2146.597232,-12139.377449,-76.609550
163486.372693,-444.123565,-11769.274478,-995.924147
163486.373012,-2368.659014,-11325.150913,-2451.505594
163486.373332,-3552.988522,-9548.656652,306.438199
163486.373652,-1628.453072,-8290.306550,-1608.800546
163486.373972,1110.308913,-8068.244768,-2604.724693
163486.374291,4589.276840,-9474.636058,1915.238745
163486.374611,4219.173869,-8216.285956,2221.676944
163486.374931,1258.350101,-8290.306550,2451.505594
163486.375251,-370.102971,-8882.471304,-76.609550
163486.375570,-888.247130,-14211.954086,-689.485948
163486.375890,0.000000,-12509.480420,306.438199
163486.376210,2294.638420,-11843.295072,-76.609550
163486.376530,-1702.473667,-10658.965565,536.266849
163486.376849,-4145.153275,-7476.080014,-3677.258390
163486.377169,-666.185348,-7994.224174,-3447.429741
163486.377489,3330.926739,-8882.471304,1072.533697
163486.377808,5625.565159,-8808.450710,2298.286494
163486.378128,3256.906145,-8734.430116,2987.772442
163486.378448,2590.720797,-7994.224174,995.924147
163486.378768,-2960.823768,-7179.997637,-2451.505594
163486.379087,-1184.329507,-11695.253884,-1072.533697
163486.379407,518.144159,-12435.459826,-76.609550
163486.379727,-74.020594,-13619.789333,1455.581446
163486.380047,-4737.318029,-7179.997637,0.000000
163486.380366,-2442.679609,-7994.224174,-2528.115143
163486.380686,74.020594,-9326.594869,-842.705048
163486.381006,4367.215058,-7846.182985,1838.629195
163486.381325,3997.112087,-7328.038826,2528.115143
163486.381645,1110.308913,-7550.100608,1762.019645
163486.381965,-2516.700203,-6143.709319,-3753.867940
163486.382285,-3034.844362,-11917.315666,-3677.258390
163486.382604,0.000000,-12065.356855,-612.876398
163486.382924,-74.020594,-13027.624579,-76.609550
163486.383244,-7105.977043,-9548.656652,-2451.505594
163486.383564,-3775.050304,-9474.636058,-2834.553343
163486.383883,-2590.720797,-8734.430116,-3064.381992
163486.384203,1480.411884,-9474.636058,919.314598
163486.384523,4663.297435,-7105.977043,1149.143247
163486.384843,3478.967927,-8586.388927,2068.457845
163486.385162,-962.267725,-6513.812290,-76.609550
163486.385482,-3849.070898,-8364.327145,-2451.505594
163486.385802,-2368.659014,-10140.821405,0.000000
163486.386121,0.000000,-11473.192101,1608.800546
163486.386441,-1628.453072,-11917.315666,1991.848295
163486.386761,-3478.967927,-9844.739029,-919.314598
163486.387081,-3478.967927,-8586.388927,-1685.410096
163486.387400,-1258.350101,-9178.553681,153.219100
163486.387720,1702.473667,-6513.812290,-76.609550
163486.388040,1998.556043,-9252.574275,4673.182538
163486.388360,-74.020594,-7698.141797,1762.019645
163486.388679,-3552.988522,-5699.585753,-2757.943793
163486.388999,-4737.318029,-8364.327145,-2451.505594
163486.389319,1110.308913,-14211.954086,2068.457845
163486.389639,-2220.617826,-10510.924376,0.000000
163486.389958,-3627.009116,-10658.965565,459.657299
163486.390278,-3478.967927,-8882.471304,-2068.457845
163486.390598,-1406.391290,-9622.677246,-1225.752797
163486.390917,2886.803174,-9770.718434,306.438199
163486.391237,2960.823768,-9252.574275,2451.505594
163486.391557,814.226536,-9104.533087,1225.752797
163486.391877,-666.185348,-9474.636058,-1608.800546
163486.392196,-3923.091493,-9178.553681,-4979.620737
163486.392516,-370.102971,-14211.954086,-76.609550
163486.392836,-888.247130,-11843.295072,0.000000
163486.393156,-1924.535449,-12435.459826,1838.629195
163486.393475,-2590.720797,-9844.739029,1225.752797
163486.393795,-4737.318029,-5995.668130,0.000000
163486.394115,0.000000,-6439.791695,1225.752797
163486.394435,2368.659014,-6291.750507,919.314598
163486.394754,0.000000,-8068.244768,4290.134789
163486.395074,-1258.350101,-7105.977043,2374.896044
163486.395394,-3034.844362,-6513.812290,-2528.115143
163486.395713,-6587.832884,-11399.171507,-3064.381992
163486.396033,-7179.997637,-12213.398043,-4519.963438
163486.396353,-8956.491898,-13249.686362,-3753.867940
163486.396673,-9918.759623,-12213.398043,-2987.772442
163486.396992,-9474.636058,-9548.656652,-2451.505594
163486.397312,-7402.059420,-7476.080014,-2834.553343
163486.397632,-4737.318029,-6291.750507,2451.505594
163486.397952,-74.020594,-6957.935855,4826.401637
163486.398271,-1406.391290,-4145.153275,4826.401637
163486.398591,1184.329507,-7624.121203,7277.907231
163486.398911,-1776.494261,-5403.503377,1149.143247
163486.399230,-4515.256246,-7772.162391,-1608.800546
163486.399550,-8734.430116,-11103.089130,-5362.668486
163486.399870,-13027.624579,-13101.645173,-7354.516781
163486.400190,-8364.327145,-15174.221811,-6128.763984
163486.400509,-6587.832884,-15988.448347,-3140.991542
163486.400829,-5403.503377,-13619.789333,-76.609550
163486.401149,-4219.173869,-8734.430116,-383.047749
163486.401469,-3849.070898,-6587.832884,3753.867940
163486.401788,-3552.988522,-3034.844362,2451.505594
163486.402108,-74.020594,-4737.318029,4213.525239
163486.402428,0.000000,-5107.421000,5286.058936
163486.402748,-370.102971,-6143.709319,4519.963438
163486.403067,-1258.350101,-8290.306550,842.705048
163486.403387,-5255.462188,-10658.965565,-766.095498
163486.403707,-8290.306550,-11251.130318,-5209.449386
163486.404026,-10214.842000,-12731.542202,-7354.516781
163486.404346,-9548.656652,-13841.851115,-6818.249932
163486.404666,-6809.894666,-14730.098246,-1915.238745
163486.404986,-6513.812290,-10732.986159,0.000000
163486.405305,-888.247130,-10436.903782,2374.896044
163486.405625,2738.761985,-7105.977043,4749.792088
163486.405945,3997.112087,-3775.050304,3677.258390
163486.406265,3478.967927,-2368.659014,2374.896044
163486.406584,222.061783,-6439.791695,1608.800546
163486.406904,-740.205942,-9252.574275,-842.705048
163486.407224,-2442.679609,-11473.192101,-1149.143247
163486.407544,-3997.112087,-12879.583391,-2451.505594
163486.407863,-5551.544565,-13915.871710,-4060.306139
163486.408183,-5921.647536,-12213.398043,-4903.011187
163486.408503,-2368.659014,-10732.986159,-3677.258390
163486.408822,-2960.823768,-7476.080014,0.000000
163486.409142,-2960.823768,-3627.009116,0.000000
163486.409462,1110.308913,-5329.482782,-76.609550
163486.409782,2516.700203,-7476.080014,2451.505594
163486.410101,2516.700203,-8290.306550,4596.572988
163486.410421,74.020594,-8586.388927,4903.011187
163486.410741,-2294.638420,-9178.553681,2374.896044
163486.411061,-3330.926739,-10066.800811,-2221.676944
163486.411380,-3849.070898,-10732.986159,-4749.792088
163486.411700,-4145.153275,-11917.315666,0.000000
163486.412020,-3108.864956,-9696.697840,-306.438199
163486.412339,-7105.977043,-5403.503377,-4903.011187
163486.412659,-6217.729913,-7550.100608,-5592.497135
163486.412979,-5329.482782,-9992.780217,-4213.525239
163486.413299,-2886.803174,-10732.986159,229.828649
163486.413618,-2738.761985,-10658.965565,3600.648841
163486.413938,-2442.679609,-9474.636058,4826.401637
163486.414258,-2442.679609,-7994.224174,3294.210641
163486.414578,-2146.597232,-7698.141797,-383.047749
163486.414897,-1776.494261,-8660.409521,1225.752797
163486.415217,0.000000,-10140.821405,3064.381992
163486.415537,-5329.482782,-8364.327145,0.000000
163486.415857,-6069.688724,-9178.553681,-2374.896044
163486.416176,-7920.203579,-8956.491898,-5898.935335
163486.416496,-6365.771101,-9474.636058,-6205.373534
163486.416816,-3034.844362,-11251.130318,-4979.620737
163486.417135,-4145.153275,-11917.315666,0.000000
163486.417455,-3849.070898,-13027.624579,1608.800546
163486.417775,-4219.173869,-11991.336260,3217.601092
163486.418095,-1554.432478,-10658.965565,4519.963438
163486.418414,-3552.988522,-5995.668130,3677.258390
163486.418734,-1998.556043,-4589.276840,2451.505594
163486.419054,-1332.370696,-5329.482782,3064.381992
163486.419374,-2072.576638,-5773.606348,1685.410096
163486.419693,-4737.318029,-8290.306550,-306.438199
163486.420013,-5699.585753,-10807.006753,-2834.553343
163486.420333,-9178.553681,-11917.315666,-4290.134789
163486.420653,-8068.244768,-13249.686362,-4290.134789
163486.420972,-7179.997637,-13027.624579,-3140.991542
163486.421292,-7476.080014,-10362.883188,-4060.306139
163486.421612,-5921.647536,-8364.327145,0.000000
163486.421931,-1110.308913,-6883.915261,-383.047749
163486.422251,1110.308913,-7179.997637,1149.143247
163486.422571,444.123565,-8068.244768,1762.019645
163486.422891,-1924.535449,-8734.430116,1302.362347
163486.423210,-3034.844362,-10510.924376,1149.143247
163486.423530,-3552.988522,-11251.130318,1608.800546
163486.423850,-3552.988522,-10732.986159,3677.258390
163486.424170,-518.144159,-10066.800811,3370.820191
163486.424489,-74.020594,-8882.471304,2374.896044
163486.424809,-4737.318029,-4811.338623,-3370.820191
163486.425129,-4441.235652,-6365.771101,-4749.792088
163486.425449,-5699.585753,-7698.141797,-5362.668486
163486.425768,-5255.462188,-9252.574275,-4443.353888
163486.426088,-4811.338623,-9474.636058,-3753.867940
163486.426408,-74.020594,-13027.624579,1838.629195
163486.426727,1998.556043,-11843.295072,2987.772442
163486.427047,888.247130,-8956.491898,3064.381992
163486.427367,0.000000,-7772.162391,3217.601092
163486.427687,2294.638420,-11547.212695,5745.716235
163486.428006,-2072.576638,-8068.244768,459.657299
163486.428326,-3330.926739,-9400.615463,-766.095498
163486.428646,-5403.503377,-8660.409521,-2374.896044
163486.428966,-6587.832884,-9474.636058,-4290.134789
163486.429285,-6587.832884,-9770.718434,-4903.011187
163486.429605,-5033.400406,-11695.253884,-3447.429741
163486.429925,-3627.009116,-10658.965565,-229.828649
163486.430244,-74.020594,-9474.636058,-76.609550
163486.430564,0.000000,-7994.224174,2374.896044
163486.430884,3330.926739,-10955.047942,6052.154434
163486.431204,814.226536,-7920.203579,3600.648841
163486.431523,74.020594,-8364.327145,2451.505594
163486.431843,-666.185348,-8660.409521,1302.362347
163486.432163,-3552.988522,-7772.162391,0.000000
163486.432483,-2368.659014,-9548.656652,153.219100
163486.432802,0.000000,-9548.656652,0.000000
163486.433122,0.000000,-9548.656652,1532.190996
163486.433442,2812.782580,-11103.089130,2987.772442
163486.433762,4663.297435,-9474.636058,3600.648841
163486.434081,2368.659014,-9696.697840,3830.477490
163486.434401,1776.494261,-8364.327145,3140.991542
163486.434721,1554.432478,-8068.244768,3907.087040
163486.435040,1110.308913,-8808.450710,4749.792088
163486.435360,0.000000,-7179.997637,4903.011187
163486.435680,-148.041188,-7846.182985,3294.210641
163486.436000,-2368.659014,-8660.409521,4903.011187
163486.436319,-1850.514855,-10658.965565,4213.525239
163486.436639,-4367.215058,-9474.636058,2374.896044
163486.436959,-2960.823768,-11917.315666,4596.572988
163486.437279,-1850.514855,-11103.089130,3064.381992
163486.437598,444.123565,-10658.965565,5745.716235
163486.437918,1850.514855,-9770.718434,6741.640382
163486.438238,592.164754,-6291.750507,4903.011187
163486.438557,2368.659014,-5255.462188,5515.887586
163486.438877,1184.329507,-5699.585753,4903.011187
163486.439197,2294.638420,-7105.977043,4213.525239
163486.439516,0.000000,-7846.182985,2451.505594
163486.439836,0.000000,-11917.315666,6128.763984
163486.440156,-1480.411884,-13841.851115,6128.763984
163486.440475,-666.185348,-15322.262999,9116.536426
163486.440795,-962.267725,-12361.439231,9806.022374
163486.441115,-1258.350101,-8364.327145,7967.393179
163486.441434,-74.020594,-4737.318029,9729.412825
163486.441754,-592.164754,-1554.432478,6281.983084
163486.442074,74.020594,-2664.741391,4596.572988
163486.442393,-148.041188,-6143.709319,3830.477490
163486.442713,-1332.370696,-9844.739029,6052.154434
163486.443033,-2960.823768,-11325.150913,6128.763984
163486.443352,-4737.318029,-11917.315666,4903.011187
163486.443672,-3034.844362,-12435.459826,4213.525239
163486.443992,-5329.482782,-9844.739029,3064.381992
163486.444311,-2294.638420,-8660.409521,2757.943793
163486.444631,3478.967927,-9474.636058,4826.401637
163486.444950,2812.782580,-9844.739029,6358.592633
163486.445270,2294.638420,-10362.883188,6818.249932
163486.445590,-1036.288319,-9992.780217,4903.011187
163486.445909,-4737.318029,-9548.656652,1532.190996
163486.446229,-3330.926739,-8734.430116,-229.828649
163486.446549,-3552.988522,-6587.832884,0.000000
163486.446868,1776.494261,-8660.409521,1225.752797
163486.447188,2368.659014,-8956.491898,3677.258390
163486.447508,2886.803174,-8808.450710,1149.143247
163486.447827,814.226536,-11843.295072,1762.019645
163486.448147,-3256.906145,-12361.439231,0.000000
163486.448467,-3404.947333,-12435.459826,383.047749
163486.448786,-1924.535449,-11103.089130,1532.190996
163486.449106,370.102971,-9474.636058,3294.210641
163486.449426,888.247130,-8956.491898,2298.286494
163486.449745,444.123565,-8290.306550,1762.019645
163486.450065,0.000000,-5995.668130,1302.362347
163486.450385,-888.247130,-5699.585753,153.219100
163486.450704,-666.185348,-5773.606348,-4060.306139
163486.451024,2072.576638,-10584.944971,-153.219100
163486.451344,3552.988522,-10362.883188,2604.724693
163486.451663,2516.700203,-9030.512492,3064.381992
163486.451983,-666.185348,-9474.636058,-76.609550
163486.452303,-4219.173869,-11843.295072,-4060.306139
163486.452622,-6365.771101,-13693.809927,-2757.943793
163486.452942,-3330.926739,-13619.789333,-459.657299
163486.453262,-1554.432478,-10066.800811,1149.143247
163486.453581,0.000000,-7179.997637,0.000000
163486.453901,2294.638420,-5625.565159,-76.609550
163486.454221,3256.906145,-5699.585753,1685.410096
163486.454540,2738.761985,-6291.750507,689.485948
163486.454860,1850.514855,-8364.327145,229.828649
163486.455180,3478.967927,-11621.233289,536.266849
163486.455499,0.000000,-9548.656652,0.000000
163486.455819,-888.247130,-11769.274478,689.485948
163486.456139,-370.102971,-12731.542202,842.705048
163486.456458,-74.020594,-13027.624579,2145.067394
163486.456778,-4737.318029,-7179.997637,0.000000
163486.457098,-2738.761985,-7698.141797,-229.828649
163486.457417,-3108.864956,-8364.327145,-689.485948
163486.457737,296.082377,-8364.327145,1685.410096
163486.458057,3627.009116,-8068.244768,4366.744339
163486.458376,4367.215058,-9178.553681,5439.278036
163486.458696,0.000000,-8660.409521,1532.190996
163486.459015,-2664.741391,-9548.656652,0.000000
163486.459335,-3552.988522,-11029.068536,612.876398
163486.459655,-1850.514855,-13619.789333,2374.896044
163486.459974,-4737.318029,-9548.656652,0.000000
163486.460294,-2294.638420,-10066.800811,1225.752797
163486.460614,-1036.288319,-9178.553681,1608.800546
163486.460933,74.020594,-8586.388927,2757.943793
163486.461253,-370.102971,-7994.224174,3600.648841
163486.461573,-74.020594,-7698.141797,3600.648841
163486.461892,814.226536,-7105.977043,4826.401637
163486.462212,3182.885551,-6809.894666,4979.620737
163486.462532,5033.400406,-8364.327145,7967.393179
163486.462851,3552.988522,-9252.574275,7354.516781
163486.463171,-2072.576638,-10140.821405,3064.381992
163486.463491,-2146.597232,-12435.459826,2298.286494
163486.463810,-3552.988522,-12213.398043,1762.019645
163486.464130,-4145.153275,-12435.459826,2834.553343
163486.464450,-1850.514855,-9474.636058,2987.772442
163486.464769,-888.247130,-8956.491898,4903.011187
163486.465089,-74.020594,-8290.306550,5898.935335
163486.465409,-666.185348,-4145.153275,5056.230287
163486.465728,-962.267725,-3627.009116,4903.011187
163486.466048,2368.659014,-7772.162391,9193.145976
163486.466368,4071.132681,-6883.915261,6128.763984
163486.466687,2442.679609,-9770.718434,6741.640382
163486.467007,0.000000,-11843.295072,6435.202183
163486.467327,-1036.288319,-11917.315666,2451.505594
163486.467646,-2368.659014,-12805.562797,2757.943793
163486.467966,-6217.729913,-10732.986159,1532.190996
163486.468286,-5107.421000,-11103.089130,306.438199
163486.468605,-2442.679609,-11251.130318,-76.609550
163486.468925,-1258.350101,-9178.553681,2068.457845
163486.469245,0.000000,-7179.997637,3064.381992
163486.469564,1628.453072,-5699.585753,2834.553343
163486.469884,2368.659014,-7179.997637,3524.039291
163486.470204,2960.823768,-8438.347739,4979.620737
163486.470523,2738.761985,-7402.059420,2221.676944
163486.470843,2738.761985,-11399.171507,6358.592633
163486.471163,1332.370696,-10140.821405,3064.381992
163486.471482,-1184.329507,-10436.903782,3064.381992
163486.471802,-3034.844362,-10658.965565,919.314598
163486.472122,-3034.844362,-9474.636058,-1302.362347
163486.472441,-4737.318029,-9548.656652,-3064.381992
163486.472761,-1850.514855,-8956.491898,-3294.210641
163486.473080,-296.082377,-7772.162391,-3217.601092
163486.473400,-740.205942,-8882.471304,-612.876398
163486.473720,-1258.350101,-5699.585753,-2221.676944
163486.474039,2072.576638,-11843.295072,-76.609550
163486.474359,592.164754,-9548.656652,1225.752797
163486.474679,2368.659014,-8216.285956,1532.190996
163486.474998,-1480.411884,-10140.821405,1378.971896
163486.475318,-3552.988522,-7179.997637,-2451.505594
163486.475638,-2664.741391,-7624.121203,-5898.935335
163486.475957,-2590.720797,-7994.224174,-6281.983084
163486.476277,-2146.597232,-6883.915261,-9882.631924
163486.476597,-1258.350101,-9252.574275,-9576.193725
163486.476916,0.000000,-12435.459826,-6741.640382
163486.477236,592.164754,-13767.830521,-3064.381992
163486.477556,1110.308913,-15618.345376,0.000000
163486.477875,4071.132681,-11843.295072,-383.047749
163486.478195,0.000000,-7772.162391,-4290.134789
163486.478515,-74.020594,-7994.224174,-2834.553343
163486.478834,1628.453072,-5477.523971,-2987.772442
163486.479154,2812.782580,-7402.059420,-2604.724693
163486.479474,1998.556043,-6365.771101,-5515.887586
163486.479793,-74.020594,-10658.965565,-6511.811733
163486.480113,-2368.659014,-11399.171507,-6894.859482
163486.480433,-1850.514855,-11843.295072,-7431.126331
163486.480752,-2294.638420,-14878.139434,-2834.553343
163486.481072,-1554.432478,-10362.883188,-3064.381992
163486.481392,-4737.318029,-6587.832884,-4903.011187
163486.481711,-3108.864956,-5995.668130,-4903.011187
163486.482031,0.000000,-4219.173869,-3983.696590
163486.482351,1110.308913,-8290.306550,-2451.505594
163486.482670,2294.638420,-6217.729913,-3753.867940
163486.482990,4663.297435,-8882.471304,-3140.991542
163486.483310,518.144159,-10658.965565,-2298.286494
163486.483629,-296.082377,-11103.089130,-3830.477490
163486.483949,-1480.411884,-14359.995275,-1838.629195
163486.484269,-1776.494261,-13693.809927,-689.485948
163486.484588,-1776.494261,-9844.739029,-1838.629195
163486.484908,-2738.761985,-10362.883188,-2221.676944
163486.485228,-3552.988522,-6513.812290,-2528.115143
163486.485547,-1628.453072,-4959.379811,-3217.601092
163486.485867,3478.967927,-5921.647536,-76.609550
163486.486187,5847.626942,-4145.153275,766.095498
163486.486506,3182.885551,-6883.915261,1378.971896
163486.486826,2146.597232,-9770.718434,2374.896044
163486.487145,1332.370696,-12213.398043,2757.943793
163486.487465,592.164754,-14285.974681,5669.106685
163486.487785,-666.185348,-13027.624579,3064.381992
163486.488104,-1850.514855,-14211.954086,2987.772442
163486.488424,-3034.844362,-10066.800811,842.705048
163486.488744,-3182.885551,-7476.080014,536.266849
163486.489063,-1258.350101,-8290.306550,-76.609550
163486.489383,148.041188,-5107.421000,1378.971896
163486.489703,1554.432478,-4589.276840,1685.410096
163486.490022,1406.391290,-7772.162391,3600.648841
163486.490342,2294.638420,-10510.924376,4519.963438
163486.490662,296.082377,-13101.645173,7354.516781
163486.490981,296.082377,-13101.645173,7354.516781
163486.491301,-74.020594,-13915.871710,4213.525239
163486.491621,-5181.441594,-11991.336260,2374.896044
163486.491940,-6661.853478,-7328.038826,0.000000
163486.492260,-3627.009116,-9178.553681,-76.609550
163486.492580,-2516.700203,-7031.956449,1915.238745
163486.492899,592.164754,-5107.421000,689.485948
163486.493219,1850.514855,-7550.100608,2681.334243
163486.493539,1184.329507,-7772.162391,3064.381992
163486.493858,1110.308913,-8586.388927,3064.381992
163486.494178,1184.329507,-11917.315666,6894.859482
163486.494498,4071.132681,-11843.295072,6741.640382
163486.494817,1998.556043,-13027.624579,4826.401637
163486.495137,-4071.132681,-9548.656652,919.314598
163486.495457,-3034.844362,-8734.430116,1762.019645
163486.495776,-2442.679609,-8734.430116,995.924147
163486.496096,-1480.411884,-5995.668130,229.828649
163486.496416,-1924.535449,-5255.462188,-1915.238745
163486.496735,-962.267725,-9178.553681,-229.828649
163486.497055,222.061783,-7402.059420,-919.314598
163486.497375,0.000000,-10066.800811,842.705048
163486.497694,0.000000,-11325.150913,3677.258390
163486.498014,814.226536,-11769.274478,1225.752797
163486.498334,-2738.761985,-9844.739029,0.000000
163486.498653,-3775.050304,-9474.636058,-1149.143247
163486.498973,-2960.823768,-9548.656652,-459.657299
163486.499293,-518.144159,-8290.306550,-612.876398
163486.499612,2886.803174,-7105.977043,-1302.362347
163486.499932,1702.473667,-8882.471304,-1915.238745
163486.500252,1702.473667,-10658.965565,-689.485948
163486.500571,1110.308913,-10658.965565,-2834.553343
163486.500891,888.247130,-13693.809927,306.438199
163486.501210,0.000000,-10732.986159,0.000000
163486.501530,-370.102971,-13545.768739,459.657299
163486.501850,-3552.988522,-10510.924376,-459.657299
163486.502169,-3330.926739,-8142.265362,-1378.971896
163486.502489,-962.267725,-7772.162391,-1149.143247
163486.502809,3923.091493,-6365.771101,-689.485948
163486.503128,2368.659014,-4219.173869,-1838.629195
163486.503448,2294.638420,-7624.121203,-689.485948
163486.503768,2294.638420,-8586.388927,-1455.581446
163486.504087,2294.638420,-12731.542202,-383.047749
163486.504407,0.000000,-11917.315666,1225.752797
163486.504727,-1036.288319,-12657.521608,-689.485948
163486.505046,-3775.050304,-11399.171507,-1302.362347
163486.505366,-3997.112087,-8808.450710,-3753.867940
163486.505686,-2146.597232,-6291.750507,-4060.306139
163486.506005,888.247130,-6957.935855,-3983.696590
163486.506325,592.164754,-4811.338623,-5822.325785
163486.506645,1184.329507,-7328.038826,-4519.963438
163486.506964,0.000000,-8956.491898,-2451.505594
163486.507284,2146.597232,-14434.015869,-76.609550
163486.507604,0.000000,-13101.645173,0.000000
163486.507923,148.041188,-10288.862594,-1915.238745
163486.508243,-3108.864956,-11917.315666,-1915.238745
163486.508563,-2960.823768,-10140.821405,-3600.648841
163486.508882,-2442.679609,-9474.636058,-4979.620737
163486.509202,-2590.720797,-10658.965565,-2374.896044
163486.509522,-1554.432478,-4737.318029,-4366.744339
163486.509841,-74.020594,-4663.297435,-4366.744339
163486.510161,2072.576638,-5107.421000,-1838.629195
163486.510481,4145.153275,-8808.450710,1762.019645
163486.510800,2368.659014,-10732.986159,2451.505594
163486.511120,3552.988522,-11843.295072,1838.629195
163486.511440,-1110.308913,-12879.583391,153.219100
163486.511759,-4737.318029,-12361.439231,-689.485948
163486.512079,-4811.338623,-8290.306550,-4060.306139
163486.512399,-2738.761985,-11547.212695,-76.609550
163486.512718,-74.020594,-5921.647536,-2528.115143
163486.513038,0.000000,-3034.844362,-2451.505594
163486.513358,0.000000,-4219.173869,-306.438199
163486.513677,0.000000,-4811.338623,0.000000
163486.513997,2738.761985,-10807.006753,1149.143247
163486.514317,1776.494261,-11769.274478,2374.896044
163486.514636,1406.391290,-11325.150913,995.924147
163486.514956,-1850.514855,-14211.954086,-76.609550
163486.515275,-3330.926739,-10955.047942,0.000000
163486.515595,-3552.988522,-8364.327145,-1532.190996
163486.515915,-2072.576638,-8364.327145,0.000000
163486.516234,0.000000,-6587.832884,-612.876398
163486.516554,814.226536,-5551.544565,-2145.067394
163486.516874,4663.297435,-8586.388927,1762.019645
163486.517193,3775.050304,-8808.450710,2681.334243
163486.517513,3182.885551,-10362.883188,5056.230287
163486.517833,2442.679609,-9992.780217,3830.477490
163486.518152,1184.329507,-13693.809927,4213.525239
163486.518472,-3552.988522,-12435.459826,766.095498
163486.518792,-4293.194464,-11547.212695,1072.533697
163486.519111,-4441.235652,-10955.047942,1915.238745
163486.519431,-2812.782580,-6957.935855,0.000000
163486.519751,-3552.988522,-3182.885551,-2298.286494
163486.520070,-74.020594,-5921.647536,-76.609550
163486.520390,148.041188,-5995.668130,689.485948
163486.520710,2664.741391,-7179.997637,1608.800546
163486.521029,2886.803174,-9474.636058,6052.154434
163486.521349,0.000000,-11917.315666,3064.381992
163486.521669,-3552.988522,-13249.686362,1838.629195
163486.521988,-4811.338623,-12065.356855,0.000000
163486.522308,-5107.421000,-11029.068536,-306.438199
163486.522628,-4367.215058,-7624.121203,-459.657299
163486.522947,-1184.329507,-5255.462188,-1225.752797
163486.523267,2294.638420,-7105.977043,-76.609550
163486.523587,2294.638420,-8290.306550,2374.896044
163486.523906,2886.803174,-8142.265362,919.314598
163486.524226,5847.626942,-11843.295072,4826.401637
163486.524546,2960.823768,-10140.821405,2528.115143
163486.524865,148.041188,-10955.047942,1378.971896
163486.525185,-1554.432478,-11917.315666,919.314598
163486.525505,-2294.638420,-11843.295072,459.657299
163486.525824,-3552.988522,-10732.986159,612.876398
163486.526144,-2220.617826,-6735.874072,-1302.362347
163486.526464,-74.020594,-8290.306550,-689.485948
163486.526783,-74.020594,-4737.318029,-2068.457845
163486.527103,1998.556043,-4663.297435,-2221.676944
163486.527423,6439.791695,-11251.130318,3600.648841
163486.527742,4737.318029,-11103.089130,2451.505594
163486.528062,1554.432478,-12287.418637,1455.581446
163486.528382,-3552.988522,-13101.645173,1455.581446
163486.528701,-5921.647536,-8956.491898,-1225.752797
163486.529021,-7105.977043,-8364.327145,-3370.820191
163486.529340,-4219.173869,-6291.750507,-4136.915689
163486.529660,0.000000,-5107.421000,-3370.820191
163486.529980,1998.556043,-7402.059420,-1225.752797
163486.530299,1998.556043,-6513.812290,-2834.553343
163486.530619,3478.967927,-11695.253884,-1608.800546
163486.530939,888.247130,-11547.212695,-612.876398
163486.531258,1036.288319,-10658.965565,-1225.752797
163486.531578,-370.102971,-13027.624579,-229.828649
163486.531898,-2368.659014,-10732.986159,0.000000
163486.532217,-1850.514855,-9474.636058,-1302.362347
163486.532537,-2960.823768,-8956.491898,-1225.752797
163486.532857,-2072.576638,-5995.668130,-5822.325785
163486.533176,-2960.823768,-7179.997637,-3677.258390
163486.533496,1998.556043,-7105.977043,-3140.991542
163486.533816,2886.803174,-7254.018232,-1302.362347
163486.534135,2368.659014,-9548.656652,229.828649
163486.534455,3108.864956,-9400.615463,0.000000
163486.534775,74.020594,-10140.821405,-1302.362347
163486.535094,-2442.679609,-13619.789333,383.047749
163486.535414,-3034.844362,-12435.459826,-1915.238745
163486.535734,-3627.009116,-15396.283594,-76.609550
163486.536053,-4219.173869,-7550.100608,-3064.381992
163486.536373,-2368.659014,-4811.338623,-4903.011187
163486.536693,-74.020594,-5329.482782,-4060.306139
163486.537012,3256.906145,-5625.565159,-2145.067394
163486.537332,3775.050304,-8364.327145,-459.657299
163486.537652,2960.823768,-10362.883188,919.314598
163486.537971,2294.638420,-13397.727550,-76.609550
163486.538291,-444.123565,-15692.365970,1378.971896
163486.538611,-888.247130,-14434.015869,1302.362347
163486.538930,-2738.761985,-10658.965565,-2528.115143
163486.539250,-2294.638420,-9548.656652,-383.047749
163486.539570,-2960.823768,-3627.009116,-4903.011187
163486.539889,-74.020594,-7105.977043,-2528.115143
163486.540215,2294.638420,-7846.182985,-689.485948
163486.540534,3997.112087,-8290.306550,1378.971896
163486.540854,3552.988522,-9400.615463,3217.601092
163486.541173,2960.823768,-9252.574275,3217.601092
163486.541493,592.164754,-11325.150913,1838.629195
163486.541813,-74.020594,-13915.871710,1762.019645
163486.542132,-1258.350101,-11843.295072,1149.143247
163486.542452,-2960.823768,-11843.295072,1762.019645
163486.542772,-4441.235652,-5995.668130,0.000000
163486.543091,-3997.112087,-6291.750507,-3524.039291
163486.543411,-1850.514855,-8216.285956,-1685.410096
163486.543731,1702.473667,-7105.977043,536.266849
163486.544050,3108.864956,-8512.368333,3294.210641
163486.544370,4663.297435,-10362.883188,4519.963438
163486.544689,0.000000,-8660.409521,2451.505594
163486.545009,-814.226536,-12139.377449,2374.896044
163486.545329,-2442.679609,-11843.295072,-76.609550
163486.545648,-3775.050304,-11251.130318,-995.924147
163486.545968,-4441.235652,-9548.656652,612.876398
163486.546288,-1850.514855,-8290.306550,-2221.676944
163486.546607,-1258.350101,-8734.430116,-766.095498
163486.546927,74.020594,-7920.203579,-383.047749
163486.547247,1406.391290,-7254.018232,-689.485948
163486.547566,3923.091493,-8290.306550,2221.676944
163486.547886,2960.823768,-6587.832884,1838.629195
163486.548206,592.164754,-9548.656652,3677.258390
163486.548525,2294.638420,-13471.748144,3907.087040
163486.548845,-74.020594,-13323.706956,3294.210641
163486.549164,-4737.318029,-11621.233289,1225.752797
163486.549484,-3330.926739,-9770.718434,-919.314598
163486.549804,-3552.988522,-8068.244768,-2068.457845
163486.550123,-2146.597232,-6735.874072,-2221.676944
163486.550443,1110.308913,-4737.318029,-2221.676944
163486.550763,3182.885551,-8364.327145,2374.896044
163486.551082,4071.132681,-7698.141797,1455.581446
163486.551402,592.164754,-7920.203579,306.438199
163486.551722,-1776.494261,-11917.315666,0.000000
163486.552041,-4737.318029,-9548.656652,-2145.067394
163486.552361,-4219.173869,-12731.542202,-536.266849
163486.552680,-2664.741391,-10214.842000,-153.219100
163486.553000,-1184.329507,-7772.162391,-1225.752797
163486.553320,-814.226536,-7550.100608,-383.047749
163486.553639,1184.329507,-7328.038826,-1685.410096
163486.553959,0.000000,-6291.750507,0.000000
163486.554279,2886.803174,-8290.306550,842.705048
163486.554598,4663.297435,-11251.130318,-76.609550
163486.554918,0.000000,-9548.656652,0.000000
163486.555238,1702.473667,-11547.212695,536.266849
163486.555557,-2220.617826,-11103.089130,-229.828649
163486.555877,-3256.906145,-10807.006753,-1685.410096
163486.556197,-2294.638420,-8956.491898,-3753.867940
163486.556516,-74.020594,-11621.233289,-76.609550
163486.556836,814.226536,-9030.512492,76.609550
163486.557155,1702.473667,-7698.141797,536.266849
163486.557475,2294.638420,-7402.059420,689.485948
163486.557795,1776.494261,-5995.668130,153.219100
163486.558114,3478.967927,-8290.306550,-1302.362347
163486.558434,-740.205942,-9770.718434,-1225.752797
163486.558754,-1184.329507,-10955.047942,-1685.410096
163486.559073,-2812.782580,-12879.583391,-1072.533697
163486.559393,-3923.091493,-11251.130318,-689.485948
163486.559713,-7105.977043,-7179.997637,-4903.011187
163486.560032,-3627.009116,-10066.800811,-3753.867940
163486.560352,-1554.432478,-6957.935855,-3830.477490
163486.560671,1702.473667,-7994.224174,-689.485948
163486.560991,4663.297435,-8290.306550,-76.609550
163486.561311,4219.173869,-7254.018232,76.609550
163486.561630,2368.659014,-11251.130318,1991.848295
163486.561950,-666.185348,-9474.636058,-1302.362347
163486.562270,-5847.626942,-9548.656652,-4596.572988
163486.562589,-2368.659014,-11917.315666,-76.609550
163486.562909,-2368.659014,-7772.162391,-4290.134789
163486.563229,-814.226536,-10658.965565,-1072.533697
163486.563548,444.123565,-9178.553681,-842.705048
163486.563868,962.267725,-8290.306550,-383.047749
163486.564188,2294.638420,-6513.812290,-919.314598
163486.564507,2738.761985,-5477.523971,-689.485948
163486.564827,2442.679609,-9104.533087,0.000000
163486.565146,888.247130,-10881.027347,2451.505594
163486.565466,-74.020594,-11251.130318,1149.143247
163486.565786,-2368.659014,-12805.562797,3370.820191
163486.566105,-2368.659014,-9326.594869,-1225.752797
163486.566425,-3849.070898,-8734.430116,-3140.991542
163486.566745,-3552.988522,-8364.327145,-2757.943793
163486.567064,-370.102971,-7031.956449,-3370.820191
163486.567384,1258.350101,-7179.997637,0.000000
163486.567704,4145.153275,-7179.997637,0.000000
163486.568023,1776.494261,-8364.327145,1225.752797
163486.568343,-74.020594,-11547.212695,1149.143247
163486.568662,-1850.514855,-11843.295072,-689.485948
163486.568982,-2368.659014,-12509.480420,1532.190996
163486.569302,-1332.370696,-11103.089130,995.924147
163486.569621,-296.082377,-8512.368333,-536.266849
163486.569941,-962.267725,-9252.574275,-229.828649
163486.570261,-1258.350101,-5699.585753,-2451.505594
163486.570580,0.000000,-9326.594869,-76.609550
163486.570900,2294.638420,-8068.244768,766.095498
163486.571220,2368.659014,-7772.162391,1225.752797
163486.571539,1184.329507,-9548.656652,2451.505594
163486.571859,-74.020594,-10658.965565,-76.609550
163486.572179,-1776.494261,-10881.027347,919.314598
163486.572498,-1628.453072,-11991.336260,919.314598
163486.572818,-1406.391290,-10066.800811,76.609550
163486.573137,-3034.844362,-10214.842000,-459.657299
163486.573457,-2442.679609,-8512.368333,459.657299
163486.573777,-74.020594,-8586.388927,229.828649
163486.574096,1702.473667,-7994.224174,2374.896044
163486.574416,3478.967927,-5329.482782,842.705048
163486.574736,888.247130,-4811.338623,612.876398
163486.575055,2294.638420,-9474.636058,-76.609550
163486.575375,-2294.638420,-9992.780217,-1225.752797
163486.575695,-3404.947333,-12435.459826,-842.705048
163486.576014,-2886.803174,-12139.377449,-612.876398
163486.576334,-2368.659014,-10436.903782,-612.876398
163486.576653,-2368.659014,-10140.821405,0.000000
163486.576973,-888.247130,-8068.244768,-2451.505594
163486.577293,592.164754,-8364.327145,1532.190996
163486.577612,4663.297435,-7994.224174,2681.334243
163486.577932,2886.803174,-5181.441594,0.000000
163486.578252,3478.967927,-9474.636058,2374.896044
163486.578571,0.000000,-9548.656652,459.657299
163486.578891,0.000000,-10140.821405,-459.657299
163486.579211,-1110.308913,-10881.027347,612.876398
163486.579530,-1184.329507,-8660.409521,0.000000
163486.579850,-2960.823768,-9548.656652,-3753.867940
163486.580170,-3256.906145,-9548.656652,-2987.772442
163486.580489,-1776.494261,-10140.821405,-919.314598
163486.580809,-296.082377,-9844.739029,2757.943793
163486.581128,-74.020594,-5033.400406,-1455.581446
163486.581448,2294.638420,-7994.224174,689.485948
163486.581768,1036.288319,-7772.162391,383.047749
163486.582087,370.102971,-8142.265362,383.047749
163486.582407,-1406.391290,-10510.924376,1072.533697
163486.582727,-3256.906145,-8956.491898,-1072.533697
163486.583046,-2442.679609,-9474.636058,-4366.744339
163486.583366,-4589.276840,-10732.986159,-3370.820191
163486.583686,-4737.318029,-7179.997637,-4903.011187
163486.584005,-2072.576638,-9844.739029,-2451.505594
163486.584325,814.226536,-7994.224174,-2221.676944
163486.584644,2072.576638,-7920.203579,-919.314598
163486.584964,0.000000,-8660.409521,-306.438199
163486.585284,-666.185348,-9104.533087,-612.876398
163486.585603,-74.020594,-11843.295072,2374.896044
163486.585923,1036.288319,-10362.883188,1455.581446
163486.586243,1554.432478,-8142.265362,-689.485948
163486.586562,-74.020594,-7698.141797,-2528.115143
163486.586882,0.000000,-8956.491898,-919.314598
163486.587202,0.000000,-8364.327145,0.000000
163486.587521,-74.020594,-10066.800811,-536.266849
163486.587841,444.123565,-8882.471304,-995.924147
163486.588161,-814.226536,-8956.491898,-1991.848295
163486.588480,-962.267725,-9548.656652,-1072.533697
163486.588800,1998.556043,-11251.130318,-76.609550
163486.589119,148.041188,-10584.944971,1225.752797
163486.589439,2886.803174,-11251.130318,1149.143247
163486.589759,-370.102971,-8142.265362,-1149.143247
163486.590078,-2368.659014,-8882.471304,-1302.362347
163486.590398,-74.020594,-7698.141797,-2528.115143
163486.590718,0.000000,-9252.574275,-153.219100
163486.591037,1110.308913,-8660.409521,383.047749
163486.591357,1406.391290,-8216.285956,-1378.971896
163486.591677,-74.020594,-10881.027347,-76.609550
163486.591996,-2960.823768,-9326.594869,-1302.362347
163486.592316,-1850.514855,-10658.965565,-2528.115143
163486.592636,-1776.494261,-10732.986159,0.000000
163486.592955,0.000000,-9548.656652,0.000000
163486.593275,-74.020594,-11547.212695,-76.609550
163486.593594,592.164754,-9474.636058,1302.362347
163486.593914,592.164754,-8808.450710,842.705048
163486.594234,2220.617826,-8734.430116,2604.724693
163486.594553,2294.638420,-6661.853478,1302.362347
163486.594873,0.000000,-5995.668130,0.000000
163486.595193,-1184.329507,-8068.244768,-383.047749
163486.595512,-1554.432478,-8956.491898,-2451.505594
163486.595832,-888.247130,-12287.418637,1225.752797
163486.596152,-74.020594,-10658.965565,-689.485948
163486.596471,-2368.659014,-11917.315666,306.438199
163486.596791,-2590.720797,-11325.150913,-689.485948
163486.597110,-1850.514855,-10066.800811,-229.828649
163486.597430,-370.102971,-9770.718434,2451.505594
163486.597750,1628.453072,-6217.729913,1225.752797
163486.598069,2294.638420,-5773.606348,-689.485948
163486.598389,-296.082377,-7031.956449,0.000000
163486.598709,-666.185348,-7105.977043,-2068.457845
163486.599028,-1258.350101,-10510.924376,-1378.971896
163486.599348,-296.082377,-11325.150913,-612.876398
163486.599668,-666.185348,-11547.212695,-2145.067394
163486.599987,-4145.153275,-12805.562797,-2145.067394
163486.600307,-962.267725,-11843.295072,-1608.800546
163486.600627,-74.020594,-13027.624579,-76.609550
163486.600946,0.000000,-7476.080014,0.000000
163486.601266,3330.926739,-7105.977043,1149.143247
163486.601585,1258.350101,-6883.915261,1608.800546
163486.601905,1998.556043,-6661.853478,536.266849
163486.602225,1258.350101,-7550.100608,153.219100
163486.602544,1850.514855,-10658.965565,2374.896044
163486.602864,1628.453072,-9474.636058,-76.609550
163486.603184,-1924.535449,-8956.491898,-3140.991542
163486.603503,-4737.318029,-10140.821405,-3064.381992
163486.603823,-2368.659014,-11917.315666,-919.314598
163486.604143,-3478.967927,-10140.821405,0.000000
163486.604462,1036.288319,-9400.615463,2068.457845
163486.604782,0.000000,-7179.997637,1455.581446
163486.605101,-592.164754,-5255.462188,1302.362347
163486.605421,0.000000,-3552.988522,-76.609550
163486.605741,2294.638420,-7105.977043,2374.896044
163486.606060,2886.803174,-9474.636058,2068.457845
163486.606380,518.144159,-8734.430116,-1302.362347
163486.606700,-2368.659014,-12805.562797,0.000000
163486.607019,-2072.576638,-13397.727550,0.000000
163486.607339,-4737.318029,-11029.068536,-1838.629195
163486.607659,-1554.432478,-11695.253884,612.876398
163486.607978,-888.247130,-7476.080014,-2068.457845
163486.608298,-1332.370696,-7179.997637,-919.314598
163486.608618,1702.473667,-8882.471304,-76.609550
163486.608937,0.000000,-6291.750507,0.000000
163486.609257,1924.535449,-9992.780217,2604.724693
163486.609576,1850.514855,-8142.265362,-76.609550
163486.609896,-3552.988522,-8364.327145,-2451.505594
163486.610216,-1776.494261,-11917.315666,1225.752797
163486.610535,-1480.411884,-11325.150913,-842.705048
163486.610855,-666.185348,-12361.439231,1991.848295
163486.611175,222.061783,-9326.594869,-383.047749
163486.611494,-1776.494261,-8586.388927,-1225.752797
163486.611814,-1258.350101,-8586.388927,-2068.457845
163486.612134,-2368.659014,-5995.668130,-3370.820191
163486.612453,-888.247130,-8956.491898,-3370.820191
163486.612773,592.164754,-7179.997637,0.000000
163486.613092,-74.020594,-9178.553681,-1455.581446
163486.613412,0.000000,-11917.315666,1225.752797
