#time,accel_x,accel_y,accel_z
59362.743020,-888.247130,-8586.388927,612.876398
59362.743330,-370.102971,-9326.594869,612.876398
59362.743640,-296.082377,-8956.491898,919.314598
59362.743950,-296.082377,-9104.533087,2298.286494
59362.744260,-1184.329507,-8364.327145,1225.752797
59362.744569,-74.020594,-11547.212695,3447.429741
59362.744879,-1258.350101,-7402.059420,-689.485948
59362.745189,444.123565,-10214.842000,1915.238745
59362.745499,-74.020594,-8882.471304,536.266849
59362.745808,-74.020594,-9178.553681,1762.019645
59362.746118,-814.226536,-8660.409521,612.876398
59362.746428,-370.102971,-8808.450710,612.876398
59362.746738,-296.082377,-9252.574275,1072.533697
59362.747047,-74.020594,-8956.491898,612.876398
59362.747357,0.000000,-7476.080014,0.000000
59362.747667,-2368.659014,-7179.997637,0.000000
59362.747977,1998.556043,-11251.130318,1762.019645
59362.748287,-2072.576638,-7920.203579,0.000000
59362.748596,-74.020594,-9474.636058,1838.629195
59362.748906,592.164754,-10658.965565,2374.896044
59362.749216,-148.041188,-9178.553681,689.485948
59362.749526,-148.041188,-8956.491898,1072.533697
59362.749835,-296.082377,-9252.574275,995.924147
59362.750145,-222.061783,-8808.450710,0.000000
59362.750455,-1776.494261,-7179.997637,0.000000
59362.750765,-2368.659014,-7179.997637,0.000000
59362.751074,888.247130,-10288.862594,2374.896044
59362.751384,-962.267725,-8364.327145,0.000000
59362.751694,0.000000,-9696.697840,1838.629195
59362.752004,-1184.329507,-9622.677246,2145.067394
59362.752314,-222.061783,-9178.553681,842.705048
59362.752623,-814.226536,-8956.491898,766.095498
59362.752933,-296.082377,-9178.553681,1072.533697
59362.753243,-296.082377,-7772.162391,-842.705048
59362.753553,-74.020594,-8586.388927,-76.609550
59362.753862,-2368.659014,-6587.832884,-1378.971896
59362.754172,296.082377,-9844.739029,2145.067394
59362.754482,-74.020594,-8586.388927,-76.609550
59362.754792,0.000000,-9252.574275,1762.019645
59362.755101,-1110.308913,-8364.327145,612.876398
59362.755411,-74.020594,-9474.636058,995.924147
59362.755721,-148.041188,-9030.512492,842.705048
59362.756031,-518.144159,-9252.574275,842.705048
59362.756341,-222.061783,-8882.471304,1149.143247
59362.756650,-74.020594,-9474.636058,1149.143247
59362.756960,-370.102971,-7994.224174,-689.485948
59362.757270,0.000000,-8364.327145,1225.752797
59362.757580,-74.020594,-9400.615463,842.705048
59362.757889,-1184.329507,-8364.327145,1225.752797
59362.758199,-1184.329507,-7772.162391,153.219100
59362.758509,-370.102971,-9252.574275,1072.533697
59362.758819,-148.041188,-9400.615463,919.314598
59362.759128,-370.102971,-9104.533087,1072.533697
59362.759438,-74.020594,-10658.965565,1762.019645
59362.759748,1702.473667,-10362.883188,612.876398
59362.760058,2294.638420,-11843.295072,2374.896044
59362.760368,-2368.659014,-7476.080014,0.000000
59362.760677,148.041188,-9844.739029,2374.896044
59362.760987,-370.102971,-8364.327145,0.000000
59362.761297,-1332.370696,-7179.997637,0.000000
59362.761607,-444.123565,-9252.574275,919.314598
59362.761916,-518.144159,-9104.533087,383.047749
59362.762226,-592.164754,-8956.491898,536.266849
59362.762536,-74.020594,-10658.965565,2298.286494
59362.762846,296.082377,-9770.718434,612.876398
59362.763155,1702.473667,-10955.047942,2757.943793
59362.763465,-962.267725,-7698.141797,0.000000
59362.763775,148.041188,-9844.739029,3370.820191
59362.764085,-74.020594,-8956.491898,-1072.533697
59362.764395,-74.020594,-9178.553681,-76.609550
59362.764704,-740.205942,-8808.450710,383.047749
59362.765014,-296.082377,-8882.471304,995.924147
59362.765324,-148.041188,-9030.512492,1149.143247
59362.765634,148.041188,-9252.574275,1838.629195
59362.765943,0.000000,-8660.409521,919.314598
59362.766253,0.000000,-9548.656652,1838.629195
59362.766563,-74.020594,-9474.636058,-76.609550
59362.766873,-1184.329507,-8364.327145,1532.190996
59362.767183,-74.020594,-8290.306550,536.266849
59362.767492,-74.020594,-9474.636058,1149.143247
59362.767802,-592.164754,-8512.368333,766.095498
59362.768112,-296.082377,-8882.471304,842.705048
59362.768422,-296.082377,-8956.491898,612.876398
59362.768731,0.000000,-7772.162391,0.000000
59362.769041,0.000000,-8438.347739,1455.581446
59362.769351,0.000000,-8660.409521,1225.752797
59362.769661,-74.020594,-9474.636058,1149.143247
59362.769970,-1184.329507,-8512.368333,2298.286494
59362.770280,-74.020594,-9474.636058,1149.143247
59362.770590,1554.432478,-10362.883188,1762.019645
59362.770900,-370.102971,-8956.491898,919.314598
59362.771210,-370.102971,-8808.450710,689.485948
59362.771519,-370.102971,-9178.553681,536.266849
59362.771829,-2368.659014,-7476.080014,0.000000
59362.772139,-1554.432478,-9178.553681,1455.581446
59362.772449,-2368.659014,-7179.997637,0.000000
59362.772758,888.247130,-10066.800811,1915.238745
59362.773068,-1110.308913,-7772.162391,0.000000
59362.773378,1110.308913,-10658.965565,2374.896044
59362.773688,888.247130,-9252.574275,1532.190996
59362.773997,1480.411884,-9104.533087,1532.190996
59362.774307,1110.308913,-8808.450710,995.924147
59362.774617,1036.288319,-8734.430116,612.876398
59362.774927,1554.432478,-7254.018232,1149.143247
59362.775237,1998.556043,-9770.718434,995.924147
59362.775546,2886.803174,-9178.553681,-76.609550
59362.775856,1184.329507,-8364.327145,0.000000
59362.776166,4071.132681,-11843.295072,2374.896044
59362.776476,3182.885551,-10066.800811,1991.848295
59362.776785,1184.329507,-8956.491898,612.876398
59362.777095,3108.864956,-9622.677246,766.095498
59362.777405,3478.967927,-8956.491898,842.705048
59362.777715,4071.132681,-8660.409521,995.924147
59362.778024,6143.709319,-9474.636058,1455.581446
59362.778334,6513.812290,-8364.327145,2604.724693
59362.778644,7031.956449,-9474.636058,2374.896044
59362.778954,3849.070898,-7179.997637,306.438199
59362.779264,6735.874072,-9474.636058,2374.896044
59362.779573,4737.318029,-7772.162391,1225.752797
59362.779883,4737.318029,-7920.203579,0.000000
59362.780193,5995.668130,-9400.615463,0.000000
59362.780503,6143.709319,-9400.615463,0.000000
59362.780812,5921.647536,-9844.739029,229.828649
59362.781122,7031.956449,-12287.418637,-76.609550
59362.781432,3108.864956,-11029.068536,-1532.190996
59362.781742,5551.544565,-14211.954086,-76.609550
59362.782051,2294.638420,-10955.047942,-766.095498
59362.782361,2960.823768,-11621.233289,2451.505594
59362.782671,888.247130,-7772.162391,0.000000
59362.782981,2886.803174,-5329.482782,689.485948
59362.783291,4885.359217,-4959.379811,1838.629195
59362.783600,7179.997637,-3552.988522,2451.505594
59362.783910,9474.636058,-3478.967927,2987.772442
59362.784220,11695.253884,-5403.503377,3677.258390
59362.784530,7846.182985,-8216.285956,3217.601092
59362.784839,6439.791695,-12435.459826,-76.609550
59362.785149,-2368.659014,-13101.645173,-3677.258390
59362.785459,-666.185348,-20133.601622,-1302.362347
59362.785769,-5921.647536,-14285.974681,-5975.544884
59362.786078,-3034.844362,-11843.295072,-3753.867940
59362.786388,-3552.988522,-9696.697840,-1225.752797
59362.786698,222.061783,-6883.915261,919.314598
59362.787008,3775.050304,-6513.812290,4213.525239
59362.787318,4737.318029,-4219.173869,4903.011187
59362.787627,4959.379811,-4293.194464,5669.106685
59362.787937,2368.659014,-4811.338623,4903.011187
59362.788247,4071.132681,-4441.235652,3600.648841
59362.788557,0.000000,-1258.350101,0.000000
59362.788866,4071.132681,-4441.235652,-76.609550
59362.789176,1998.556043,-10362.883188,-76.609550
59362.789486,-2590.720797,-15248.242405,-2604.724693
59362.789796,-5329.482782,-19541.436869,-3983.696590
59362.790105,-6735.874072,-18949.272115,-4519.963438
59362.790415,-7624.121203,-14285.974681,-5439.278036
59362.790725,-2738.761985,-9178.553681,-3140.991542
59362.791035,0.000000,-5403.503377,0.000000
59362.791345,3552.988522,-5773.606348,6052.154434
59362.791654,2886.803174,-2516.700203,3907.087040
59362.791964,7624.121203,-4737.318029,6971.469032
59362.792274,9770.718434,-3701.029710,7814.174080
59362.792584,9770.718434,-2516.700203,6665.030833
59362.792893,7402.059420,-3627.009116,5209.449386
59362.793203,2516.700203,-7772.162391,1378.971896
59362.793513,-2220.617826,-12287.418637,-1608.800546
59362.793823,-2220.617826,-17616.901420,-3217.601092
59362.794132,-4515.256246,-17024.736666,-5898.935335
59362.794442,-5921.647536,-15026.180623,-7354.516781
59362.794752,-3627.009116,-17468.860231,-1685.410096
59362.795062,-666.185348,-14211.954086,-1302.362347
59362.795372,2960.823768,-8068.244768,1838.629195
59362.795681,9400.615463,-3552.988522,5592.497135
59362.795991,13027.624579,-1332.370696,7737.564530
59362.796301,12213.398043,-2738.761985,8963.317327
59362.796611,10584.944971,-5921.647536,6358.592633
59362.796920,5699.585753,-8142.265362,4519.963438
59362.797230,1702.473667,-9474.636058,-76.609550
59362.797540,-5329.482782,-10732.986159,-6128.763984
59362.797850,-8290.306550,-15470.304188,-4596.572988
59362.798159,-7994.224174,-17542.880825,-3447.429741
59362.798469,-5921.647536,-13101.645173,-4290.134789
59362.798779,1554.432478,-10140.821405,-459.657299
59362.799089,2590.720797,-7698.141797,1149.143247
59362.799399,74.020594,-8956.491898,1838.629195
59362.799708,1110.308913,-8882.471304,3140.991542
59362.800018,2960.823768,-5847.626942,4136.915689
59362.800328,4663.297435,-4737.318029,4213.525239
59362.800638,-1480.411884,-3034.844362,0.000000
59362.800947,-3552.988522,-7476.080014,1225.752797
59362.801257,-1776.494261,-10732.986159,2451.505594
59362.801567,-1480.411884,-8660.409521,612.876398
59362.801877,-1924.535449,-9252.574275,0.000000
59362.802186,-5921.647536,-11917.315666,-1838.629195
59362.802496,-7550.100608,-13101.645173,-2145.067394
59362.802806,-5921.647536,-13101.645173,-1685.410096
59362.803116,-4589.276840,-8660.409521,-919.314598
59362.803426,-1628.453072,-7254.018232,1532.190996
59362.803735,-1554.432478,-5625.565159,-383.047749
59362.804045,0.000000,-6587.832884,3677.258390
59362.804355,0.000000,-3627.009116,3064.381992
59362.804665,2738.761985,-3108.864956,3830.477490
59362.804974,1110.308913,-5995.668130,3217.601092
59362.805284,-2886.803174,-10362.883188,1378.971896
59362.805594,-4737.318029,-14211.954086,-612.876398
59362.805904,-4737.318029,-13249.686362,-1225.752797
59362.806213,-4071.132681,-11769.274478,-2221.676944
59362.806523,-5921.647536,-10436.903782,-2451.505594
59362.806833,-5403.503377,-13619.789333,-1302.362347
59362.807143,-5255.462188,-9548.656652,-1915.238745
59362.807453,0.000000,-4811.338623,0.000000
59362.807762,6735.874072,-4737.318029,4826.401637
59362.808072,6513.812290,-2886.803174,5592.497135
59362.808382,3849.070898,-5699.585753,5056.230287
59362.808692,2220.617826,-8364.327145,3677.258390
59362.809001,0.000000,-8068.244768,995.924147
59362.809311,-370.102971,-9474.636058,-995.924147
59362.809621,-4737.318029,-11621.233289,-1838.629195
59362.809931,-4811.338623,-14211.954086,-2528.115143
59362.810240,-5921.647536,-11325.150913,-4136.915689
59362.810550,1702.473667,-9178.553681,-1915.238745
59362.810860,5847.626942,-9178.553681,2374.896044
59362.811170,3256.906145,-8438.347739,2068.457845
59362.811480,1776.494261,-9918.759623,1838.629195
59362.811789,2368.659014,-9622.677246,2068.457845
59362.812099,2738.761985,-6735.874072,2987.772442
59362.812409,1184.329507,-3627.009116,306.438199
59362.812719,1924.535449,-8290.306550,2145.067394
59362.813028,-666.185348,-8512.368333,-2221.676944
59362.813338,592.164754,-9844.739029,1532.190996
59362.813648,3478.967927,-9474.636058,-76.609550
59362.813958,2886.803174,-9474.636058,1915.238745
59362.814267,-222.061783,-9770.718434,-76.609550
59362.814577,-2738.761985,-12139.377449,-689.485948
59362.814887,-2220.617826,-11103.089130,-612.876398
59362.815197,-74.020594,-8882.471304,842.705048
59362.815507,814.226536,-7476.080014,76.609550
59362.815816,-2220.617826,-7920.203579,-1072.533697
59362.816126,-74.020594,-10658.965565,-76.609550
59362.816436,0.000000,-6365.771101,0.000000
59362.816746,5847.626942,-7698.141797,4519.963438
59362.817055,2072.576638,-7920.203579,2451.505594
59362.817365,-1036.288319,-10362.883188,536.266849
59362.817675,-666.185348,-14211.954086,-76.609550
59362.817985,-666.185348,-10436.903782,229.828649
59362.818294,-148.041188,-8882.471304,766.095498
59362.818604,-2960.823768,-8660.409521,-919.314598
59362.818914,-6217.729913,-9548.656652,-1838.629195
59362.819224,-1258.350101,-13619.789333,2987.772442
59362.819534,1702.473667,-7105.977043,1455.581446
59362.819843,3997.112087,-7105.977043,4826.401637
59362.820153,592.164754,-5403.503377,2145.067394
59362.820463,-2442.679609,-9474.636058,306.438199
59362.820773,-3997.112087,-10955.047942,-612.876398
59362.821082,-2664.741391,-10584.944971,-689.485948
59362.821392,-2294.638420,-9474.636058,-919.314598
59362.821702,-4737.318029,-9770.718434,-1685.410096
59362.822012,-5403.503377,-10807.006753,-1302.362347
59362.822322,-2368.659014,-9548.656652,2451.505594
59362.822631,4663.297435,-7698.141797,3600.648841
59362.822941,4737.318029,-7179.997637,5975.544884
59362.823250,0.000000,-5995.668130,1838.629195
59362.823560,-1850.514855,-10732.986159,1532.190996
59362.823869,-1036.288319,-10807.006753,1378.971896
59362.824179,814.226536,-8364.327145,1455.581446
59362.824489,-148.041188,-8660.409521,0.000000
59362.824798,-3701.029710,-9696.697840,-612.876398
59362.825108,-3034.844362,-12435.459826,-76.609550
59362.825417,0.000000,-9548.656652,2451.505594
59362.825727,5699.585753,-9474.636058,4519.963438
59362.826036,1184.329507,-6291.750507,3677.258390
59362.826346,-1776.494261,-8956.491898,919.314598
59362.826655,-1554.432478,-11843.295072,1991.848295
59362.826965,-814.226536,-9326.594869,1225.752797
59362.827275,1776.494261,-6439.791695,1685.410096
59362.827584,592.164754,-5995.668130,612.876398
59362.827894,-1480.411884,-8068.244768,76.609550
59362.828203,-74.020594,-10658.965565,1455.581446
59362.828513,0.000000,-5995.668130,0.000000
59362.828822,5181.441594,-9104.533087,3294.210641
59362.829132,1184.329507,-6143.709319,0.000000
59362.829441,-1554.432478,-10807.006753,-842.705048
59362.829751,-1776.494261,-12139.377449,-842.705048
59362.830061,592.164754,-10066.800811,0.000000
59362.830370,1480.411884,-7994.224174,612.876398
59362.830680,-740.205942,-7476.080014,-383.047749
59362.830989,-3404.947333,-9548.656652,0.000000
59362.831299,1554.432478,-10658.965565,2374.896044
59362.831608,1184.329507,-3627.009116,0.000000
59362.831918,6957.935855,-7105.977043,4519.963438
59362.832227,0.000000,-4811.338623,612.876398
59362.832537,-1258.350101,-11547.212695,-76.609550
59362.832847,-2294.638420,-11399.171507,-1072.533697
59362.833156,-1702.473667,-11177.109724,-1532.190996
59362.833466,-1554.432478,-9770.718434,-1225.752797
59362.833775,-2960.823768,-10066.800811,-1302.362347
59362.834085,-3923.091493,-12213.398043,-229.828649
59362.834394,-888.247130,-8956.491898,306.438199
59362.834704,4663.297435,-8290.306550,2374.896044
59362.835013,2368.659014,-3627.009116,1225.752797
59362.835323,-962.267725,-6957.935855,0.000000
59362.835633,-814.226536,-10362.883188,536.266849
59362.835942,-814.226536,-9548.656652,0.000000
59362.836252,888.247130,-7179.997637,612.876398
59362.836561,-1184.329507,-8734.430116,0.000000
59362.836871,-3701.029710,-11843.295072,-383.047749
59362.837180,-4515.256246,-10732.986159,-1762.019645
59362.837490,148.041188,-10436.903782,2451.505594
59362.837799,4071.132681,-8290.306550,2374.896044
59362.838109,-1480.411884,-6587.832884,766.095498
59362.838419,-1258.350101,-9178.553681,-76.609550
59362.838728,-2960.823768,-10807.006753,766.095498
59362.839038,-740.205942,-8512.368333,1378.971896
59362.839347,-592.164754,-6735.874072,1225.752797
59362.839657,-1776.494261,-7254.018232,229.828649
59362.839966,-1258.350101,-10362.883188,2374.896044
59362.840276,-962.267725,-9474.636058,1455.581446
59362.840585,592.164754,-6883.915261,0.000000
59362.840895,4663.297435,-8290.306550,2374.896044
59362.841205,0.000000,-7772.162391,306.438199
59362.841514,-74.020594,-13619.789333,-76.609550
59362.841824,-1776.494261,-11917.315666,612.876398
59362.842133,222.061783,-9622.677246,612.876398
59362.842443,592.164754,-8438.347739,1455.581446
59362.842752,-1702.473667,-9474.636058,612.876398
59362.843062,-1998.556043,-10140.821405,1685.410096
59362.843371,592.164754,-9104.533087,2451.505594
59362.843681,3256.906145,-5403.503377,0.000000
59362.843991,5847.626942,-8290.306550,4826.401637
59362.844300,-370.102971,-7402.059420,536.266849
59362.844610,-666.185348,-11843.295072,1149.143247
59362.844919,-2960.823768,-10732.986159,-1225.752797
59362.845229,-1184.329507,-9770.718434,-536.266849
59362.845538,-1480.411884,-9104.533087,-383.047749
59362.845848,-3108.864956,-9918.759623,-766.095498
59362.846157,-1776.494261,-10140.821405,1225.752797
59362.846467,962.267725,-8364.327145,1762.019645
59362.846777,4071.132681,-5403.503377,0.000000
59362.847086,5847.626942,-8290.306550,3600.648841
59362.847396,-370.102971,-7994.224174,-229.828649
59362.847705,-888.247130,-11843.295072,1991.848295
59362.848015,-444.123565,-9770.718434,-689.485948
59362.848324,370.102971,-9178.553681,-536.266849
59362.848634,-1628.453072,-9918.759623,-1302.362347
59362.848943,-3330.926739,-11843.295072,-1302.362347
59362.849253,-3552.988522,-10732.986159,0.000000
59362.849563,1184.329507,-8586.388927,1225.752797
59362.849872,4663.297435,-9474.636058,4826.401637
59362.850182,518.144159,-6365.771101,842.705048
59362.850491,-3256.906145,-8660.409521,306.438199
59362.850801,-2368.659014,-10732.986159,1225.752797
59362.851110,-222.061783,-8142.265362,689.485948
59362.851420,370.102971,-6735.874072,766.095498
59362.851729,-1702.473667,-7698.141797,76.609550
59362.852039,-3404.947333,-9252.574275,-612.876398
59362.852349,-2368.659014,-7772.162391,0.000000
59362.852658,592.164754,-7179.997637,1225.752797
59362.852968,4663.297435,-9474.636058,4673.182538
59362.853277,-74.020594,-9474.636058,-689.485948
59362.853587,-4737.318029,-11029.068536,0.000000
59362.853896,-3256.906145,-10732.986159,-1225.752797
59362.854206,814.226536,-9918.759623,536.266849
59362.854515,518.144159,-8438.347739,1302.362347
59362.854825,-1998.556043,-9696.697840,1072.533697
59362.855135,-1850.514855,-9548.656652,995.924147
59362.855444,1110.308913,-6587.832884,1455.581446
59362.855754,2960.823768,-4811.338623,3677.258390
59362.856063,4663.297435,-9474.636058,6052.154434
59362.856373,-3182.885551,-7328.038826,-995.924147
59362.856682,-4145.153275,-11917.315666,306.438199
59362.856992,-2812.782580,-10140.821405,-766.095498
59362.857301,-370.102971,-10214.842000,842.705048
59362.857611,-1924.535449,-9178.553681,0.000000
59362.857921,-3034.844362,-10214.842000,0.000000
59362.858230,-1480.411884,-9992.780217,919.314598
59362.858540,3182.885551,-7105.977043,2374.896044
59362.858849,2664.741391,-4811.338623,2451.505594
59362.859159,2960.823768,-8364.327145,4903.011187
59362.859468,-74.020594,-10658.965565,-76.609550
59362.859778,-3256.906145,-9844.739029,0.000000
59362.860087,-296.082377,-8512.368333,0.000000
59362.860397,296.082377,-9104.533087,766.095498
59362.860707,-1776.494261,-8956.491898,-689.485948
59362.861016,-3034.844362,-11029.068536,0.000000
59362.861326,-666.185348,-10658.965565,1455.581446
59362.861635,4367.215058,-9474.636058,3600.648841
59362.861945,3478.967927,-6291.750507,2681.334243
59362.862254,0.000000,-5995.668130,612.876398
59362.862564,-74.020594,-12435.459826,2374.896044
59362.862873,-2886.803174,-8956.491898,-1149.143247
59362.863183,-74.020594,-8142.265362,0.000000
59362.863493,-444.123565,-7624.121203,536.266849
59362.863802,-1998.556043,-8438.347739,-383.047749
59362.864112,-2516.700203,-9770.718434,-383.047749
59362.864421,74.020594,-8660.409521,1149.143247
59362.864731,4663.297435,-9178.553681,3294.210641
59362.865040,3330.926739,-7698.141797,995.924147
59362.865350,0.000000,-9548.656652,0.000000
59362.865659,-74.020594,-14211.954086,-76.609550
59362.865969,-962.267725,-10658.965565,-1302.362347
59362.866279,1406.391290,-9474.636058,-1302.362347
59362.866588,-1184.329507,-9548.656652,0.000000
59362.866898,-1924.535449,-10066.800811,-153.219100
59362.867207,-888.247130,-9844.739029,919.314598
59362.867517,2220.617826,-7476.080014,3447.429741
59362.867826,4145.153275,-6143.709319,4903.011187
59362.868136,2886.803174,-7698.141797,3600.648841
59362.868445,-3330.926739,-7179.997637,-2374.896044
59362.868755,-3256.906145,-11917.315666,306.438199
59362.869065,-1258.350101,-10658.965565,-689.485948
59362.869374,-74.020594,-10584.944971,-76.609550
59362.869684,-2812.782580,-9104.533087,-842.705048
59362.869993,-2960.823768,-10436.903782,0.000000
59362.870303,-1998.556043,-9104.533087,612.876398
59362.870612,1702.473667,-7105.977043,2451.505594
59362.870922,2368.659014,-5403.503377,3677.258390
59362.871231,2294.638420,-8734.430116,3294.210641
59362.871541,-3034.844362,-7994.224174,-1608.800546
59362.871851,-2368.659014,-10732.986159,0.000000
59362.872160,-74.020594,-10362.883188,-76.609550
59362.872470,-74.020594,-9178.553681,2068.457845
59362.872779,-2960.823768,-9474.636058,-153.219100
59362.873089,-3256.906145,-11251.130318,153.219100
59362.873398,0.000000,-9844.739029,1991.848295
59362.873708,3404.947333,-7179.997637,2451.505594
59362.874017,1184.329507,-5995.668130,3064.381992
59362.874327,0.000000,-9252.574275,2451.505594
59362.874636,-74.020594,-13027.624579,-76.609550
59362.874946,-3552.988522,-8364.327145,0.000000
59362.875256,1110.308913,-9474.636058,2374.896044
59362.875565,-888.247130,-9474.636058,2681.334243
59362.875875,-3034.844362,-9030.512492,76.609550
59362.876184,-2738.761985,-9548.656652,153.219100
59362.876494,0.000000,-8216.285956,766.095498
59362.876803,2072.576638,-5995.668130,689.485948
59362.877113,0.000000,-5995.668130,0.000000
59362.877422,-1776.494261,-10436.903782,612.876398
59362.877732,-74.020594,-13619.789333,-76.609550
59362.878042,0.000000,-8364.327145,0.000000
59362.878351,2294.638420,-9474.636058,2221.676944
59362.878661,-1110.308913,-9548.656652,1225.752797
59362.878970,-2442.679609,-10362.883188,-459.657299
59362.879280,-1480.411884,-9474.636058,689.485948
59362.879589,1998.556043,-7328.038826,1915.238745
59362.879899,3701.029710,-5181.441594,2374.896044
59362.880208,1110.308913,-6143.709319,0.000000
59362.880518,-2368.659014,-8956.491898,0.000000
59362.880828,-74.020594,-13027.624579,-76.609550
59362.881137,-3256.906145,-8364.327145,-1685.410096
59362.881447,-74.020594,-10066.800811,2374.896044
59362.881756,-2960.823768,-9548.656652,0.000000
59362.882066,-4145.153275,-10362.883188,-766.095498
59362.882375,-1924.535449,-9252.574275,0.000000
59362.882685,3256.906145,-6439.791695,2451.505594
59362.882994,4811.338623,-6513.812290,3600.648841
59362.883304,3478.967927,-7698.141797,-76.609550
59362.883614,-1554.432478,-8956.491898,-1915.238745
59362.883923,0.000000,-10732.986159,612.876398
59362.884233,2294.638420,-10658.965565,-76.609550
59362.884542,-1776.494261,-8364.327145,0.000000
59362.884852,-4589.276840,-9548.656652,-2451.505594
59362.885161,-2960.823768,-11769.274478,-459.657299
59362.885471,1406.391290,-9770.718434,1149.143247
59362.885780,4145.153275,-7179.997637,3064.381992
59362.886090,3478.967927,-7698.141797,3600.648841
59362.886400,-74.020594,-10658.965565,2374.896044
59362.886709,-3182.885551,-9474.636058,-689.485948
59362.887019,-3552.988522,-8364.327145,0.000000
59362.887328,1998.556043,-8882.471304,2374.896044
59362.887638,-2368.659014,-6291.750507,0.000000
59362.887947,-4737.318029,-7254.018232,-1608.800546
59362.888257,-2368.659014,-9770.718434,153.219100
59362.888566,1702.473667,-7920.203579,2068.457845
59362.888876,3552.988522,-6809.894666,2604.724693
59362.889186,2294.638420,-9474.636058,2987.772442
59362.889495,-74.020594,-14211.954086,2374.896044
59362.889805,-962.267725,-14211.954086,-76.609550
59362.890114,-2368.659014,-7772.162391,-2451.505594
59362.890424,2294.638420,-11251.130318,2374.896044
59362.890733,-1776.494261,-7772.162391,-1838.629195
59362.891043,-2442.679609,-10066.800811,-76.609550
59362.891352,592.164754,-9770.718434,2528.115143
59362.891662,4071.132681,-7105.977043,3600.648841
59362.891972,4071.132681,-6217.729913,3907.087040
59362.892281,1776.494261,-8660.409521,3677.258390
59362.892591,-518.144159,-14211.954086,3600.648841
59362.892900,-1258.350101,-11251.130318,-76.609550
59362.893210,-3552.988522,-8364.327145,0.000000
59362.893519,-74.020594,-9474.636058,-76.609550
59362.893829,-5921.647536,-7772.162391,-2451.505594
59362.894138,-3775.050304,-10658.965565,-1302.362347
59362.894448,-740.205942,-8364.327145,76.609550
59362.894758,2738.761985,-6513.812290,2681.334243
59362.895067,3108.864956,-5995.668130,2451.505594
59362.895377,1036.288319,-8660.409521,2757.943793
59362.895686,-74.020594,-13027.624579,3294.210641
59362.895996,-74.020594,-9474.636058,-76.609550
59362.896305,0.000000,-5995.668130,0.000000
59362.896615,-74.020594,-10658.965565,-76.609550
59362.896924,-3775.050304,-10066.800811,-3370.820191
59362.897234,-2442.679609,-11103.089130,-689.485948
59362.897544,3108.864956,-8808.450710,1762.019645
59362.897853,4589.276840,-6809.894666,2987.772442
59362.898163,2664.741391,-7476.080014,2757.943793
59362.898472,-148.041188,-10732.986159,2145.067394
59362.898782,-592.164754,-13323.706956,2681.334243
59362.899091,-74.020594,-9474.636058,-76.609550
59362.899401,-3256.906145,-5995.668130,0.000000
59362.899710,-74.020594,-9474.636058,-76.609550
59362.900020,-3775.050304,-8068.244768,-3064.381992
59362.900330,-74.020594,-11251.130318,2374.896044
59362.900639,1110.308913,-6217.729913,919.314598
59362.900949,1702.473667,-7772.162391,1991.848295
59362.901258,1110.308913,-8512.368333,689.485948
59362.901568,-1184.329507,-11029.068536,612.876398
59362.901877,0.000000,-11917.315666,612.876398
59362.902187,1406.391290,-11843.295072,2374.896044
59362.902496,-370.102971,-7698.141797,-1455.581446
59362.902806,-1776.494261,-9548.656652,0.000000
59362.903116,-1258.350101,-10658.965565,-76.609550
59362.903425,2886.803174,-9474.636058,2068.457845
59362.903735,4367.215058,-7105.977043,2987.772442
59362.904044,4219.173869,-6291.750507,3447.429741
59362.904354,-148.041188,-9696.697840,1225.752797
59362.904663,-2368.659014,-10732.986159,612.876398
59362.904973,-1184.329507,-11029.068536,1225.752797
59362.905282,-74.020594,-11843.295072,2987.772442
59362.905592,-3330.926739,-7105.977043,-1608.800546
59362.905902,-5625.565159,-9548.656652,0.000000
59362.906211,-3627.009116,-8586.388927,-689.485948
59362.906521,1702.473667,-8142.265362,2068.457845
59362.906830,3256.906145,-4959.379811,3294.210641
59362.907140,3182.885551,-6661.853478,3447.429741
59362.907449,0.000000,-8364.327145,612.876398
59362.907759,-1184.329507,-9548.656652,612.876398
59362.908068,592.164754,-10436.903782,1991.848295
59362.908378,0.000000,-7476.080014,-2451.505594
59362.908688,-74.020594,-11843.295072,-76.609550
59362.908997,-4811.338623,-10362.883188,-2681.334243
59362.909307,-2960.823768,-9548.656652,-1838.629195
59362.909616,4071.132681,-9474.636058,2374.896044
59362.909926,3256.906145,-7179.997637,2757.943793
59362.910235,666.185348,-8290.306550,2451.505594
59362.910545,-2146.597232,-10288.862594,842.705048
59362.910854,-2368.659014,-9548.656652,0.000000
59362.911164,0.000000,-7179.997637,2451.505594
59362.911474,888.247130,-9474.636058,3753.867940
59362.911783,-2738.761985,-7698.141797,-1302.362347
59362.912093,-4737.318029,-9548.656652,0.000000
59362.912402,-370.102971,-9474.636058,-76.609550
59362.912712,3923.091493,-8290.306550,2374.896044
59362.913021,2590.720797,-7254.018232,1991.848295
59362.913331,-370.102971,-9474.636058,306.438199
59362.913640,-2146.597232,-11843.295072,-383.047749
59362.913950,-2960.823768,-9548.656652,-2451.505594
59362.914260,0.000000,-7179.997637,0.000000
59362.914569,-74.020594,-10436.903782,1838.629195
59362.914879,-3923.091493,-8660.409521,-2528.115143
59362.915188,-2368.659014,-10732.986159,0.000000
59362.915498,2590.720797,-9178.553681,3600.648841
59362.915807,6587.832884,-7328.038826,5056.230287
59362.916117,4219.173869,-6365.771101,3907.087040
59362.916426,-518.144159,-9400.615463,1455.581446
59362.916736,-2146.597232,-11103.089130,229.828649
59362.917046,-1850.514855,-8068.244768,-995.924147
59362.917355,-3108.864956,-5995.668130,-2221.676944
59362.917665,-4737.318029,-9548.656652,0.000000
59362.917974,-3627.009116,-11843.295072,-1302.362347
59362.918284,-4737.318029,-9548.656652,0.000000
59362.918593,4071.132681,-9474.636058,4213.525239
59362.918903,3552.988522,-5403.503377,3677.258390
59362.919212,2294.638420,-7476.080014,3064.381992
59362.919522,-296.082377,-9622.677246,1455.581446
59362.919832,0.000000,-10584.944971,229.828649
59362.920141,1110.308913,-8290.306550,-76.609550
59362.920451,-1258.350101,-6513.812290,-1302.362347
59362.920760,-4515.256246,-7328.038826,-3447.429741
59362.921070,-3552.988522,-11325.150913,-1225.752797
59362.921379,1702.473667,-11843.295072,2374.896044
59362.921689,3997.112087,-8364.327145,3217.601092
59362.921998,2960.823768,-6291.750507,2451.505594
59362.922308,1480.411884,-9326.594869,2757.943793
59362.922618,-1850.514855,-11251.130318,1225.752797
59362.922927,-1258.350101,-9992.780217,842.705048
59362.923237,-74.020594,-9474.636058,-76.609550
59362.923546,-74.020594,-8290.306550,-76.609550
59362.923856,-6957.935855,-6587.832884,-2987.772442
59362.924165,-3552.988522,-10955.047942,1225.752797
59362.924475,-74.020594,-7994.224174,1149.143247
59362.924784,2368.659014,-4811.338623,3064.381992
59362.925094,1184.329507,-5107.421000,2145.067394
59362.925404,-444.123565,-9474.636058,1762.019645
59362.925713,-1480.411884,-10955.047942,0.000000
59362.926023,-1184.329507,-10214.842000,-612.876398
59362.926332,1110.308913,-10658.965565,-76.609550
59362.926642,-74.020594,-10658.965565,-76.609550
59362.926952,-2442.679609,-10658.965565,-2528.115143
59362.927261,-3552.988522,-9548.656652,0.000000
59362.927571,2368.659014,-7179.997637,2451.505594
59362.927880,6587.832884,-8734.430116,3677.258390
59362.928190,2516.700203,-7179.997637,3217.601092
59362.928499,-74.020594,-10955.047942,4213.525239
59362.928809,-962.267725,-11251.130318,842.705048
59362.929119,-740.205942,-8808.450710,153.219100
59362.929428,-74.020594,-9474.636058,-76.609550
59362.929738,-2442.679609,-9474.636058,-76.609550
59362.930047,-7031.956449,-8364.327145,-3830.477490
59362.930357,-3552.988522,-9548.656652,306.438199
59362.930667,2886.803174,-8290.306550,2374.896044
59362.930976,1184.329507,-4811.338623,2451.505594
59362.931286,0.000000,-7179.997637,1225.752797
59362.931595,-1184.329507,-9844.739029,612.876398
59362.931905,-740.205942,-9918.759623,-76.609550
59362.932215,518.144159,-8512.368333,76.609550
59362.932524,1702.473667,-10584.944971,1762.019645
59362.932834,-74.020594,-11843.295072,-76.609550
59362.933143,-1258.350101,-11251.130318,-2528.115143
59362.933453,0.000000,-9548.656652,0.000000
59362.933763,5847.626942,-9178.553681,3600.648841
59362.934072,1184.329507,-5995.668130,306.438199
59362.934382,-370.102971,-9030.512492,995.924147
59362.934691,-2516.700203,-11103.089130,383.047749
59362.935001,-740.205942,-9622.677246,919.314598
59362.935310,0.000000,-7920.203579,1378.971896
59362.935620,-1628.453072,-8660.409521,2298.286494
59362.935930,-2738.761985,-11103.089130,1838.629195
59362.936239,-2442.679609,-8290.306550,-1302.362347
59362.936549,0.000000,-7179.997637,1532.190996
59362.936858,4663.297435,-7105.977043,4213.525239
59362.937168,0.000000,-4811.338623,0.000000
59362.937478,-74.020594,-10066.800811,689.485948
59362.937787,-1480.411884,-10288.862594,-383.047749
59362.938097,-740.205942,-9844.739029,-766.095498
59362.938406,-370.102971,-8734.430116,-612.876398
59362.938716,-2368.659014,-9548.656652,0.000000
59362.939026,-3256.906145,-11917.315666,0.000000
59362.939335,2294.638420,-13027.624579,2374.896044
59362.939645,3478.967927,-6957.935855,1455.581446
59362.939954,5921.647536,-7476.080014,4903.011187
59362.940264,2886.803174,-8290.306550,2374.896044
59362.940574,-370.102971,-11843.295072,1608.800546
59362.940883,-1702.473667,-10510.924376,766.095498
59362.941193,0.000000,-8216.285956,1225.752797
59362.941502,-1184.329507,-8068.244768,612.876398
59362.941812,-6513.812290,-7772.162391,0.000000
59362.942121,-5921.647536,-8364.327145,-3677.258390
59362.942431,-2368.659014,-9548.656652,1225.752797
59362.942741,4071.132681,-8290.306550,3600.648841
59362.943050,2220.617826,-4811.338623,0.000000
59362.943360,1110.308913,-9474.636058,2374.896044
59362.943669,-666.185348,-11177.109724,1532.190996
59362.943979,-296.082377,-9474.636058,306.438199
59362.944289,0.000000,-7550.100608,0.000000
59362.944598,-1184.329507,-8364.327145,-459.657299
59362.944908,-5847.626942,-7772.162391,-3524.039291
59362.945217,-4737.318029,-9548.656652,-2834.553343
59362.945527,0.000000,-7476.080014,0.000000
59362.945837,5847.626942,-8290.306550,4213.525239
59362.946146,1332.370696,-6587.832884,2451.505594
59362.946456,-74.020594,-13027.624579,2987.772442
59362.946765,-1628.453072,-11917.315666,1378.971896
59362.947075,-74.020594,-9696.697840,1072.533697
59362.947384,-518.144159,-8882.471304,536.266849
59362.947694,-3627.009116,-8734.430116,-153.219100
59362.948004,-5995.668130,-9030.512492,-2528.115143
59362.948313,-4219.173869,-8882.471304,-689.485948
59362.948623,0.000000,-5995.668130,2451.505594
59362.948932,4663.297435,-6809.894666,3600.648841
59362.949242,1184.329507,-5995.668130,0.000000
59362.949552,-74.020594,-12879.583391,3600.648841
59362.949861,-2072.576638,-9548.656652,0.000000
59362.950171,-74.020594,-9474.636058,76.609550
59362.950480,0.000000,-8142.265362,-612.876398
59362.950790,-2960.823768,-10140.821405,-1838.629195
59362.951100,-3034.844362,-11843.295072,-1302.362347
59362.951409,1110.308913,-11843.295072,2068.457845
59362.951719,3034.844362,-6143.709319,612.876398
59362.952028,4737.318029,-7179.997637,3983.696590
59362.952338,1702.473667,-9474.636058,3600.648841
59362.952648,-1184.329507,-10732.986159,1302.362347
59362.952957,0.000000,-9548.656652,612.876398
59362.953267,1110.308913,-8142.265362,1685.410096
59362.953576,-1332.370696,-8216.285956,76.609550
59362.953886,-3627.009116,-9474.636058,-919.314598
59362.954195,-1258.350101,-11251.130318,-76.609550
59362.954505,3478.967927,-10658.965565,3294.210641
59362.954815,1406.391290,-4811.338623,1225.752797
59362.955124,2960.823768,-7550.100608,3677.258390
59362.955434,-74.020594,-9474.636058,-76.609550
59362.955743,-2368.659014,-9548.656652,0.000000
59362.956053,-1776.494261,-8364.327145,-1149.143247
59362.956363,-444.123565,-8660.409521,-459.657299
59362.956672,-1110.308913,-9178.553681,-1072.533697
59362.956982,-2738.761985,-11103.089130,-1072.533697
59362.957291,-74.020594,-13027.624579,1685.410096
59362.957601,5551.544565,-11103.089130,4826.401637
59362.957911,4663.297435,-6513.812290,2374.896044
59362.958220,2368.659014,-7179.997637,2757.943793
59362.958530,-74.020594,-13027.624579,2374.896044
59362.958839,-3552.988522,-9548.656652,0.000000
59362.959149,814.226536,-7254.018232,383.047749
59362.959459,-518.144159,-8660.409521,1608.800546
59362.959768,-3108.864956,-8734.430116,-689.485948
59362.960078,-5773.606348,-10955.047942,-536.266849
59362.960387,-296.082377,-10436.903782,766.095498
59362.960697,3552.988522,-8660.409521,4903.011187
59362.961006,3478.967927,-7105.977043,2374.896044
59362.961316,-2368.659014,-7179.997637,612.876398
59362.961626,-1258.350101,-13619.789333,2374.896044
59362.961935,-3404.947333,-7328.038826,-2145.067394
59362.962245,-74.020594,-7994.224174,-76.609550
59362.962554,-666.185348,-7476.080014,-459.657299
59362.962864,-2738.761985,-9992.780217,-995.924147
59362.963174,-2442.679609,-10881.027347,-919.314598
59362.963483,0.000000,-10140.821405,1225.752797
59362.963793,1184.329507,-5995.668130,1225.752797
59362.964102,3923.091493,-9474.636058,3600.648841
59362.964412,-666.185348,-9178.553681,536.266849
59362.964722,-4737.318029,-9548.656652,0.000000
59362.965031,-666.185348,-8734.430116,0.000000
59362.965341,1702.473667,-8290.306550,2068.457845
59362.965650,-1628.453072,-8068.244768,229.828649
59362.965960,-3701.029710,-9844.739029,0.000000
59362.966269,-3182.885551,-9474.636058,229.828649
59362.966579,0.000000,-6587.832884,612.876398
59362.966889,0.000000,-4811.338623,1225.752797
59362.967198,3256.906145,-7920.203579,3830.477490
59362.967508,-1258.350101,-11251.130318,1149.143247
59362.967817,-5921.647536,-7179.997637,0.000000
59362.968127,-666.185348,-9474.636058,-689.485948
59362.968437,814.226536,-9030.512492,-76.609550
59362.968746,-3034.844362,-9474.636058,-1532.190996
59362.969056,-4071.132681,-10807.006753,-1225.752797
59362.969365,-444.123565,-10436.903782,689.485948
59362.969675,1480.411884,-5995.668130,612.876398
59362.969985,3552.988522,-3923.091493,1225.752797
59362.970294,1480.411884,-8364.327145,3983.696590
59362.970604,-74.020594,-10658.965565,-76.609550
59362.970913,0.000000,-10732.986159,1225.752797
59362.971223,3478.967927,-9474.636058,1762.019645
59362.971533,-148.041188,-9918.759623,1072.533697
59362.971842,-3404.947333,-10066.800811,-536.266849
59362.972152,-4367.215058,-10807.006753,-995.924147
59362.972461,-666.185348,-8882.471304,536.266849
59362.972771,1702.473667,-5773.606348,2374.896044
59362.973080,3478.967927,-5921.647536,2987.772442
59362.973390,-2368.659014,-7179.997637,612.876398
59362.973700,-962.267725,-11695.253884,2987.772442
59362.974009,-74.020594,-9178.553681,-1302.362347
59362.974319,2442.679609,-9474.636058,2068.457845
59362.974628,0.000000,-7772.162391,306.438199
59362.974938,-2442.679609,-10066.800811,-1149.143247
59362.975248,-2146.597232,-10881.027347,-766.095498
59362.975557,1998.556043,-9474.636058,1685.410096
59362.975867,4663.297435,-7698.141797,3600.648841
59362.976176,3478.967927,-7105.977043,1149.143247
59362.976486,-3552.988522,-8660.409521,0.000000
59362.976796,-2072.576638,-11917.315666,1225.752797
59362.977105,-74.020594,-9474.636058,-76.609550
59362.977415,1184.329507,-10214.842000,2374.896044
59362.977724,-2960.823768,-8068.244768,0.000000
59362.978034,-4219.173869,-10510.924376,-536.266849
59362.978344,-1702.473667,-9400.615463,612.876398
59362.978653,2516.700203,-6587.832884,2911.162892
59362.978963,5255.462188,-7105.977043,4213.525239
59362.979272,3478.967927,-8882.471304,2374.896044
59362.979582,-4737.318029,-8660.409521,-1838.629195
59362.979891,-2664.741391,-10732.986159,1149.143247
59362.980201,-666.185348,-8290.306550,-1915.238745
59362.980511,-1776.494261,-8364.327145,0.000000
59362.980820,-4441.235652,-9548.656652,-2068.457845
59362.981130,-3404.947333,-11473.192101,-1225.752797
59362.981439,518.144159,-9474.636058,995.924147
59362.981749,4663.297435,-7031.956449,2757.943793
59362.982059,6439.791695,-7994.224174,3524.039291
59362.982368,2886.803174,-10436.903782,3600.648841
59362.982678,-1258.350101,-10658.965565,-383.047749
59362.982987,-2072.576638,-10140.821405,0.000000
59362.983297,3478.967927,-11843.295072,-76.609550
59362.983607,-2960.823768,-7772.162391,0.000000
59362.983916,-4811.338623,-10140.821405,-919.314598
59362.984226,-3404.947333,-10732.986159,-459.657299
59362.984535,814.226536,-7698.141797,2068.457845
59362.984845,2886.803174,-5551.544565,2987.772442
59362.985155,2220.617826,-8364.327145,3064.381992
59362.985464,-1184.329507,-10732.986159,2451.505594
59362.985774,-1258.350101,-11251.130318,-76.609550
59362.986083,-2368.659014,-7179.997637,0.000000
59362.986393,1628.453072,-8956.491898,2757.943793
59362.986702,-2368.659014,-5995.668130,0.000000
59362.987012,-2738.761985,-9918.759623,-689.485948
59362.987322,-1184.329507,-10288.862594,0.000000
59362.987631,2812.782580,-8956.491898,2298.286494
59362.987941,4367.215058,-7476.080014,2681.334243
59362.988250,1776.494261,-7476.080014,1838.629195
59362.988560,-2960.823768,-11325.150913,0.000000
59362.988870,-962.267725,-13175.665768,536.266849
59362.989179,-74.020594,-9030.512492,-1608.800546
59362.989489,0.000000,-8364.327145,612.876398
59362.989798,-4071.132681,-7179.997637,0.000000
59362.990108,-2738.761985,-10362.883188,842.705048
59362.990418,74.020594,-8364.327145,1991.848295
59362.990727,3478.967927,-6143.709319,3983.696590
59362.991037,3849.070898,-5181.441594,3907.087040
59362.991346,-2368.659014,-7179.997637,612.876398
59362.991656,-4737.318029,-9548.656652,0.000000
59362.991965,-1628.453072,-11695.253884,-76.609550
59362.992275,-666.185348,-8882.471304,-1915.238745
59362.992585,-3552.988522,-7772.162391,0.000000
59362.992894,-2442.679609,-10066.800811,-1762.019645
59362.993204,-1406.391290,-11103.089130,-76.609550
59362.993513,1406.391290,-9104.533087,1762.019645
59362.993823,4219.173869,-6217.729913,2451.505594
59362.994133,3923.091493,-6439.791695,2834.553343
59362.994442,-1628.453072,-7624.121203,1149.143247
59362.994752,-3256.906145,-9696.697840,-919.314598
59362.995061,0.000000,-9548.656652,0.000000
59362.995371,2294.638420,-9474.636058,-76.609550
59362.995681,-4737.318029,-7179.997637,-2145.067394
59362.995990,-3034.844362,-10658.965565,-1762.019645
59362.996300,-3404.947333,-10436.903782,-766.095498
59362.996609,1628.453072,-8438.347739,2374.896044
59362.996919,3034.844362,-6513.812290,2834.553343
59362.997229,740.205942,-7920.203579,2374.896044
59362.997538,-3330.926739,-9474.636058,-76.609550
59362.997848,-3108.864956,-8660.409521,-1762.019645
59362.998157,0.000000,-8660.409521,612.876398
59362.998467,2294.638420,-9474.636058,3600.648841
59362.998776,-2442.679609,-6291.750507,-1915.238745
59362.999086,-1258.350101,-11547.212695,-1302.362347
59362.999396,-888.247130,-10436.903782,306.438199
59362.999705,2886.803174,-8512.368333,1915.238745
59363.000015,3552.988522,-6957.935855,2068.457845
59363.000324,518.144159,-8882.471304,842.705048
59363.000634,-1258.350101,-11843.295072,-76.609550
59363.000944,-1258.350101,-11843.295072,-383.047749
59363.001253,0.000000,-8660.409521,0.000000
59363.001563,1110.308913,-10658.965565,2374.896044
59363.001872,-4737.318029,-7179.997637,-2451.505594
59363.002182,-1850.514855,-11547.212695,1762.019645
59363.002492,0.000000,-7476.080014,2145.067394
59363.002801,3997.112087,-5107.421000,3830.477490
59363.003111,2664.741391,-5551.544565,3370.820191
59363.003420,-2146.597232,-8808.450710,0.000000
59363.003730,-2442.679609,-11843.295072,-76.609550
59363.004040,-666.185348,-11843.295072,-76.609550
59363.004349,-518.144159,-8290.306550,0.000000
59363.004659,-74.020594,-10658.965565,2528.115143
59363.004968,-3034.844362,-9918.759623,-1915.238745
59363.005278,-1776.494261,-11843.295072,1915.238745
59363.005587,2146.597232,-8216.285956,1838.629195
59363.005897,4737.318029,-6069.688724,3140.991542
59363.006207,3256.906145,-6217.729913,2451.505594
59363.006516,-1184.329507,-9622.677246,383.047749
59363.006826,-814.226536,-12435.459826,0.000000
59363.007135,2294.638420,-12435.459826,-76.609550
59363.007445,-1554.432478,-7179.997637,0.000000
59363.007755,-1332.370696,-11917.315666,2145.067394
59363.008064,-4811.338623,-10066.800811,-1915.238745
59363.008374,-2368.659014,-10436.903782,2451.505594
59363.008683,3478.967927,-7105.977043,3524.039291
59363.008993,4145.153275,-5773.606348,4366.744339
59363.009303,444.123565,-7550.100608,2374.896044
59363.009612,-3330.926739,-10510.924376,0.000000
59363.009922,-2368.659014,-10140.821405,0.000000
59363.010231,1628.453072,-10510.924376,2145.067394
59363.010541,-74.020594,-6661.853478,-76.609550
59363.010850,-1184.329507,-10140.821405,2451.505594
59363.011160,-2442.679609,-10066.800811,-1608.800546
59363.011470,0.000000,-8364.327145,306.438199
59363.011779,4071.132681,-7698.141797,2374.896044
59363.012089,3627.009116,-6661.853478,2068.457845
59363.012398,518.144159,-9326.594869,459.657299
59363.012708,-1924.535449,-11843.295072,-383.047749
59363.013018,-1776.494261,-10140.821405,0.000000
59363.013327,0.000000,-10140.821405,1532.190996
59363.013637,-74.020594,-9474.636058,-76.609550
59363.013946,-4737.318029,-7772.162391,0.000000
59363.014256,-370.102971,-11251.130318,1762.019645
59363.014566,888.247130,-6883.915261,1838.629195
59363.014875,4663.297435,-5625.565159,3677.258390
59363.015185,1924.535449,-6809.894666,2757.943793
59363.015494,-2442.679609,-9770.718434,0.000000
59363.015804,-3923.091493,-11251.130318,-842.705048
59363.016114,-2368.659014,-8364.327145,-1302.362347
59363.016423,-1776.494261,-7179.997637,0.000000
59363.016733,-222.061783,-10362.883188,1762.019645
59363.017042,-6513.812290,-8364.327145,-3064.381992
59363.017352,-74.020594,-11843.295072,1762.019645
59363.017661,1480.411884,-6587.832884,2451.505594
59363.017971,4219.173869,-6513.812290,2987.772442
59363.018281,1776.494261,-7105.977043,1455.581446
59363.018590,-1776.494261,-10436.903782,76.609550
59363.018900,-1554.432478,-11251.130318,-306.438199
59363.019209,-1184.329507,-8734.430116,-1302.362347
59363.019519,-2368.659014,-7179.997637,0.000000
59363.019829,-1850.514855,-10658.965565,842.705048
59363.020138,-6513.812290,-8364.327145,-2451.505594
59363.020448,444.123565,-11103.089130,2834.553343
59363.020757,3034.844362,-5625.565159,2757.943793
59363.021067,3849.070898,-6587.832884,4443.353888
59363.021377,-518.144159,-8586.388927,1838.629195
59363.021686,-3108.864956,-10140.821405,306.438199
59363.021996,-2220.617826,-9326.594869,-76.609550
59363.022305,-74.020594,-8290.306550,-76.609550
59363.022615,-2146.597232,-6587.832884,-995.924147
59363.022925,-3849.070898,-9548.656652,0.000000
59363.023234,-1258.350101,-11843.295072,-1302.362347
59363.023544,0.000000,-7179.997637,0.000000
59363.023853,3478.967927,-6513.812290,612.876398
59363.024163,2960.823768,-7254.018232,2451.505594
59363.024472,-222.061783,-10436.903782,919.314598
59363.024782,-1258.350101,-11991.336260,76.609550
59363.025092,296.082377,-11029.068536,995.924147
59363.025401,1702.473667,-9474.636058,2068.457845
59363.025711,-1258.350101,-8290.306550,-383.047749
59363.026020,-4145.153275,-9548.656652,0.000000
59363.026330,-74.020594,-9474.636058,-76.609550
59363.026639,592.164754,-4811.338623,2451.505594
59363.026949,5255.462188,-5773.606348,2987.772442
59363.027259,1184.329507,-7179.997637,1685.410096
59363.027568,-3182.885551,-10658.965565,-459.657299
59363.027878,-3552.988522,-11473.192101,-995.924147
59363.028187,-2072.576638,-9844.739029,306.438199
59363.028497,814.226536,-9400.615463,-153.219100
59363.028806,-666.185348,-10658.965565,-689.485948
59363.029116,-4737.318029,-9548.656652,-2145.067394
59363.029426,1110.308913,-10658.965565,1762.019645
59363.029735,0.000000,-3627.009116,0.000000
59363.030045,5033.400406,-5403.503377,3294.210641
59363.030354,1406.391290,-7105.977043,1608.800546
59363.030664,-1480.411884,-10362.883188,0.000000
59363.030973,-1110.308913,-11621.233289,-383.047749
59363.031283,222.061783,-9770.718434,0.000000
59363.031593,-74.020594,-9844.739029,1532.190996
59363.031902,-2442.679609,-11251.130318,-76.609550
59363.032212,-5329.482782,-9548.656652,-4290.134789
59363.032521,3182.885551,-11843.295072,4519.963438
59363.032831,4663.297435,-5921.647536,3294.210641
59363.033140,3923.091493,-6809.894666,6052.154434
59363.033450,-740.205942,-9030.512492,919.314598
59363.033759,-2590.720797,-10436.903782,0.000000
59363.034069,-1258.350101,-9548.656652,383.047749
59363.034379,-592.164754,-8068.244768,0.000000
59363.034688,-1776.494261,-8364.327145,0.000000
59363.034998,-1554.432478,-10658.965565,-76.609550
59363.035307,-3182.885551,-9918.759623,-2528.115143
59363.035617,1184.329507,-7772.162391,1838.629195
59363.035926,4663.297435,-8290.306550,2987.772442
59363.036236,2664.741391,-8586.388927,3600.648841
59363.036546,-1628.453072,-10807.006753,536.266849
59363.036855,-1258.350101,-11325.150913,76.609550
59363.037165,222.061783,-10436.903782,689.485948
59363.037474,1184.329507,-7772.162391,0.000000
59363.037784,-4145.153275,-8364.327145,0.000000
59363.038093,-3552.988522,-9548.656652,306.438199
59363.038403,-1258.350101,-9474.636058,-76.609550
59363.038713,2368.659014,-6587.832884,3064.381992
59363.039022,6439.791695,-7105.977043,4826.401637
59363.039332,0.000000,-9548.656652,3677.258390
59363.039641,-3627.009116,-10658.965565,-689.485948
59363.039951,-3775.050304,-11547.212695,-919.314598
59363.040260,-518.144159,-8956.491898,0.000000
59363.040570,-1332.370696,-7772.162391,0.000000
59363.040880,-4145.153275,-7772.162391,-2451.505594
59363.041189,-4737.318029,-10140.821405,0.000000
59363.041499,2664.741391,-10658.965565,4213.525239
59363.041808,2072.576638,-4811.338623,1225.752797
59363.042118,4663.297435,-6069.688724,5439.278036
59363.042427,592.164754,-7772.162391,2451.505594
59363.042737,-592.164754,-11325.150913,842.705048
59363.043047,-962.267725,-10658.965565,-612.876398
59363.043356,-518.144159,-10362.883188,0.000000
59363.043666,-1776.494261,-9474.636058,-995.924147
59363.043975,-4515.256246,-9178.553681,-4366.744339
59363.044285,-4145.153275,-9548.656652,-1225.752797
59363.044594,2368.659014,-9548.656652,4903.011187
59363.044904,4663.297435,-5921.647536,2987.772442
59363.045214,1776.494261,-5995.668130,3677.258390
59363.045523,-1184.329507,-8364.327145,612.876398
59363.045833,-1406.391290,-10436.903782,536.266849
59363.046142,-222.061783,-8882.471304,536.266849
59363.046452,592.164754,-7550.100608,842.705048
59363.046761,-1258.350101,-9474.636058,-76.609550
59363.047071,-3034.844362,-9474.636058,-1302.362347
59363.047381,-4145.153275,-9548.656652,-2221.676944
59363.047690,1776.494261,-8956.491898,3677.258390
59363.048000,4663.297435,-7698.141797,1762.019645
59363.048309,592.164754,-7179.997637,1225.752797
59363.048619,-1924.535449,-9548.656652,0.000000
59363.048928,-740.205942,-11251.130318,229.828649
59363.049238,518.144159,-9622.677246,459.657299
59363.049547,370.102971,-9104.533087,383.047749
59363.049857,-1258.350101,-10955.047942,-76.609550
59363.050167,-1258.350101,-11251.130318,-76.609550
59363.050476,-74.020594,-8882.471304,842.705048
59363.050786,2960.823768,-7179.997637,4903.011187
59363.051095,4663.297435,-7698.141797,3600.648841
59363.051405,-2368.659014,-7772.162391,0.000000
59363.051714,-3627.009116,-11029.068536,-1072.533697
59363.052024,-2368.659014,-10436.903782,0.000000
59363.052334,-444.123565,-9326.594869,919.314598
59363.052643,-1036.288319,-8364.327145,1302.362347
59363.052953,-1332.370696,-11029.068536,2298.286494
59363.053262,-814.226536,-11843.295072,2374.896044
59363.053572,1702.473667,-7698.141797,1608.800546
59363.053881,1480.411884,-4811.338623,2451.505594
59363.054191,4663.297435,-7105.977043,3600.648841
59363.054501,-2368.659014,-7179.997637,0.000000
59363.054810,-2442.679609,-11843.295072,-76.609550
59363.055120,-2220.617826,-10584.944971,-995.924147
59363.055429,-1258.350101,-9770.718434,-229.828649
59363.055739,-2812.782580,-9622.677246,-766.095498
59363.056048,-4737.318029,-10140.821405,0.000000
59363.056358,-888.247130,-11843.295072,2757.943793
59363.056668,3478.967927,-7698.141797,3294.210641
59363.056977,2368.659014,-4811.338623,4903.011187
59363.057287,4663.297435,-8882.471304,4213.525239
59363.057596,-2738.761985,-7772.162391,76.609550
59363.057906,-666.185348,-10658.965565,1149.143247
59363.058215,-592.164754,-9178.553681,0.000000
59363.058525,-888.247130,-8956.491898,459.657299
59363.058835,-4071.132681,-9474.636058,-1378.971896
59363.059144,-6513.812290,-10732.986159,-2451.505594
59363.059454,-2368.659014,-10140.821405,306.438199
59363.059763,4219.173869,-8586.388927,4213.525239
59363.060073,4663.297435,-5921.647536,2068.457845
59363.060382,0.000000,-8364.327145,2451.505594
59363.060692,-370.102971,-11843.295072,-76.609550
59363.061002,962.267725,-11547.212695,842.705048
59363.061311,666.185348,-8882.471304,229.828649
59363.061621,-814.226536,-8142.265362,76.609550
59363.061930,-3108.864956,-9252.574275,-766.095498
59363.062240,-4145.153275,-8660.409521,-2451.505594
59363.062549,592.164754,-7179.997637,2451.505594
59363.062859,5477.523971,-8068.244768,6358.592633
59363.063169,3478.967927,-6513.812290,1762.019645
59363.063478,-3552.988522,-9548.656652,0.000000
59363.063788,-1258.350101,-14211.954086,-76.609550
59363.064097,-74.020594,-11399.171507,1149.143247
59363.064407,296.082377,-8586.388927,766.095498
59363.064716,-2294.638420,-8882.471304,-229.828649
59363.065026,-3923.091493,-9622.677246,-1455.581446
59363.065335,-3627.009116,-8364.327145,-1762.019645
59363.065645,0.000000,-4811.338623,0.000000
59363.065955,4737.318029,-5699.585753,4903.011187
59363.066264,6439.791695,-9474.636058,3600.648841
59363.066574,-2368.659014,-9548.656652,0.000000
59363.066883,-74.020594,-14211.954086,2374.896044
59363.067193,0.000000,-10140.821405,153.219100
59363.067502,-888.247130,-9178.553681,-383.047749
59363.067812,-3701.029710,-9548.656652,-1915.238745
59363.068122,-4737.318029,-11103.089130,-1455.581446
59363.068431,-74.020594,-8882.471304,1149.143247
59363.068741,2072.576638,-4885.359217,919.314598
59363.069050,3849.070898,-4811.338623,4903.011187
59363.069360,4367.215058,-9474.636058,4213.525239
59363.069669,-4145.153275,-8364.327145,0.000000
59363.069979,-74.020594,-11917.315666,3217.601092
59363.070289,0.000000,-7772.162391,0.000000
59363.070598,-1554.432478,-8734.430116,-229.828649
59363.070908,-4663.297435,-10140.821405,-1302.362347
59363.071217,-4737.318029,-11103.089130,-1225.752797
59363.071527,1702.473667,-9474.636058,1762.019645
59363.071836,4071.132681,-5329.482782,1762.019645
59363.072146,3330.926739,-3627.009116,1302.362347
59363.072456,592.164754,-9548.656652,3983.696590
59363.072765,-666.185348,-10658.965565,-76.609550
59363.073075,-1776.494261,-9548.656652,306.438199
59363.073384,-2072.576638,-8364.327145,-1225.752797
59363.073694,-2738.761985,-9474.636058,-1302.362347
59363.074003,-4441.235652,-10436.903782,-1532.190996
59363.074313,-2590.720797,-10362.883188,-229.828649
59363.074623,4367.215058,-9474.636058,4826.401637
59363.074932,7031.956449,-7105.977043,3600.648841
59363.075242,2294.638420,-7105.977043,1762.019645
59363.075551,-2368.659014,-10732.986159,1532.190996
59363.075861,-1258.350101,-11547.212695,-76.609550
59363.076170,-3256.906145,-7179.997637,0.000000
59363.076480,-1554.432478,-7476.080014,0.000000
59363.076790,-3552.988522,-9178.553681,-536.266849
59363.077099,-4737.318029,-10140.821405,-995.924147
59363.077409,-1998.556043,-9548.656652,76.609550
59363.077718,4071.132681,-9030.512492,4519.963438
59363.078028,8216.285956,-8290.306550,4826.401637
59363.078337,2886.803174,-8290.306550,2374.896044
59363.078647,-4145.153275,-8364.327145,0.000000
59363.078957,-74.020594,-11843.295072,-76.609550
59363.079266,-3552.988522,-5995.668130,-3064.381992
59363.079576,-1258.350101,-8586.388927,-1302.362347
59363.079885,-4219.173869,-9548.656652,-1762.019645
59363.080195,-3701.029710,-11325.150913,-1149.143247
59363.080504,370.102971,-8734.430116,919.314598
59363.080814,4737.318029,-7772.162391,5209.449386
59363.081123,5847.626942,-9474.636058,4826.401637
59363.081433,-74.020594,-10658.965565,-76.609550
59363.081743,-4737.318029,-9548.656652,0.000000
59363.082052,-74.020594,-10955.047942,1915.238745
59363.082362,-666.185348,-5995.668130,229.828649
59363.082671,1110.308913,-8882.471304,1149.143247
59363.082981,-2960.823768,-9548.656652,0.000000
59363.083290,-2590.720797,-9770.718434,-536.266849
59363.083600,1110.308913,-8364.327145,1455.581446
59363.083910,2960.823768,-5403.503377,2451.505594
59363.084219,3552.988522,-7920.203579,4290.134789
59363.084529,-74.020594,-13027.624579,3600.648841
59363.084838,-3034.844362,-9548.656652,-2068.457845
59363.085148,740.205942,-11547.212695,919.314598
59363.085457,814.226536,-7698.141797,-1915.238745
59363.085767,-962.267725,-10658.965565,-76.609550
59363.086077,-3849.070898,-10362.883188,-1608.800546
59363.086386,-1036.288319,-10288.862594,0.000000
59363.086696,3775.050304,-7550.100608,2451.505594
59363.087005,2368.659014,-4811.338623,3064.381992
59363.087315,0.000000,-7179.997637,2451.505594
59363.087624,-592.164754,-12213.398043,3677.258390
59363.087934,-74.020594,-11547.212695,-76.609550
59363.088244,0.000000,-8364.327145,766.095498
59363.088553,-74.020594,-9474.636058,2374.896044
59363.088863,-2812.782580,-10066.800811,766.095498
59363.089172,-4663.297435,-10955.047942,-1378.971896
59363.089482,-1776.494261,-9770.718434,0.000000
59363.089791,2072.576638,-6809.894666,1838.629195
59363.090101,888.247130,-4811.338623,612.876398
59363.090411,-2368.659014,-7179.997637,612.876398
59363.090720,-1776.494261,-10732.986159,2451.505594
59363.091030,-74.020594,-10658.965565,-76.609550
59363.091339,0.000000,-7328.038826,306.438199
59363.091649,-74.020594,-11843.295072,-76.609550
59363.091958,-3849.070898,-9548.656652,-612.876398
59363.092268,-3182.885551,-11399.171507,-383.047749
59363.092578,1110.308913,-9178.553681,1685.410096
59363.092887,4071.132681,-7624.121203,3370.820191
59363.093197,2294.638420,-6809.894666,1149.143247
59363.093506,-3923.091493,-7772.162391,0.000000
59363.093816,-4145.153275,-9548.656652,0.000000
59363.094125,2294.638420,-10658.965565,1149.143247
59363.094435,0.000000,-7179.997637,919.314598
59363.094745,-74.020594,-10658.965565,1762.019645
59363.095054,-5921.647536,-9548.656652,-1838.629195
59363.095364,-3256.906145,-10955.047942,-842.705048
59363.095673,1184.329507,-7994.224174,1685.410096
59363.095983,3256.906145,-6587.832884,2681.334243
59363.096292,2294.638420,-7994.224174,1762.019645
59363.096602,-1554.432478,-9474.636058,-689.485948
59363.096912,-4441.235652,-7772.162391,-2451.505594
59363.097221,1776.494261,-11029.068536,1762.019645
59363.097531,-1406.391290,-7105.977043,-1302.362347
59363.097840,-4145.153275,-9548.656652,0.000000
59363.098150,-5625.565159,-9696.697840,-1838.629195
59363.098459,74.020594,-10288.862594,1608.800546
59363.098769,4663.297435,-7254.018232,3140.991542
59363.099078,4811.338623,-6069.688724,3907.087040
59363.099388,3478.967927,-9474.636058,3600.648841
59363.099698,-74.020594,-11843.295072,-76.609550
59363.100007,-2294.638420,-8068.244768,-1762.019645
59363.100317,592.164754,-9548.656652,1838.629195
59363.100626,-1850.514855,-9178.553681,-383.047749
59363.100936,-7105.977043,-9548.656652,0.000000
59363.101245,-3849.070898,-10140.821405,-1149.143247
59363.101555,370.102971,-8734.430116,1685.410096
59363.101865,3997.112087,-6365.771101,3064.381992
59363.102174,3478.967927,-6513.812290,3217.601092
59363.102484,2294.638420,-10658.965565,4060.306139
59363.102793,-74.020594,-13027.624579,3600.648841
59363.103103,-1258.350101,-7920.203579,-1915.238745
59363.103412,592.164754,-9252.574275,1532.190996
59363.103722,-666.185348,-8734.430116,-995.924147
59363.104032,-7105.977043,-8364.327145,-3064.381992
59363.104341,-2442.679609,-10807.006753,-1149.143247
59363.104651,2146.597232,-8808.450710,1915.238745
59363.104960,4589.276840,-7105.977043,3217.601092
59363.105270,1924.535449,-7179.997637,2604.724693
59363.105579,-1184.329507,-12213.398043,3370.820191
59363.105889,-74.020594,-12287.418637,2911.162892
59363.106199,1702.473667,-8290.306550,-76.609550
59363.106508,0.000000,-7476.080014,1838.629195
59363.106818,-1258.350101,-9474.636058,-76.609550
59363.107127,-4811.338623,-8068.244768,-3524.039291
59363.107437,-814.226536,-10362.883188,842.705048
59363.107746,1924.535449,-7254.018232,2068.457845
59363.108056,3478.967927,-7031.956449,2911.162892
59363.108366,1258.350101,-8216.285956,2068.457845
59363.108675,-2368.659014,-10732.986159,1838.629195
59363.108985,-592.164754,-10732.986159,0.000000
59363.109294,2294.638420,-11843.295072,-76.609550
59363.109604,-3256.906145,-7328.038826,0.000000
59363.109913,-2442.679609,-10955.047942,-76.609550
59363.110223,-3627.009116,-9474.636058,-3140.991542
59363.110533,1702.473667,-9474.636058,2221.676944
59363.110842,4145.153275,-7328.038826,2987.772442
59363.111152,3552.988522,-6513.812290,3447.429741
59363.111461,-888.247130,-9474.636058,1455.581446
59363.111771,-3552.988522,-9548.656652,0.000000
59363.112080,0.000000,-9548.656652,0.000000
59363.112390,2886.803174,-11251.130318,3600.648841
59363.112700,-2738.761985,-7772.162391,-1608.800546
59363.113009,-4589.276840,-10732.986159,-76.609550
59363.113319,-2442.679609,-11843.295072,-689.485948
59363.113628,1554.432478,-8808.450710,2068.457845
59363.113938,3108.864956,-7105.977043,2528.115143
59363.114247,1924.535449,-7105.977043,2834.553343
59363.114557,-2072.576638,-10066.800811,536.266849
59363.114866,-4145.153275,-8364.327145,-2451.505594
59363.115176,-2368.659014,-5995.668130,-2451.505594
59363.115486,1184.329507,-9400.615463,2451.505594
59363.115795,-2738.761985,-7994.224174,-1302.362347
59363.116105,-3552.988522,-11103.089130,-76.609550
59363.116414,-74.020594,-11843.295072,-76.609550
59363.116724,3552.988522,-7624.121203,3064.381992
59363.117033,4811.338623,-6957.935855,3447.429741
59363.117343,592.164754,-8734.430116,1685.410096
59363.117653,-1850.514855,-11843.295072,766.095498
59363.117962,-2442.679609,-9178.553681,-1608.800546
59363.118272,0.000000,-8142.265362,-76.609550
59363.118581,-2368.659014,-7179.997637,0.000000
59363.118891,-2442.679609,-11843.295072,-76.609550
59363.119200,-5477.523971,-9548.656652,-4290.134789
59363.119510,666.185348,-11251.130318,3830.477490
59363.119820,2664.741391,-6143.709319,3064.381992
59363.120129,3404.947333,-6069.688724,3370.820191
59363.120439,-518.144159,-8512.368333,1149.143247
59363.120748,-2590.720797,-10658.965565,0.000000
59363.121058,-370.102971,-9474.636058,-76.609550
59363.121367,-74.020594,-8290.306550,-76.609550
59363.121677,-3552.988522,-7179.997637,0.000000
59363.121987,-1258.350101,-11251.130318,-76.609550
59363.122296,-2960.823768,-9548.656652,0.000000
59363.122606,3701.029710,-10807.006753,4443.353888
59363.122915,3849.070898,-5995.668130,2451.505594
59363.123225,2220.617826,-7476.080014,2298.286494
59363.123534,-1850.514855,-10658.965565,383.047749
59363.123844,-1850.514855,-11325.150913,-306.438199
59363.124154,2294.638420,-10658.965565,-76.609550
59363.124463,3478.967927,-11251.130318,3600.648841
59363.124773,-1850.514855,-8290.306550,-1302.362347
59363.125082,-4145.153275,-10732.986159,0.000000
59363.125392,-1258.350101,-10066.800811,-76.609550
59363.125701,1184.329507,-7179.997637,3064.381992
59363.126011,3404.947333,-5625.565159,2528.115143
59363.126321,1036.288319,-7402.059420,2451.505594
59363.126630,-2072.576638,-10881.027347,995.924147
59363.126940,-2146.597232,-10584.944971,-306.438199
59363.127250,2294.638420,-10658.965565,2374.896044
59363.127559,2294.638420,-9474.636058,2374.896044
59363.127869,-3627.009116,-8290.306550,-1915.238745
59363.128179,-4737.318029,-10732.986159,-1225.752797
59363.128489,0.000000,-9548.656652,2451.505594
59363.128798,3627.009116,-8068.244768,3370.820191
59363.129108,3701.029710,-6883.915261,2681.334243
59363.129418,-74.020594,-11547.212695,3217.601092
59363.129727,-2442.679609,-11695.253884,-229.828649
59363.130037,-1110.308913,-10362.883188,0.000000
59363.130347,2294.638420,-8882.471304,2374.896044
59363.130657,-74.020594,-9474.636058,2374.896044
59363.130966,-5403.503377,-7772.162391,-2451.505594
59363.131276,-2960.823768,-11621.233289,612.876398
59363.131586,666.185348,-5403.503377,-995.924147
59363.131895,2368.659014,-5995.668130,3677.258390
59363.132205,1850.514855,-5551.544565,1991.848295
59363.132515,-1480.411884,-9844.739029,383.047749
59363.132824,-2294.638420,-11621.233289,-76.609550
59363.133134,-592.164754,-10288.862594,76.609550
59363.133444,2294.638420,-11251.130318,2068.457845
59363.133754,-74.020594,-13027.624579,-76.609550
59363.134063,-4811.338623,-9104.533087,-2374.896044
59363.134373,-1776.494261,-10140.821405,1225.752797
59363.134683,3478.967927,-7105.977043,2374.896044
59363.134992,2368.659014,-3627.009116,2451.505594
59363.135302,1998.556043,-6957.935855,1991.848295
59363.135612,-1776.494261,-10214.842000,612.876398
59363.135922,-1628.453072,-10732.986159,0.000000
59363.136231,148.041188,-9474.636058,306.438199
59363.136541,1406.391290,-10436.903782,1225.752797
59363.136851,-1776.494261,-11029.068536,1225.752797
59363.137160,-2442.679609,-13027.624579,-76.609550
59363.137470,-2072.576638,-8364.327145,0.000000
59363.137780,4663.297435,-9252.574275,5515.887586
59363.138089,1554.432478,-3627.009116,2451.505594
59363.138399,370.102971,-8290.306550,1915.238745
59363.138709,-2738.761985,-10658.965565,612.876398
59363.139019,-1406.391290,-9992.780217,229.828649
59363.139328,222.061783,-8512.368333,383.047749
59363.139638,-1184.329507,-8364.327145,0.000000
59363.139948,-4737.318029,-9548.656652,0.000000
59363.140257,-666.185348,-13027.624579,-76.609550
59363.140567,296.082377,-7772.162391,306.438199
59363.140877,5847.626942,-9474.636058,5975.544884
59363.141187,2294.638420,-5477.523971,689.485948
59363.141496,-370.102971,-10658.965565,689.485948
59363.141806,-1850.514855,-11547.212695,-76.609550
59363.142116,296.082377,-9992.780217,536.266849
59363.142425,1110.308913,-8364.327145,1455.581446
59363.142735,-2368.659014,-7179.997637,0.000000
59363.143045,-6809.894666,-9548.656652,0.000000
59363.143354,-740.205942,-11843.295072,2068.457845
59363.143664,1998.556043,-6809.894666,1455.581446
59363.143974,5329.482782,-8068.244768,5975.544884
59363.144284,2294.638420,-6513.812290,995.924147
59363.144593,-1850.514855,-11103.089130,995.924147
59363.144903,-2886.803174,-11325.150913,-536.266849
59363.145213,-1480.411884,-9548.656652,-306.438199
59363.145522,-1036.288319,-8512.368333,-306.438199
59363.145832,-5625.565159,-7179.997637,-2298.286494
59363.146142,-5403.503377,-8364.327145,-2451.505594
59363.146452,0.000000,-9548.656652,2451.505594
59363.146761,5255.462188,-7994.224174,3600.648841
59363.147071,1184.329507,-3034.844362,612.876398
59363.147381,2294.638420,-9326.594869,1149.143247
59363.147690,-2664.741391,-10881.027347,0.000000
59363.148000,-1332.370696,-11547.212695,-306.438199
59363.148310,148.041188,-9326.594869,-153.219100
59363.148619,-1258.350101,-9696.697840,-383.047749
59363.148929,-3330.926739,-10362.883188,-1608.800546
59363.149239,-3923.091493,-9252.574275,-2221.676944
59363.149549,0.000000,-8364.327145,1838.629195
59363.149858,5255.462188,-7105.977043,4213.525239
59363.150168,1406.391290,-3923.091493,1608.800546
59363.150478,1110.308913,-10658.965565,2374.896044
59363.150787,-3552.988522,-11029.068536,612.876398
59363.151097,-1480.411884,-9770.718434,-76.609550
59363.151407,0.000000,-8216.285956,76.609550
59363.151717,-814.226536,-8068.244768,459.657299
59363.152026,-3034.844362,-9178.553681,-689.485948
59363.152336,-1258.350101,-9474.636058,-76.609550
59363.152646,0.000000,-7179.997637,1532.190996
59363.152955,4959.379811,-7105.977043,5132.839837
59363.153265,1702.473667,-6513.812290,-76.609550
59363.153575,-1184.329507,-11621.233289,1762.019645
59363.153884,-2294.638420,-11177.109724,-1302.362347
59363.154194,444.123565,-10436.903782,383.047749
59363.154504,888.247130,-8364.327145,919.314598
59363.154814,-2368.659014,-9326.594869,-306.438199
59363.155123,-2442.679609,-11843.295072,-76.609550
59363.155433,-74.020594,-11843.295072,2374.896044
59363.155743,1184.329507,-5403.503377,1225.752797
59363.156052,5625.565159,-6957.935855,6052.154434
59363.156362,-74.020594,-5181.441594,536.266849
59363.156672,-2960.823768,-11325.150913,2757.943793
59363.156982,-2294.638420,-10658.965565,-536.266849
59363.157291,-370.102971,-9844.739029,76.609550
59363.157601,-888.247130,-8882.471304,-76.609550
59363.157911,-2960.823768,-10288.862594,0.000000
59363.158220,-1702.473667,-12435.459826,612.876398
59363.158530,2886.803174,-11547.212695,3600.648841
59363.158840,2886.803174,-4959.379811,1455.581446
59363.159149,3256.906145,-5699.585753,3907.087040
59363.159459,-1554.432478,-7105.977043,-1302.362347
59363.159769,-4737.318029,-9548.656652,0.000000
59363.160079,-518.144159,-10955.047942,-306.438199
59363.160388,740.205942,-9400.615463,306.438199
59363.160698,-888.247130,-9104.533087,-459.657299
59363.161008,-3330.926739,-10955.047942,-1302.362347
59363.161317,-2220.617826,-12509.480420,612.876398
59363.161627,3775.050304,-10288.862594,4366.744339
59363.161937,5255.462188,-6365.771101,2987.772442
59363.162247,2368.659014,-5995.668130,2451.505594
59363.162556,592.164754,-11769.274478,3217.601092
59363.162866,-2960.823768,-10140.821405,229.828649
59363.163176,-148.041188,-9770.718434,766.095498
59363.163485,0.000000,-7698.141797,459.657299
59363.163795,-2220.617826,-8142.265362,-306.438199
59363.164105,-4293.194464,-9992.780217,-842.705048
59363.164414,-2368.659014,-8956.491898,0.000000
59363.164724,1184.329507,-5995.668130,2451.505594
59363.165034,5847.626942,-6809.894666,3600.648841
59363.165344,0.000000,-5403.503377,-1455.581446
59363.165653,-3552.988522,-10732.986159,0.000000
59363.165963,-1776.494261,-10732.986159,0.000000
59363.166273,1406.391290,-10140.821405,842.705048
59363.166582,0.000000,-9104.533087,842.705048
59363.166892,-2960.823768,-9770.718434,-459.657299
59363.167202,-3404.947333,-11325.150913,-153.219100
59363.167512,0.000000,-7179.997637,919.314598
59363.167821,1184.329507,-4811.338623,2451.505594
59363.168131,5847.626942,-7105.977043,4213.525239
59363.168441,-740.205942,-7179.997637,0.000000
59363.168750,-1480.411884,-12657.521608,2451.505594
59363.169060,-1554.432478,-10658.965565,-1838.629195
59363.169370,-666.185348,-9696.697840,229.828649
59363.169679,-1554.432478,-8956.491898,0.000000
59363.169989,-3849.070898,-10362.883188,-383.047749
59363.170299,-2960.823768,-9918.759623,766.095498
59363.170609,0.000000,-5773.606348,1608.800546
59363.170918,1184.329507,-3627.009116,1225.752797
59363.171228,3997.112087,-7105.977043,3600.648841
59363.171538,-1850.514855,-8586.388927,-2451.505594
59363.171847,-1036.288319,-13323.706956,-76.609550
59363.172157,-74.020594,-11251.130318,-2221.676944
59363.172467,296.082377,-9252.574275,0.000000
59363.172777,-1554.432478,-9844.739029,-153.219100
59363.173086,-3627.009116,-11621.233289,-919.314598
59363.173396,-1036.288319,-10584.944971,2374.896044
59363.173706,2590.720797,-7994.224174,2374.896044
59363.174015,3923.091493,-4145.153275,2374.896044
59363.174325,2368.659014,-7179.997637,3677.258390
59363.174635,-666.185348,-9622.677246,-76.609550
59363.174944,-3552.988522,-10140.821405,0.000000
59363.175254,-74.020594,-9474.636058,-383.047749
59363.175564,-1480.411884,-7994.224174,0.000000
59363.175874,-2738.761985,-9104.533087,-306.438199
59363.176183,-4071.132681,-11029.068536,-76.609550
59363.176493,-74.020594,-9992.780217,1991.848295
59363.176803,4071.132681,-7105.977043,2374.896044
59363.177112,3478.967927,-5033.400406,1608.800546
59363.177422,0.000000,-8364.327145,612.876398
59363.177732,-1258.350101,-12731.542202,-76.609550
59363.178041,-3552.988522,-9548.656652,0.000000
59363.178351,2886.803174,-9918.759623,1149.143247
59363.178661,0.000000,-8068.244768,0.000000
59363.178971,-2590.720797,-9844.739029,-536.266849
59363.179280,-2960.823768,-10658.965565,-153.219100
59363.179590,1258.350101,-8364.327145,1838.629195
59363.179900,6735.874072,-7698.141797,3600.648841
59363.180209,4663.297435,-7105.977043,3600.648841
59363.180519,-2960.823768,-8364.327145,0.000000
59363.180829,-1850.514855,-13027.624579,-76.609550
59363.181139,-4737.318029,-9548.656652,0.000000
59363.181448,0.000000,-9178.553681,2374.896044
59363.181758,-2368.659014,-8290.306550,-459.657299
59363.182068,-4515.256246,-9474.636058,-536.266849
59363.182377,-2738.761985,-9696.697840,76.609550
59363.182687,1850.514855,-7031.956449,1225.752797
59363.182997,4959.379811,-6735.874072,4136.915689
59363.183306,3478.967927,-8882.471304,2987.772442
59363.183616,-3034.844362,-10066.800811,-842.705048
59363.183926,-3552.988522,-10732.986159,0.000000
59363.184236,-74.020594,-11251.130318,-76.609550
59363.184545,0.000000,-10214.842000,2374.896044
59363.184855,-1998.556043,-9918.759623,-536.266849
59363.185165,-3849.070898,-11399.171507,-306.438199
59363.185474,-296.082377,-10140.821405,1532.190996
59363.185784,2886.803174,-7179.997637,1225.752797
59363.186094,4441.235652,-6069.688724,3677.258390
59363.186404,2368.659014,-9400.615463,4060.306139
59363.186713,-2442.679609,-10658.965565,229.828649
59363.187023,-3552.988522,-9548.656652,1225.752797
59363.187333,1998.556043,-10658.965565,2374.896044
59363.187642,-2368.659014,-8364.327145,766.095498
59363.187952,-3627.009116,-9326.594869,-689.485948
59363.188262,-4737.318029,-10066.800811,-536.266849
59363.188571,0.000000,-8364.327145,1455.581446
59363.188881,4293.194464,-5107.421000,2374.896044
59363.189191,3552.988522,-4811.338623,1225.752797
59363.189501,0.000000,-9548.656652,2451.505594
59363.189810,-74.020594,-12435.459826,-76.609550
59363.190120,0.000000,-9548.656652,0.000000
59363.190430,3478.967927,-11251.130318,-76.609550
59363.190739,-1628.453072,-7476.080014,0.000000
59363.191049,-3478.967927,-10955.047942,-1149.143247
59363.191359,-1850.514855,-11621.233289,-76.609550
59363.191669,2368.659014,-8882.471304,1762.019645
59363.191978,4515.256246,-6513.812290,3294.210641
59363.192288,1184.329507,-5995.668130,612.876398
59363.192598,-296.082377,-11843.295072,2451.505594
59363.192907,-1258.350101,-11547.212695,-76.609550
59363.193217,296.082377,-10881.027347,2451.505594
59363.193527,-74.020594,-7105.977043,-76.609550
59363.193836,-3997.112087,-7476.080014,0.000000
59363.194146,-4219.173869,-10658.965565,-306.438199
59363.194456,-1628.453072,-9992.780217,536.266849
59363.194766,2368.659014,-6365.771101,2145.067394
59363.195075,4441.235652,-5329.482782,2987.772442
59363.195385,0.000000,-6291.750507,0.000000
59363.195695,-1776.494261,-11029.068536,1225.752797
59363.196004,-74.020594,-11843.295072,-76.609550
59363.196314,0.000000,-9548.656652,612.876398
59363.196624,-74.020594,-9474.636058,-76.609550
59363.196934,-4737.318029,-9548.656652,0.000000
59363.197243,-3330.926739,-11843.295072,-459.657299
59363.197553,518.144159,-9474.636058,1149.143247
59363.197863,4071.132681,-6883.915261,2987.772442
59363.198172,4145.153275,-5625.565159,3600.648841
59363.198482,0.000000,-7179.997637,0.000000
59363.198792,-3552.988522,-10140.821405,1225.752797
59363.199101,-74.020594,-11843.295072,1762.019645
59363.199411,-4145.153275,-5995.668130,0.000000
59363.199721,-74.020594,-10658.965565,2987.772442
59363.200031,-5921.647536,-7179.997637,0.000000
59363.200340,-3330.926739,-10955.047942,459.657299
59363.200650,814.226536,-8216.285956,1991.848295
59363.200960,3478.967927,-6439.791695,2757.943793
59363.201269,3478.967927,-7994.224174,2987.772442
59363.201579,-2072.576638,-8956.491898,536.266849
59363.201889,-3552.988522,-10140.821405,0.000000
59363.202199,1702.473667,-11251.130318,1608.800546
59363.202508,0.000000,-7179.997637,0.000000
59363.202818,-74.020594,-11251.130318,-76.609550
59363.203128,-4737.318029,-9548.656652,-2987.772442
59363.203437,-1776.494261,-10732.986159,766.095498
59363.203747,2960.823768,-7698.141797,2145.067394
59363.204057,5033.400406,-5995.668130,3983.696590
59363.204366,2886.803174,-8290.306550,4213.525239
59363.204676,-2146.597232,-9474.636058,2374.896044
59363.204986,-3997.112087,-9548.656652,0.000000
59363.205296,222.061783,-11029.068536,3217.601092
59363.205605,-2442.679609,-6957.935855,-1915.238745
59363.205915,-4737.318029,-10140.821405,0.000000
59363.206225,-5403.503377,-10658.965565,-1915.238745
59363.206534,-1184.329507,-8586.388927,919.314598
59363.206844,3627.009116,-6217.729913,2528.115143
59363.207154,4071.132681,-5329.482782,3447.429741
59363.207464,1036.288319,-8364.327145,3217.601092
59363.207773,-666.185348,-11843.295072,2374.896044
59363.208083,-3552.988522,-7179.997637,0.000000
59363.208393,2294.638420,-10658.965565,1149.143247
59363.208702,-1850.514855,-8216.285956,-2145.067394
59363.209012,-2368.659014,-11029.068536,-1225.752797
59363.209322,-1258.350101,-13619.789333,-76.609550
59363.209631,740.205942,-9252.574275,1378.971896
59363.209941,4441.235652,-7476.080014,2987.772442
59363.210251,3552.988522,-7402.059420,3217.601092
59363.210561,0.000000,-8364.327145,1225.752797
59363.210870,-666.185348,-11917.315666,3217.601092
59363.211180,1110.308913,-10658.965565,1455.581446
59363.211490,0.000000,-6587.832884,0.000000
59363.211799,-74.020594,-10658.965565,1762.019645
59363.212109,-5107.421000,-8290.306550,-1608.800546
59363.212419,-1480.411884,-10955.047942,1149.143247
59363.212729,1628.453072,-7920.203579,1991.848295
59363.213038,3775.050304,-7105.977043,2451.505594
59363.213348,888.247130,-6957.935855,1685.410096
59363.213658,-4737.318029,-10140.821405,0.000000
59363.213967,-592.164754,-10140.821405,0.000000
59363.214277,1998.556043,-11843.295072,1608.800546
59363.214587,0.000000,-6291.750507,-2451.505594
59363.214896,-74.020594,-11843.295072,-76.609550
59363.215206,-4367.215058,-9474.636058,-1302.362347
59363.215516,444.123565,-10658.965565,2374.896044
59363.215826,4071.132681,-7920.203579,2374.896044
59363.216135,4663.297435,-6217.729913,2834.553343
59363.216445,1406.391290,-9104.533087,2528.115143
59363.216755,-2590.720797,-10288.862594,-995.924147
59363.217064,-3552.988522,-10140.821405,0.000000
59363.217374,148.041188,-9770.718434,1225.752797
59363.217684,-666.185348,-9474.636058,-76.609550
59363.217994,-7105.977043,-8364.327145,0.000000
59363.218303,-3627.009116,-13619.789333,-76.609550
59363.218613,0.000000,-7772.162391,1838.629195
59363.218923,4071.132681,-6291.750507,3830.477490
59363.219232,3923.091493,-5255.462188,3753.867940
59363.219542,0.000000,-7994.224174,1762.019645
59363.219852,-1554.432478,-10066.800811,-76.609550
59363.220161,-2368.659014,-7772.162391,-1532.190996
59363.220471,0.000000,-8956.491898,76.609550
59363.220781,-666.185348,-11843.295072,-76.609550
59363.221091,-7105.977043,-9548.656652,-3677.258390
59363.221400,-370.102971,-14211.954086,2374.896044
59363.221710,1184.329507,-7772.162391,1225.752797
59363.222020,5699.585753,-7105.977043,3140.991542
59363.222329,3775.050304,-6883.915261,3447.429741
59363.222639,-222.061783,-10066.800811,2298.286494
59363.222949,-74.020594,-11547.212695,-76.609550
59363.223259,-666.185348,-8290.306550,0.000000
59363.223568,-2368.659014,-7179.997637,0.000000
59363.223878,-2442.679609,-11251.130318,-76.609550
59363.224188,-7994.224174,-7772.162391,-2451.505594
59363.224497,-1776.494261,-10436.903782,2451.505594
59363.224807,962.267725,-5995.668130,1532.190996
59363.225117,3330.926739,-6439.791695,2528.115143
59363.225427,814.226536,-7994.224174,1838.629195
59363.225736,-1924.535449,-10881.027347,766.095498
59363.226046,-74.020594,-13027.624579,-76.609550
59363.226356,1702.473667,-9474.636058,-76.609550
59363.226666,-1184.329507,-6883.915261,-1915.238745
59363.226976,-666.185348,-12731.542202,-76.609550
59363.227285,-4737.318029,-9548.656652,-2451.505594
59363.227595,0.000000,-9548.656652,1225.752797
59363.227905,3478.967927,-6957.935855,1762.019645
59363.228215,3849.070898,-6587.832884,3064.381992
59363.228525,148.041188,-9474.636058,1762.019645
59363.228834,-1850.514855,-11843.295072,842.705048
59363.229144,-74.020594,-12139.377449,2068.457845
59363.229454,1702.473667,-9474.636058,0.000000
59363.229764,-370.102971,-10214.842000,1455.581446
59363.230074,-5403.503377,-8660.409521,-2068.457845
59363.230384,-3552.988522,-10732.986159,2374.896044
59363.230693,1702.473667,-7402.059420,842.705048
59363.231003,4663.297435,-6513.812290,2987.772442
59363.231313,2368.659014,-5699.585753,2451.505594
59363.231623,-888.247130,-9992.780217,1378.971896
59363.231933,-1480.411884,-11177.109724,459.657299
59363.232242,0.000000,-9548.656652,1225.752797
59363.232552,1110.308913,-10066.800811,995.924147
59363.232862,-1554.432478,-9474.636058,-1455.581446
59363.233172,-7105.977043,-9548.656652,-3064.381992
59363.233482,-74.020594,-13619.789333,-76.609550
59363.233791,2886.803174,-7105.977043,-76.609550
59363.234101,6439.791695,-7105.977043,3907.087040
59363.234411,2146.597232,-7698.141797,2757.943793
59363.234721,-1628.453072,-10362.883188,1225.752797
59363.235031,-1850.514855,-11621.233289,689.485948
59363.235340,0.000000,-7772.162391,612.876398
59363.235650,-592.164754,-8364.327145,612.876398
59363.235960,-2442.679609,-10658.965565,-76.609550
59363.236270,-5107.421000,-8734.430116,-2528.115143
59363.236580,0.000000,-8956.491898,1838.629195
59363.236890,5847.626942,-7105.977043,3600.648841
59363.237199,4663.297435,-6513.812290,4443.353888
59363.237509,148.041188,-7920.203579,1915.238745
59363.237819,-1998.556043,-10955.047942,689.485948
59363.238129,-888.247130,-9918.759623,76.609550
59363.238439,-2368.659014,-7179.997637,-2451.505594
59363.238748,-2368.659014,-7772.162391,-1838.629195
59363.239058,-2812.782580,-11325.150913,-76.609550
59363.239368,-4811.338623,-9548.656652,-2834.553343
59363.239678,2368.659014,-11103.089130,3064.381992
59363.239988,6439.791695,-8290.306550,4826.401637
59363.240297,4885.359217,-6883.915261,3983.696590
59363.240607,222.061783,-9770.718434,2068.457845
59363.240917,-1184.329507,-11029.068536,1762.019645
59363.241227,-74.020594,-10066.800811,1532.190996
59363.241537,-370.102971,-6661.853478,-1608.800546
59363.241846,-4737.318029,-6587.832884,0.000000
59363.242156,-5921.647536,-10140.821405,0.000000
59363.242466,-666.185348,-11843.295072,-76.609550
59363.242776,0.000000,-5995.668130,229.828649
59363.243086,4885.359217,-9030.512492,6052.154434
59363.243396,592.164754,-7179.997637,1838.629195
59363.243705,-1702.473667,-10510.924376,766.095498
59363.244015,-1480.411884,-10584.944971,229.828649
59363.244325,444.123565,-9252.574275,383.047749
59363.244635,1110.308913,-7105.977043,-76.609550
59363.244945,-3182.885551,-7476.080014,-2145.067394
59363.245254,-4441.235652,-10140.821405,0.000000
59363.245564,2220.617826,-13027.624579,2374.896044
59363.245874,2590.720797,-6883.915261,1149.143247
59363.246184,5329.482782,-7179.997637,4290.134789
59363.246494,0.000000,-7476.080014,919.314598
59363.246803,-1998.556043,-11399.171507,842.705048
59363.247113,-1924.535449,-11473.192101,0.000000
59363.247423,-592.164754,-8882.471304,0.000000
59363.247733,-74.020594,-8882.471304,-76.609550
59363.248043,-4219.173869,-8882.471304,-2068.457845
59363.248353,-4737.318029,-8956.491898,-3677.258390
59363.248662,2886.803174,-11547.212695,4519.963438
59363.248972,2886.803174,-4811.338623,1608.800546
59363.249282,2368.659014,-4811.338623,3677.258390
59363.249592,0.000000,-7772.162391,1149.143247
59363.249902,-1702.473667,-10584.944971,842.705048
59363.250211,0.000000,-10140.821405,459.657299
59363.250521,74.020594,-8882.471304,-76.609550
59363.250831,-74.020594,-9474.636058,-76.609550
59363.251141,-3627.009116,-11547.212695,-1915.238745
59363.251451,-3182.885551,-10732.986159,-3524.039291
59363.251760,3997.112087,-11473.192101,3753.867940
59363.252070,4663.297435,-6513.812290,1762.019645
59363.252380,0.000000,-4811.338623,2451.505594
59363.252690,-962.267725,-9548.656652,536.266849
59363.253000,-1554.432478,-11325.150913,919.314598
59363.253309,222.061783,-9770.718434,1072.533697
59363.253619,148.041188,-8216.285956,383.047749
59363.253929,-2220.617826,-10658.965565,-76.609550
59363.254239,-3627.009116,-11843.295072,-76.609550
59363.254549,-2146.597232,-8290.306550,-1302.362347
59363.254859,2664.741391,-7179.997637,4903.011187
59363.255168,4663.297435,-6513.812290,3600.648841
59363.255478,-2368.659014,-3627.009116,0.000000
59363.255788,-1850.514855,-10658.965565,995.924147
59363.256098,-1036.288319,-10140.821405,306.438199
59363.256408,222.061783,-8734.430116,383.047749
59363.256717,-592.164754,-7698.141797,-766.095498
59363.257027,-2368.659014,-10732.986159,-612.876398
59363.257337,-2146.597232,-13027.624579,-383.047749
59363.257647,814.226536,-9770.718434,-689.485948
59363.257957,4737.318029,-8956.491898,4443.353888
59363.258266,5255.462188,-6809.894666,2374.896044
59363.258576,-1332.370696,-7179.997637,0.000000
59363.258886,-666.185348,-11843.295072,2068.457845
59363.259196,-592.164754,-10807.006753,995.924147
59363.259506,148.041188,-8364.327145,536.266849
59363.259815,-2960.823768,-8512.368333,-536.266849
59363.260125,-4737.318029,-9548.656652,0.000000
59363.260435,-1702.473667,-11029.068536,1838.629195
59363.260745,2886.803174,-9474.636058,3600.648841
59363.261055,0.000000,-3627.009116,1225.752797
59363.261365,2072.576638,-7772.162391,3217.601092
59363.261674,-74.020594,-9474.636058,-76.609550
59363.261984,-1258.350101,-11843.295072,536.266849
59363.262294,-814.226536,-9918.759623,-536.266849
59363.262604,-222.061783,-8290.306550,-536.266849
59363.262914,-1480.411884,-8586.388927,-1149.143247
59363.263223,-5921.647536,-9548.656652,0.000000
59363.263533,-2960.823768,-10436.903782,0.000000
59363.263843,4071.132681,-11843.295072,4213.525239
59363.264153,3182.885551,-4811.338623,919.314598
59363.264463,2368.659014,-7772.162391,3064.381992
59363.264772,-74.020594,-11251.130318,-76.609550
59363.265082,-1184.329507,-11325.150913,1072.533697
59363.265392,370.102971,-9474.636058,995.924147
59363.265702,-296.082377,-8512.368333,459.657299
59363.266012,-3701.029710,-9474.636058,-383.047749
59363.266322,-7105.977043,-8364.327145,0.000000
59363.266631,-2368.659014,-8364.327145,919.314598
59363.266941,4663.297435,-9474.636058,5975.544884
59363.267251,2294.638420,-4737.318029,1455.581446
59363.267561,-2072.576638,-8364.327145,612.876398
59363.267871,-74.020594,-14211.954086,-76.609550
59363.268180,-1776.494261,-10584.944971,306.438199
59363.268490,592.164754,-8586.388927,536.266849
59363.268800,-370.102971,-7772.162391,-76.609550
59363.269110,-2886.803174,-9622.677246,-689.485948
59363.269420,-3627.009116,-9696.697840,-2451.505594
59363.269729,0.000000,-8364.327145,612.876398
59363.270039,4737.318029,-8660.409521,4903.011187
59363.270349,3478.967927,-6513.812290,1455.581446
59363.270659,0.000000,-9844.739029,2145.067394
59363.270969,-74.020594,-13619.789333,1762.019645
59363.271278,0.000000,-9696.697840,612.876398
59363.271588,296.082377,-8364.327145,689.485948
59363.271898,-2368.659014,-8808.450710,-689.485948
59363.272208,-4663.297435,-9918.759623,-612.876398
59363.272518,-1258.350101,-9474.636058,-76.609550
59363.272828,1702.473667,-7031.956449,1991.848295
59363.273137,2368.659014,-5403.503377,3677.258390
59363.273447,2294.638420,-7994.224174,1762.019645
59363.273757,-2960.823768,-10140.821405,919.314598
59363.274067,-2738.761985,-9770.718434,-76.609550
59363.274377,-74.020594,-9474.636058,536.266849
59363.274686,518.144159,-7179.997637,153.219100
59363.274996,-1406.391290,-8438.347739,-612.876398
59363.275306,-2738.761985,-10510.924376,-766.095498
59363.275616,0.000000,-11029.068536,3064.381992
59363.275926,4219.173869,-8808.450710,3983.696590
59363.276235,4663.297435,-7105.977043,1762.019645
59363.276545,0.000000,-6587.832884,0.000000
59363.276855,-370.102971,-12435.459826,1149.143247
59363.277165,-74.020594,-12435.459826,995.924147
59363.277475,0.000000,-9548.656652,612.876398
59363.277784,-888.247130,-8512.368333,0.000000
59363.278094,-3627.009116,-9548.656652,-76.609550
59363.278404,-3404.947333,-10510.924376,459.657299
59363.278714,814.226536,-7994.224174,1455.581446
59363.279024,3552.988522,-3923.091493,1149.143247
59363.279334,1184.329507,-5107.421000,3064.381992
59363.279643,-74.020594,-9474.636058,-76.609550
59363.279953,-4737.318029,-9844.739029,0.000000
59363.280263,-2368.659014,-10140.821405,0.000000
59363.280573,370.102971,-8734.430116,-76.609550
59363.280883,-1554.432478,-7476.080014,-919.314598
59363.281192,-3404.947333,-10288.862594,-995.924147
59363.281502,-2146.597232,-11251.130318,0.000000
59363.281812,2368.659014,-9474.636058,2298.286494
59363.282122,6439.791695,-9474.636058,4826.401637
59363.282432,1702.473667,-5181.441594,76.609550
59363.282741,-1184.329507,-9844.739029,1225.752797
59363.283051,-666.185348,-10362.883188,-1302.362347
59363.283361,518.144159,-10140.821405,229.828649
59363.283671,0.000000,-8068.244768,153.219100
59363.283981,-2738.761985,-9326.594869,-383.047749
59363.284290,-4145.153275,-10510.924376,-153.219100
59363.284600,-1628.453072,-10140.821405,2145.067394
59363.284910,2294.638420,-7402.059420,1915.238745
59363.285220,1998.556043,-3627.009116,536.266849
59363.285530,0.000000,-7772.162391,2451.505594
59363.285840,-2146.597232,-10658.965565,-76.609550
59363.286149,-4737.318029,-9548.656652,0.000000
59363.286459,0.000000,-9548.656652,2451.505594
59363.286769,1554.432478,-7772.162391,1072.533697
59363.287079,-1332.370696,-8956.491898,-229.828649
59363.287389,-2294.638420,-11029.068536,0.000000
59363.287698,740.205942,-8660.409521,536.266849
59363.288008,4663.297435,-8438.347739,2451.505594
59363.288318,5551.544565,-8882.471304,3600.648841
59363.288628,-814.226536,-7994.224174,-689.485948
59363.288938,-2368.659014,-12509.480420,1149.143247
59363.289247,-2146.597232,-10214.842000,-3064.381992
59363.289557,-1554.432478,-7846.182985,-995.924147
59363.289867,-2368.659014,-8660.409521,0.000000
59363.290177,-3775.050304,-9252.574275,0.000000
59363.290487,-1998.556043,-9548.656652,1302.362347
59363.290797,3108.864956,-8142.265362,4290.134789
59363.291106,2738.761985,-4441.235652,3600.648841
59363.291416,0.000000,-4219.173869,612.876398
59363.291726,-1332.370696,-10658.965565,1608.800546
59363.292036,-3775.050304,-9770.718434,-1915.238745
59363.292346,-4145.153275,-9178.553681,76.609550
59363.292655,296.082377,-9252.574275,1225.752797
59363.292965,-1332.370696,-8734.430116,-383.047749
59363.293275,-3108.864956,-10436.903782,-612.876398
59363.293585,-1924.535449,-10732.986159,459.657299
59363.293895,1110.308913,-6587.832884,1455.581446
59363.294204,4145.153275,-6291.750507,3064.381992
59363.294514,3478.967927,-8882.471304,2374.896044
59363.294824,-2368.659014,-9104.533087,-995.924147
59363.295134,-296.082377,-13101.645173,2757.943793
59363.295444,-74.020594,-9474.636058,0.000000
59363.295753,-1998.556043,-6883.915261,-1378.971896
59363.296063,-3849.070898,-10140.821405,-766.095498
59363.296373,-3775.050304,-11103.089130,0.000000
59363.296683,0.000000,-9622.677246,2145.067394
59363.296993,4811.338623,-8438.347739,5362.668486
59363.297303,2590.720797,-4737.318029,2374.896044
59363.297612,-3552.988522,-6587.832884,0.000000
59363.297922,-2664.741391,-11621.233289,1762.019645
59363.298232,-4441.235652,-7772.162391,-2145.067394
59363.298542,2886.803174,-11251.130318,2374.896044
59363.298852,1110.308913,-8290.306550,1455.581446
59363.299161,-1850.514855,-8882.471304,-229.828649
59363.299471,-2220.617826,-10584.944971,0.000000
59363.299781,962.267725,-9326.594869,1149.143247
59363.300091,1850.514855,-4885.359217,0.000000
59363.300401,3552.988522,-7179.997637,2145.067394
59363.300710,-74.020594,-11251.130318,-76.609550
59363.301020,-3256.906145,-11917.315666,0.000000
59363.301330,2294.638420,-14211.954086,2374.896044
59363.301640,-592.164754,-8660.409521,306.438199
59363.301950,-3552.988522,-7179.997637,-1838.629195
59363.302259,-4515.256246,-10214.842000,0.000000
59363.302569,-222.061783,-9474.636058,2374.896044
59363.302879,4293.194464,-7476.080014,4596.572988
59363.303189,7031.956449,-7105.977043,6052.154434
59363.303499,222.061783,-5551.544565,995.924147
59363.303809,-4145.153275,-9548.656652,0.000000
59363.304118,-1554.432478,-11177.109724,-1302.362347
59363.304428,0.000000,-10140.821405,1838.629195
59363.304738,-74.020594,-8290.306550,-689.485948
59363.305048,-1036.288319,-9178.553681,-76.609550
59363.305358,-2960.823768,-11029.068536,-689.485948
59363.305667,-740.205942,-10584.944971,1072.533697
59363.305977,2590.720797,-7402.059420,1608.800546
59363.306287,1184.329507,-4811.338623,612.876398
59363.306597,1332.370696,-8142.265362,1149.143247
59363.306907,-1258.350101,-11547.212695,-76.609550
59363.307216,0.000000,-11325.150913,1225.752797
59363.307526,2294.638420,-10658.965565,-76.609550
59363.307836,-2368.659014,-7772.162391,612.876398
59363.308146,-4589.276840,-9252.574275,-1378.971896
59363.308456,-3330.926739,-10807.006753,612.876398
59363.308766,1332.370696,-8290.306550,2987.772442
59363.309075,4293.194464,-6365.771101,3600.648841
59363.309385,4071.132681,-7105.977043,3600.648841
59363.309695,-2368.659014,-9104.533087,612.876398
59363.310005,-2516.700203,-11399.171507,459.657299
59363.310315,-1332.370696,-11177.109724,383.047749
59363.310624,-1332.370696,-7550.100608,153.219100
59363.310934,-2368.659014,-7476.080014,612.876398
59363.311244,-1702.473667,-9252.574275,536.266849
59363.311554,-4737.318029,-9548.656652,0.000000
59363.311864,3478.967927,-10658.965565,2987.772442
59363.312173,1628.453072,-6291.750507,612.876398
59363.312483,4071.132681,-8290.306550,2374.896044
59363.312793,-2368.659014,-10288.862594,0.000000
59363.313103,-1998.556043,-12139.377449,0.000000
59363.313413,0.000000,-10362.883188,383.047749
59363.313722,0.000000,-8734.430116,459.657299
59363.314032,-3552.988522,-7476.080014,0.000000
59363.314342,-4145.153275,-10140.821405,1225.752797
59363.314652,-74.020594,-9474.636058,2068.457845
59363.314962,1776.494261,-5403.503377,2451.505594
59363.315272,4663.297435,-6291.750507,4366.744339
59363.315581,1480.411884,-9474.636058,2987.772442
59363.315891,-3627.009116,-10510.924376,-689.485948
59363.316201,-2664.741391,-11621.233289,-536.266849
59363.316511,-370.102971,-9770.718434,229.828649
59363.316821,-518.144159,-7994.224174,-76.609550
59363.317130,-3552.988522,-7476.080014,0.000000
59363.317440,-1924.535449,-10584.944971,0.000000
59363.317750,3478.967927,-9474.636058,-76.609550
59363.318060,2368.659014,-5995.668130,2451.505594
59363.318370,4663.297435,-7105.977043,2374.896044
59363.318679,592.164754,-9474.636058,2757.943793
59363.318989,-1628.453072,-11695.253884,0.000000
59363.319299,-370.102971,-11769.274478,536.266849
59363.319609,222.061783,-9622.677246,536.266849
59363.319919,-2220.617826,-8808.450710,0.000000
59363.320228,-5625.565159,-8956.491898,-2145.067394
59363.320538,-2368.659014,-9844.739029,1225.752797
59363.320848,4663.297435,-9474.636058,4826.401637
59363.321158,2738.761985,-3923.091493,2298.286494
59363.321468,592.164754,-5995.668130,2451.505594
59363.321778,-1776.494261,-10140.821405,2451.505594
59363.322087,-2664.741391,-10807.006753,-306.438199
59363.322397,-1184.329507,-9548.656652,306.438199
59363.322707,-962.267725,-8142.265362,0.000000
59363.323017,-1924.535449,-8290.306550,-612.876398
59363.323327,-4145.153275,-8882.471304,-2451.505594
59363.323636,-1184.329507,-10732.986159,3064.381992
59363.323946,4071.132681,-8290.306550,-76.609550
59363.324256,2368.659014,-5403.503377,1225.752797
59363.324566,2886.803174,-8882.471304,1762.019645
59363.324876,-2960.823768,-9992.780217,919.314598
59363.325185,-962.267725,-12435.459826,229.828649
59363.325495,222.061783,-10066.800811,306.438199
59363.325805,-518.144159,-8586.388927,383.047749
59363.326115,-3182.885551,-9178.553681,-919.314598
59363.326425,-3034.844362,-9770.718434,-1302.362347
59363.326734,-74.020594,-7920.203579,0.000000
59363.327044,3701.029710,-7476.080014,4903.011187
59363.327354,2294.638420,-5921.647536,2068.457845
59363.327664,-2368.659014,-8364.327145,612.876398
59363.327974,-4737.318029,-10288.862594,0.000000
59363.328284,-888.247130,-11695.253884,1149.143247
59363.328593,444.123565,-8734.430116,842.705048
59363.328903,-592.164754,-7550.100608,0.000000
59363.329213,-2960.823768,-8956.491898,-459.657299
59363.329523,-666.185348,-11251.130318,-383.047749
59363.329833,1702.473667,-9474.636058,2987.772442
59363.330143,1554.432478,-3923.091493,0.000000
59363.330452,1776.494261,-6735.874072,1991.848295
59363.330762,-74.020594,-9474.636058,-76.609550
59363.331072,-2368.659014,-10436.903782,766.095498
59363.331382,1110.308913,-11843.295072,1149.143247
59363.331692,-888.247130,-8364.327145,-306.438199
59363.332002,-3404.947333,-9104.533087,-919.314598
59363.332312,-3849.070898,-10436.903782,-612.876398
59363.332621,-666.185348,-9474.636058,153.219100
59363.332931,1776.494261,-6291.750507,1225.752797
59363.333241,5847.626942,-8290.306550,4826.401637
59363.333551,0.000000,-5107.421000,0.000000
59363.333861,-1776.494261,-11177.109724,1608.800546
59363.334171,-3256.906145,-10140.821405,919.314598
59363.334480,-74.020594,-9918.759623,536.266849
59363.334790,-666.185348,-7846.182985,-383.047749
59363.335100,-3034.844362,-9252.574275,-919.314598
59363.335410,-3775.050304,-11029.068536,-383.047749
59363.335720,1702.473667,-10658.965565,-76.609550
59363.336030,2664.741391,-5995.668130,0.000000
59363.336339,6143.709319,-8068.244768,4826.401637
59363.336649,1110.308913,-7624.121203,459.657299
59363.336959,-2368.659014,-10732.986159,612.876398
59363.337269,-1184.329507,-10140.821405,612.876398
59363.337579,518.144159,-9696.697840,459.657299
59363.337889,-1850.514855,-8438.347739,-1225.752797
59363.338198,-3701.029710,-9104.533087,-1149.143247
59363.338508,-2072.576638,-10140.821405,536.266849
59363.338818,4071.132681,-10066.800811,3600.648841
59363.339128,4663.297435,-8290.306550,4826.401637
59363.339438,518.144159,-5181.441594,536.266849
59363.339748,-2368.659014,-9844.739029,612.876398
59363.340057,-1702.473667,-12953.603985,919.314598
59363.340367,-1850.514855,-8586.388927,0.000000
59363.340677,592.164754,-8660.409521,1149.143247
59363.340987,-814.226536,-7698.141797,-153.219100
59363.341297,-2664.741391,-8956.491898,-153.219100
59363.341607,-1258.350101,-9992.780217,995.924147
59363.341916,3478.967927,-9474.636058,3600.648841
59363.342226,4663.297435,-7105.977043,2987.772442
59363.342536,0.000000,-4811.338623,0.000000
59363.342846,-74.020594,-11843.295072,2068.457845
59363.343156,-370.102971,-12879.583391,-76.609550
59363.343466,-666.185348,-10362.883188,-2451.505594
59363.343775,-592.164754,-9400.615463,-459.657299
59363.344085,-2442.679609,-9844.739029,-1072.533697
59363.344395,-2812.782580,-10807.006753,0.000000
59363.344705,0.000000,-9696.697840,2068.457845
59363.345015,4589.276840,-8290.306550,4826.401637
59363.345325,4663.297435,-8882.471304,4826.401637
59363.345634,-1628.453072,-6735.874072,0.000000
59363.345944,-2368.659014,-11621.233289,306.438199
59363.346254,-1258.350101,-11843.295072,1149.143247
59363.346564,-74.020594,-8882.471304,-689.485948
59363.346874,-1628.453072,-7476.080014,0.000000
59363.347184,-2516.700203,-9030.512492,0.000000
59363.347494,-2738.761985,-10584.944971,383.047749
59363.347803,74.020594,-9030.512492,2681.334243
59363.348113,3552.988522,-7476.080014,3830.477490
59363.348423,4071.132681,-8216.285956,4443.353888
59363.348733,-74.020594,-7698.141797,-76.609550
59363.349043,-2368.659014,-10732.986159,153.219100
59363.349353,-74.020594,-11843.295072,842.705048
59363.349662,-74.020594,-9918.759623,-76.609550
59363.349972,-3256.906145,-8068.244768,-919.314598
59363.350282,-4515.256246,-9548.656652,-1225.752797
59363.350592,-2442.679609,-9770.718434,76.609550
59363.350902,2220.617826,-8364.327145,3064.381992
59363.351212,3552.988522,-6587.832884,4290.134789
59363.351521,1184.329507,-7179.997637,2451.505594
59363.351831,-74.020594,-11843.295072,2374.896044
59363.352141,-3552.988522,-9844.739029,0.000000
59363.352451,0.000000,-9622.677246,1838.629195
59363.352761,1110.308913,-8290.306550,1762.019645
59363.353071,-2960.823768,-7846.182985,-229.828649
59363.353380,-3701.029710,-9622.677246,-459.657299
59363.353690,-1628.453072,-9918.759623,766.095498
59363.354000,2072.576638,-7772.162391,1225.752797
59363.354310,2368.659014,-4811.338623,1225.752797
59363.354620,1184.329507,-7179.997637,2451.505594
59363.354930,-74.020594,-11843.295072,-76.609550
59363.355239,-2368.659014,-10732.986159,0.000000
59363.355549,-74.020594,-11843.295072,689.485948
59363.355859,-740.205942,-10658.965565,-76.609550
59363.356169,-3330.926739,-9696.697840,-1302.362347
59363.356479,-2516.700203,-10066.800811,0.000000
59363.356789,1406.391290,-8956.491898,1838.629195
59363.357098,4589.276840,-5699.585753,2451.505594
59363.357408,2368.659014,-3627.009116,2451.505594
59363.357718,0.000000,-8364.327145,3064.381992
59363.358028,-1258.350101,-11843.295072,-76.609550
59363.358338,-3256.906145,-9548.656652,0.000000
59363.358648,962.267725,-9178.553681,1149.143247
59363.358957,-2072.576638,-9252.574275,-76.609550
59363.359267,-3627.009116,-9474.636058,-1455.581446
59363.359577,-2960.823768,-11029.068536,-612.876398
59363.359887,1554.432478,-8660.409521,1608.800546
59363.360197,4071.132681,-5995.668130,536.266849
59363.360507,1702.473667,-5921.647536,0.000000
59363.360817,-2960.823768,-7179.997637,0.000000
59363.361126,-1776.494261,-11325.150913,612.876398
59363.361436,1110.308913,-10658.965565,-76.609550
59363.361746,-1776.494261,-7476.080014,229.828649
59363.362056,-3552.988522,-7476.080014,0.000000
59363.362366,-3923.091493,-9918.759623,-1225.752797
59363.362676,-1480.411884,-9548.656652,306.438199
59363.362985,2664.741391,-8512.368333,2757.943793
59363.363295,4367.215058,-6069.688724,2834.553343
59363.363605,1998.556043,-8290.306550,1762.019645
59363.363915,-2442.679609,-9474.636058,-689.485948
59363.364225,-3552.988522,-9844.739029,0.000000
59363.364535,1702.473667,-10584.944971,2374.896044
59363.364844,-814.226536,-7550.100608,-76.609550
59363.365154,-4441.235652,-7476.080014,0.000000
59363.365464,-3775.050304,-11177.109724,-459.657299
59363.365774,-592.164754,-10066.800811,842.705048
59363.366084,3182.885551,-7031.956449,2451.505594
59363.366394,3478.967927,-7105.977043,2374.896044
59363.366703,1702.473667,-9178.553681,2374.896044
59363.367013,-2442.679609,-10066.800811,-1608.800546
59363.367323,0.000000,-10140.821405,612.876398
59363.367633,2294.638420,-10658.965565,2374.896044
59363.367943,-1332.370696,-7550.100608,0.000000
59363.368253,-4737.318029,-7179.997637,-2451.505594
59363.368562,-2664.741391,-10732.986159,76.609550
59363.368872,2220.617826,-9474.636058,2221.676944
59363.369182,4737.318029,-7254.018232,3524.039291
59363.369492,3478.967927,-8290.306550,4213.525239
59363.369802,-74.020594,-10955.047942,612.876398
59363.370112,-74.020594,-13027.624579,-76.609550
59363.370421,-1480.411884,-8808.450710,0.000000
59363.370731,0.000000,-8068.244768,2604.724693
59363.371041,-2442.679609,-8216.285956,-1838.629195
59363.371351,-5033.400406,-9548.656652,-2451.505594
59363.371661,-2368.659014,-10732.986159,153.219100
59363.371971,2442.679609,-8290.306550,2374.896044
59363.372280,4367.215058,-5625.565159,3294.210641
59363.372590,4071.132681,-7846.182985,4749.792088
59363.372900,0.000000,-9918.759623,1225.752797
59363.373210,-74.020594,-13027.624579,2374.896044
59363.373520,-1332.370696,-8438.347739,-1455.581446
59363.373830,-1776.494261,-9252.574275,1225.752797
59363.374139,-3627.009116,-9474.636058,-4060.306139
59363.374449,-3627.009116,-11251.130318,-2528.115143
59363.374759,-1036.288319,-9844.739029,0.000000
59363.375069,3478.967927,-7994.224174,3140.991542
59363.375379,4145.153275,-6661.853478,3294.210641
59363.375689,1184.329507,-9548.656652,3064.381992
59363.375999,-2368.659014,-11917.315666,0.000000
59363.376308,888.247130,-12065.356855,3217.601092
59363.376618,-74.020594,-8290.306550,536.266849
59363.376928,0.000000,-7179.997637,1225.752797
59363.377238,-1998.556043,-8586.388927,-995.924147
59363.377548,-1258.350101,-11843.295072,-76.609550
59363.377858,0.000000,-9252.574275,1685.410096
59363.378167,3182.885551,-6809.894666,3217.601092
59363.378477,3552.988522,-6365.771101,2757.943793
59363.378787,-1776.494261,-7179.997637,0.000000
59363.379097,-3256.906145,-9548.656652,229.828649
59363.379407,-2368.659014,-9844.739029,0.000000
59363.379717,-74.020594,-10658.965565,-76.609550
59363.380026,-4441.235652,-8660.409521,-2451.505594
59363.380336,-4219.173869,-11251.130318,-1302.362347
59363.380646,-74.020594,-12435.459826,-76.609550
59363.380956,2146.597232,-8586.388927,1915.238745
59363.381266,4293.194464,-6735.874072,3140.991542
59363.381576,1702.473667,-7031.956449,2451.505594
59363.381885,-2368.659014,-7179.997637,0.000000
59363.382195,-2368.659014,-9548.656652,229.828649
59363.382505,0.000000,-7476.080014,1225.752797
59363.382815,1702.473667,-9474.636058,2068.457845
59363.383125,-3923.091493,-7476.080014,0.000000
59363.383435,-3034.844362,-11843.295072,-76.609550
59363.383744,-370.102971,-11251.130318,2374.896044
59363.384054,2738.761985,-7550.100608,2681.334243
59363.384364,4071.132681,-5995.668130,3217.601092
59363.384674,1480.411884,-7624.121203,2298.286494
59363.384984,-2368.659014,-8956.491898,-383.047749
59363.385294,-1702.473667,-11843.295072,-76.609550
59363.385603,-1702.473667,-9178.553681,-1915.238745
59363.385913,-2960.823768,-8364.327145,-1225.752797
59363.386223,-3034.844362,-9474.636058,-689.485948
59363.386533,-3627.009116,-11251.130318,-76.609550
59363.386843,296.082377,-9548.656652,2451.505594
59363.387153,4589.276840,-7698.141797,3294.210641
59363.387462,3849.070898,-7105.977043,3064.381992
59363.387772,-296.082377,-9400.615463,1915.238745
59363.388082,-1850.514855,-9474.636058,1149.143247
59363.388392,-370.102971,-9252.574275,1225.752797
59363.388702,0.000000,-5995.668130,0.000000
59363.389012,-1776.494261,-7772.162391,1225.752797
59363.389322,-2442.679609,-9474.636058,-76.609550
59363.389631,-2960.823768,-11621.233289,153.219100
59363.389941,0.000000,-8364.327145,612.876398
59363.390251,3923.091493,-6957.935855,2681.334243
59363.390561,1998.556043,-6735.874072,1762.019645
59363.390871,-1258.350101,-9474.636058,383.047749
59363.391181,-370.102971,-12435.459826,-76.609550
59363.391490,-74.020594,-10436.903782,306.438199
59363.391800,-74.020594,-9474.636058,-76.609550
59363.392110,-3552.988522,-8068.244768,0.000000
59363.392420,-2442.679609,-11843.295072,-76.609550
59363.392730,-1184.329507,-8660.409521,919.314598
59363.393040,1776.494261,-6587.832884,1532.190996
59363.393349,4515.256246,-5995.668130,3447.429741
59363.393659,1258.350101,-8438.347739,2374.896044
59363.393969,-1850.514855,-10658.965565,842.705048
59363.394279,-74.020594,-12731.542202,1762.019645
59363.394589,0.000000,-8364.327145,612.876398
59363.394899,-74.020594,-9474.636058,-76.609550
59363.395208,-4663.297435,-7772.162391,-2221.676944
59363.395518,-3552.988522,-11325.150913,1225.752797
59363.395828,-2072.576638,-9548.656652,0.000000
59363.396138,1702.473667,-6291.750507,1378.971896
59363.396448,2812.782580,-6587.832884,2604.724693
59363.396758,148.041188,-8734.430116,1532.190996
59363.397067,-1480.411884,-10436.903782,689.485948
59363.397377,740.205942,-11029.068536,1378.971896
59363.397687,0.000000,-8364.327145,0.000000
59363.397997,-74.020594,-9474.636058,1149.143247
59363.398307,-4219.173869,-8216.285956,-1608.800546
59363.398617,-2368.659014,-10732.986159,1532.190996
59363.398926,814.226536,-7772.162391,76.609550
59363.399236,4663.297435,-6957.935855,2987.772442
59363.399546,2072.576638,-6809.894666,2451.505594
59363.399856,-1998.556043,-10362.883188,536.266849
59363.400166,-2738.761985,-11695.253884,-306.438199
59363.400476,-1184.329507,-9844.739029,0.000000
59363.400785,-2368.659014,-7179.997637,0.000000
59363.401095,-2146.597232,-10362.883188,1149.143247
59363.401405,-4811.338623,-9474.636058,-1608.800546
59363.401715,-3552.988522,-9548.656652,0.000000
59363.402025,2738.761985,-6439.791695,2221.676944
59363.402335,5847.626942,-6365.771101,3907.087040
59363.402644,2442.679609,-6217.729913,2681.334243
59363.402954,-444.123565,-9474.636058,1149.143247
59363.403264,-1036.288319,-11029.068536,153.219100
59363.403574,-2368.659014,-9548.656652,0.000000
59363.403884,-3552.988522,-7179.997637,-2451.505594
59363.404194,-4145.153275,-10436.903782,-612.876398
59363.404504,-3330.926739,-11547.212695,-1302.362347
59363.404813,-2368.659014,-8364.327145,0.000000
59363.405123,4663.297435,-7698.141797,3600.648841
59363.405433,5699.585753,-7402.059420,3907.087040
59363.405743,370.102971,-8290.306550,2068.457845
59363.406053,-1776.494261,-10140.821405,1149.143247
59363.406363,-444.123565,-9992.780217,919.314598
59363.406672,0.000000,-7179.997637,76.609550
59363.406982,-74.020594,-7994.224174,612.876398
59363.407292,-5329.482782,-8364.327145,-2145.067394
59363.407602,-2442.679609,-11843.295072,-76.609550
59363.407912,-2368.659014,-7179.997637,0.000000
59363.408222,4663.297435,-9474.636058,3600.648841
59363.408531,3256.906145,-8660.409521,3524.039291
59363.408841,-296.082377,-9770.718434,1455.581446
59363.409151,-1110.308913,-10807.006753,612.876398
59363.409461,-296.082377,-9770.718434,689.485948
59363.409771,518.144159,-6957.935855,1149.143247
59363.410081,-74.020594,-7994.224174,-76.609550
59363.410390,-4737.318029,-7179.997637,0.000000
59363.410700,-74.020594,-10955.047942,3294.210641
59363.411010,518.144159,-6291.750507,76.609550
59363.411320,5551.544565,-9178.553681,4366.744339
59363.411630,1480.411884,-8364.327145,2451.505594
59363.411940,-2590.720797,-10807.006753,-153.219100
59363.412249,-2886.803174,-11843.295072,-919.314598
59363.412559,-740.205942,-10807.006753,0.000000
59363.412869,-74.020594,-9474.636058,-76.609550
59363.413179,-1554.432478,-9474.636058,-76.609550
59363.413489,-5329.482782,-8660.409521,-1838.629195
59363.413799,0.000000,-9548.656652,3600.648841
59363.414108,2590.720797,-4441.235652,1608.800546
59363.414418,5181.441594,-5847.626942,6052.154434
59363.414728,0.000000,-6587.832884,1685.410096
59363.415038,-2146.597232,-10140.821405,0.000000
59363.415348,-1998.556043,-11251.130318,-306.438199
59363.415658,-888.247130,-10288.862594,-153.219100
59363.415967,-1258.350101,-10658.965565,-842.705048
59363.416277,-3552.988522,-9770.718434,-1378.971896
59363.416587,-2442.679609,-11251.130318,-995.924147
59363.416897,0.000000,-9548.656652,612.876398
59363.417207,7031.956449,-9474.636058,4826.401637
59363.417517,2368.659014,-7179.997637,3370.820191
59363.417827,-2368.659014,-8364.327145,612.876398
59363.418136,-1332.370696,-10881.027347,919.314598
59363.418446,74.020594,-9844.739029,1149.143247
59363.418756,814.226536,-7624.121203,766.095498
59363.419066,-1258.350101,-9178.553681,689.485948
59363.419376,-4441.235652,-9844.739029,-1225.752797
59363.419686,-2442.679609,-11251.130318,-76.609550
59363.419995,0.000000,-7772.162391,0.000000
59363.420305,7031.956449,-9178.553681,4826.401637
59363.420615,1184.329507,-7179.997637,2451.505594
59363.420925,-2960.823768,-8660.409521,0.000000
59363.421235,-2664.741391,-11325.150913,306.438199
59363.421545,-1258.350101,-10214.842000,0.000000
59363.421854,74.020594,-8438.347739,612.876398
59363.422164,-1554.432478,-9252.574275,0.000000
59363.422474,-3997.112087,-8956.491898,0.000000
59363.422784,-74.020594,-9474.636058,1762.019645
59363.423094,2664.741391,-5995.668130,612.876398
59363.423404,7031.956449,-8290.306550,5439.278036
59363.423713,-2368.659014,-5995.668130,306.438199
59363.424023,-3108.864956,-10288.862594,-1608.800546
59363.424333,-2368.659014,-11547.212695,-612.876398
59363.424643,-148.041188,-10140.821405,306.438199
59363.424953,-814.226536,-8808.450710,-459.657299
59363.425263,-3552.988522,-9548.656652,-1378.971896
59363.425572,-4441.235652,-11325.150913,0.000000
59363.425882,1702.473667,-10658.965565,1762.019645
59363.426192,2368.659014,-5699.585753,2451.505594
59363.426502,4663.297435,-7105.977043,2987.772442
59363.426812,-2368.659014,-4811.338623,0.000000
59363.427122,-666.185348,-10658.965565,1149.143247
59363.427431,0.000000,-10140.821405,689.485948
59363.427741,444.123565,-7994.224174,689.485948
59363.428051,-518.144159,-8142.265362,306.438199
59363.428361,-3552.988522,-8808.450710,0.000000
59363.428670,-2146.597232,-10658.965565,-689.485948
59363.428980,592.164754,-9548.656652,1838.629195
59363.429290,4663.297435,-8882.471304,2374.896044
59363.429600,0.000000,-5995.668130,0.000000
59363.429910,-2442.679609,-8882.471304,-2221.676944
59363.430219,-666.185348,-13027.624579,-76.609550
59363.430529,1480.411884,-10214.842000,1685.410096
59363.430839,2072.576638,-7698.141797,1455.581446
59363.431149,-1480.411884,-7772.162391,383.047749
59363.431459,-4737.318029,-9548.656652,-76.609550
59363.431768,-2368.659014,-8660.409521,0.000000
59363.432078,2960.823768,-8364.327145,3217.601092
59363.432388,4663.297435,-6513.812290,2374.896044
59363.432698,-2368.659014,-5995.668130,0.000000
59363.433008,-1258.350101,-11251.130318,-1302.362347
59363.433317,-666.185348,-13027.624579,-76.609550
59363.433627,-74.020594,-10584.944971,229.828649
59363.433937,-666.185348,-8660.409521,153.219100
59363.434247,-2664.741391,-9326.594869,-536.266849
59363.434556,-2738.761985,-10288.862594,842.705048
59363.434866,1110.308913,-9474.636058,2528.115143
59363.435176,2368.659014,-4959.379811,2451.505594
59363.435486,4959.379811,-8290.306550,4826.401637
59363.435796,-2368.659014,-5995.668130,0.000000
59363.436105,-74.020594,-12731.542202,-76.609550
59363.436415,-222.061783,-12213.398043,459.657299
59363.436725,148.041188,-9548.656652,229.828649
59363.437035,-1480.411884,-8808.450710,-306.438199
59363.437345,-4219.173869,-10732.986159,-612.876398
59363.437654,-2590.720797,-11177.109724,919.314598
59363.437964,1406.391290,-8956.491898,2451.505594
59363.438274,4071.132681,-5625.565159,2681.334243
59363.438584,0.000000,-4811.338623,2451.505594
59363.438894,-370.102971,-10658.965565,2374.896044
59363.439203,-74.020594,-13027.624579,2374.896044
59363.439513,-1480.411884,-9548.656652,612.876398
59363.439823,592.164754,-7846.182985,1225.752797
59363.440133,-1554.432478,-8068.244768,0.000000
59363.440442,-3552.988522,-8808.450710,-536.266849
59363.440752,-1554.432478,-10362.883188,1225.752797
59363.441062,2960.823768,-8734.430116,2451.505594
59363.441372,4071.132681,-6069.688724,2221.676944
59363.441682,592.164754,-8364.327145,3677.258390
59363.441991,-74.020594,-11843.295072,-76.609550
59363.442301,-2072.576638,-13101.645173,1378.971896
59363.442611,0.000000,-9548.656652,0.000000
59363.442921,148.041188,-8586.388927,919.314598
59363.443231,-1998.556043,-8956.491898,-306.438199
59363.443540,-2812.782580,-11103.089130,306.438199
59363.443850,1406.391290,-9918.759623,1225.752797
59363.444160,3849.070898,-7179.997637,3064.381992
59363.444470,4071.132681,-6513.812290,2987.772442
59363.444779,0.000000,-7179.997637,2451.505594
59363.445089,-74.020594,-13027.624579,-76.609550
59363.445399,-3552.988522,-11325.150913,919.314598
59363.445709,-2072.576638,-9548.656652,0.000000
59363.446019,-1110.308913,-8290.306550,612.876398
59363.446328,-2960.823768,-8438.347739,-153.219100
59363.446638,-3256.906145,-9696.697840,76.609550
59363.446948,666.185348,-7772.162391,306.438199
59363.447258,3627.009116,-5699.585753,3064.381992
59363.447568,4367.215058,-6217.729913,2834.553343
59363.447877,-3552.988522,-7179.997637,0.000000
59363.448187,-74.020594,-13027.624579,-76.609550
59363.448497,-2368.659014,-9548.656652,0.000000
59363.448807,296.082377,-8956.491898,-229.828649
59363.449117,-1628.453072,-8882.471304,-612.876398
59363.449426,-3775.050304,-10955.047942,-1225.752797
59363.449736,-1998.556043,-10510.924376,0.000000
59363.450046,2368.659014,-9252.574275,2068.457845
59363.450356,4367.215058,-6587.832884,2987.772442
59363.450665,1850.514855,-8808.450710,4826.401637
59363.450975,-3034.844362,-7698.141797,-1302.362347
59363.451285,-3552.988522,-10732.986159,0.000000
59363.451595,-1776.494261,-7476.080014,0.000000
59363.451905,-74.020594,-7105.977043,1149.143247
59363.452214,-2072.576638,-7550.100608,0.000000
59363.452524,-3034.844362,-9474.636058,-306.438199
59363.452834,-740.205942,-9992.780217,1149.143247
59363.453144,2442.679609,-7105.977043,2374.896044
59363.453454,2886.803174,-6513.812290,1915.238745
59363.453763,296.082377,-8956.491898,2911.162892
59363.454073,-2442.679609,-10066.800811,-2528.115143
59363.454383,-3552.988522,-10732.986159,0.000000
59363.454693,-666.185348,-9030.512492,-1532.190996
59363.455003,814.226536,-8882.471304,-76.609550
59363.455312,-3108.864956,-9696.697840,-919.314598
59363.455622,-2886.803174,-10288.862594,0.000000
59363.455932,1110.308913,-8956.491898,1991.848295
59363.456242,4515.256246,-7105.977043,4826.401637
59363.456551,2886.803174,-6143.709319,2681.334243
59363.456861,-1776.494261,-8956.491898,2451.505594
59363.457171,-1258.350101,-13027.624579,-689.485948
59363.457481,-3552.988522,-9696.697840,0.000000
59363.457791,-74.020594,-8882.471304,229.828649
59363.458100,-666.185348,-9030.512492,1149.143247
59363.458410,-3701.029710,-9400.615463,153.219100
59363.458720,-2072.576638,-9474.636058,919.314598
59363.459030,2146.597232,-7328.038826,2528.115143
59363.459340,5255.462188,-7105.977043,4673.182538
59363.459649,2738.761985,-6069.688724,1762.019645
59363.459959,-2368.659014,-7476.080014,-2528.115143
59363.460269,-2072.576638,-12805.562797,919.314598
59363.460579,-74.020594,-11251.130318,-383.047749
59363.460889,1702.473667,-9474.636058,-76.609550
59363.461198,-1628.453072,-10140.821405,0.000000
59363.461508,-3182.885551,-11177.109724,-229.828649
59363.461818,-222.061783,-10140.821405,1225.752797
59363.462128,3997.112087,-7994.224174,3447.429741
59363.462437,5699.585753,-6291.750507,5056.230287
59363.462747,296.082377,-7476.080014,2221.676944
59363.463057,-3552.988522,-9548.656652,0.000000
59363.463367,-74.020594,-13915.871710,-76.609550
59363.463677,-1258.350101,-7772.162391,-689.485948
59363.463986,1554.432478,-8882.471304,2374.896044
59363.464296,-3256.906145,-7179.997637,0.000000
59363.464606,-2590.720797,-9622.677246,-383.047749
59363.464916,518.144159,-9400.615463,1302.362347
59363.465226,3849.070898,-7476.080014,2374.896044
59363.465535,3108.864956,-7179.997637,3064.381992
59363.465845,-592.164754,-9474.636058,536.266849
59363.466155,-2590.720797,-10658.965565,-2834.553343
59363.466465,-1184.329507,-11917.315666,306.438199
59363.466774,2294.638420,-10658.965565,-76.609550
59363.467084,1036.288319,-9474.636058,1762.019645
59363.467394,-2886.803174,-8882.471304,-536.266849
59363.467704,-1628.453072,-9918.759623,536.266849
59363.468014,1998.556043,-8734.430116,2298.286494
59363.468323,3997.112087,-5995.668130,3064.381992
59363.468633,0.000000,-5107.421000,1838.629195
59363.468943,-2294.638420,-9844.739029,612.876398
59363.469253,-2812.782580,-10732.986159,-2834.553343
59363.469563,888.247130,-12953.603985,2987.772442
59363.469872,-1110.308913,-7179.997637,0.000000
59363.470182,-1776.494261,-8808.450710,2757.943793
59363.470492,-3849.070898,-9178.553681,-76.609550
59363.470802,-2368.659014,-9252.574275,153.219100
59363.471112,1776.494261,-7402.059420,2068.457845
59363.471421,3627.009116,-5773.606348,2911.162892
59363.471731,0.000000,-5403.503377,0.000000
59363.472041,-2368.659014,-10288.862594,0.000000
59363.472351,-74.020594,-14211.954086,1762.019645
59363.472660,-1850.514855,-8512.368333,-2145.067394
59363.472970,-888.247130,-9844.739029,306.438199
59363.473280,-4441.235652,-9548.656652,0.000000
59363.473590,-3034.844362,-11251.130318,-76.609550
59363.473900,592.164754,-9770.718434,1225.752797
59363.474209,3775.050304,-7476.080014,2911.162892
59363.474519,3256.906145,-6217.729913,3140.991542
59363.474829,-1258.350101,-6957.935855,0.000000
59363.475139,-3552.988522,-10140.821405,612.876398
59363.475449,-74.020594,-12731.542202,-76.609550
59363.475758,0.000000,-6291.750507,0.000000
59363.476068,1110.308913,-8882.471304,2221.676944
59363.476378,-3997.112087,-7179.997637,0.000000
59363.476688,-2516.700203,-9918.759623,-76.609550
59363.476998,74.020594,-8882.471304,919.314598
59363.477307,2960.823768,-7105.977043,1915.238745
59363.477617,2220.617826,-7402.059420,1685.410096
59363.477927,-962.267725,-9474.636058,-76.609550
59363.478237,-2664.741391,-10881.027347,-919.314598
59363.478546,0.000000,-11917.315666,2757.943793
59363.478856,1998.556043,-8882.471304,-76.609550
59363.479166,-3552.988522,-7179.997637,0.000000
59363.479476,-4663.297435,-8364.327145,-1838.629195
59363.479786,-296.082377,-10214.842000,1302.362347
59363.480095,3552.988522,-7772.162391,2834.553343
59363.480405,4441.235652,-5773.606348,2681.334243
59363.480715,888.247130,-7254.018232,2221.676944
59363.481025,-1258.350101,-11251.130318,-76.609550
59363.481335,-3775.050304,-11325.150913,-1838.629195
59363.481644,1406.391290,-13471.748144,3140.991542
59363.481954,-1998.556043,-7179.997637,-995.924147
59363.482264,-3552.988522,-8364.327145,0.000000
59363.482574,-3330.926739,-9474.636058,-2451.505594
59363.482884,-592.164754,-8956.491898,1608.800546
59363.483193,3478.967927,-7031.956449,3064.381992
59363.483503,3923.091493,-5403.503377,2681.334243
59363.483813,74.020594,-7254.018232,1455.581446
59363.484123,-666.185348,-12435.459826,1762.019645
59363.484432,-962.267725,-11251.130318,-1302.362347
59363.484742,-3552.988522,-7179.997637,0.000000
59363.485052,-74.020594,-10658.965565,-76.609550
59363.485362,-4811.338623,-9548.656652,-2604.724693
59363.485672,-3034.844362,-11251.130318,-1455.581446
59363.485981,740.205942,-9548.656652,1838.629195
59363.486291,4219.173869,-6957.935855,3140.991542
59363.486601,2368.659014,-6439.791695,2528.115143
59363.486911,-1332.370696,-8660.409521,3447.429741
59363.487221,-666.185348,-13027.624579,2068.457845
59363.487530,-74.020594,-10955.047942,2068.457845
59363.487840,-3552.988522,-4811.338623,0.000000
59363.488150,-74.020594,-9474.636058,2374.896044
