#time,accel_x,accel_y,accel_z
59393.447443,-1184.329507,-8660.409521,612.876398
59393.447753,-222.061783,-9326.594869,536.266849
59393.448063,-148.041188,-9252.574275,919.314598
59393.448373,-370.102971,-9474.636058,995.924147
59393.448682,-74.020594,-9474.636058,-76.609550
59393.448992,-74.020594,-8290.306550,-76.609550
59393.449302,-2368.659014,-7179.997637,0.000000
59393.449612,1406.391290,-10658.965565,2911.162892
59393.449922,-1258.350101,-8142.265362,0.000000
59393.450232,0.000000,-9548.656652,3064.381992
59393.450542,-1480.411884,-7772.162391,306.438199
59393.450852,0.000000,-9474.636058,1149.143247
59393.451162,-296.082377,-9178.553681,766.095498
59393.451472,-666.185348,-9326.594869,612.876398
59393.451782,2294.638420,-10658.965565,2374.896044
59393.452092,-74.020594,-9474.636058,-76.609550
59393.452401,-2664.741391,-6143.709319,-1838.629195
59393.452711,814.226536,-10436.903782,2298.286494
59393.453021,-666.185348,-8216.285956,76.609550
59393.453331,0.000000,-7179.997637,0.000000
59393.453641,-370.102971,-8216.285956,0.000000
59393.453951,-666.185348,-8956.491898,612.876398
59393.454261,-518.144159,-9252.574275,919.314598
59393.454571,-222.061783,-9474.636058,536.266849
59393.454881,814.226536,-11251.130318,3294.210641
59393.455191,1702.473667,-11251.130318,3140.991542
59393.455501,-1258.350101,-7328.038826,-1302.362347
59393.455810,0.000000,-9696.697840,1991.848295
59393.456120,-74.020594,-8882.471304,536.266849
59393.456430,-3552.988522,-5403.503377,0.000000
59393.456740,-74.020594,-9474.636058,1149.143247
59393.457050,-296.082377,-8882.471304,919.314598
59393.457360,-222.061783,-9104.533087,919.314598
59393.457670,-148.041188,-9474.636058,612.876398
59393.457980,0.000000,-9844.739029,2451.505594
59393.458290,592.164754,-9622.677246,0.000000
59393.458600,2294.638420,-11843.295072,2374.896044
59393.458910,-1850.514855,-7624.121203,0.000000
59393.459220,0.000000,-9548.656652,3064.381992
59393.459529,-74.020594,-8290.306550,-689.485948
59393.459839,814.226536,-9474.636058,1149.143247
59393.460149,-296.082377,-8734.430116,766.095498
59393.460459,-296.082377,-9030.512492,766.095498
59393.460769,-740.205942,-8882.471304,536.266849
59393.461079,-2368.659014,-7179.997637,1225.752797
59393.461389,0.000000,-8364.327145,0.000000
59393.461699,2294.638420,-11843.295072,2374.896044
59393.462009,-2368.659014,-7772.162391,0.000000
59393.462319,1110.308913,-10362.883188,1762.019645
59393.462629,-74.020594,-9474.636058,-76.609550
59393.462938,518.144159,-9474.636058,1685.410096
59393.463248,-222.061783,-9326.594869,689.485948
59393.463558,-370.102971,-8882.471304,612.876398
59393.463868,-518.144159,-9252.574275,919.314598
59393.464178,-2368.659014,-7179.997637,-2145.067394
59393.464488,-2368.659014,-7179.997637,-1762.019645
59393.464798,1184.329507,-10732.986159,2757.943793
59393.465108,-814.226536,-8216.285956,0.000000
59393.465418,-74.020594,-9770.718434,2068.457845
59393.465728,1702.473667,-9474.636058,2374.896044
59393.466038,0.000000,-9548.656652,1225.752797
59393.466348,-74.020594,-9178.553681,612.876398
59393.466657,-370.102971,-9030.512492,612.876398
59393.466967,-148.041188,-9104.533087,612.876398
59393.467277,-1258.350101,-7698.141797,-76.609550
59393.467587,-1258.350101,-8290.306550,-76.609550
59393.467897,-2368.659014,-7179.997637,0.000000
59393.468207,1110.308913,-10658.965565,2068.457845
59393.468517,-814.226536,-6587.832884,-1608.800546
59393.468827,296.082377,-10436.903782,2757.943793
59393.469137,-1184.329507,-8364.327145,306.438199
59393.469447,-296.082377,-8956.491898,689.485948
59393.469757,-296.082377,-8734.430116,612.876398
59393.470067,370.102971,-8660.409521,995.924147
59393.470376,2294.638420,-8882.471304,-76.609550
59393.470686,2294.638420,-11843.295072,2374.896044
59393.470996,0.000000,-6291.750507,0.000000
59393.471306,2368.659014,-9844.739029,1991.848295
59393.471616,1110.308913,-7179.997637,-2221.676944
59393.471926,592.164754,-9548.656652,2451.505594
59393.472236,1998.556043,-8882.471304,383.047749
59393.472546,2960.823768,-9400.615463,1225.752797
59393.472856,3182.885551,-9400.615463,842.705048
59393.473166,2664.741391,-9474.636058,842.705048
59393.473476,4663.297435,-11251.130318,2374.896044
59393.473785,4663.297435,-11251.130318,2987.772442
59393.474095,3478.967927,-8142.265362,-383.047749
59393.474405,3552.988522,-8956.491898,1838.629195
59393.474715,4959.379811,-7179.997637,-689.485948
59393.475025,2960.823768,-6291.750507,1225.752797
59393.475335,5551.544565,-8290.306550,1455.581446
59393.475645,5551.544565,-8512.368333,919.314598
59393.475955,5403.503377,-8586.388927,766.095498
59393.476265,5921.647536,-8586.388927,689.485948
59393.476575,7402.059420,-9844.739029,1378.971896
59393.476885,7105.977043,-9548.656652,1838.629195
59393.477195,7031.956449,-9474.636058,-76.609550
59393.477504,5329.482782,-9844.739029,0.000000
59393.477814,5847.626942,-13027.624579,-76.609550
59393.478124,666.185348,-9548.656652,-2451.505594
59393.478434,3182.885551,-13027.624579,-76.609550
59393.478744,1776.494261,-11103.089130,306.438199
59393.479054,2516.700203,-9548.656652,919.314598
59393.479364,2812.782580,-7550.100608,1455.581446
59393.479674,4737.318029,-4811.338623,2451.505594
59393.479984,3552.988522,-2442.679609,1225.752797
59393.480294,9400.615463,-5773.606348,4673.182538
59393.480604,8142.265362,-3552.988522,2221.676944
59393.480914,10584.944971,-9474.636058,4519.963438
59393.481223,7031.956449,-8882.471304,-689.485948
59393.481533,2368.659014,-14137.933492,-612.876398
59393.481843,-1036.288319,-17172.777854,-2528.115143
59393.482153,-4219.173869,-18579.169144,-3677.258390
59393.482463,-5033.400406,-15026.180623,-3907.087040
59393.482773,-4737.318029,-9844.739029,-3677.258390
59393.483083,-2442.679609,-4811.338623,-2221.676944
59393.483393,2368.659014,-5403.503377,3677.258390
59393.483703,6439.791695,-5773.606348,5592.497135
59393.484013,4737.318029,-3627.009116,6128.763984
59393.484323,5847.626942,-5921.647536,4826.401637
59393.484632,888.247130,-3923.091493,3217.601092
59393.484942,2220.617826,-4515.256246,3064.381992
59393.485252,2516.700203,-4515.256246,1685.410096
59393.485562,2442.679609,-6069.688724,-306.438199
59393.485872,-962.267725,-11251.130318,-2528.115143
59393.486182,-3034.844362,-15396.283594,-3753.867940
59393.486492,-8290.306550,-19023.292709,-4290.134789
59393.486802,-5403.503377,-18505.148550,-2528.115143
59393.487112,-4811.338623,-11251.130318,-5132.839837
59393.487422,-74.020594,-9104.533087,-76.609550
59393.487732,1998.556043,-4811.338623,1991.848295
59393.488042,4885.359217,-4737.318029,5362.668486
59393.488351,5625.565159,-4737.318029,5439.278036
59393.488661,6735.874072,-4737.318029,5975.544884
59393.488971,9400.615463,-3552.988522,6665.030833
59393.489281,10584.944971,-4737.318029,6052.154434
59393.489591,3552.988522,-3034.844362,2451.505594
59393.489901,1628.453072,-11029.068536,3064.381992
59393.490211,-74.020594,-15988.448347,-3140.991542
59393.490521,-2516.700203,-17172.777854,-3753.867940
59393.490831,-3552.988522,-15914.427753,-5669.106685
59393.491141,-5403.503377,-15914.427753,-4903.011187
59393.491451,-3923.091493,-12361.439231,-3447.429741
59393.491760,-592.164754,-9918.759623,-1762.019645
59393.492070,7031.956449,-5921.647536,4826.401637
59393.492380,14137.933492,-3552.988522,8197.221829
59393.492690,12139.377449,-74.020594,6818.249932
59393.493000,13027.624579,-4071.132681,10648.727422
59393.493310,9400.615463,-4145.153275,3600.648841
59393.493620,7105.977043,-9252.574275,3600.648841
59393.493930,1184.329507,-9252.574275,-1685.410096
59393.494240,-2146.597232,-13397.727550,-3907.087040
59393.494550,-2442.679609,-15766.386565,-5286.058936
59393.494860,74.020594,-14063.912898,-4596.572988
59393.495170,4663.297435,-14211.954086,-76.609550
59393.495479,5847.626942,-12435.459826,-76.609550
59393.495789,1110.308913,-10658.965565,-1302.362347
59393.496099,1924.535449,-8956.491898,0.000000
59393.496409,9400.615463,-8882.471304,6052.154434
59393.496719,6069.688724,-4811.338623,5209.449386
59393.497029,2886.803174,-5773.606348,1762.019645
59393.497339,2368.659014,-6661.853478,919.314598
59393.497649,4811.338623,-7846.182985,2374.896044
59393.497959,3182.885551,-9548.656652,2834.553343
59393.498269,-1480.411884,-12879.583391,1378.971896
59393.498579,-5329.482782,-14359.995275,-1225.752797
59393.498889,-2738.761985,-13619.789333,-2528.115143
59393.499198,-6217.729913,-9548.656652,-4903.011187
59393.499508,-4145.153275,-9844.739029,766.095498
59393.499818,-5625.565159,-7179.997637,0.000000
59393.500128,3404.947333,-7402.059420,2145.067394
59393.500438,5551.544565,-6291.750507,4519.963438
59393.500748,962.267725,-6291.750507,4826.401637
59393.501058,-2886.803174,-6291.750507,2068.457845
59393.501368,-4737.318029,-6587.832884,0.000000
59393.501678,-6513.812290,-8364.327145,0.000000
59393.501988,-6291.750507,-11843.295072,-689.485948
59393.502298,-7994.224174,-10140.821405,0.000000
59393.502607,-370.102971,-11843.295072,1762.019645
59393.502917,-2590.720797,-8660.409521,0.000000
59393.503227,-3923.091493,-11029.068536,1838.629195
59393.503537,-5107.421000,-10362.883188,766.095498
59393.503847,-2220.617826,-6587.832884,1225.752797
59393.504157,-962.267725,-5921.647536,1685.410096
59393.504467,-2960.823768,-4811.338623,1608.800546
59393.504777,-3849.070898,-6291.750507,1762.019645
59393.505087,888.247130,-6291.750507,3217.601092
59393.505397,2294.638420,-7698.141797,-76.609550
59393.505707,-4737.318029,-10140.821405,0.000000
59393.506017,-5329.482782,-11473.192101,0.000000
59393.506326,-4219.173869,-12805.562797,-383.047749
59393.506636,-5255.462188,-10658.965565,-1608.800546
59393.506946,-5773.606348,-10732.986159,-1072.533697
59393.507256,-3108.864956,-9178.553681,536.266849
59393.507566,1184.329507,-5995.668130,2451.505594
59393.507876,3034.844362,-3627.009116,2451.505594
59393.508186,5033.400406,-7105.977043,5209.449386
59393.508496,1702.473667,-8290.306550,1762.019645
59393.508806,0.000000,-5995.668130,0.000000
59393.509116,1998.556043,-8290.306550,-76.609550
59393.509426,-74.020594,-9400.615463,-383.047749
59393.509736,0.000000,-10807.006753,0.000000
59393.510045,3404.947333,-9992.780217,689.485948
59393.510355,4145.153275,-9918.759623,612.876398
59393.510665,814.226536,-10214.842000,0.000000
59393.510975,-962.267725,-10584.944971,-1302.362347
59393.511285,0.000000,-10140.821405,0.000000
59393.511595,2294.638420,-9178.553681,-76.609550
59393.511905,-2368.659014,-5403.503377,-3064.381992
59393.512215,3478.967927,-10658.965565,1762.019645
59393.512525,3552.988522,-7179.997637,1455.581446
59393.512835,6661.853478,-6735.874072,2068.457845
59393.513145,5107.421000,-7105.977043,2221.676944
59393.513454,1998.556043,-9696.697840,1838.629195
59393.513764,-74.020594,-11251.130318,-76.609550
59393.514074,-2442.679609,-8438.347739,-3753.867940
59393.514384,-2960.823768,-10140.821405,-1225.752797
59393.514694,-1258.350101,-12435.459826,-76.609550
59393.515004,0.000000,-7179.997637,0.000000
59393.515314,5847.626942,-9474.636058,3600.648841
59393.515624,3330.926739,-6513.812290,1149.143247
59393.515934,1184.329507,-9030.512492,2145.067394
59393.516243,-444.123565,-9548.656652,995.924147
59393.516553,-1406.391290,-8882.471304,-1149.143247
59393.516863,-1258.350101,-11251.130318,-689.485948
59393.517173,-74.020594,-11843.295072,-76.609550
59393.517483,-2664.741391,-7476.080014,0.000000
59393.517792,1998.556043,-9474.636058,2374.896044
59393.518102,-74.020594,-7994.224174,-689.485948
59393.518412,-2368.659014,-9252.574275,2451.505594
59393.518722,-2664.741391,-11621.233289,4213.525239
59393.519032,-1776.494261,-8512.368333,1608.800546
59393.519341,-3034.844362,-7402.059420,459.657299
59393.519651,-2368.659014,-7402.059420,1302.362347
59393.519961,-2442.679609,-4145.153275,536.266849
59393.520271,0.000000,-4293.194464,-76.609550
59393.520581,0.000000,-5403.503377,0.000000
59393.520890,-74.020594,-11843.295072,2374.896044
59393.521200,-3923.091493,-10732.986159,-2451.505594
59393.521510,-3552.988522,-14211.954086,-76.609550
59393.521820,-6513.812290,-11029.068536,-2451.505594
59393.522130,-5773.606348,-11991.336260,-1608.800546
59393.522439,-2960.823768,-10510.924376,1455.581446
59393.522749,1924.535449,-7105.977043,3294.210641
59393.523059,4663.297435,-4441.235652,3600.648841
59393.523369,1702.473667,-5921.647536,4213.525239
59393.523679,-3256.906145,-5995.668130,2451.505594
59393.523988,1998.556043,-9474.636058,4213.525239
59393.524298,-1184.329507,-5699.585753,0.000000
59393.524608,-1332.370696,-10732.986159,2451.505594
59393.524918,-2960.823768,-9844.739029,0.000000
59393.525228,1036.288319,-9844.739029,1072.533697
59393.525537,1776.494261,-9178.553681,306.438199
59393.525847,148.041188,-10510.924376,-306.438199
59393.526157,-74.020594,-13915.871710,2374.896044
59393.526467,-74.020594,-14211.954086,-76.609550
59393.526777,-1258.350101,-8882.471304,-2528.115143
59393.527087,-2960.823768,-8660.409521,0.000000
59393.527396,-74.020594,-11843.295072,2374.896044
59393.527706,2368.659014,-5995.668130,3677.258390
59393.528016,6143.709319,-3775.050304,2298.286494
59393.528326,4959.379811,-5551.544565,3677.258390
59393.528636,1554.432478,-8290.306550,3140.991542
59393.528945,-518.144159,-10066.800811,1455.581446
59393.529255,-74.020594,-11843.295072,-76.609550
59393.529565,-74.020594,-13619.789333,-76.609550
59393.529875,-1850.514855,-10510.924376,-1915.238745
59393.530185,1628.453072,-8660.409521,919.314598
59393.530494,2738.761985,-8290.306550,-689.485948
59393.530804,0.000000,-5995.668130,612.876398
59393.531114,518.144159,-10362.883188,1149.143247
59393.531424,0.000000,-11103.089130,766.095498
59393.531734,-592.164754,-8660.409521,-1302.362347
59393.532043,-2368.659014,-9252.574275,-1532.190996
59393.532353,296.082377,-11325.150913,459.657299
59393.532663,2072.576638,-9548.656652,3217.601092
59393.532973,4663.297435,-7105.977043,-76.609550
59393.533283,296.082377,-7179.997637,0.000000
59393.533592,1184.329507,-11029.068536,4290.134789
59393.533902,-3552.988522,-10140.821405,612.876398
59393.534212,-1554.432478,-10288.862594,536.266849
59393.534522,-3034.844362,-8956.491898,0.000000
59393.534832,-2442.679609,-9030.512492,689.485948
59393.535141,-592.164754,-7254.018232,1608.800546
59393.535451,1184.329507,-5403.503377,2451.505594
59393.535761,1184.329507,-4811.338623,1225.752797
59393.536071,-74.020594,-10658.965565,1762.019645
59393.536381,-4071.132681,-9548.656652,-1225.752797
59393.536690,-1924.535449,-13101.645173,612.876398
59393.537000,-3627.009116,-9770.718434,-3983.696590
59393.537310,-3923.091493,-12139.377449,-612.876398
59393.537620,-1184.329507,-11251.130318,1608.800546
59393.537930,2146.597232,-8290.306550,2145.067394
59393.538239,2368.659014,-7031.956449,2757.943793
59393.538549,-2368.659014,-6587.832884,2451.505594
59393.538859,-4737.318029,-7179.997637,2451.505594
59393.539169,-74.020594,-9474.636058,3600.648841
59393.539479,-2738.761985,-5403.503377,0.000000
59393.539788,-1258.350101,-9474.636058,3600.648841
59393.540098,-666.185348,-7105.977043,-76.609550
59393.540408,1406.391290,-6735.874072,2145.067394
59393.540718,2886.803174,-6439.791695,995.924147
59393.541028,0.000000,-9844.739029,766.095498
59393.541337,-2738.761985,-12583.501014,0.000000
59393.541647,-4737.318029,-11325.150913,-2681.334243
59393.541957,-5921.647536,-9548.656652,-4596.572988
59393.542267,-2960.823768,-12213.398043,0.000000
59393.542577,-74.020594,-11843.295072,1762.019645
59393.542886,1184.329507,-5995.668130,2451.505594
59393.543196,8216.285956,-7105.977043,3600.648841
59393.543506,2368.659014,-5699.585753,3217.601092
59393.543816,-518.144159,-8142.265362,2681.334243
59393.544126,-888.247130,-9178.553681,2298.286494
59393.544435,-740.205942,-7772.162391,306.438199
59393.544745,-1850.514855,-7920.203579,-1302.362347
59393.545055,-1554.432478,-7698.141797,-689.485948
59393.545365,0.000000,-7179.997637,612.876398
59393.545675,4663.297435,-8290.306550,1762.019645
59393.545984,0.000000,-7179.997637,-2221.676944
59393.546294,-74.020594,-13619.789333,1149.143247
59393.546604,-2072.576638,-12509.480420,-1225.752797
59393.546914,-1480.411884,-12361.439231,-1915.238745
59393.547224,-2812.782580,-11029.068536,-2451.505594
59393.547533,-1258.350101,-10732.986159,-306.438199
59393.547843,3478.967927,-8586.388927,2374.896044
59393.548153,5847.626942,-3552.988522,1149.143247
59393.548463,2960.823768,-5403.503377,3064.381992
59393.548773,1998.556043,-9178.553681,4213.525239
59393.549082,-3552.988522,-7772.162391,0.000000
59393.549392,0.000000,-11103.089130,3294.210641
59393.549702,-2812.782580,-8364.327145,-1532.190996
59393.550012,-3108.864956,-9548.656652,0.000000
59393.550322,-222.061783,-8956.491898,612.876398
59393.550631,2368.659014,-7476.080014,612.876398
59393.550941,3478.967927,-9178.553681,1149.143247
59393.551251,-74.020594,-11843.295072,-76.609550
59393.551561,-3330.926739,-10436.903782,-1225.752797
59393.551871,-2368.659014,-10732.986159,0.000000
59393.552180,-74.020594,-10658.965565,-1302.362347
59393.552490,-3552.988522,-10140.821405,612.876398
59393.552800,518.144159,-9326.594869,1455.581446
59393.553110,3627.009116,-6587.832884,2528.115143
59393.553420,3478.967927,-6661.853478,2528.115143
59393.553729,518.144159,-8882.471304,3140.991542
59393.554039,-74.020594,-12583.501014,3983.696590
59393.554349,-74.020594,-11843.295072,3907.087040
59393.554659,-2738.761985,-7698.141797,-995.924147
59393.554969,-3552.988522,-9252.574275,2068.457845
59393.555278,-2738.761985,-6809.894666,383.047749
59393.555588,0.000000,-5995.668130,1225.752797
59393.555898,2590.720797,-6365.771101,1378.971896
59393.556208,-962.267725,-9030.512492,766.095498
59393.556518,-2738.761985,-11029.068536,689.485948
59393.556827,-2960.823768,-11325.150913,-1149.143247
59393.557137,-3552.988522,-11325.150913,0.000000
59393.557447,-2960.823768,-11917.315666,612.876398
59393.557757,-74.020594,-11251.130318,1762.019645
59393.558067,1776.494261,-6587.832884,0.000000
59393.558376,5329.482782,-8068.244768,4749.792088
59393.558686,0.000000,-5995.668130,1838.629195
59393.558996,-296.082377,-10436.903782,3983.696590
59393.559306,-666.185348,-9252.574275,2451.505594
59393.559616,-888.247130,-7254.018232,306.438199
59393.559925,-2516.700203,-7772.162391,306.438199
59393.560235,-2368.659014,-7179.997637,1225.752797
59393.560545,0.000000,-7179.997637,2451.505594
59393.560855,3478.967927,-8290.306550,-76.609550
59393.561165,0.000000,-7179.997637,-3524.039291
59393.561474,-74.020594,-13841.851115,2987.772442
59393.561784,-2294.638420,-11177.109724,-1225.752797
59393.562094,-2812.782580,-11695.253884,-2221.676944
59393.562404,-3923.091493,-10732.986159,-2145.067394
59393.562714,-1628.453072,-10140.821405,-459.657299
59393.563023,2220.617826,-8586.388927,2068.457845
59393.563333,3552.988522,-4811.338623,306.438199
59393.563643,0.000000,-5995.668130,1225.752797
59393.563953,1998.556043,-9474.636058,2987.772442
59393.564263,-2294.638420,-9548.656652,1225.752797
59393.564572,-74.020594,-7994.224174,-76.609550
59393.564882,-2146.597232,-7105.977043,-2451.505594
59393.565192,-1776.494261,-9548.656652,1225.752797
59393.565502,1184.329507,-7994.224174,1838.629195
59393.565812,3627.009116,-7105.977043,1225.752797
59393.566121,2664.741391,-7846.182985,1455.581446
59393.566431,-1850.514855,-9252.574275,-689.485948
59393.566741,-4737.318029,-9548.656652,-2451.505594
59393.567051,-2960.823768,-11029.068536,-1838.629195
59393.567361,-3034.844362,-9770.718434,-4979.620737
59393.567670,-3256.906145,-11917.315666,0.000000
59393.567980,-74.020594,-10362.883188,-995.924147
59393.568290,3627.009116,-6735.874072,1378.971896
59393.568600,3923.091493,-6661.853478,2221.676944
59393.568910,814.226536,-9252.574275,2911.162892
59393.569219,-1184.329507,-10807.006753,4213.525239
59393.569529,-1258.350101,-9474.636058,1455.581446
59393.569839,-1850.514855,-6809.894666,-995.924147
59393.570149,-1776.494261,-8956.491898,2145.067394
59393.570459,-74.020594,-6809.894666,536.266849
59393.570768,2368.659014,-4811.338623,2451.505594
59393.571078,4663.297435,-7698.141797,1762.019645
59393.571388,74.020594,-9030.512492,919.314598
59393.571698,-1924.535449,-11399.171507,612.876398
59393.572008,-2442.679609,-11843.295072,-1455.581446
59393.572317,-4293.194464,-11473.192101,-3064.381992
59393.572627,-4811.338623,-11843.295072,-1302.362347
59393.572937,-74.020594,-11843.295072,-76.609550
59393.573247,1776.494261,-6143.709319,1225.752797
59393.573557,7031.956449,-9474.636058,6052.154434
59393.573866,2294.638420,-7402.059420,2987.772442
59393.574176,1332.370696,-10955.047942,4826.401637
59393.574486,0.000000,-9104.533087,3064.381992
59393.574796,-1554.432478,-7920.203579,919.314598
59393.575106,-3108.864956,-8364.327145,1378.971896
59393.575415,-2146.597232,-7772.162391,1225.752797
59393.575725,2886.803174,-7402.059420,3983.696590
59393.576035,4663.297435,-7105.977043,2374.896044
59393.576345,0.000000,-6735.874072,-995.924147
59393.576655,-2072.576638,-13249.686362,2451.505594
59393.576964,-4219.173869,-10436.903782,-3294.210641
59393.577274,-4145.153275,-12435.459826,-1302.362347
59393.577584,-5329.482782,-11103.089130,-3370.820191
59393.577894,-2294.638420,-11325.150913,-689.485948
59393.578204,3034.844362,-9178.553681,2374.896044
59393.578513,5847.626942,-5699.585753,1225.752797
59393.578823,4589.276840,-7920.203579,3677.258390
59393.579133,2886.803174,-11695.253884,5439.278036
59393.579443,-1258.350101,-9696.697840,1762.019645
59393.579753,-592.164754,-10732.986159,3064.381992
59393.580062,-2442.679609,-8882.471304,-383.047749
59393.580372,-4145.153275,-8956.491898,2451.505594
59393.580682,1110.308913,-7550.100608,1762.019645
59393.580992,3627.009116,-5255.462188,1762.019645
59393.581302,2664.741391,-7179.997637,1225.752797
59393.581611,-814.226536,-9548.656652,0.000000
59393.581921,-2368.659014,-11917.315666,-2451.505594
59393.582231,-2368.659014,-12805.562797,-1225.752797
59393.582541,-4219.173869,-10066.800811,-4060.306139
59393.582851,-2960.823768,-11325.150913,612.876398
59393.583160,2886.803174,-11251.130318,2374.896044
59393.583470,2664.741391,-6587.832884,1225.752797
59393.583780,3627.009116,-8290.306550,1608.800546
59393.584090,444.123565,-9696.697840,2145.067394
59393.584400,-1036.288319,-11029.068536,2604.724693
59393.584709,-962.267725,-9178.553681,1149.143247
59393.585019,-2368.659014,-7179.997637,-1838.629195
59393.585329,-3552.988522,-8364.327145,2451.505594
59393.585639,2294.638420,-9326.594869,4213.525239
59393.585949,2368.659014,-3627.009116,2451.505594
59393.586258,5551.544565,-7698.141797,5592.497135
59393.586568,-592.164754,-7772.162391,1225.752797
59393.586878,-2220.617826,-11251.130318,842.705048
59393.587188,-3330.926739,-10584.944971,-2221.676944
59393.587498,-5921.647536,-10362.883188,-4060.306139
59393.587807,-6291.750507,-11547.212695,-3140.991542
59393.588117,-4071.132681,-10140.821405,-1915.238745
59393.588427,1184.329507,-7179.997637,612.876398
59393.588737,6439.791695,-8882.471304,2987.772442
59393.589047,0.000000,-6291.750507,612.876398
59393.589356,1776.494261,-12361.439231,5515.887586
59393.589666,-1480.411884,-8438.347739,1225.752797
59393.589976,-1332.370696,-7476.080014,1072.533697
59393.590286,-3478.967927,-8882.471304,1991.848295
59393.590596,-1776.494261,-7772.162391,2604.724693
59393.590905,2294.638420,-8216.285956,4213.525239
59393.591215,4071.132681,-4145.153275,2987.772442
59393.591525,0.000000,-5403.503377,1225.752797
59393.591835,-2368.659014,-10140.821405,1225.752797
59393.592145,-1258.350101,-11843.295072,-1302.362347
59393.592454,-6513.812290,-9548.656652,-4903.011187
59393.592764,-4959.379811,-9770.718434,-4519.963438
59393.593074,-3627.009116,-11547.212695,-536.266849
59393.593384,2072.576638,-8808.450710,1302.362347
59393.593694,5255.462188,-7550.100608,1532.190996
59393.594003,4663.297435,-10214.842000,4673.182538
59393.594313,1110.308913,-13027.624579,4519.963438
59393.594623,-1258.350101,-10066.800811,995.924147
59393.594933,-1184.329507,-9104.533087,2145.067394
59393.595243,-3923.091493,-7328.038826,-1302.362347
59393.595552,-4441.235652,-8364.327145,0.000000
59393.595862,1702.473667,-7698.141797,2374.896044
59393.596172,3849.070898,-4811.338623,1762.019645
59393.596482,3997.112087,-6883.915261,2374.896044
59393.596792,-222.061783,-10066.800811,1838.629195
59393.597101,-1776.494261,-10140.821405,1225.752797
59393.597411,-1258.350101,-12435.459826,-383.047749
59393.597721,-3627.009116,-10066.800811,-3753.867940
59393.598031,-4737.318029,-10140.821405,-2451.505594
59393.598341,2590.720797,-11843.295072,2528.115143
59393.598650,4663.297435,-5921.647536,-76.609550
59393.598960,4663.297435,-8882.471304,1762.019645
59393.599270,0.000000,-10732.986159,1532.190996
59393.599580,-1776.494261,-11695.253884,1608.800546
59393.599890,-1702.473667,-10140.821405,229.828649
59393.600199,-3552.988522,-8364.327145,0.000000
59393.600509,-1554.432478,-9548.656652,2451.505594
59393.600819,1110.308913,-8290.306550,3294.210641
59393.601129,3701.029710,-3627.009116,612.876398
59393.601439,6513.812290,-5403.503377,4903.011187
59393.601748,2886.803174,-8290.306550,3600.648841
59393.602058,-74.020594,-11251.130318,2145.067394
59393.602368,-3330.926739,-10214.842000,-2068.457845
59393.602678,-4589.276840,-10362.883188,-3753.867940
59393.602988,-5403.503377,-10881.027347,-3447.429741
59393.603297,-3404.947333,-9548.656652,-2451.505594
59393.603607,3552.988522,-7179.997637,1225.752797
59393.603917,5847.626942,-9474.636058,2068.457845
59393.604227,518.144159,-9030.512492,-689.485948
59393.604537,-2368.659014,-13101.645173,3677.258390
59393.604846,-74.020594,-13027.624579,2374.896044
59393.605156,-1924.535449,-9992.780217,919.314598
59393.605466,-3182.885551,-9474.636058,1532.190996
59393.605776,-962.267725,-7550.100608,3064.381992
59393.606086,3923.091493,-5699.585753,4826.401637
59393.606395,5107.421000,-1776.494261,2451.505594
59393.606705,0.000000,-4811.338623,2451.505594
59393.607015,-592.164754,-10436.903782,2757.943793
59393.607325,-2442.679609,-11251.130318,-689.485948
59393.607635,-5921.647536,-9548.656652,-2451.505594
59393.607944,-2442.679609,-13619.789333,-1302.362347
59393.608254,-4145.153275,-10732.986159,0.000000
59393.608564,1924.535449,-9622.677246,612.876398
59393.608874,3775.050304,-7920.203579,306.438199
59393.609184,1998.556043,-10362.883188,1991.848295
59393.609493,-74.020594,-11251.130318,2068.457845
59393.609803,-2960.823768,-9548.656652,612.876398
59393.610113,-1776.494261,-8660.409521,1532.190996
59393.610423,-1850.514855,-7698.141797,-689.485948
59393.610733,-3552.988522,-7179.997637,2451.505594
59393.611043,4663.297435,-9178.553681,4826.401637
59393.611352,2960.823768,-2442.679609,1838.629195
59393.611662,2886.803174,-7105.977043,2374.896044
59393.611972,-962.267725,-10214.842000,2068.457845
59393.612282,-2146.597232,-10510.924376,-76.609550
59393.612592,-2442.679609,-10658.965565,-1302.362347
59393.612901,-4811.338623,-9474.636058,-4060.306139
59393.613211,-4737.318029,-10732.986159,-1838.629195
59393.613521,1110.308913,-10658.965565,-76.609550
59393.613831,1184.329507,-7179.997637,0.000000
59393.614141,3849.070898,-9548.656652,3064.381992
59393.614450,-1998.556043,-9918.759623,766.095498
59393.614760,-2368.659014,-11843.295072,1378.971896
59393.615068,-1332.370696,-9030.512492,153.219100
59393.615378,-3404.947333,-8808.450710,-306.438199
59393.615688,-1850.514855,-10658.965565,2374.896044
59393.615998,1110.308913,-7698.141797,2221.676944
59393.616307,2664.741391,-2738.761985,2451.505594
59393.616617,6513.812290,-7031.956449,5745.716235
59393.616927,1110.308913,-7698.141797,2068.457845
59393.617237,-3552.988522,-9548.656652,0.000000
59393.617547,-2738.761985,-9474.636058,-2221.676944
59393.617857,-3627.009116,-11621.233289,-2528.115143
59393.618167,-3701.029710,-11325.150913,-1915.238745
59393.618477,-814.226536,-10214.842000,-229.828649
59393.618787,5847.626942,-9474.636058,2987.772442
59393.619097,3849.070898,-8290.306550,-76.609550
59393.619407,518.144159,-10066.800811,536.266849
59393.619717,-2960.823768,-11917.315666,1225.752797
59393.620026,-1258.350101,-11251.130318,-76.609550
59393.620336,-4737.318029,-7179.997637,-1838.629195
59393.620646,-1850.514855,-9474.636058,1608.800546
59393.620956,222.061783,-8142.265362,2911.162892
59393.621266,4811.338623,-5255.462188,4673.182538
59393.621576,6291.750507,-3923.091493,3830.477490
59393.621886,592.164754,-6291.750507,4903.011187
59393.622196,-296.082377,-10584.944971,3677.258390
59393.622506,-666.185348,-11251.130318,-76.609550
59393.622816,-7105.977043,-7179.997637,-4903.011187
59393.623126,-3627.009116,-13027.624579,-1302.362347
59393.623436,-1258.350101,-10658.965565,-2528.115143
59393.623746,3182.885551,-10362.883188,842.705048
59393.624055,3923.091493,-7624.121203,306.438199
59393.624365,1628.453072,-9474.636058,1072.533697
59393.624675,-740.205942,-12287.418637,1915.238745
59393.624985,-3552.988522,-9548.656652,306.438199
59393.625295,-3552.988522,-9548.656652,0.000000
59393.625605,-2442.679609,-11251.130318,2374.896044
59393.625915,-2738.761985,-5107.421000,0.000000
59393.626225,3552.988522,-7179.997637,5515.887586
59393.626535,8216.285956,-4737.318029,4826.401637
59393.626845,3108.864956,-6957.935855,4596.572988
59393.627155,-666.185348,-8956.491898,2911.162892
59393.627465,-2146.597232,-9548.656652,612.876398
59393.627774,-4071.132681,-9252.574275,-1915.238745
59393.628084,-6365.771101,-7772.162391,-5515.887586
59393.628394,-5921.647536,-9548.656652,-2145.067394
59393.628704,1480.411884,-10140.821405,2374.896044
59393.629014,1406.391290,-6587.832884,-1915.238745
59393.629324,2664.741391,-10436.903782,1608.800546
59393.629634,-74.020594,-14211.954086,2374.896044
59393.629944,-2072.576638,-11917.315666,1532.190996
59393.630254,-1554.432478,-10362.883188,-229.828649
59393.630564,-2738.761985,-9548.656652,-536.266849
59393.630874,-2146.597232,-8882.471304,1225.752797
59393.631184,2294.638420,-6957.935855,1072.533697
59393.631493,3552.988522,-2738.761985,1838.629195
59393.631803,3849.070898,-5551.544565,4903.011187
59393.632113,3478.967927,-9474.636058,3600.648841
59393.632423,-3108.864956,-8512.368333,0.000000
59393.632733,-2368.659014,-10140.821405,612.876398
59393.633043,-4737.318029,-9548.656652,-2451.505594
59393.633353,-4367.215058,-10881.027347,-1915.238745
59393.633663,-1258.350101,-9696.697840,-612.876398
59393.633973,2590.720797,-8586.388927,0.000000
59393.634283,3478.967927,-9474.636058,-76.609550
59393.634593,-1258.350101,-9548.656652,-995.924147
59393.634903,-2960.823768,-11917.315666,0.000000
59393.635212,-74.020594,-11843.295072,-76.609550
59393.635522,-4145.153275,-8364.327145,0.000000
59393.635832,-1924.535449,-9844.739029,3064.381992
59393.636142,0.000000,-7179.997637,2451.505594
59393.636452,4959.379811,-5329.482782,4366.744339
59393.636762,5551.544565,-4885.359217,3600.648841
59393.637072,1406.391290,-8438.347739,3753.867940
59393.637382,-74.020594,-11547.212695,3600.648841
59393.637692,-1258.350101,-10066.800811,-76.609550
59393.638002,-4737.318029,-7772.162391,-4903.011187
59393.638312,-1850.514855,-12731.542202,-76.609550
59393.638622,-4663.297435,-9548.656652,-2298.286494
59393.638931,0.000000,-7179.997637,612.876398
59393.639241,1998.556043,-7550.100608,-995.924147
59393.639551,0.000000,-9326.594869,306.438199
59393.639861,-1554.432478,-11991.336260,919.314598
59393.640171,-1406.391290,-10584.944971,459.657299
59393.640481,-370.102971,-11843.295072,2068.457845
59393.640791,-1850.514855,-11251.130318,-76.609550
59393.641101,-1554.432478,-8882.471304,-76.609550
59393.641411,1184.329507,-5995.668130,3677.258390
59393.641721,7031.956449,-5921.647536,4826.401637
59393.642031,592.164754,-4811.338623,1225.752797
59393.642341,-74.020594,-8882.471304,3217.601092
59393.642650,-962.267725,-9252.574275,1149.143247
59393.642960,-1998.556043,-9104.533087,-766.095498
59393.643270,-3627.009116,-9992.780217,-1915.238745
59393.643580,-3849.070898,-11103.089130,612.876398
59393.643890,-74.020594,-11695.253884,-76.609550
59393.644200,2886.803174,-7698.141797,-1302.362347
59393.644510,0.000000,-7179.997637,0.000000
59393.644820,-74.020594,-13323.706956,2681.334243
59393.645130,-2738.761985,-9548.656652,-2374.896044
59393.645440,-74.020594,-10658.965565,-76.609550
59393.645750,-2294.638420,-9326.594869,-612.876398
59393.646060,-2294.638420,-9770.718434,1762.019645
59393.646369,1924.535449,-7550.100608,3447.429741
59393.646679,4737.318029,-4811.338623,4903.011187
59393.646989,5773.606348,-6217.729913,4903.011187
59393.647299,1110.308913,-11843.295072,4826.401637
59393.647609,-3330.926739,-7179.997637,0.000000
59393.647919,-2368.659014,-9548.656652,0.000000
59393.648229,-2442.679609,-8882.471304,-3753.867940
59393.648539,-2516.700203,-10955.047942,-229.828649
59393.648849,-370.102971,-9252.574275,0.000000
59393.649159,2886.803174,-7624.121203,0.000000
59393.649469,2664.741391,-8216.285956,0.000000
59393.649779,0.000000,-9548.656652,0.000000
59393.650088,-1776.494261,-12805.562797,1225.752797
59393.650398,-74.020594,-13619.789333,1762.019645
59393.650708,-4145.153275,-8956.491898,-2987.772442
59393.651018,-2368.659014,-11621.233289,919.314598
59393.651328,-74.020594,-9474.636058,-76.609550
59393.651638,4145.153275,-6735.874072,3677.258390
59393.651948,4367.215058,-5477.523971,3140.991542
59393.652258,814.226536,-7772.162391,3677.258390
59393.652568,-888.247130,-9030.512492,2834.553343
59393.652878,-3256.906145,-5995.668130,0.000000
59393.653188,-2960.823768,-7179.997637,0.000000
59393.653498,-1258.350101,-11843.295072,2068.457845
59393.653807,-3552.988522,-7772.162391,0.000000
59393.654117,3330.926739,-9474.636058,1302.362347
59393.654427,4663.297435,-9474.636058,-76.609550
59393.654737,-592.164754,-10732.986159,153.219100
59393.655047,-1850.514855,-13175.665768,919.314598
59393.655357,-1998.556043,-11695.253884,-689.485948
59393.655667,-2812.782580,-10436.903782,-1225.752797
59393.655977,-4515.256246,-8364.327145,-2451.505594
59393.656287,-2368.659014,-8364.327145,1225.752797
59393.656597,5255.462188,-9326.594869,7277.907231
59393.656907,4071.132681,-3034.844362,2451.505594
59393.657217,2368.659014,-7179.997637,5209.449386
59393.657526,1998.556043,-11843.295072,6052.154434
59393.657836,-2368.659014,-7772.162391,1225.752797
59393.658146,-2220.617826,-7920.203579,-842.705048
59393.658456,-3256.906145,-9030.512492,-1608.800546
59393.658766,-2664.741391,-11177.109724,0.000000
59393.659076,1110.308913,-8290.306550,-1455.581446
59393.659386,592.164754,-7328.038826,-1302.362347
59393.659696,-3552.988522,-7179.997637,-2451.505594
59393.660006,-444.123565,-14063.912898,1608.800546
59393.660316,-3404.947333,-11547.212695,-1455.581446
59393.660626,-2072.576638,-12213.398043,612.876398
59393.660936,-4145.153275,-10140.821405,-1532.190996
59393.661245,-1184.329507,-9992.780217,2298.286494
59393.661555,2516.700203,-7920.203579,4519.963438
59393.661865,4441.235652,-4663.297435,4060.306139
59393.662175,4663.297435,-7105.977043,3600.648841
59393.662485,-370.102971,-8290.306550,3600.648841
59393.662795,-4737.318029,-5995.668130,0.000000
59393.663105,-296.082377,-9474.636058,1685.410096
59393.663415,-2738.761985,-7994.224174,-1302.362347
59393.663725,-4737.318029,-8364.327145,0.000000
59393.664035,-666.185348,-8364.327145,0.000000
59393.664345,2072.576638,-7476.080014,0.000000
59393.664655,444.123565,-8364.327145,-689.485948
59393.664964,-1702.473667,-11621.233289,0.000000
59393.665274,-74.020594,-14211.954086,-76.609550
59393.665584,-814.226536,-11399.171507,-842.705048
59393.665894,-5625.565159,-9548.656652,-3677.258390
59393.666204,-370.102971,-13027.624579,1762.019645
59393.666514,0.000000,-7772.162391,1225.752797
59393.666824,5255.462188,-6513.812290,2911.162892
59393.667134,4071.132681,-6365.771101,4443.353888
59393.667444,0.000000,-7994.224174,3600.648841
59393.667754,-740.205942,-8956.491898,2757.943793
59393.668064,-666.185348,-8216.285956,995.924147
59393.668374,-2368.659014,-5995.668130,0.000000
59393.668683,-3404.947333,-8364.327145,0.000000
59393.668993,-74.020594,-11547.212695,2374.896044
59393.669303,1036.288319,-5107.421000,-1532.190996
59393.669613,2738.761985,-8882.471304,1685.410096
59393.669923,-296.082377,-11547.212695,1838.629195
59393.670233,-2738.761985,-13175.665768,-536.266849
59393.670543,-2368.659014,-12435.459826,-1838.629195
59393.670853,-3182.885551,-11769.274478,-2757.943793
59393.671163,-3478.967927,-11621.233289,-1072.533697
59393.671473,1110.308913,-10510.924376,2374.896044
59393.671783,4663.297435,-7105.977043,4826.401637
59393.672093,2960.823768,-2442.679609,2451.505594
59393.672403,3478.967927,-8290.306550,6052.154434
59393.672712,0.000000,-5995.668130,229.828649
59393.673022,-1702.473667,-6883.915261,0.000000
59393.673332,-962.267725,-7328.038826,-383.047749
59393.673642,-2516.700203,-8586.388927,-306.438199
59393.673952,-2146.597232,-9104.533087,76.609550
59393.674262,962.267725,-7550.100608,459.657299
59393.674572,1480.411884,-7179.997637,0.000000
59393.674882,0.000000,-9548.656652,0.000000
59393.675192,-666.185348,-14211.954086,-76.609550
59393.675502,-3478.967927,-11177.109724,-2681.334243
59393.675812,-1258.350101,-14211.954086,-76.609550
59393.676122,-2442.679609,-13027.624579,-76.609550
59393.676431,-1850.514855,-10362.883188,229.828649
59393.676741,2368.659014,-7846.182985,3677.258390
59393.677051,5699.585753,-4515.256246,3370.820191
59393.677361,3182.885551,-5921.647536,3064.381992
59393.677671,1998.556043,-8882.471304,4213.525239
59393.677981,-74.020594,-9474.636058,2374.896044
59393.678291,-2368.659014,-6587.832884,0.000000
59393.678601,-1406.391290,-8290.306550,-76.609550
59393.678911,-3552.988522,-8364.327145,1225.752797
59393.679221,0.000000,-7179.997637,0.000000
59393.679531,2220.617826,-7550.100608,536.266849
59393.679841,1110.308913,-7920.203579,-306.438199
59393.680150,-2294.638420,-12213.398043,-459.657299
59393.680460,-2664.741391,-14063.912898,-76.609550
59393.680770,-4145.153275,-11325.150913,-3677.258390
59393.681080,-5921.647536,-10732.986159,-2451.505594
59393.681390,-1850.514855,-11843.295072,-76.609550
59393.681700,0.000000,-7772.162391,1225.752797
59393.682010,7031.956449,-7105.977043,4519.963438
59393.682320,5847.626942,-7105.977043,4826.401637
59393.682630,592.164754,-7920.203579,3907.087040
59393.682940,0.000000,-9104.533087,3524.039291
59393.683250,-518.144159,-7772.162391,1685.410096
59393.683560,-3552.988522,-6587.832884,0.000000
59393.683869,-2442.679609,-10658.965565,1762.019645
59393.684179,-74.020594,-8882.471304,1149.143247
59393.684489,1184.329507,-5995.668130,0.000000
59393.684799,3034.844362,-8956.491898,2911.162892
59393.685109,-74.020594,-11251.130318,-76.609550
59393.685419,-4737.318029,-11325.150913,-1838.629195
59393.685729,-3108.864956,-12583.501014,-2221.676944
59393.686039,-4589.276840,-11251.130318,-2987.772442
59393.686349,-4145.153275,-11695.253884,-1455.581446
59393.686659,1702.473667,-11251.130318,-76.609550
59393.686969,2368.659014,-5403.503377,1838.629195
59393.687279,5921.647536,-6439.791695,5056.230287
59393.687588,2886.803174,-7698.141797,4826.401637
59393.687898,0.000000,-9548.656652,6128.763984
59393.688208,-74.020594,-7105.977043,2068.457845
59393.688518,-74.020594,-8290.306550,-76.609550
59393.688828,-3108.864956,-9030.512492,0.000000
59393.689138,-2072.576638,-9400.615463,459.657299
59393.689448,1480.411884,-7772.162391,153.219100
59393.689758,592.164754,-5995.668130,0.000000
59393.690068,-74.020594,-11251.130318,-76.609550
59393.690378,-2146.597232,-11843.295072,-689.485948
59393.690688,-3552.988522,-11917.315666,0.000000
59393.690998,-1258.350101,-13027.624579,-2528.115143
59393.691307,-4737.318029,-11325.150913,-1838.629195
59393.691617,-2368.659014,-10140.821405,612.876398
59393.691927,2886.803174,-8142.265362,2834.553343
59393.692237,5551.544565,-5033.400406,2834.553343
59393.692547,3034.844362,-6661.853478,4213.525239
59393.692857,1702.473667,-8882.471304,3294.210641
59393.693167,0.000000,-7772.162391,1838.629195
59393.693477,0.000000,-7772.162391,1072.533697
59393.693787,-2146.597232,-6217.729913,-2221.676944
59393.694097,-2960.823768,-10140.821405,1838.629195
59393.694407,-370.102971,-6439.791695,-2221.676944
59393.694717,2886.803174,-7698.141797,-229.828649
59393.695026,1480.411884,-8586.388927,-229.828649
59393.695336,-1628.453072,-12287.418637,536.266849
59393.695646,-2146.597232,-12657.521608,-842.705048
59393.695956,-3552.988522,-11917.315666,-612.876398
59393.696266,-3034.844362,-12435.459826,-1302.362347
59393.696576,-2738.761985,-10436.903782,-995.924147
59393.696886,592.164754,-10140.821405,4903.011187
59393.697196,4663.297435,-4737.318029,1762.019645
59393.697506,4071.132681,-7698.141797,4826.401637
59393.697816,0.000000,-7476.080014,4903.011187
59393.698126,222.061783,-8956.491898,3370.820191
59393.698436,-148.041188,-7920.203579,1378.971896
59393.698745,-1776.494261,-7179.997637,0.000000
59393.699055,-3627.009116,-9474.636058,-1302.362347
59393.699365,74.020594,-8364.327145,919.314598
59393.699675,3108.864956,-7179.997637,1149.143247
59393.699985,2368.659014,-7550.100608,306.438199
59393.700295,-888.247130,-10732.986159,76.609550
59393.700605,-1776.494261,-14137.933492,1915.238745
59393.700915,-1406.391290,-11547.212695,-1302.362347
59393.701225,-4811.338623,-10066.800811,-4213.525239
59393.701535,-4737.318029,-10140.821405,-1838.629195
59393.701845,-74.020594,-11251.130318,2681.334243
59393.702155,4663.297435,-5921.647536,842.705048
59393.702464,4441.235652,-5773.606348,3677.258390
59393.702774,2294.638420,-7920.203579,4519.963438
59393.703084,666.185348,-9474.636058,3907.087040
59393.703394,1702.473667,-9474.636058,2987.772442
59393.703704,-1184.329507,-7772.162391,1072.533697
59393.704014,-5921.647536,-7179.997637,0.000000
59393.704324,-74.020594,-9474.636058,2374.896044
59393.704634,0.000000,-5699.585753,0.000000
59393.704944,4663.297435,-9326.594869,2374.896044
59393.705254,-74.020594,-9474.636058,-1302.362347
59393.705564,-2368.659014,-11917.315666,306.438199
59393.705874,-2738.761985,-11843.295072,-1991.848295
59393.706183,-3923.091493,-11473.192101,-3140.991542
59393.706493,-4293.194464,-11029.068536,-2145.067394
59393.706803,-1776.494261,-11029.068536,1685.410096
59393.707113,2738.761985,-8660.409521,2987.772442
59393.707423,2368.659014,-3923.091493,0.000000
59393.707733,3552.988522,-9992.780217,5132.839837
59393.708043,814.226536,-10066.800811,3600.648841
59393.708353,-74.020594,-10658.965565,3294.210641
59393.708663,-1776.494261,-6587.832884,0.000000
59393.708973,-3108.864956,-9326.594869,689.485948
59393.709283,-1184.329507,-7105.977043,1838.629195
59393.709593,1924.535449,-7328.038826,2374.896044
59393.709902,4145.153275,-4811.338623,2145.067394
59393.710212,2072.576638,-7994.224174,1149.143247
59393.710522,-3701.029710,-9548.656652,0.000000
59393.710832,-2960.823768,-12213.398043,0.000000
59393.711142,-4219.173869,-13027.624579,-2528.115143
59393.711452,-3627.009116,-13027.624579,-2528.115143
59393.711762,-4145.153275,-11473.192101,-1608.800546
59393.712072,1258.350101,-9400.615463,1608.800546
59393.712382,4367.215058,-6661.853478,1838.629195
59393.712692,3256.906145,-7031.956449,3140.991542
59393.713002,1184.329507,-9548.656652,3677.258390
59393.713312,888.247130,-9400.615463,5209.449386
59393.713621,-74.020594,-6513.812290,-76.609550
59393.713931,-2072.576638,-7476.080014,612.876398
59393.714241,-1258.350101,-9474.636058,1149.143247
59393.714551,1998.556043,-9474.636058,2374.896044
59393.714861,1776.494261,-6291.750507,306.438199
59393.715171,1924.535449,-8142.265362,536.266849
59393.715481,-740.205942,-11325.150913,995.924147
59393.715791,-2294.638420,-12213.398043,0.000000
59393.716101,-4737.318029,-10140.821405,-2451.505594
59393.716411,-4737.318029,-10732.986159,-2451.505594
59393.716721,-2442.679609,-11843.295072,-1302.362347
59393.717031,0.000000,-8364.327145,612.876398
59393.717340,5255.462188,-7105.977043,2911.162892
59393.717650,5773.606348,-7698.141797,4826.401637
59393.717960,1702.473667,-8734.430116,3907.087040
59393.718269,-370.102971,-9400.615463,3140.991542
59393.718579,-1332.370696,-8290.306550,919.314598
59393.718889,-2442.679609,-8290.306550,-383.047749
59393.719199,-4663.297435,-7550.100608,0.000000
59393.719508,-1776.494261,-8956.491898,1072.533697
59393.719818,1702.473667,-6957.935855,536.266849
59393.720128,2664.741391,-8364.327145,3677.258390
59393.720437,-74.020594,-10658.965565,1149.143247
59393.720747,-2368.659014,-12213.398043,2757.943793
59393.721057,-74.020594,-13619.789333,-76.609550
59393.721367,-3034.844362,-8734.430116,-3140.991542
59393.721676,-4737.318029,-9548.656652,-2451.505594
59393.721986,-74.020594,-12361.439231,3447.429741
59393.722296,2886.803174,-7105.977043,383.047749
59393.722605,3997.112087,-6587.832884,1378.971896
59393.722915,2294.638420,-9474.636058,2681.334243
59393.723225,-740.205942,-10584.944971,2451.505594
59393.723534,-1036.288319,-10214.842000,1378.971896
59393.723844,-888.247130,-9844.739029,1991.848295
59393.724154,-2442.679609,-9474.636058,-76.609550
59393.724464,-2960.823768,-7328.038826,306.438199
59393.724773,2368.659014,-7476.080014,4903.011187
59393.725083,5847.626942,-5329.482782,2068.457845
59393.725393,4663.297435,-7994.224174,3600.648841
59393.725702,0.000000,-10584.944971,2757.943793
59393.726012,-1850.514855,-10658.965565,-153.219100
59393.726322,-3627.009116,-10436.903782,-2911.162892
59393.726632,-4663.297435,-11103.089130,-3064.381992
59393.726941,-4589.276840,-9548.656652,-2451.505594
59393.727251,148.041188,-8956.491898,919.314598
59393.727561,4663.297435,-9474.636058,3600.648841
59393.727870,518.144159,-6883.915261,0.000000
59393.728180,1998.556043,-12435.459826,5286.058936
59393.728490,-1036.288319,-8512.368333,2604.724693
59393.728800,-1110.308913,-6735.874072,0.000000
59393.729109,-2146.597232,-7846.182985,612.876398
59393.729419,-1850.514855,-8364.327145,1838.629195
59393.729729,1184.329507,-6735.874072,2528.115143
59393.730038,5477.523971,-5921.647536,2987.772442
59393.730348,3330.926739,-6217.729913,1149.143247
59393.730658,-1480.411884,-9548.656652,0.000000
59393.730967,-74.020594,-14211.954086,2374.896044
59393.731277,-5921.647536,-9548.656652,-4136.915689
59393.731587,-3627.009116,-12731.542202,-2681.334243
59393.731897,-3997.112087,-12583.501014,-1532.190996
59393.732206,-370.102971,-10214.842000,536.266849
59393.732516,3701.029710,-7772.162391,1302.362347
59393.732826,3330.926739,-7550.100608,1685.410096
59393.733135,296.082377,-7772.162391,1838.629195
59393.733445,814.226536,-10955.047942,3600.648841
59393.733755,-370.102971,-7846.182985,1072.533697
59393.734065,-2146.597232,-7328.038826,153.219100
59393.734374,-3552.988522,-8142.265362,995.924147
59393.734684,-74.020594,-8290.306550,2374.896044
59393.734994,1998.556043,-4589.276840,229.828649
59393.735303,2368.659014,-5995.668130,2451.505594
59393.735613,2294.638420,-9474.636058,1762.019645
59393.735923,-2368.659014,-10732.986159,919.314598
59393.736233,-2738.761985,-9992.780217,-1225.752797
59393.736542,-4441.235652,-11251.130318,-2374.896044
59393.736852,-4885.359217,-11621.233289,-2068.457845
59393.737162,-2072.576638,-11325.150913,0.000000
59393.737471,2368.659014,-7994.224174,1685.410096
59393.737781,4663.297435,-8882.471304,2374.896044
59393.738091,1554.432478,-9474.636058,2374.896044
59393.738400,0.000000,-9548.656652,2451.505594
59393.738710,1702.473667,-9474.636058,2681.334243
59393.739020,-3404.947333,-5995.668130,-1225.752797
59393.739330,-4811.338623,-8512.368333,-2145.067394
59393.739639,-1554.432478,-8956.491898,1302.362347
59393.739949,2886.803174,-6809.894666,2221.676944
59393.740259,4293.194464,-5551.544565,1838.629195
59393.740568,1776.494261,-8734.430116,2221.676944
59393.740878,444.123565,-12879.583391,4826.401637
59393.741188,-74.020594,-13027.624579,2374.896044
59393.741498,-3627.009116,-10066.800811,-3294.210641
59393.741807,-6957.935855,-9548.656652,-3677.258390
59393.742117,-2442.679609,-11843.295072,-76.609550
59393.742427,2294.638420,-8290.306550,0.000000
59393.742736,3627.009116,-6439.791695,919.314598
59393.743046,1702.473667,-8290.306550,2145.067394
59393.743356,444.123565,-10362.883188,2681.334243
59393.743666,-74.020594,-10732.986159,3294.210641
59393.743975,-1184.329507,-8956.491898,612.876398
59393.744285,-2146.597232,-11473.192101,2068.457845
59393.744595,-2442.679609,-9474.636058,-76.609550
59393.744904,1184.329507,-7920.203579,2757.943793
59393.745214,4663.297435,-5625.565159,1149.143247
59393.745524,3478.967927,-7105.977043,1762.019645
59393.745834,0.000000,-9252.574275,2451.505594
59393.746143,-888.247130,-10510.924376,995.924147
59393.746453,-2812.782580,-9844.739029,-2068.457845
59393.746763,-4885.359217,-10807.006753,-2451.505594
59393.747072,-4737.318029,-11029.068536,0.000000
59393.747382,1554.432478,-11843.295072,2298.286494
59393.747692,3478.967927,-6809.894666,-1302.362347
59393.748001,1776.494261,-8364.327145,1838.629195
59393.748311,2294.638420,-11547.212695,3140.991542
59393.748621,1406.391290,-11251.130318,3600.648841
59393.748931,-740.205942,-8660.409521,76.609550
59393.749240,-2886.803174,-8142.265362,-766.095498
59393.749550,-2590.720797,-9400.615463,1149.143247
59393.749860,962.267725,-7624.121203,2451.505594
59393.750169,2960.823768,-3627.009116,1225.752797
59393.750479,2368.659014,-4811.338623,1225.752797
59393.750789,2294.638420,-9474.636058,2987.772442
59393.751099,-2220.617826,-9548.656652,612.876398
59393.751408,-1184.329507,-11325.150913,-306.438199
59393.751718,-3404.947333,-11843.295072,-1608.800546
59393.752028,-4515.256246,-11621.233289,-2068.457845
59393.752337,-1702.473667,-10732.986159,0.000000
59393.752647,1998.556043,-8142.265362,689.485948
59393.752957,1850.514855,-7254.018232,0.000000
59393.753267,0.000000,-7772.162391,1225.752797
59393.753576,-2368.659014,-8364.327145,766.095498
59393.753886,740.205942,-9844.739029,3370.820191
59393.754196,-74.020594,-7105.977043,-76.609550
59393.754505,-3552.988522,-7179.997637,612.876398
59393.754815,0.000000,-8882.471304,3064.381992
59393.755125,3404.947333,-6809.894666,2451.505594
59393.755434,4145.153275,-5551.544565,1838.629195
59393.755744,1110.308913,-9104.533087,2145.067394
59393.756054,-740.205942,-10140.821405,459.657299
59393.756364,-2590.720797,-9770.718434,-842.705048
59393.756673,-5107.421000,-8882.471304,-3753.867940
59393.756983,-4737.318029,-10732.986159,-1838.629195
59393.757293,-1258.350101,-11547.212695,-76.609550
59393.757602,740.205942,-8068.244768,1455.581446
59393.757912,1776.494261,-7476.080014,2451.505594
59393.758222,1110.308913,-8586.388927,2068.457845
59393.758532,0.000000,-9474.636058,2681.334243
59393.758841,-370.102971,-8734.430116,1762.019645
59393.759151,-1258.350101,-6513.812290,-689.485948
59393.759461,-2442.679609,-8290.306550,-76.609550
59393.759770,-4737.318029,-5995.668130,0.000000
59393.760080,3775.050304,-9474.636058,3600.648841
59393.760390,1184.329507,-4811.338623,0.000000
59393.760700,444.123565,-9252.574275,2681.334243
59393.761009,-2368.659014,-10881.027347,1838.629195
59393.761319,-1258.350101,-11473.192101,383.047749
59393.761629,-2664.741391,-10362.883188,-1225.752797
59393.761938,-3997.112087,-9474.636058,-1915.238745
59393.762248,-3034.844362,-11251.130318,-76.609550
59393.762558,2886.803174,-10066.800811,2374.896044
59393.762867,3182.885551,-4737.318029,-383.047749
59393.763177,2368.659014,-8364.327145,3064.381992
59393.763487,-74.020594,-10658.965565,2068.457845
59393.763797,-2368.659014,-10140.821405,1225.752797
59393.764106,-3552.988522,-7179.997637,0.000000
59393.764416,-3701.029710,-9548.656652,-919.314598
59393.764726,-3701.029710,-9918.759623,153.219100
59393.765035,296.082377,-9104.533087,1991.848295
59393.765345,4071.132681,-7698.141797,2374.896044
59393.765655,5551.544565,-8290.306550,1838.629195
59393.765965,2294.638420,-9474.636058,3600.648841
59393.766274,-2368.659014,-8364.327145,0.000000
59393.766584,-1628.453072,-9548.656652,612.876398
59393.766894,-1850.514855,-9474.636058,-2451.505594
59393.767203,-3182.885551,-8956.491898,-1455.581446
59393.767513,0.000000,-9252.574275,1378.971896
59393.767823,3182.885551,-7476.080014,459.657299
59393.768133,2738.761985,-8068.244768,919.314598
59393.768442,1702.473667,-11843.295072,3600.648841
59393.768752,-74.020594,-13471.748144,3677.258390
59393.769062,-74.020594,-11843.295072,-76.609550
59393.769371,-4293.194464,-7328.038826,-2451.505594
59393.769681,-1850.514855,-10658.965565,1762.019645
59393.769991,-370.102971,-8660.409521,383.047749
59393.770301,3478.967927,-5921.647536,536.266849
59393.770610,2812.782580,-5995.668130,1532.190996
59393.770920,592.164754,-8512.368333,2374.896044
59393.771230,-888.247130,-10658.965565,2068.457845
59393.771539,-592.164754,-10140.821405,1225.752797
59393.771849,-3256.906145,-9326.594869,-995.924147
59393.772159,-2368.659014,-11769.274478,612.876398
59393.772468,-1258.350101,-10066.800811,-76.609550
59393.772778,2368.659014,-8364.327145,2451.505594
59393.773088,4071.132681,-6587.832884,-76.609550
59393.773398,2294.638420,-9474.636058,2374.896044
59393.773707,-1036.288319,-10807.006753,1991.848295
59393.774017,-814.226536,-9844.739029,383.047749
59393.774327,-1924.535449,-8364.327145,-1072.533697
59393.774636,-4145.153275,-8364.327145,0.000000
59393.774946,-3552.988522,-8364.327145,1149.143247
59393.775256,1184.329507,-7179.997637,2451.505594
59393.775566,4663.297435,-6513.812290,2068.457845
59393.775875,0.000000,-5995.668130,0.000000
59393.776185,-592.164754,-10584.944971,3140.991542
59393.776495,-74.020594,-11547.212695,2374.896044
59393.776804,-2146.597232,-9474.636058,-995.924147
59393.777114,-3627.009116,-10066.800811,-766.095498
59393.777424,-2442.679609,-10807.006753,1072.533697
59393.777734,0.000000,-7179.997637,153.219100
59393.778043,1776.494261,-6809.894666,1762.019645
59393.778353,0.000000,-7179.997637,612.876398
59393.778663,-74.020594,-11843.295072,2987.772442
59393.778972,-1332.370696,-8364.327145,-1915.238745
59393.779282,-1628.453072,-10066.800811,-76.609550
59393.779592,-2442.679609,-11251.130318,-76.609550
59393.779901,-2442.679609,-10658.965565,536.266849
59393.780211,592.164754,-9104.533087,2068.457845
59393.780521,3034.844362,-6143.709319,1225.752797
59393.780831,888.247130,-5403.503377,1302.362347
59393.781140,222.061783,-9474.636058,3524.039291
59393.781450,-1850.514855,-9104.533087,842.705048
59393.781760,-1776.494261,-9252.574275,0.000000
59393.782069,-1850.514855,-8882.471304,-1608.800546
59393.782379,-3034.844362,-11547.212695,2068.457845
59393.782689,0.000000,-7476.080014,2145.067394
59393.782999,962.267725,-7254.018232,536.266849
59393.783308,1998.556043,-6883.915261,306.438199
59393.783618,740.205942,-9474.636058,2298.286494
59393.783928,-666.185348,-10066.800811,1762.019645
59393.784237,-370.102971,-10658.965565,-76.609550
59393.784547,-4367.215058,-8586.388927,-2528.115143
59393.784857,-1776.494261,-10288.862594,612.876398
59393.785167,-74.020594,-9474.636058,2374.896044
59393.785476,3108.864956,-7328.038826,2451.505594
59393.785786,1184.329507,-5995.668130,306.438199
59393.786096,444.123565,-9030.512492,2298.286494
59393.786405,-962.267725,-11399.171507,1915.238745
59393.786715,-1332.370696,-9400.615463,383.047749
59393.787025,-666.185348,-9474.636058,-689.485948
59393.787334,-74.020594,-11251.130318,2374.896044
59393.787644,-370.102971,-8290.306550,536.266849
59393.787954,2368.659014,-7179.997637,1838.629195
59393.788264,3330.926739,-6513.812290,-76.609550
59393.788573,0.000000,-9548.656652,2451.505594
59393.788883,-1776.494261,-9844.739029,0.000000
59393.789193,-1184.329507,-10955.047942,-383.047749
59393.789502,-2368.659014,-10288.862594,-2145.067394
59393.789812,-3182.885551,-10881.027347,-1072.533697
59393.790122,-74.020594,-11843.295072,2068.457845
59393.790432,4145.153275,-8660.409521,2451.505594
59393.790741,3478.967927,-5921.647536,-76.609550
59393.791051,0.000000,-7179.997637,1838.629195
59393.791361,-74.020594,-13027.624579,4826.401637
59393.791670,-2368.659014,-8364.327145,612.876398
59393.791980,-1998.556043,-7476.080014,-612.876398
59393.792290,-2590.720797,-8660.409521,383.047749
59393.792600,-444.123565,-9474.636058,1762.019645
59393.792909,1998.556043,-7031.956449,1532.190996
59393.793219,4071.132681,-6587.832884,1532.190996
59393.793529,1184.329507,-8364.327145,3677.258390
59393.793838,-74.020594,-11843.295072,2374.896044
59393.794148,-2738.761985,-9918.759623,-995.924147
59393.794458,-3552.988522,-9548.656652,0.000000
59393.794768,-4811.338623,-10140.821405,-3064.381992
59393.795077,-2442.679609,-11251.130318,-76.609550
59393.795387,0.000000,-9030.512492,1225.752797
59393.795697,3775.050304,-6069.688724,995.924147
59393.796006,1998.556043,-7550.100608,2221.676944
59393.796316,0.000000,-9548.656652,2757.943793
59393.796626,-2368.659014,-9548.656652,1225.752797
59393.796935,-1184.329507,-9548.656652,612.876398
59393.797245,-1258.350101,-9474.636058,-76.609550
59393.797555,-4737.318029,-7179.997637,0.000000
59393.797865,1998.556043,-7402.059420,2681.334243
59393.798174,2886.803174,-5329.482782,229.828649
59393.798484,1628.453072,-6957.935855,459.657299
59393.798794,-740.205942,-10436.903782,1685.410096
59393.799103,-1998.556043,-11029.068536,0.000000
59393.799413,-2368.659014,-10140.821405,-2451.505594
59393.799723,-5921.647536,-9548.656652,-2451.505594
59393.800033,-2072.576638,-12509.480420,1225.752797
59393.800342,-74.020594,-9178.553681,842.705048
59393.800652,3775.050304,-8068.244768,3370.820191
59393.800962,2294.638420,-4737.318029,536.266849
59393.801271,1702.473667,-9474.636058,3600.648841
59393.801581,74.020594,-10140.821405,2681.334243
59393.801891,-666.185348,-9030.512492,766.095498
59393.802201,-1184.329507,-8438.347739,-229.828649
59393.802510,-3997.112087,-8364.327145,153.219100
59393.802820,-74.020594,-9178.553681,2374.896044
59393.803130,2960.823768,-7476.080014,2145.067394
59393.803439,2886.803174,-7105.977043,-76.609550
59393.803749,296.082377,-10732.986159,3677.258390
59393.804059,-1332.370696,-10214.842000,0.000000
59393.804368,-74.020594,-11843.295072,-842.705048
59393.804678,-2886.803174,-10881.027347,-2145.067394
59393.804988,-3034.844362,-11177.109724,-1149.143247
59393.805298,-1110.308913,-10807.006753,612.876398
59393.805607,1184.329507,-6291.750507,0.000000
59393.805917,1184.329507,-4811.338623,1225.752797
59393.806227,4071.132681,-9474.636058,4213.525239
59393.806536,0.000000,-8364.327145,1915.238745
59393.806846,740.205942,-11843.295072,3294.210641
59393.807156,-2664.741391,-6587.832884,-2451.505594
59393.807466,-1406.391290,-10362.883188,-76.609550
59393.807775,-1332.370696,-9252.574275,1991.848295
59393.808085,2294.638420,-7328.038826,1915.238745
59393.808395,3256.906145,-5921.647536,995.924147
59393.808704,0.000000,-7772.162391,612.876398
59393.809014,-666.185348,-10658.965565,1762.019645
59393.809324,-2368.659014,-10732.986159,0.000000
59393.809634,-2442.679609,-11843.295072,-1302.362347
59393.809943,-7105.977043,-9548.656652,-3677.258390
59393.810253,-3034.844362,-10362.883188,-1302.362347
59393.810563,1702.473667,-9474.636058,1762.019645
59393.810872,2294.638420,-6069.688724,306.438199
59393.811182,1258.350101,-7254.018232,2068.457845
59393.811492,-74.020594,-10140.821405,3677.258390
59393.811801,-2368.659014,-8660.409521,1225.752797
59393.812111,-1998.556043,-7179.997637,-1149.143247
59393.812421,-2368.659014,-8956.491898,1225.752797
59393.812731,-74.020594,-9474.636058,2374.896044
59393.813040,0.000000,-4811.338623,1225.752797
59393.813350,4663.297435,-6513.812290,2068.457845
59393.813660,2812.782580,-8586.388927,2068.457845
59393.813969,-370.102971,-10658.965565,1072.533697
59393.814279,-1702.473667,-11769.274478,0.000000
59393.814589,-3034.844362,-11251.130318,-2681.334243
59393.814899,-5329.482782,-10510.924376,-3140.991542
59393.815208,-2738.761985,-12435.459826,-536.266849
59393.815518,0.000000,-8364.327145,0.000000
59393.815828,3775.050304,-7698.141797,2374.896044
59393.816137,2886.803174,-5921.647536,536.266849
59393.816447,1998.556043,-10658.965565,4826.401637
59393.816757,296.082377,-9992.780217,4290.134789
59393.817067,-74.020594,-8882.471304,1455.581446
59393.817377,-1628.453072,-7698.141797,536.266849
59393.817687,-2960.823768,-8438.347739,1378.971896
59393.817996,-74.020594,-8290.306550,2374.896044
59393.818306,3478.967927,-6809.894666,1149.143247
59393.818616,296.082377,-4811.338623,0.000000
59393.818926,592.164754,-11103.089130,3907.087040
59393.819236,-74.020594,-14211.954086,-76.609550
59393.819546,-1258.350101,-13027.624579,-689.485948
59393.819855,-4737.318029,-11029.068536,-2451.505594
59393.820165,-5625.565159,-10732.986159,-2451.505594
59393.820475,-1924.535449,-10807.006753,153.219100
59393.820785,2220.617826,-7846.182985,306.438199
59393.821095,4663.297435,-7698.141797,1455.581446
59393.821405,1184.329507,-8438.347739,3140.991542
59393.821714,-74.020594,-9770.718434,2374.896044
59393.822024,-1776.494261,-9548.656652,1225.752797
59393.822334,-74.020594,-9474.636058,-76.609550
59393.822644,-2072.576638,-9548.656652,2604.724693
59393.822954,-1924.535449,-7476.080014,2451.505594
59393.823264,2812.782580,-6143.709319,2528.115143
59393.823573,3552.988522,-4811.338623,1378.971896
59393.823883,1184.329507,-8068.244768,1685.410096
59393.824193,-74.020594,-12139.377449,2451.505594
59393.824503,-1924.535449,-10436.903782,-1072.533697
59393.824813,-1258.350101,-11843.295072,-1915.238745
59393.825123,-5181.441594,-9548.656652,-4903.011187
59393.825432,-1480.411884,-12731.542202,1991.848295
59393.825742,296.082377,-7179.997637,0.000000
59393.826052,1998.556043,-5477.523971,-1608.800546
59393.826362,1332.370696,-8438.347739,1532.190996
59393.826672,-1110.308913,-10955.047942,2374.896044
59393.826982,-1110.308913,-10807.006753,1455.581446
59393.827291,-370.102971,-9844.739029,229.828649
59393.827601,-2960.823768,-10140.821405,1378.971896
59393.827911,-74.020594,-9474.636058,3600.648841
59393.828221,1184.329507,-5403.503377,2451.505594
59393.828531,6143.709319,-6365.771101,4826.401637
59393.828841,592.164754,-4811.338623,2451.505594
59393.829150,814.226536,-9178.553681,2221.676944
59393.829460,-740.205942,-10510.924376,536.266849
59393.829770,-2590.720797,-10362.883188,-2757.943793
59393.830080,-4811.338623,-11325.150913,-3524.039291
59393.830390,-4737.318029,-11621.233289,-1455.581446
59393.830700,-370.102971,-9770.718434,-306.438199
59393.831009,3775.050304,-9030.512492,536.266849
59393.831319,1258.350101,-6513.812290,-1302.362347
59393.831629,-2368.659014,-8364.327145,1225.752797
59393.831939,-1998.556043,-8068.244768,612.876398
59393.832249,-74.020594,-8586.388927,1762.019645
59393.832559,-1702.473667,-7772.162391,1455.581446
59393.832868,-1628.453072,-7772.162391,2604.724693
59393.833178,1036.288319,-6883.915261,3370.820191
59393.833488,1776.494261,-5107.421000,2451.505594
59393.833798,1184.329507,-4811.338623,0.000000
59393.834108,1184.329507,-9918.759623,3370.820191
59393.834418,-74.020594,-11843.295072,-76.609550
59393.834727,-5921.647536,-9548.656652,-3370.820191
59393.835037,-4959.379811,-9474.636058,-4826.401637
59393.835347,-4071.132681,-12731.542202,-1455.581446
59393.835657,-1554.432478,-10658.965565,-229.828649
59393.835967,2146.597232,-8956.491898,-153.219100
59393.836277,3330.926739,-7254.018232,612.876398
59393.836586,0.000000,-9178.553681,2834.553343
59393.836896,0.000000,-9548.656652,2451.505594
59393.837206,0.000000,-9548.656652,1838.629195
59393.837516,-666.185348,-9474.636058,-76.609550
59393.837826,-4737.318029,-7772.162391,1225.752797
59393.838136,-74.020594,-9474.636058,2987.772442
59393.838445,4367.215058,-6809.894666,3447.429741
59393.838755,3552.988522,-5329.482782,1762.019645
59393.839065,814.226536,-8512.368333,1915.238745
59393.839375,-962.267725,-10732.986159,1608.800546
59393.839685,-1850.514855,-9770.718434,-689.485948
59393.839995,-3478.967927,-10066.800811,-2451.505594
59393.840304,-5921.647536,-8956.491898,-3370.820191
59393.840614,-1258.350101,-14211.954086,2374.896044
59393.840924,0.000000,-6291.750507,-1685.410096
59393.841234,5255.462188,-8882.471304,1762.019645
59393.841544,592.164754,-9696.697840,2068.457845
59393.841853,-1258.350101,-11029.068536,2145.067394
59393.842163,-1924.535449,-10955.047942,766.095498
59393.842473,-2590.720797,-9030.512492,-383.047749
59393.842783,-3182.885551,-9400.615463,1455.581446
59393.843093,-1184.329507,-9030.512492,3140.991542
59393.843403,2368.659014,-5403.503377,2451.505594
59393.843712,5625.565159,-5699.585753,5515.887586
59393.844022,4071.132681,-7994.224174,3600.648841
59393.844332,1702.473667,-11843.295072,4826.401637
59393.844642,-1776.494261,-10732.986159,153.219100
59393.844952,-3034.844362,-10881.027347,-2834.553343
59393.845262,-5329.482782,-10881.027347,-3370.820191
59393.845571,-4219.173869,-11547.212695,-1762.019645
59393.845881,814.226536,-10362.883188,-306.438199
59393.846191,2960.823768,-8068.244768,-612.876398
59393.846501,1702.473667,-8734.430116,536.266849
59393.846811,-2368.659014,-9548.656652,2451.505594
59393.847121,-74.020594,-13027.624579,3600.648841
59393.847430,-592.164754,-10881.027347,2298.286494
59393.847740,-3256.906145,-7476.080014,306.438199
59393.848050,-1702.473667,-8216.285956,2834.553343
59393.848360,2072.576638,-6957.935855,3753.867940
59393.848670,4441.235652,-3923.091493,2757.943793
59393.848980,4441.235652,-5699.585753,2451.505594
59393.849289,1184.329507,-8364.327145,2834.553343
59393.849599,-74.020594,-10362.883188,1149.143247
59393.849909,-4663.297435,-7772.162391,-4290.134789
59393.850219,-5921.647536,-9548.656652,-3064.381992
59393.850529,-4737.318029,-11029.068536,-1225.752797
59393.850839,-1628.453072,-10362.883188,-919.314598
59393.851148,2812.782580,-8364.327145,-536.266849
59393.851458,2516.700203,-8882.471304,0.000000
59393.851768,962.267725,-11251.130318,2068.457845
59393.852078,74.020594,-11917.315666,2145.067394
59393.852388,-814.226536,-11029.068536,2145.067394
59393.852698,-1850.514855,-10066.800811,-76.609550
59393.853007,-6069.688724,-6587.832884,0.000000
59393.853317,0.000000,-8364.327145,4290.134789
59393.853627,3552.988522,-3627.009116,2451.505594
59393.853937,4663.297435,-3478.967927,2068.457845
59393.854247,1554.432478,-7698.141797,2757.943793
59393.854557,222.061783,-9844.739029,2298.286494
59393.854866,-1554.432478,-10288.862594,-459.657299
59393.855176,-4737.318029,-9548.656652,-3447.429741
59393.855486,-7105.977043,-10140.821405,-3370.820191
59393.855796,-2220.617826,-11621.233289,-76.609550
59393.856106,518.144159,-7402.059420,-1915.238745
59393.856416,1184.329507,-7179.997637,0.000000
59393.856725,0.000000,-7476.080014,0.000000
59393.857035,-370.102971,-12139.377449,2528.115143
59393.857345,-1406.391290,-10288.862594,1072.533697
59393.857655,-3256.906145,-8660.409521,-306.438199
59393.857965,-4071.132681,-8438.347739,536.266849
59393.858275,-1406.391290,-7624.121203,3600.648841
59393.858584,3849.070898,-5847.626942,3983.696590
59393.858894,5477.523971,-4589.276840,4519.963438
59393.859204,1998.556043,-5033.400406,1455.581446
59393.859514,0.000000,-9548.656652,3677.258390
59393.859824,-1258.350101,-9326.594869,-766.095498
59393.860134,-2738.761985,-10881.027347,-2528.115143
59393.860443,-5847.626942,-11177.109724,-3447.429741
59393.860753,-3701.029710,-11769.274478,-1302.362347
59393.861063,814.226536,-9992.780217,-306.438199
59393.861373,2738.761985,-9474.636058,-76.609550
59393.861683,0.000000,-8068.244768,0.000000
59393.861993,-444.123565,-13027.624579,4826.401637
59393.862302,-1258.350101,-10658.965565,-76.609550
59393.862612,-3552.988522,-7179.997637,-1225.752797
59393.862922,-2738.761985,-8290.306550,-1149.143247
59393.863232,-2072.576638,-7920.203579,2451.505594
59393.863542,2812.782580,-6587.832884,3830.477490
59393.863852,5699.585753,-3849.070898,3370.820191
59393.864161,4293.194464,-5699.585753,3524.039291
59393.864471,3478.967927,-9474.636058,4826.401637
59393.864781,814.226536,-10066.800811,2068.457845
59393.865091,-3330.926739,-8364.327145,-4903.011187
59393.865401,-5329.482782,-11325.150913,-1838.629195
59393.865711,-4811.338623,-11843.295072,-2221.676944
59393.866020,-74.020594,-10658.965565,-689.485948
59393.866330,1776.494261,-9400.615463,-612.876398
59393.866640,962.267725,-8956.491898,-306.438199
59393.866950,-222.061783,-10288.862594,1378.971896
59393.867260,-592.164754,-11325.150913,1685.410096
59393.867570,-740.205942,-9844.739029,1302.362347
59393.867879,-3997.112087,-9474.636058,-689.485948
59393.868189,-3849.070898,-6587.832884,-1302.362347
59393.868499,1776.494261,-9548.656652,5515.887586
59393.868809,5847.626942,-4737.318029,3600.648841
59393.869119,7031.956449,-5921.647536,3600.648841
59393.869429,2368.659014,-7920.203579,3830.477490
59393.869738,1184.329507,-10140.821405,2681.334243
59393.870048,-1184.329507,-10066.800811,76.609550
59393.870358,-3627.009116,-10584.944971,-2604.724693
59393.870668,-4071.132681,-10288.862594,-2298.286494
59393.870978,-1776.494261,-10881.027347,-612.876398
59393.871288,1702.473667,-7402.059420,-2528.115143
59393.871597,0.000000,-7476.080014,0.000000
59393.871907,2146.597232,-11843.295072,2374.896044
59393.872217,1998.556043,-13027.624579,3907.087040
59393.872527,-1480.411884,-9918.759623,612.876398
59393.872837,-3923.091493,-9696.697840,-842.705048
59393.873147,-4367.215058,-8808.450710,153.219100
59393.873456,-1184.329507,-8512.368333,2757.943793
59393.873766,2368.659014,-4219.173869,3677.258390
59393.874076,5255.462188,-4737.318029,4060.306139
59393.874386,2294.638420,-4885.359217,1149.143247
59393.874696,0.000000,-8364.327145,3677.258390
59393.875006,-74.020594,-11843.295072,2681.334243
59393.875315,-2072.576638,-10510.924376,-383.047749
59393.875625,-3923.091493,-9474.636058,-2451.505594
59393.875935,-2294.638420,-10807.006753,-536.266849
59393.876245,740.205942,-9474.636058,-536.266849
59393.876555,1406.391290,-9178.553681,-536.266849
59393.876865,0.000000,-7772.162391,-2451.505594
59393.877174,-888.247130,-12583.501014,766.095498
59393.877484,-74.020594,-15248.242405,2987.772442
59393.877794,-4367.215058,-8808.450710,-2987.772442
59393.878104,-4145.153275,-9548.656652,0.000000
59393.878414,-2368.659014,-8364.327145,3677.258390
59393.878724,3478.967927,-7105.977043,4749.792088
59393.879033,5847.626942,-3701.029710,3677.258390
59393.879343,5181.441594,-5255.462188,4443.353888
59393.879653,2664.741391,-7698.141797,4136.915689
59393.879963,0.000000,-8068.244768,153.219100
59393.880273,-3552.988522,-9548.656652,0.000000
59393.880583,-2442.679609,-13619.789333,-76.609550
59393.880892,-4811.338623,-9770.718434,-3753.867940
59393.881202,-1776.494261,-10140.821405,0.000000
59393.881512,0.000000,-7476.080014,-1225.752797
59393.881822,814.226536,-9474.636058,-766.095498
59393.882132,-1036.288319,-11029.068536,919.314598
59393.882442,-1184.329507,-11473.192101,1072.533697
59393.882751,-1332.370696,-9918.759623,-306.438199
59393.883061,-2738.761985,-8882.471304,-1608.800546
59393.883371,-3256.906145,-7772.162391,766.095498
59393.883681,4071.132681,-11251.130318,7277.907231
59393.883991,3182.885551,-2960.823768,1838.629195
59393.884301,3849.070898,-6291.750507,4290.134789
59393.884610,814.226536,-7031.956449,2757.943793
59393.884920,444.123565,-10214.842000,2911.162892
59393.885230,-1850.514855,-9918.759623,-76.609550
59393.885540,-3849.070898,-9104.533087,-2604.724693
59393.885850,-4589.276840,-10436.903782,-1685.410096
59393.886160,-74.020594,-10658.965565,-76.609550
59393.886469,0.000000,-7179.997637,-1838.629195
59393.886779,2368.659014,-10732.986159,2757.943793
59393.887089,-74.020594,-9474.636058,-76.609550
59393.887399,-2590.720797,-10436.903782,0.000000
59393.887709,-1850.514855,-10214.842000,-2451.505594
59393.888018,-3997.112087,-10362.883188,-1225.752797
59393.888328,-3923.091493,-10288.862594,0.000000
59393.888638,-444.123565,-9178.553681,2911.162892
59393.888948,3256.906145,-6069.688724,4596.572988
59393.889258,5699.585753,-5921.647536,4826.401637
59393.889568,1702.473667,-6957.935855,4060.306139
59393.889877,0.000000,-5995.668130,1225.752797
59393.890187,888.247130,-10140.821405,2528.115143
59393.890497,-2738.761985,-7698.141797,-2068.457845
59393.890807,-3034.844362,-9326.594869,-3064.381992
59393.891117,-1776.494261,-10140.821405,0.000000
59393.891427,1480.411884,-8734.430116,306.438199
59393.891736,1628.453072,-8364.327145,-612.876398
59393.892046,-962.267725,-10288.862594,-76.609550
59393.892356,-740.205942,-14211.954086,2374.896044
59393.892666,-1554.432478,-13027.624579,-76.609550
59393.892976,-5847.626942,-8364.327145,-4290.134789
59393.893286,-2368.659014,-12213.398043,766.095498
59393.893595,-74.020594,-10066.800811,2068.457845
59393.893905,4367.215058,-7105.977043,2987.772442
59393.894215,5181.441594,-3478.967927,3447.429741
59393.894525,4071.132681,-5107.421000,4673.182538
59393.894835,1628.453072,-8734.430116,4136.915689
59393.895145,444.123565,-9474.636058,3294.210641
59393.895454,-2368.659014,-9548.656652,612.876398
59393.895764,-3034.844362,-10510.924376,-76.609550
59393.896074,-5107.421000,-8068.244768,-3064.381992
59393.896384,1480.411884,-10436.903782,1455.581446
59393.896694,2294.638420,-8808.450710,-689.485948
59393.897004,1924.535449,-8734.430116,-76.609550
59393.897313,0.000000,-10362.883188,612.876398
59393.897623,-518.144159,-11843.295072,919.314598
59393.897933,-2294.638420,-10288.862594,-1149.143247
59393.898243,-3849.070898,-10214.842000,0.000000
59393.898553,-2368.659014,-8364.327145,0.000000
59393.898863,2368.659014,-8882.471304,4290.134789
59393.899172,6439.791695,-4737.318029,2987.772442
59393.899482,1776.494261,-3627.009116,2451.505594
59393.899792,2294.638420,-9474.636058,4519.963438
59393.900102,592.164754,-10658.965565,4519.963438
59393.900412,-1258.350101,-9326.594869,-229.828649
59393.900722,-3849.070898,-9474.636058,-1991.848295
59393.901031,-3849.070898,-10510.924376,-1072.533697
59393.901341,-592.164754,-9548.656652,0.000000
59393.901651,0.000000,-5995.668130,0.000000
59393.901961,2072.576638,-8068.244768,1838.629195
59393.902271,3478.967927,-10658.965565,-76.609550
59393.902581,-2960.823768,-10140.821405,0.000000
59393.902890,-1258.350101,-12139.377449,-76.609550
59393.903200,-4589.276840,-12287.418637,-919.314598
59393.903510,-4219.173869,-10807.006753,-842.705048
59393.903820,-666.185348,-9474.636058,1838.629195
59393.904130,3256.906145,-6513.812290,2911.162892
59393.904440,4145.153275,-3923.091493,1838.629195
59393.904749,0.000000,-4811.338623,1225.752797
59393.905059,592.164754,-8364.327145,3677.258390
59393.905369,3478.967927,-11843.295072,4213.525239
59393.905679,-3034.844362,-7402.059420,-2068.457845
59393.905989,-2886.803174,-9178.553681,-76.609550
59393.906299,-2294.638420,-10732.986159,1225.752797
59393.906608,2146.597232,-8586.388927,-76.609550
59393.906918,962.267725,-8068.244768,-919.314598
59393.907228,-666.185348,-9178.553681,-459.657299
59393.907538,-1998.556043,-10732.986159,-689.485948
59393.907848,-2738.761985,-11547.212695,-2757.943793
59393.908158,-4589.276840,-9548.656652,-4366.744339
59393.908467,-4737.318029,-11917.315666,0.000000
59393.908777,-74.020594,-11251.130318,1762.019645
59393.909087,1776.494261,-7179.997637,5056.230287
59393.909397,4293.194464,-3627.009116,3677.258390
59393.909707,3478.967927,-6217.729913,4519.963438
59393.910017,1850.514855,-7994.224174,4903.011187
59393.910326,740.205942,-8808.450710,3370.820191
59393.910636,-1332.370696,-8290.306550,-76.609550
59393.910946,-2442.679609,-8882.471304,-2528.115143
59393.911256,-3997.112087,-9474.636058,-1915.238745
59393.911566,0.000000,-8364.327145,0.000000
59393.911876,2886.803174,-9474.636058,-76.609550
59393.912185,-222.061783,-8882.471304,-919.314598
59393.912495,-3256.906145,-9548.656652,0.000000
59393.912805,-814.226536,-12213.398043,153.219100
59393.913115,-1924.535449,-10732.986159,-1225.752797
59393.913425,-3849.070898,-10881.027347,-1225.752797
59393.913735,-814.226536,-11843.295072,1762.019645
59393.914044,4367.215058,-9474.636058,4826.401637
59393.914354,3923.091493,-4737.318029,2374.896044
59393.914664,0.000000,-5403.503377,3677.258390
59393.914974,-74.020594,-8290.306550,4213.525239
59393.915284,-1480.411884,-8364.327145,2451.505594
59393.915594,-2368.659014,-6587.832884,0.000000
59393.915903,-3256.906145,-8364.327145,-1532.190996
59393.916213,-3627.009116,-9844.739029,-153.219100
59393.916523,-592.164754,-9400.615463,-229.828649
59393.916833,2590.720797,-9252.574275,-76.609550
59393.917143,3478.967927,-10658.965565,-76.609550
59393.917453,1110.308913,-11251.130318,-76.609550
59393.917762,-3256.906145,-9548.656652,-3677.258390
59393.918072,-888.247130,-12657.521608,-76.609550
59393.918382,-2738.761985,-11843.295072,-3064.381992
59393.918692,-4219.173869,-11399.171507,-1455.581446
59393.919002,-370.102971,-10140.821405,1685.410096
59393.919312,3701.029710,-6957.935855,3600.648841
59393.919621,4071.132681,-5255.462188,3830.477490
59393.919931,3182.885551,-7476.080014,5515.887586
59393.920241,2368.659014,-10584.944971,6358.592633
59393.920551,296.082377,-8364.327145,2068.457845
59393.920861,-74.020594,-9474.636058,-76.609550
59393.921171,-3997.112087,-7179.997637,-1225.752797
59393.921481,-74.020594,-10362.883188,2681.334243
59393.921790,1110.308913,-7105.977043,-1149.143247
59393.922100,0.000000,-7179.997637,-1225.752797
59393.922410,-74.020594,-11103.089130,383.047749
59393.922720,-2072.576638,-12287.418637,-536.266849
59393.923030,-2368.659014,-12509.480420,0.000000
59393.923340,-3552.988522,-13693.809927,-76.609550
59393.923650,-4145.153275,-12065.356855,612.876398
59393.923959,-74.020594,-11843.295072,2374.896044
59393.924269,1776.494261,-5699.585753,2451.505594
59393.924579,5921.647536,-3627.009116,3370.820191
59393.924889,4071.132681,-7105.977043,4826.401637
59393.925199,1406.391290,-7772.162391,4136.915689
59393.925509,740.205942,-8882.471304,2681.334243
59393.925819,-518.144159,-7698.141797,0.000000
59393.926128,-2960.823768,-7179.997637,0.000000
59393.926438,-2960.823768,-9548.656652,1838.629195
59393.926748,2812.782580,-10732.986159,2757.943793
59393.927058,2294.638420,-9474.636058,-76.609550
59393.927368,-2072.576638,-8364.327145,-1225.752797
59393.927678,-1258.350101,-13027.624579,-76.609550
59393.927987,-74.020594,-14211.954086,-76.609550
59393.928297,-2812.782580,-10955.047942,-2374.896044
59393.928607,-5329.482782,-11843.295072,-2298.286494
59393.928917,-2590.720797,-10362.883188,153.219100
59393.929227,592.164754,-5995.668130,1225.752797
59393.929537,3552.988522,-3627.009116,2451.505594
59393.929847,2368.659014,-3627.009116,4903.011187
59393.930156,2294.638420,-9474.636058,4826.401637
59393.930466,0.000000,-7772.162391,3064.381992
59393.930776,-74.020594,-11251.130318,2987.772442
59393.931086,-1554.432478,-8734.430116,536.266849
59393.931396,-3627.009116,-9326.594869,-76.609550
59393.931706,74.020594,-7920.203579,536.266849
59393.932016,2516.700203,-8068.244768,459.657299
59393.932325,-1184.329507,-6291.750507,-2451.505594
59393.932635,-3552.988522,-7772.162391,-2451.505594
59393.932945,-4737.318029,-10140.821405,0.000000
59393.933255,-1184.329507,-12065.356855,-459.657299
59393.933565,-3775.050304,-11103.089130,-2834.553343
59393.933875,-3478.967927,-11843.295072,-76.609550
59393.934185,0.000000,-10436.903782,2451.505594
59393.934494,3997.112087,-7550.100608,2528.115143
59393.934804,3108.864956,-6957.935855,2987.772442
59393.935114,1110.308913,-7698.141797,4519.963438
59393.935424,1702.473667,-7105.977043,3294.210641
59393.935734,0.000000,-6217.729913,1149.143247
59393.936044,-4145.153275,-4811.338623,0.000000
59393.936353,-370.102971,-10658.965565,2374.896044
59393.936663,-2368.659014,-7476.080014,0.000000
59393.936973,3478.967927,-9474.636058,2374.896044
59393.937283,0.000000,-6587.832884,0.000000
59393.937593,-1110.308913,-10362.883188,-459.657299
59393.937903,-2146.597232,-12287.418637,0.000000
59393.938213,-2072.576638,-12509.480420,-2068.457845
59393.938522,-3034.844362,-11843.295072,-3140.991542
59393.938832,-4811.338623,-11251.130318,-2528.115143
59393.939142,-3034.844362,-8364.327145,-1915.238745
59393.939452,2368.659014,-7772.162391,3064.381992
59393.939762,4663.297435,-7105.977043,2987.772442
59393.940072,592.164754,-6587.832884,4903.011187
59393.940382,0.000000,-7179.997637,2451.505594
59393.940691,1258.350101,-8290.306550,3140.991542
59393.941001,0.000000,-6735.874072,536.266849
59393.941311,-2590.720797,-7772.162391,153.219100
59393.941621,-74.020594,-10658.965565,2987.772442
59393.941931,3478.967927,-9474.636058,2374.896044
59393.942241,2294.638420,-6513.812290,-1608.800546
59393.942551,0.000000,-8364.327145,0.000000
59393.942860,-74.020594,-12879.583391,3294.210641
59393.943170,-2960.823768,-11399.171507,-1838.629195
59393.943480,-3923.091493,-10510.924376,-3907.087040
59393.943790,-4663.297435,-11621.233289,-2451.505594
59393.944100,-2590.720797,-10658.965565,-76.609550
59393.944410,2146.597232,-8512.368333,2298.286494
59393.944719,6439.791695,-7402.059420,4519.963438
59393.945029,5847.626942,-9474.636058,5592.497135
59393.945339,3478.967927,-8882.471304,4826.401637
59393.945649,0.000000,-7179.997637,2757.943793
59393.945959,2294.638420,-8882.471304,2374.896044
59393.946269,-4145.153275,-5995.668130,-2451.505594
59393.946579,-2442.679609,-8882.471304,689.485948
59393.946888,0.000000,-9104.533087,766.095498
59393.947198,2072.576638,-7994.224174,0.000000
59393.947508,518.144159,-8882.471304,-306.438199
59393.947818,-592.164754,-11917.315666,2451.505594
59393.948128,-1036.288319,-13693.809927,0.000000
59393.948438,-1480.411884,-13101.645173,-459.657299
59393.948748,-4219.173869,-10658.965565,-3140.991542
59393.949057,-4737.318029,-10140.821405,0.000000
59393.949367,518.144159,-7698.141797,1608.800546
59393.949677,5847.626942,-6809.894666,2987.772442
59393.949987,3108.864956,-5181.441594,2834.553343
59393.950297,1406.391290,-8068.244768,4749.792088
59393.950607,1184.329507,-9474.636058,3447.429741
59393.950917,0.000000,-7772.162391,1225.752797
59393.951226,-2368.659014,-8364.327145,0.000000
59393.951536,-962.267725,-11843.295072,2374.896044
59393.951846,-2368.659014,-7179.997637,0.000000
59393.952156,3478.967927,-8882.471304,2374.896044
59393.952466,2294.638420,-6809.894666,-1302.362347
59393.952776,-74.020594,-11251.130318,1149.143247
59393.953086,-1850.514855,-12731.542202,612.876398
59393.953395,-1702.473667,-11251.130318,-1072.533697
59393.953705,-3330.926739,-10140.821405,-2451.505594
59393.954015,-5921.647536,-8364.327145,-2451.505594
59393.954325,-2368.659014,-7179.997637,0.000000
59393.954635,2368.659014,-8364.327145,3064.381992
59393.954945,3478.967927,-7105.977043,1762.019645
59393.955254,0.000000,-8512.368333,3677.258390
59393.955564,3478.967927,-11843.295072,4826.401637
59393.955874,1998.556043,-10510.924376,3370.820191
59393.956184,-962.267725,-8068.244768,76.609550
59393.956494,-3627.009116,-7920.203579,76.609550
59393.956804,-1776.494261,-8216.285956,1608.800546
59393.957114,148.041188,-4811.338623,0.000000
59393.957423,296.082377,-3627.009116,-1302.362347
59393.957733,0.000000,-7179.997637,0.000000
59393.958043,-74.020594,-12731.542202,2911.162892
59393.958353,-1554.432478,-10732.986159,-3294.210641
59393.958663,-1998.556043,-13471.748144,-1302.362347
59393.958973,-5329.482782,-11325.150913,-2451.505594
59393.959283,-2368.659014,-11251.130318,-459.657299
59393.959592,1998.556043,-9178.553681,1455.581446
59393.959902,3108.864956,-7328.038826,1378.971896
59393.960212,1110.308913,-7698.141797,1149.143247
59393.960522,-962.267725,-9474.636058,4213.525239
59393.960832,0.000000,-7179.997637,1225.752797
59393.961142,1480.411884,-8068.244768,2757.943793
59393.961452,-1702.473667,-4811.338623,-1302.362347
59393.961761,-296.082377,-8068.244768,4290.134789
59393.962071,888.247130,-6883.915261,2451.505594
59393.962381,3034.844362,-6513.812290,1149.143247
59393.962691,814.226536,-8586.388927,459.657299
59393.963001,-1332.370696,-11991.336260,995.924147
59393.963311,-666.185348,-13619.789333,-76.609550
59393.963620,-1258.350101,-14211.954086,-1608.800546
59393.963930,-6587.832884,-10658.965565,-4979.620737
59393.964240,-5329.482782,-11325.150913,-1838.629195
59393.964550,1110.308913,-9474.636058,-76.609550
59393.964860,2664.741391,-5403.503377,3064.381992
59393.965170,1776.494261,-5403.503377,1991.848295
59393.965480,1702.473667,-7772.162391,3983.696590
59393.965789,1480.411884,-9030.512492,4136.915689
59393.966099,444.123565,-7179.997637,1608.800546
59393.966409,-74.020594,-9474.636058,1762.019645
59393.966719,-962.267725,-11103.089130,2987.772442
59393.967029,-74.020594,-8586.388927,842.705048
59393.967339,592.164754,-6291.750507,0.000000
59393.967649,2294.638420,-11251.130318,-76.609550
59393.967958,-3552.988522,-9548.656652,0.000000
59393.968268,-2812.782580,-11843.295072,-383.047749
59393.968578,-2146.597232,-11769.274478,-1302.362347
59393.968888,-3701.029710,-10214.842000,-2374.896044
59393.969198,-3997.112087,-9696.697840,-1608.800546
59393.969508,1480.411884,-10362.883188,2298.286494
59393.969818,5329.482782,-7476.080014,3830.477490
59393.970127,4663.297435,-7105.977043,2374.896044
59393.970437,0.000000,-7179.997637,1991.848295
59393.970747,3478.967927,-12879.583391,5745.716235
59393.971057,0.000000,-7476.080014,0.000000
59393.971367,-2146.597232,-8734.430116,-1149.143247
59393.971677,-4737.318029,-9770.718434,-536.266849
59393.971986,-1702.473667,-9548.656652,919.314598
59393.972296,2294.638420,-7624.121203,1072.533697
59393.972606,2960.823768,-5995.668130,1225.752797
59393.972916,0.000000,-7179.997637,1225.752797
59393.973226,740.205942,-12213.398043,3370.820191
59393.973536,-74.020594,-11251.130318,-76.609550
59393.973846,-4737.318029,-8364.327145,0.000000
59393.974155,-4071.132681,-8808.450710,-3677.258390
59393.974465,-370.102971,-9474.636058,-76.609550
59393.974775,2368.659014,-8142.265362,1149.143247
59393.975085,2738.761985,-7105.977043,536.266849
59393.975395,518.144159,-9696.697840,1608.800546
59393.975705,0.000000,-10732.986159,2451.505594
59393.976015,0.000000,-9548.656652,612.876398
59393.976324,-592.164754,-9622.677246,1838.629195
59393.976634,-2442.679609,-8882.471304,-76.609550
59393.976944,-2368.659014,-8364.327145,3064.381992
59393.977254,2294.638420,-6513.812290,1762.019645
59393.977564,5255.462188,-5921.647536,2681.334243
59393.977874,2516.700203,-6291.750507,2374.896044
59393.978184,740.205942,-9844.739029,2911.162892
59393.978493,-814.226536,-11103.089130,536.266849
59393.978803,-4737.318029,-9548.656652,-4290.134789
59393.979113,-7698.141797,-9548.656652,-4903.011187
59393.979423,-2516.700203,-13027.624579,-459.657299
59393.979733,0.000000,-8956.491898,-1072.533697
59393.980043,4071.132681,-10658.965565,2374.896044
59393.980352,4071.132681,-9474.636058,1762.019645
59393.980662,1776.494261,-11325.150913,4366.744339
59393.980972,1924.535449,-10807.006753,3983.696590
59393.981282,1036.288319,-7624.121203,1685.410096
59393.981592,-1924.535449,-7179.997637,383.047749
59393.981902,-3627.009116,-6661.853478,0.000000
59393.982212,-74.020594,-5921.647536,842.705048
59393.982521,2368.659014,-4811.338623,1838.629195
59393.982831,3478.967927,-7105.977043,2374.896044
59393.983141,-3330.926739,-7179.997637,0.000000
59393.983451,-222.061783,-13027.624579,1762.019645
59393.983761,-3404.947333,-11621.233289,-1532.190996
59393.984071,-5847.626942,-11251.130318,-3447.429741
59393.984381,-5033.400406,-10881.027347,-2145.067394
59393.984690,-1110.308913,-10881.027347,76.609550
59393.985000,3478.967927,-7105.977043,2374.896044
59393.985310,4663.297435,-7105.977043,1149.143247
59393.985620,0.000000,-7772.162391,2451.505594
59393.985930,592.164754,-9844.739029,5745.716235
59393.986240,-74.020594,-8882.471304,-76.609550
59393.986550,-888.247130,-8290.306550,1685.410096
59393.986859,-4737.318029,-7772.162391,459.657299
59393.987169,-1332.370696,-9030.512492,1915.238745
59393.987479,1998.556043,-7402.059420,1149.143247
59393.987789,2072.576638,-6957.935855,1225.752797
59393.988099,2294.638420,-9178.553681,2374.896044
59393.988409,-74.020594,-13027.624579,2987.772442
59393.988719,-666.185348,-10955.047942,-689.485948
59393.989028,-4737.318029,-9548.656652,-4903.011187
59393.989338,-2812.782580,-12657.521608,-229.828649
59393.989648,-2368.659014,-12805.562797,1608.800546
59393.989958,1184.329507,-7179.997637,0.000000
59393.990268,3256.906145,-7772.162391,1072.533697
59393.990578,1036.288319,-8956.491898,2374.896044
59393.990887,0.000000,-10140.821405,2987.772442
59393.991197,2294.638420,-11843.295072,2681.334243
59393.991507,-74.020594,-10066.800811,1149.143247
59393.991817,-3627.009116,-8882.471304,-689.485948
59393.992127,-2960.823768,-8364.327145,3064.381992
59393.992437,4663.297435,-8290.306550,2374.896044
59393.992747,1480.411884,-4811.338623,1378.971896
59393.993056,666.185348,-6587.832884,1685.410096
59393.993366,-444.123565,-9844.739029,2374.896044
59393.993676,-1036.288319,-10510.924376,842.705048
59393.993986,-2812.782580,-9770.718434,-1915.238745
59393.994296,-3701.029710,-11621.233289,-2451.505594
59393.994606,-2368.659014,-11621.233289,612.876398
59393.994916,-74.020594,-8882.471304,-689.485948
59393.995225,1184.329507,-7772.162391,612.876398
59393.995535,2294.638420,-11843.295072,2374.896044
59393.995845,0.000000,-9548.656652,1838.629195
59393.996155,1406.391290,-10140.821405,2987.772442
59393.996465,0.000000,-7550.100608,612.876398
59393.996775,-2812.782580,-7994.224174,-459.657299
59393.997085,-2368.659014,-8956.491898,1149.143247
59393.997394,1184.329507,-7179.997637,1532.190996
59393.997704,2960.823768,-5995.668130,2451.505594
59393.998014,3478.967927,-7105.977043,2374.896044
59393.998324,-1184.329507,-8364.327145,0.000000
59393.998634,0.000000,-11325.150913,2451.505594
59393.998944,-3701.029710,-8956.491898,-2451.505594
59393.999253,-4219.173869,-10955.047942,-2681.334243
59393.999563,-3775.050304,-11325.150913,-1149.143247
59393.999873,148.041188,-9918.759623,612.876398
59394.000183,3404.947333,-7550.100608,689.485948
59394.000493,1184.329507,-6291.750507,306.438199
59394.000803,0.000000,-7772.162391,1838.629195
59394.001113,3478.967927,-12731.542202,4826.401637
59394.001422,222.061783,-6735.874072,-2068.457845
59394.001732,-1776.494261,-9696.697840,1225.752797
59394.002042,-3034.844362,-8290.306550,-1302.362347
59394.002352,444.123565,-9400.615463,2298.286494
59394.002662,2886.803174,-7031.956449,2068.457845
59394.002972,2294.638420,-5921.647536,1838.629195
59394.003282,296.082377,-8734.430116,2528.115143
59394.003591,-2294.638420,-10140.821405,2374.896044
59394.003901,-3552.988522,-8438.347739,-1685.410096
59394.004211,-5773.606348,-9548.656652,-2451.505594
59394.004521,-3034.844362,-11843.295072,-689.485948
59394.004831,-3552.988522,-9548.656652,0.000000
59394.005141,4071.132681,-8290.306550,-76.609550
59394.005451,2368.659014,-7179.997637,766.095498
59394.005760,740.205942,-9326.594869,2221.676944
59394.006070,740.205942,-11251.130318,2681.334243
59394.006380,0.000000,-10510.924376,1302.362347
59394.006690,-2442.679609,-8290.306550,-76.609550
59394.007000,-4515.256246,-7920.203579,-1608.800546
59394.007310,0.000000,-8660.409521,1838.629195
59394.007619,3775.050304,-7994.224174,2374.896044
59394.007929,0.000000,-3627.009116,612.876398
59394.008239,2294.638420,-8882.471304,2374.896044
59394.008549,-1184.329507,-10214.842000,2757.943793
59394.008859,-1184.329507,-10214.842000,766.095498
59394.009169,-3478.967927,-9474.636058,-2221.676944
59394.009479,-5255.462188,-9548.656652,-2374.896044
59394.009788,-2442.679609,-11695.253884,-76.609550
59394.010098,-74.020594,-7994.224174,-1915.238745
59394.010408,0.000000,-7476.080014,0.000000
59394.010718,-74.020594,-9474.636058,-76.609550
59394.011028,-2368.659014,-8364.327145,612.876398
59394.011338,3108.864956,-11843.295072,4826.401637
59394.011648,0.000000,-7624.121203,153.219100
59394.011957,-2220.617826,-8586.388927,459.657299
59394.012267,-1332.370696,-9030.512492,1762.019645
59394.012577,1776.494261,-8290.306550,2528.115143
59394.012887,5255.462188,-6809.894666,3370.820191
59394.013197,3478.967927,-8290.306550,2374.896044
59394.013507,-2072.576638,-8438.347739,1608.800546
59394.013817,-1184.329507,-10732.986159,3064.381992
59394.014126,-1258.350101,-11251.130318,-1302.362347
59394.014436,-4737.318029,-10881.027347,-919.314598
59394.014746,-4441.235652,-10214.842000,-1225.752797
59394.015056,-444.123565,-9104.533087,459.657299
59394.015366,2072.576638,-7179.997637,0.000000
59394.015676,592.164754,-7846.182985,383.047749
59394.015986,592.164754,-9844.739029,2451.505594
59394.016295,2294.638420,-12435.459826,3600.648841
59394.016605,-740.205942,-7550.100608,-1072.533697
59394.016915,-1776.494261,-10140.821405,2145.067394
59394.017225,-1258.350101,-9474.636058,-76.609550
59394.017535,0.000000,-9548.656652,3064.381992
59394.017845,1480.411884,-4811.338623,306.438199
59394.018154,1998.556043,-6883.915261,1455.581446
59394.018464,-74.020594,-9326.594869,2528.115143
59394.018774,-148.041188,-10955.047942,2374.896044
59394.019084,-1776.494261,-9548.656652,0.000000
59394.019394,-3552.988522,-10140.821405,-919.314598
59394.019704,-3034.844362,-11103.089130,-689.485948
59394.020013,-1184.329507,-10732.986159,2451.505594
59394.020323,4663.297435,-9178.553681,-76.609550
59394.020633,592.164754,-5995.668130,306.438199
59394.020943,0.000000,-7772.162391,689.485948
59394.021253,0.000000,-9992.780217,1532.190996
59394.021563,0.000000,-10066.800811,306.438199
59394.021873,-2664.741391,-9474.636058,-1532.190996
59394.022182,-4737.318029,-8660.409521,-1838.629195
59394.022492,-1776.494261,-9548.656652,1532.190996
59394.022802,3478.967927,-8290.306550,2374.896044
59394.023112,0.000000,-3627.009116,0.000000
59394.023422,1628.453072,-9252.574275,4136.915689
59394.023732,-740.205942,-9548.656652,3064.381992
59394.024041,444.123565,-10362.883188,1685.410096
59394.024351,-2368.659014,-8956.491898,-919.314598
59394.024661,-3701.029710,-8882.471304,-766.095498
59394.024971,-1258.350101,-9696.697840,1149.143247
59394.025281,1184.329507,-6883.915261,-76.609550
59394.025591,0.000000,-7179.997637,0.000000
59394.025900,-74.020594,-9474.636058,-76.609550
59394.026210,-4145.153275,-9548.656652,0.000000
59394.026520,0.000000,-12213.398043,1915.238745
59394.026830,-1850.514855,-7920.203579,-2451.505594
59394.027140,-3108.864956,-10214.842000,0.000000
59394.027450,-1258.350101,-9178.553681,1302.362347
59394.027759,1628.453072,-9030.512492,2451.505594
59394.028069,4071.132681,-5847.626942,2374.896044
59394.028379,2146.597232,-6513.812290,2374.896044
59394.028689,-2368.659014,-7476.080014,1225.752797
59394.028999,-1480.411884,-10140.821405,1838.629195
59394.029309,-74.020594,-11843.295072,-76.609550
59394.029618,-4737.318029,-8364.327145,-1838.629195
59394.029928,-2146.597232,-11399.171507,-1225.752797
59394.030238,296.082377,-8660.409521,766.095498
59394.030548,2072.576638,-7624.121203,612.876398
59394.030858,814.226536,-7624.121203,689.485948
59394.031168,-444.123565,-10288.862594,2374.896044
59394.031478,-74.020594,-11843.295072,2374.896044
59394.031787,-666.185348,-8586.388927,-1608.800546
59394.032097,-3552.988522,-8364.327145,0.000000
59394.032407,-1554.432478,-7994.224174,-383.047749
59394.032717,0.000000,-8364.327145,3064.381992
59394.033027,5847.626942,-6217.729913,1149.143247
59394.033337,1924.535449,-6069.688724,1302.362347
59394.033646,-370.102971,-9548.656652,2528.115143
59394.033956,-1184.329507,-10807.006753,1838.629195
59394.034266,-1332.370696,-10214.842000,842.705048
59394.034576,-1850.514855,-10658.965565,-76.609550
59394.034886,-3627.009116,-9474.636058,-1302.362347
59394.035196,0.000000,-9548.656652,1225.752797
59394.035505,4663.297435,-8882.471304,-76.609550
59394.035815,296.082377,-5107.421000,0.000000
59394.036125,2146.597232,-9844.739029,2374.896044
59394.036435,0.000000,-10807.006753,1608.800546
59394.036745,-74.020594,-10658.965565,-153.219100
59394.037055,-2368.659014,-10140.821405,-1532.190996
59394.037364,-2812.782580,-10436.903782,0.000000
59394.037674,1332.370696,-11177.109724,3370.820191
59394.037984,4663.297435,-9178.553681,2374.896044
59394.038294,1184.329507,-4811.338623,0.000000
59394.038604,592.164754,-10140.821405,4136.915689
59394.038914,-666.185348,-10658.965565,2068.457845
59394.039224,-1184.329507,-10066.800811,2374.896044
59394.039533,-3404.947333,-8956.491898,-1302.362347
59394.039843,-3552.988522,-9178.553681,-229.828649
59394.040153,-814.226536,-9326.594869,1455.581446
59394.040463,2072.576638,-6883.915261,306.438199
59394.040773,1480.411884,-5403.503377,1532.190996
59394.041083,2294.638420,-8882.471304,2374.896044
59394.041392,-2294.638420,-10658.965565,-76.609550
59394.041702,-3552.988522,-9548.656652,0.000000
59394.042012,-1258.350101,-11843.295072,-1302.362347
59394.042322,-3775.050304,-11843.295072,-76.609550
59394.042632,-1258.350101,-9918.759623,842.705048
59394.042942,1702.473667,-8512.368333,1915.238745
59394.043251,3034.844362,-5625.565159,1302.362347
59394.043561,-74.020594,-7476.080014,306.438199
59394.043871,-2960.823768,-9548.656652,0.000000
59394.044181,-444.123565,-11473.192101,2987.772442
59394.044491,-1998.556043,-9474.636058,-1302.362347
59394.044801,-3552.988522,-9548.656652,1225.752797
59394.045110,-1850.514855,-8586.388927,2068.457845
59394.045420,592.164754,-7624.121203,3217.601092
59394.045730,2220.617826,-6069.688724,995.924147
59394.046040,0.000000,-7550.100608,919.314598
59394.046350,-518.144159,-10288.862594,1762.019645
59394.046660,-592.164754,-10140.821405,0.000000
59394.046969,-2368.659014,-8660.409521,-4290.134789
59394.047279,-4737.318029,-10732.986159,-2145.067394
59394.047589,-74.020594,-13619.789333,2834.553343
59394.047899,370.102971,-8586.388927,383.047749
59394.048209,2368.659014,-5107.421000,1991.848295
59394.048519,2368.659014,-6587.832884,1225.752797
59394.048829,962.267725,-9770.718434,3447.429741
59394.049138,518.144159,-10584.944971,2757.943793
59394.049448,-444.123565,-9696.697840,612.876398
59394.049758,-2886.803174,-7994.224174,-689.485948
59394.050068,-4219.173869,-8586.388927,-689.485948
59394.050378,0.000000,-7179.997637,612.876398
59394.050688,4663.297435,-9474.636058,4213.525239
59394.050997,814.226536,-4293.194464,0.000000
59394.051307,0.000000,-8660.409521,3064.381992
59394.051617,0.000000,-9548.656652,612.876398
59394.051927,-74.020594,-10658.965565,-689.485948
59394.052237,-3108.864956,-11251.130318,-2068.457845
59394.052547,-2886.803174,-11251.130318,-1608.800546
59394.052856,740.205942,-12435.459826,2374.896044
59394.053166,4367.215058,-7105.977043,-76.609550
59394.053476,0.000000,-4811.338623,0.000000
59394.053786,1702.473667,-11843.295072,4519.963438
59394.054096,-74.020594,-10362.883188,1149.143247
59394.054406,296.082377,-10436.903782,1838.629195
59394.054715,-2738.761985,-6883.915261,-2145.067394
59394.055025,-2664.741391,-8882.471304,612.876398
59394.055335,740.205942,-8956.491898,2681.334243
59394.055645,3552.988522,-6439.791695,2757.943793
59394.055955,4071.132681,-7105.977043,2987.772442
59394.056265,2294.638420,-9474.636058,3600.648841
59394.056575,-1480.411884,-9844.739029,995.924147
59394.056884,-3552.988522,-9548.656652,0.000000
59394.057194,-1258.350101,-13027.624579,-1302.362347
59394.057504,-7105.977043,-9548.656652,-4903.011187
59394.057814,-3034.844362,-10658.965565,-229.828649
59394.058124,1480.411884,-8660.409521,1455.581446
59394.058434,2738.761985,-6143.709319,536.266849
59394.058743,0.000000,-7994.224174,1378.971896
59394.059053,666.185348,-10732.986159,3524.039291
59394.059363,1702.473667,-13619.789333,4826.401637
59394.059673,-74.020594,-8882.471304,-76.609550
59394.059983,-4737.318029,-7179.997637,0.000000
59394.060293,-74.020594,-9474.636058,2374.896044
59394.060602,0.000000,-5995.668130,76.609550
59394.060912,3478.967927,-7105.977043,2374.896044
59394.061222,0.000000,-7402.059420,995.924147
59394.061532,-1258.350101,-10955.047942,1608.800546
59394.061842,-888.247130,-11769.274478,229.828649
59394.062152,-2960.823768,-10140.821405,-1532.190996
59394.062461,-5181.441594,-13101.645173,-1072.533697
59394.062771,-3034.844362,-11843.295072,-76.609550
59394.063081,-2368.659014,-7179.997637,0.000000
59394.063391,5773.606348,-7624.121203,3294.210641
59394.063701,1406.391290,-3849.070898,842.705048
59394.064011,1702.473667,-8882.471304,3600.648841
59394.064320,0.000000,-9844.739029,2987.772442
59394.064630,-222.061783,-9548.656652,766.095498
59394.064940,-2960.823768,-9252.574275,-459.657299
59394.065250,-4737.318029,-8364.327145,0.000000
59394.065560,0.000000,-7772.162391,2451.505594
59394.065870,3775.050304,-8512.368333,3600.648841
59394.066180,2294.638420,-6513.812290,-76.609550
59394.066489,-2368.659014,-8364.327145,612.876398
59394.066799,-74.020594,-11843.295072,2374.896044
59394.067109,-74.020594,-11843.295072,-76.609550
59394.067419,-3923.091493,-10140.821405,-2145.067394
59394.067729,-3849.070898,-9622.677246,-612.876398
59394.068039,222.061783,-9696.697840,1149.143247
59394.068348,2368.659014,-5403.503377,0.000000
59394.068658,0.000000,-4811.338623,0.000000
59394.068968,-74.020594,-10214.842000,3064.381992
59394.069278,-74.020594,-11251.130318,-76.609550
59394.069588,0.000000,-11621.233289,1838.629195
59394.069898,-1258.350101,-11843.295072,-689.485948
59394.070207,-2960.823768,-10732.986159,1532.190996
59394.070517,518.144159,-9400.615463,2528.115143
59394.070827,3849.070898,-6291.750507,2374.896044
59394.071137,3108.864956,-5255.462188,1838.629195
59394.071447,74.020594,-5773.606348,995.924147
59394.071757,0.000000,-7179.997637,0.000000
59394.072066,0.000000,-9548.656652,0.000000
59394.072376,-296.082377,-13027.624579,-76.609550
59394.072686,-5329.482782,-9548.656652,-2451.505594
59394.072996,-74.020594,-13471.748144,2374.896044
59394.073306,1776.494261,-8364.327145,612.876398
59394.073616,1850.514855,-7402.059420,306.438199
59394.073926,-814.226536,-9030.512492,383.047749
59394.074235,-444.123565,-10362.883188,1838.629195
59394.074545,1110.308913,-10658.965565,1149.143247
59394.074855,-2146.597232,-7179.997637,-1608.800546
59394.075165,-3552.988522,-7476.080014,0.000000
59394.075475,2294.638420,-10658.965565,3600.648841
59394.075785,1184.329507,-5995.668130,1838.629195
59394.076094,4367.215058,-5551.544565,2451.505594
59394.076404,0.000000,-5995.668130,1225.752797
59394.076714,296.082377,-10881.027347,2451.505594
59394.077024,-592.164754,-11547.212695,0.000000
59394.077334,-2812.782580,-11621.233289,-2374.896044
59394.077644,-3627.009116,-11843.295072,-1915.238745
59394.077953,-2442.679609,-11251.130318,-1302.362347
59394.078263,0.000000,-7179.997637,-2451.505594
59394.078573,3552.988522,-7920.203579,2145.067394
59394.078883,1702.473667,-7698.141797,1149.143247
59394.079193,0.000000,-8364.327145,2451.505594
59394.079503,-1702.473667,-9548.656652,1532.190996
59394.079812,-1258.350101,-9548.656652,1072.533697
59394.080122,-2960.823768,-8660.409521,153.219100
59394.080432,-2220.617826,-8660.409521,1991.848295
59394.080742,2886.803174,-9178.553681,4826.401637
59394.081052,4663.297435,-7105.977043,3600.648841
59394.081362,1406.391290,-4293.194464,229.828649
59394.081671,0.000000,-8364.327145,2451.505594
59394.081981,-74.020594,-12731.542202,2681.334243
59394.082291,-4145.153275,-8660.409521,-4290.134789
59394.082601,-4959.379811,-9696.697840,-3140.991542
59394.082911,-4441.235652,-10658.965565,-1302.362347
59394.083221,-222.061783,-9696.697840,153.219100
59394.083531,3256.906145,-6957.935855,612.876398
59394.083840,2368.659014,-7920.203579,2681.334243
59394.084150,2294.638420,-12435.459826,3600.648841
59394.084460,-370.102971,-11843.295072,-76.609550
59394.084770,-2368.659014,-10732.986159,1225.752797
59394.085080,-1850.514855,-10066.800811,-229.828649
59394.085390,-5625.565159,-7179.997637,0.000000
59394.085699,1702.473667,-8290.306550,2374.896044
59394.086009,3108.864956,-6291.750507,2987.772442
59394.086319,3552.988522,-5033.400406,2451.505594
59394.086629,1332.370696,-8290.306550,2987.772442
59394.086939,1184.329507,-10140.821405,3677.258390
59394.087249,1480.411884,-11473.192101,2221.676944
59394.087558,-1850.514855,-11843.295072,-76.609550
59394.087868,-7105.977043,-7476.080014,-4290.134789
59394.088178,-444.123565,-11843.295072,842.705048
59394.088488,2294.638420,-7105.977043,-1915.238745
59394.088798,3478.967927,-8290.306550,-76.609550
59394.089108,0.000000,-9474.636058,536.266849
59394.089417,0.000000,-11547.212695,2221.676944
59394.089727,0.000000,-11325.150913,1378.971896
59394.090037,-3552.988522,-7772.162391,0.000000
59394.090347,-4737.318029,-8364.327145,0.000000
59394.090657,1332.370696,-11251.130318,4826.401637
59394.090967,1998.556043,-4515.256246,1762.019645
59394.091277,2960.823768,-4811.338623,3677.258390
59394.091586,3478.967927,-7105.977043,2374.896044
59394.091896,1702.473667,-10658.965565,2987.772442
59394.092206,-592.164754,-9622.677246,459.657299
59394.092516,-3034.844362,-9918.759623,-2068.457845
59394.092826,-5921.647536,-10288.862594,-3217.601092
59394.093136,-4737.318029,-9844.739029,0.000000
59394.093445,592.164754,-9548.656652,306.438199
59394.093755,3775.050304,-9474.636058,-76.609550
59394.094065,-1480.411884,-6587.832884,0.000000
59394.094375,1110.308913,-12435.459826,2681.334243
59394.094685,-370.102971,-10362.883188,76.609550
59394.094995,-74.020594,-10510.924376,995.924147
59394.095304,-3997.112087,-9030.512492,-153.219100
59394.095614,-2664.741391,-9030.512492,1455.581446
59394.095924,1332.370696,-7698.141797,3064.381992
59394.096234,2960.823768,-4811.338623,2451.505594
59394.096544,2368.659014,-5995.668130,4903.011187
59394.096854,3182.885551,-11547.212695,6818.249932
59394.097163,1110.308913,-9178.553681,1149.143247
59394.097473,-3552.988522,-9548.656652,-1225.752797
59394.097783,-3627.009116,-10658.965565,-2834.553343
59394.098093,-4145.153275,-11029.068536,-612.876398
59394.098403,0.000000,-10362.883188,229.828649
59394.098713,2812.782580,-7328.038826,0.000000
59394.099022,370.102971,-8068.244768,-383.047749
59394.099332,-74.020594,-13027.624579,2987.772442
59394.099642,-74.020594,-13027.624579,-76.609550
59394.099952,-2516.700203,-9622.677246,-1915.238745
59394.100262,-4145.153275,-10732.986159,0.000000
59394.100572,-4219.173869,-9622.677246,-689.485948
59394.100882,0.000000,-7179.997637,2451.505594
59394.101191,3182.885551,-5329.482782,2987.772442
59394.101501,3849.070898,-3256.906145,2987.772442
59394.101811,2516.700203,-6883.915261,4903.011187
59394.102121,2368.659014,-9326.594869,4596.572988
59394.102431,1998.556043,-11547.212695,3524.039291
59394.102741,-1258.350101,-9474.636058,-1915.238745
59394.103050,-3775.050304,-9474.636058,-2528.115143
59394.103360,-3552.988522,-9548.656652,0.000000
59394.103670,4071.132681,-9474.636058,-76.609550
59394.103980,0.000000,-6587.832884,-2451.505594
59394.104290,-962.267725,-9548.656652,-689.485948
59394.104600,0.000000,-13101.645173,1608.800546
59394.104909,-666.185348,-11843.295072,1072.533697
59394.105219,-2664.741391,-10140.821405,-1072.533697
59394.105529,-1554.432478,-11769.274478,2374.896044
59394.105839,-74.020594,-9474.636058,2374.896044
59394.106149,1776.494261,-4811.338623,0.000000
59394.106459,7031.956449,-6513.812290,4826.401637
59394.106768,592.164754,-3923.091493,1608.800546
59394.107078,1776.494261,-7772.162391,4903.011187
59394.107388,74.020594,-7254.018232,1685.410096
59394.107698,-2368.659014,-7179.997637,-383.047749
59394.108008,-3330.926739,-9474.636058,-1608.800546
59394.108318,-2442.679609,-11251.130318,-689.485948
59394.108627,2294.638420,-11251.130318,-76.609550
59394.108937,2294.638420,-10658.965565,-1302.362347
59394.109247,-1776.494261,-8068.244768,-3753.867940
59394.109557,-2368.659014,-11917.315666,612.876398
59394.109867,-74.020594,-13619.789333,1455.581446
59394.110177,-4145.153275,-7476.080014,-2451.505594
59394.110487,-3701.029710,-9178.553681,-995.924147
59394.110796,-2294.638420,-8956.491898,766.095498
59394.111106,1702.473667,-8586.388927,3294.210641
59394.111416,4515.256246,-4663.297435,3294.210641
59394.111726,3849.070898,-6439.791695,6052.154434
59394.112036,4663.297435,-9474.636058,6665.030833
59394.112346,2886.803174,-9474.636058,3600.648841
59394.112655,-3552.988522,-5995.668130,0.000000
59394.112965,-2590.720797,-9474.636058,-842.705048
59394.113275,-5181.441594,-8512.368333,-4213.525239
59394.113585,-74.020594,-10658.965565,-1302.362347
59394.113895,296.082377,-8956.491898,-1072.533697
59394.114205,-1184.329507,-9622.677246,-1225.752797
59394.114514,-2146.597232,-10955.047942,-459.657299
59394.114824,-1776.494261,-12509.480420,2451.505594
59394.115134,-592.164754,-11843.295072,2374.896044
59394.115444,-1850.514855,-9474.636058,-76.609550
59394.115754,-5773.606348,-6587.832884,0.000000
59394.116064,2664.741391,-8660.409521,4596.572988
59394.116373,4367.215058,-4145.153275,2374.896044
59394.116683,4663.297435,-6439.791695,4213.525239
59394.116993,1332.370696,-6883.915261,3524.039291
59394.117303,1480.411884,-9326.594869,3140.991542
59394.117613,0.000000,-9104.533087,536.266849
59394.117923,-4737.318029,-9548.656652,-1838.629195
59394.118233,-3034.844362,-13027.624579,-766.095498
59394.118542,-1258.350101,-11843.295072,-1302.362347
59394.118852,0.000000,-7179.997637,0.000000
59394.119162,2294.638420,-10510.924376,-76.609550
59394.119472,-2738.761985,-8734.430116,-1302.362347
59394.119782,-74.020594,-12435.459826,2068.457845
59394.120091,74.020594,-10140.821405,1302.362347
59394.120401,-2072.576638,-8364.327145,-153.219100
59394.120711,-4737.318029,-8956.491898,0.000000
59394.121021,-2960.823768,-8364.327145,1225.752797
59394.121330,3552.988522,-7772.162391,4903.011187
59394.121640,2368.659014,-4811.338623,2451.505594
59394.121950,2960.823768,-8364.327145,5132.839837
59394.122260,814.226536,-8438.347739,2911.162892
59394.122569,1998.556043,-8586.388927,1838.629195
59394.122879,-2072.576638,-9548.656652,-1072.533697
59394.123189,-4145.153275,-9548.656652,-1685.410096
59394.123499,-1554.432478,-11547.212695,-153.219100
59394.123808,1110.308913,-8882.471304,-689.485948
59394.124118,1184.329507,-8364.327145,306.438199
59394.124428,-74.020594,-11621.233289,1991.848295
59394.124737,-74.020594,-14211.954086,2374.896044
59394.125047,-3404.947333,-9548.656652,0.000000
59394.125357,-518.144159,-10510.924376,-76.609550
59394.125667,-5181.441594,-7550.100608,-2528.115143
59394.125976,-666.185348,-10510.924376,1608.800546
59394.126286,1924.535449,-7624.121203,2911.162892
59394.126596,4071.132681,-5107.421000,3524.039291
59394.126906,2590.720797,-5625.565159,3677.258390
59394.127215,592.164754,-7179.997637,4903.011187
59394.127525,2368.659014,-9548.656652,4290.134789
59394.127835,2294.638420,-11843.295072,2374.896044
59394.128145,-2442.679609,-8882.471304,-2834.553343
59394.128454,-4145.153275,-9548.656652,-1225.752797
59394.128764,2294.638420,-10658.965565,-383.047749
59394.129074,3478.967927,-10066.800811,-383.047749
59394.129384,74.020594,-9696.697840,-1302.362347
59394.129693,-296.082377,-11843.295072,76.609550
59394.130003,0.000000,-12435.459826,1455.581446
59394.130313,-2368.659014,-8364.327145,0.000000
59394.130622,-4737.318029,-8364.327145,0.000000
59394.130932,-2368.659014,-11325.150913,3370.820191
59394.131242,518.144159,-7105.977043,1455.581446
59394.131552,4885.359217,-6587.832884,4903.011187
59394.131861,4663.297435,-4737.318029,3600.648841
59394.132171,1776.494261,-7254.018232,5056.230287
59394.132481,1406.391290,-8808.450710,3370.820191
59394.132791,-370.102971,-9030.512492,383.047749
59394.133100,-3701.029710,-8956.491898,-1838.629195
59394.133410,-5403.503377,-8512.368333,-4903.011187
59394.133720,-4145.153275,-9548.656652,-2451.505594
59394.134030,1184.329507,-9548.656652,612.876398
59394.134339,1702.473667,-8882.471304,-1302.362347
59394.134649,-592.164754,-10732.986159,919.314598
59394.134959,-74.020594,-14211.954086,4213.525239
59394.135269,-888.247130,-10436.903782,1072.533697
59394.135578,-2294.638420,-9400.615463,-766.095498
59394.135888,-3330.926739,-9474.636058,612.876398
59394.136198,148.041188,-9400.615463,2757.943793
59394.136507,4071.132681,-6513.812290,2068.457845
59394.136817,1998.556043,-2960.823768,2221.676944
59394.137127,0.000000,-4811.338623,2451.505594
59394.137437,2590.720797,-11177.109724,4826.401637
59394.137746,-1036.288319,-7254.018232,459.657299
59394.138056,-2368.659014,-9844.739029,1072.533697
59394.138366,-4737.318029,-9548.656652,-2145.067394
59394.138676,-1924.535449,-10807.006753,-229.828649
59394.138985,1332.370696,-9252.574275,-306.438199
59394.139295,962.267725,-8956.491898,-919.314598
59394.139605,-74.020594,-9474.636058,-76.609550
59394.139915,-666.185348,-10955.047942,-76.609550
59394.140224,-3552.988522,-8364.327145,0.000000
59394.140534,-740.205942,-11621.233289,-76.609550
59394.140844,-5625.565159,-9104.533087,-2145.067394
59394.141154,-1776.494261,-10732.986159,2451.505594
59394.141463,888.247130,-7254.018232,1838.629195
59394.141773,3182.885551,-5551.544565,3064.381992
59394.142083,1998.556043,-6143.709319,3217.601092
59394.142392,888.247130,-7994.224174,3983.696590
59394.142702,3478.967927,-9474.636058,4826.401637
59394.143012,-74.020594,-8290.306550,-76.609550
59394.143322,-3034.844362,-7698.141797,-2528.115143
59394.143631,-2368.659014,-8364.327145,612.876398
59394.143941,2294.638420,-10955.047942,-76.609550
59394.144251,0.000000,-5995.668130,-2451.505594
59394.144561,-2294.638420,-9030.512492,-2145.067394
59394.144870,-1480.411884,-11547.212695,0.000000
59394.145180,-740.205942,-12509.480420,306.438199
59394.145490,-2146.597232,-10658.965565,-1608.800546
59394.145800,-2738.761985,-13027.624579,-76.609550
59394.146109,-1258.350101,-12435.459826,2374.896044
59394.146419,3478.967927,-9474.636058,2374.896044
59394.146729,2368.659014,-4811.338623,3064.381992
59394.147039,4663.297435,-5625.565159,4826.401637
59394.147348,0.000000,-4811.338623,2451.505594
59394.147658,2738.761985,-8438.347739,4136.915689
59394.147968,0.000000,-7772.162391,1072.533697
59394.148277,-2220.617826,-8068.244768,-919.314598
59394.148587,-2812.782580,-9474.636058,-612.876398
59394.148897,0.000000,-10436.903782,612.876398
59394.149207,2294.638420,-10214.842000,0.000000
59394.149516,-74.020594,-11843.295072,-76.609550
59394.149826,-2738.761985,-9844.739029,-2068.457845
59394.150136,-1184.329507,-13101.645173,2221.676944
59394.150446,-1554.432478,-10066.800811,-2681.334243
59394.150755,-3034.844362,-10658.965565,-1302.362347
59394.151065,-3256.906145,-10732.986159,0.000000
59394.151375,592.164754,-9252.574275,2528.115143
59394.151685,4293.194464,-6217.729913,3677.258390
59394.151994,3552.988522,-3627.009116,4903.011187
59394.152304,2368.659014,-6587.832884,4903.011187
59394.152614,4663.297435,-11251.130318,6052.154434
59394.152924,-1776.494261,-7179.997637,919.314598
59394.153233,-370.102971,-9474.636058,-76.609550
59394.153543,-2442.679609,-8808.450710,-1302.362347
59394.153853,-74.020594,-11251.130318,1149.143247
59394.154162,1554.432478,-9326.594869,-459.657299
59394.154472,74.020594,-8956.491898,-1608.800546
59394.154782,-1184.329507,-9992.780217,-842.705048
59394.155092,-2368.659014,-10732.986159,0.000000
59394.155401,0.000000,-11029.068536,0.000000
59394.155711,-74.020594,-11843.295072,-76.609550
59394.156021,-5921.647536,-8364.327145,-2451.505594
59394.156331,-296.082377,-10288.862594,2374.896044
59394.156640,3478.967927,-7105.977043,2374.896044
59394.156950,3552.988522,-5921.647536,2757.943793
59394.157260,888.247130,-6661.853478,3140.991542
59394.157570,0.000000,-8586.388927,3677.258390
59394.157879,370.102971,-8734.430116,2451.505594
59394.158189,-3552.988522,-5995.668130,0.000000
59394.158499,-4441.235652,-4811.338623,-3370.820191
59394.158808,0.000000,-10732.986159,3064.381992
59394.159118,3478.967927,-9474.636058,-76.609550
59394.159428,0.000000,-7179.997637,0.000000
59394.159738,2294.638420,-11251.130318,-76.609550
59394.160047,0.000000,-10732.986159,842.705048
59394.160357,-1110.308913,-13323.706956,229.828649
59394.160667,-2886.803174,-9474.636058,-2528.115143
59394.160977,-5625.565159,-11547.212695,-2221.676944
59394.161286,-3923.091493,-8216.285956,-1302.362347
59394.161596,-1184.329507,-8290.306550,1149.143247
59394.161906,1184.329507,-5403.503377,2451.505594
59394.162216,2294.638420,-7994.224174,3600.648841
59394.162525,0.000000,-6587.832884,4903.011187
59394.162835,4367.215058,-11547.212695,7277.907231
59394.163145,-1184.329507,-7179.997637,1532.190996
59394.163455,-2146.597232,-6957.935855,-459.657299
59394.163764,-1554.432478,-8956.491898,919.314598
59394.164074,1258.350101,-8438.347739,995.924147
59394.164384,2294.638420,-8290.306550,-689.485948
59394.164693,-74.020594,-9474.636058,-76.609550
59394.165003,-3552.988522,-9548.656652,-2451.505594
59394.165313,0.000000,-12509.480420,612.876398
59394.165623,-666.185348,-11843.295072,-1302.362347
59394.165932,-4737.318029,-12509.480420,-1225.752797
59394.166242,-4441.235652,-11325.150913,-1685.410096
59394.166552,296.082377,-10955.047942,2451.505594
59394.166862,3330.926739,-7328.038826,3064.381992
59394.167171,1998.556043,-5181.441594,2834.553343
59394.167481,2294.638420,-7105.977043,4826.401637
59394.167791,3478.967927,-10658.965565,6665.030833
59394.168101,-74.020594,-5921.647536,1149.143247
59394.168410,-1776.494261,-6883.915261,919.314598
59394.168720,-1850.514855,-8290.306550,-76.609550
59394.169030,0.000000,-8364.327145,1225.752797
59394.169340,1332.370696,-7254.018232,-689.485948
59394.169649,370.102971,-8142.265362,-1302.362347
59394.169959,-1406.391290,-10214.842000,-1532.190996
59394.170269,-1406.391290,-13471.748144,-919.314598
59394.170578,-74.020594,-15396.283594,-76.609550
59394.170888,-74.020594,-15396.283594,-76.609550
59394.171198,-3627.009116,-11251.130318,-2528.115143
59394.171508,-1776.494261,-10140.821405,1532.190996
59394.171817,4663.297435,-9474.636058,4826.401637
59394.172127,1480.411884,-2442.679609,2451.505594
59394.172437,1110.308913,-5329.482782,3600.648841
59394.172747,0.000000,-6957.935855,3983.696590
59394.173056,592.164754,-8438.347739,3064.381992
59394.173366,-1184.329507,-7254.018232,153.219100
59394.173676,-1628.453072,-9400.615463,229.828649
59394.173986,0.000000,-10140.821405,3064.381992
59394.174295,3478.967927,-9474.636058,1762.019645
59394.174605,0.000000,-5995.668130,-1991.848295
59394.174915,-1184.329507,-9548.656652,612.876398
59394.175225,-3330.926739,-10436.903782,-1225.752797
59394.175534,-814.226536,-13027.624579,-689.485948
59394.175844,-3108.864956,-11843.295072,-2451.505594
59394.176154,-4811.338623,-11621.233289,-2145.067394
59394.176463,-2442.679609,-11029.068536,459.657299
59394.176773,1184.329507,-8364.327145,3064.381992
59394.177083,1184.329507,-4811.338623,2757.943793
59394.177393,2294.638420,-8882.471304,4826.401637
59394.177702,-1554.432478,-7179.997637,3294.210641
59394.178012,2886.803174,-9474.636058,6052.154434
59394.178322,222.061783,-4663.297435,766.095498
59394.178632,-1036.288319,-6735.874072,1762.019645
59394.178941,-1554.432478,-7624.121203,1762.019645
59394.179251,1110.308913,-8068.244768,1149.143247
59394.179561,1184.329507,-7328.038826,-612.876398
59394.179871,-2368.659014,-7179.997637,-2451.505594
59394.180180,-4737.318029,-9548.656652,0.000000
59394.180490,-74.020594,-14730.098246,842.705048
59394.180800,-1850.514855,-11843.295072,-3140.991542
59394.181110,-3552.988522,-13693.809927,-306.438199
59394.181419,-1258.350101,-11843.295072,-1915.238745
59394.181729,1184.329507,-10881.027347,2451.505594
59394.182039,4293.194464,-7031.956449,3294.210641
59394.182348,3404.947333,-5403.503377,3830.477490
59394.182658,2294.638420,-6587.832884,5056.230287
59394.182968,0.000000,-5403.503377,3140.991542
59394.183278,-2960.823768,-4811.338623,0.000000
59394.183587,-74.020594,-7994.224174,1915.238745
59394.183897,-1258.350101,-7698.141797,-76.609550
59394.184207,0.000000,-5995.668130,0.000000
59394.184517,3478.967927,-9474.636058,-76.609550
59394.184826,-222.061783,-8808.450710,-1149.143247
59394.185136,-962.267725,-11251.130318,-1225.752797
59394.185446,-962.267725,-13101.645173,-995.924147
59394.185756,-2368.659014,-12435.459826,-2374.896044
59394.186065,-5403.503377,-11251.130318,-4979.620737
59394.186375,-3034.844362,-11103.089130,-2528.115143
59394.186685,0.000000,-9548.656652,2451.505594
59394.186995,5255.462188,-8290.306550,3600.648841
59394.187304,2368.659014,-3034.844362,2451.505594
59394.187614,4663.297435,-8290.306550,6665.030833
59394.187924,1776.494261,-7179.997637,4443.353888
59394.188233,888.247130,-8808.450710,3600.648841
59394.188543,-1184.329507,-6735.874072,76.609550
59394.188853,-2664.741391,-8586.388927,-536.266849
59394.189163,-666.185348,-9474.636058,-76.609550
59394.189472,-74.020594,-8882.471304,-76.609550
