#time,accel_x,accel_y,accel_z
59486.778098,-148.041188,-9326.594869,995.924147
59486.778407,-518.144159,-8882.471304,689.485948
59486.778717,592.164754,-10732.986159,2757.943793
59486.779027,1110.308913,-10362.883188,2374.896044
59486.779336,-74.020594,-9474.636058,-76.609550
59486.779646,0.000000,-8364.327145,1225.752797
59486.779956,-74.020594,-9474.636058,1762.019645
59486.780265,-1554.432478,-7179.997637,-2451.505594
59486.780575,-74.020594,-9474.636058,1149.143247
59486.780885,-518.144159,-8808.450710,612.876398
59486.781194,-518.144159,-9178.553681,689.485948
59486.781504,-296.082377,-9326.594869,459.657299
59486.781814,0.000000,-8364.327145,1838.629195
59486.782123,74.020594,-9844.739029,1532.190996
59486.782433,1110.308913,-11843.295072,3294.210641
59486.782743,-1850.514855,-6957.935855,-1072.533697
59486.783052,0.000000,-9548.656652,1838.629195
59486.783362,-74.020594,-7994.224174,-383.047749
59486.783672,-74.020594,-9474.636058,1762.019645
59486.783981,-444.123565,-9252.574275,842.705048
59486.784291,-518.144159,-8660.409521,459.657299
59486.784601,-296.082377,-9104.533087,919.314598
59486.784910,-2368.659014,-7179.997637,0.000000
59486.785220,0.000000,-8956.491898,919.314598
59486.785530,814.226536,-11843.295072,2987.772442
59486.785839,-2368.659014,-7179.997637,0.000000
59486.786149,296.082377,-9992.780217,2145.067394
59486.786459,-74.020594,-9474.636058,-76.609550
59486.786768,-296.082377,-9474.636058,1225.752797
59486.787078,-74.020594,-9474.636058,995.924147
59486.787388,-74.020594,-9252.574275,842.705048
59486.787697,-518.144159,-9178.553681,536.266849
59486.788007,-2368.659014,-6587.832884,0.000000
59486.788316,-1776.494261,-7772.162391,0.000000
59486.788626,0.000000,-9844.739029,2604.724693
59486.788936,-74.020594,-8290.306550,-76.609550
59486.789245,0.000000,-8956.491898,1225.752797
59486.789555,2294.638420,-10658.965565,2374.896044
59486.789865,-888.247130,-8956.491898,919.314598
59486.790174,-296.082377,-9030.512492,612.876398
59486.790484,-518.144159,-8956.491898,459.657299
59486.790794,-370.102971,-9104.533087,766.095498
59486.791103,-1258.350101,-7402.059420,-1072.533697
59486.791413,-1850.514855,-7772.162391,0.000000
59486.791723,0.000000,-9548.656652,2757.943793
59486.792032,-74.020594,-8882.471304,-76.609550
59486.792342,0.000000,-8364.327145,612.876398
59486.792652,-1628.453072,-7772.162391,229.828649
59486.792961,-74.020594,-8882.471304,689.485948
59486.793271,-592.164754,-8956.491898,536.266849
59486.793581,0.000000,-9178.553681,995.924147
59486.793890,-222.061783,-9326.594869,995.924147
59486.794200,592.164754,-10214.842000,3140.991542
59486.794510,-148.041188,-9844.739029,1838.629195
59486.794819,-74.020594,-9474.636058,-76.609550
59486.795129,-2368.659014,-7772.162391,0.000000
59486.795439,-74.020594,-10510.924376,1302.362347
59486.795748,1110.308913,-9474.636058,2068.457845
59486.796058,0.000000,-9252.574275,919.314598
59486.796368,148.041188,-9326.594869,1072.533697
59486.796677,-74.020594,-9326.594869,1149.143247
59486.796987,-592.164754,-9104.533087,459.657299
59486.797297,-1406.391290,-7179.997637,0.000000
59486.797606,-148.041188,-8882.471304,-76.609550
59486.797916,0.000000,-9548.656652,2451.505594
59486.798226,-74.020594,-9474.636058,-76.609550
59486.798535,0.000000,-8364.327145,0.000000
59486.798845,-1776.494261,-8364.327145,459.657299
59486.799155,0.000000,-8956.491898,612.876398
59486.799464,-148.041188,-9326.594869,766.095498
59486.799774,-444.123565,-8956.491898,766.095498
59486.800084,0.000000,-9104.533087,919.314598
59486.800393,-74.020594,-9474.636058,2374.896044
59486.800703,-74.020594,-11843.295072,2987.772442
59486.801013,-2368.659014,-7179.997637,0.000000
59486.801322,814.226536,-10066.800811,2068.457845
59486.801632,-518.144159,-8068.244768,0.000000
59486.801942,-74.020594,-8734.430116,0.000000
59486.802251,-592.164754,-8956.491898,1072.533697
59486.802561,-222.061783,-9178.553681,842.705048
59486.802871,-518.144159,-9030.512492,842.705048
59486.803180,-370.102971,-9474.636058,1149.143247
59486.803490,-370.102971,-8660.409521,459.657299
59486.803799,-2368.659014,-7179.997637,0.000000
59486.804109,2886.803174,-10658.965565,2374.896044
59486.804419,0.000000,-7179.997637,76.609550
59486.804728,2294.638420,-11843.295072,3600.648841
59486.805038,2812.782580,-9474.636058,2374.896044
59486.805348,1332.370696,-8734.430116,1072.533697
59486.805657,1554.432478,-8734.430116,612.876398
59486.805967,2072.576638,-9178.553681,842.705048
59486.806277,2368.659014,-9104.533087,612.876398
59486.806586,2960.823768,-8882.471304,153.219100
59486.806896,4663.297435,-9474.636058,-76.609550
59486.807206,1184.329507,-8364.327145,0.000000
59486.807515,4071.132681,-9474.636058,536.266849
59486.807825,2960.823768,-9548.656652,2451.505594
59486.808135,4071.132681,-9548.656652,1225.752797
59486.808444,4663.297435,-9474.636058,1225.752797
59486.808754,5033.400406,-8882.471304,1455.581446
59486.809064,5403.503377,-8438.347739,1302.362347
59486.809373,5847.626942,-7698.141797,1149.143247
59486.809683,5625.565159,-9252.574275,612.876398
59486.809993,5921.647536,-9252.574275,2451.505594
59486.810302,4663.297435,-7994.224174,-536.266849
59486.810612,6217.729913,-9252.574275,1762.019645
59486.810922,4367.215058,-7179.997637,-3064.381992
59486.811231,6439.791695,-9178.553681,-995.924147
59486.811541,4959.379811,-10140.821405,-612.876398
59486.811851,4515.256246,-11843.295072,-383.047749
59486.812160,3404.947333,-12583.501014,-153.219100
59486.812470,3256.906145,-12805.562797,1455.581446
59486.812780,1406.391290,-11547.212695,1149.143247
59486.813089,2294.638420,-8882.471304,-76.609550
59486.813399,2368.659014,-7179.997637,1532.190996
59486.813709,4663.297435,-6513.812290,-76.609550
59486.814018,2664.741391,-3330.926739,2451.505594
59486.814328,7846.182985,-4811.338623,4290.134789
59486.814638,9844.739029,-5033.400406,3217.601092
59486.814947,9178.553681,-8216.285956,4443.353888
59486.815257,6957.935855,-11917.315666,1378.971896
59486.815567,814.226536,-13471.748144,-2221.676944
59486.815876,-2368.659014,-17838.963202,-2451.505594
59486.816186,-3552.988522,-19023.292709,-2451.505594
59486.816496,-3034.844362,-14211.954086,-3753.867940
59486.816805,-5921.647536,-10732.986159,0.000000
59486.817115,-962.267725,-7402.059420,-1608.800546
59486.817425,1702.473667,-5181.441594,1762.019645
59486.817734,3849.070898,-4219.173869,4596.572988
59486.818044,4959.379811,-3701.029710,5132.839837
59486.818354,2960.823768,-3552.988522,5362.668486
59486.818663,3108.864956,-3923.091493,5669.106685
59486.818973,4071.132681,-2664.741391,2681.334243
59486.819282,2516.700203,-1850.514855,766.095498
59486.819592,2368.659014,-6883.915261,1225.752797
59486.819902,-74.020594,-13027.624579,-2528.115143
59486.820211,-4367.215058,-17468.860231,-2834.553343
59486.820521,-5477.523971,-21465.972318,-3064.381992
59486.820831,-6143.709319,-17468.860231,-4519.963438
59486.821140,-3775.050304,-9918.759623,-4366.744339
59486.821450,-1258.350101,-5181.441594,-612.876398
59486.821760,740.205942,-74.020594,0.000000
59486.822069,5033.400406,-3034.844362,5056.230287
59486.822379,7624.121203,-4737.318029,6971.469032
59486.822689,6291.750507,-3256.906145,4826.401637
59486.822998,8290.306550,-3627.009116,7354.516781
59486.823308,8586.388927,-3627.009116,6894.859482
59486.823618,4145.153275,-4811.338623,1915.238745
59486.823927,0.000000,-10288.862594,-842.705048
59486.824237,-2442.679609,-15174.221811,-3370.820191
59486.824547,-2590.720797,-16432.571912,-4903.011187
59486.824856,-1850.514855,-16580.613101,-3753.867940
59486.825166,-5107.421000,-14434.015869,-5439.278036
59486.825476,-4515.256246,-10140.821405,-4366.744339
59486.825785,2960.823768,-9622.677246,2145.067394
59486.826095,7624.121203,-1480.411884,2987.772442
59486.826405,12879.583391,3552.988522,4826.401637
59486.826714,16062.468941,0.000000,8963.317327
59486.827024,12509.480420,-2738.761985,6894.859482
59486.827334,8364.327145,-3034.844362,2911.162892
59486.827643,5181.441594,-8734.430116,2374.896044
59486.827953,1184.329507,-9548.656652,-2451.505594
59486.828263,-1776.494261,-14434.015869,-4519.963438
59486.828572,-3478.967927,-15766.386565,-2528.115143
59486.828882,3478.967927,-13027.624579,-4979.620737
59486.829192,592.164754,-10140.821405,-2451.505594
59486.829501,4737.318029,-4811.338623,612.876398
59486.829811,2072.576638,-6439.791695,-995.924147
59486.830121,6439.791695,-4811.338623,1378.971896
59486.830430,9030.512492,-3775.050304,4519.963438
59486.830740,8586.388927,-1110.308913,4596.572988
59486.831050,7031.956449,-3552.988522,2374.896044
59486.831359,4515.256246,-4885.359217,459.657299
59486.831669,6217.729913,-6143.709319,1225.752797
59486.831979,8216.285956,-11843.295072,3600.648841
59486.832288,-1702.473667,-9548.656652,-3294.210641
59486.832598,-2442.679609,-12435.459826,-4826.401637
59486.832908,-2368.659014,-11251.130318,-4290.134789
59486.833217,-1480.411884,-10214.842000,-2298.286494
59486.833527,740.205942,-5699.585753,-842.705048
59486.833837,5255.462188,-4219.173869,2451.505594
59486.834146,8734.430116,-74.020594,2604.724693
59486.834456,8216.285956,-4737.318029,3753.867940
59486.834765,3256.906145,-4959.379811,2757.943793
59486.835075,1850.514855,-6217.729913,1149.143247
59486.835385,3034.844362,-5921.647536,919.314598
59486.835694,3182.885551,-8290.306550,-76.609550
59486.836004,1036.288319,-8512.368333,-1455.581446
59486.836314,0.000000,-11029.068536,0.000000
59486.836623,-74.020594,-13027.624579,-1915.238745
59486.836933,-4737.318029,-12805.562797,-3677.258390
59486.837243,-4441.235652,-10732.986159,-1838.629195
59486.837552,962.267725,-9474.636058,536.266849
59486.837862,4071.132681,-8142.265362,2145.067394
59486.838172,7105.977043,-4885.359217,3677.258390
59486.838481,7105.977043,-5255.462188,5362.668486
59486.838791,7920.203579,-5921.647536,4213.525239
59486.839101,4663.297435,-8290.306550,2374.896044
59486.839410,0.000000,-5403.503377,0.000000
59486.839720,2590.720797,-10658.965565,1302.362347
59486.840030,0.000000,-9918.759623,0.000000
59486.840339,-3627.009116,-9548.656652,-3064.381992
59486.840649,-2664.741391,-11843.295072,-2451.505594
59486.840959,-1406.391290,-11251.130318,-2068.457845
59486.841268,2146.597232,-11843.295072,612.876398
59486.841578,4219.173869,-10066.800811,2681.334243
59486.841888,6735.874072,-11843.295072,4060.306139
59486.842197,5847.626942,-11843.295072,5898.935335
59486.842507,2664.741391,-6883.915261,1532.190996
59486.842817,4663.297435,-11769.274478,2987.772442
59486.843126,2368.659014,-7402.059420,-536.266849
59486.843436,1998.556043,-9178.553681,-1225.752797
59486.843746,1628.453072,-10732.986159,229.828649
59486.844055,-1184.329507,-10807.006753,-842.705048
59486.844365,-1628.453072,-10362.883188,-995.924147
59486.844675,518.144159,-9326.594869,-76.609550
59486.844984,4811.338623,-7846.182985,2374.896044
59486.845294,5847.626942,-11843.295072,4826.401637
59486.845603,3034.844362,-5403.503377,306.438199
59486.845913,5329.482782,-11029.068536,2528.115143
59486.846223,5847.626942,-11843.295072,2681.334243
59486.846532,5847.626942,-9474.636058,229.828649
59486.846842,1850.514855,-12287.418637,919.314598
59486.847152,-1110.308913,-11621.233289,-76.609550
59486.847461,-740.205942,-12139.377449,-2604.724693
59486.847771,-1184.329507,-9992.780217,-76.609550
59486.848081,-2368.659014,-7772.162391,612.876398
59486.848390,-74.020594,-10658.965565,2987.772442
59486.848700,-370.102971,-4737.318029,76.609550
59486.849010,1184.329507,-5995.668130,2451.505594
59486.849319,4663.297435,-7105.977043,3600.648841
59486.849629,2738.761985,-4737.318029,1762.019645
59486.849938,592.164754,-5551.544565,1608.800546
59486.850248,-666.185348,-7328.038826,153.219100
59486.850558,-3478.967927,-8438.347739,-919.314598
59486.850867,-3627.009116,-11177.109724,-1225.752797
59486.851177,-5625.565159,-9548.656652,-1838.629195
59486.851487,-4737.318029,-13693.809927,-1225.752797
59486.851796,-4811.338623,-11843.295072,-1915.238745
59486.852106,-7698.141797,-10732.986159,0.000000
59486.852416,888.247130,-8216.285956,3524.039291
59486.852725,2220.617826,-5625.565159,4826.401637
59486.853035,0.000000,-3923.091493,3064.381992
59486.853345,-2368.659014,-6143.709319,2451.505594
59486.853654,-2294.638420,-5625.565159,2145.067394
59486.853964,-444.123565,-6587.832884,1225.752797
59486.854273,-2368.659014,-5995.668130,2451.505594
59486.854583,-1184.329507,-6587.832884,1838.629195
59486.854893,-1258.350101,-11843.295072,1762.019645
59486.855202,-4737.318029,-8364.327145,-1838.629195
59486.855512,-4219.173869,-14137.933492,-306.438199
59486.855822,-2960.823768,-11843.295072,-76.609550
59486.856131,-3404.947333,-11843.295072,-306.438199
59486.856441,-3256.906145,-10436.903782,0.000000
59486.856751,-4959.379811,-9918.759623,-229.828649
59486.857060,-1332.370696,-9178.553681,0.000000
59486.857370,0.000000,-3923.091493,2757.943793
59486.857680,0.000000,-1258.350101,2451.505594
59486.857989,4663.297435,-7105.977043,4826.401637
59486.858299,1628.453072,-5699.585753,3217.601092
59486.858608,3849.070898,-8956.491898,4213.525239
59486.858918,1776.494261,-11029.068536,3753.867940
59486.859228,-1554.432478,-10510.924376,-1302.362347
59486.859537,-4071.132681,-12361.439231,-3064.381992
59486.859847,-5625.565159,-12213.398043,-3677.258390
59486.860157,-4367.215058,-12509.480420,-3983.696590
59486.860466,-1850.514855,-11843.295072,-1302.362347
59486.860776,-2368.659014,-7772.162391,0.000000
59486.861086,2516.700203,-11917.315666,3064.381992
59486.861395,3478.967927,-8734.430116,3600.648841
59486.861705,4737.318029,-5995.668130,4903.011187
59486.862015,6217.729913,-6883.915261,5515.887586
59486.862324,4663.297435,-6661.853478,2987.772442
59486.862634,1110.308913,-9474.636058,0.000000
59486.862943,-1406.391290,-10732.986159,-1149.143247
59486.863253,-1258.350101,-10140.821405,-3140.991542
59486.863563,-74.020594,-11843.295072,-3140.991542
59486.863872,-2442.679609,-8660.409521,-4060.306139
59486.864182,0.000000,-9548.656652,-1838.629195
59486.864492,1998.556043,-11103.089130,3600.648841
59486.864801,3923.091493,-7105.977043,3294.210641
59486.865111,4737.318029,-7476.080014,3983.696590
59486.865421,4959.379811,-5921.647536,3294.210641
59486.865730,2442.679609,-7105.977043,1455.581446
59486.866040,-370.102971,-7624.121203,766.095498
59486.866350,-518.144159,-7994.224174,-76.609550
59486.866659,1998.556043,-9474.636058,-76.609550
59486.866969,-1258.350101,-7402.059420,-2374.896044
59486.867278,-1184.329507,-11325.150913,-612.876398
59486.867588,-2442.679609,-14211.954086,-1302.362347
59486.867898,-2368.659014,-11473.192101,0.000000
59486.868207,592.164754,-10140.821405,612.876398
59486.868517,222.061783,-9474.636058,1608.800546
59486.868827,-518.144159,-9696.697840,1378.971896
59486.869136,-1332.370696,-8068.244768,1149.143247
59486.869446,-1702.473667,-8882.471304,2374.896044
59486.869756,2294.638420,-8290.306550,2374.896044
59486.870065,-74.020594,-5773.606348,1762.019645
59486.870375,0.000000,-5995.668130,2451.505594
59486.870685,-74.020594,-9474.636058,2987.772442
59486.870994,-2368.659014,-8660.409521,612.876398
59486.871304,-2368.659014,-7772.162391,0.000000
59486.871614,-2516.700203,-11103.089130,919.314598
59486.871923,-3330.926739,-10362.883188,-1072.533697
59486.872233,-5477.523971,-11843.295072,-842.705048
59486.872542,-3923.091493,-11695.253884,-76.609550
59486.872852,-666.185348,-11547.212695,2374.896044
59486.873162,-74.020594,-9474.636058,2374.896044
59486.873471,-2368.659014,-5403.503377,0.000000
59486.873781,888.247130,-7624.121203,4826.401637
59486.874091,1110.308913,-7179.997637,2451.505594
59486.874400,1998.556043,-6365.771101,2221.676944
59486.874710,1258.350101,-7550.100608,2834.553343
59486.875020,-1332.370696,-9992.780217,1149.143247
59486.875329,-4441.235652,-10881.027347,-995.924147
59486.875639,-4219.173869,-13619.789333,-76.609550
59486.875949,-2368.659014,-12805.562797,-1608.800546
59486.876258,-74.020594,-11843.295072,-76.609550
59486.876568,-2516.700203,-9252.574275,-536.266849
59486.876877,-1184.329507,-8364.327145,1225.752797
59486.877187,1702.473667,-8068.244768,766.095498
59486.877497,2294.638420,-6513.812290,2068.457845
59486.877806,2516.700203,-5995.668130,2757.943793
59486.878116,2812.782580,-6439.791695,2451.505594
59486.878426,-444.123565,-8364.327145,995.924147
59486.878735,-1776.494261,-9548.656652,-612.876398
59486.879045,-1776.494261,-10807.006753,-1685.410096
59486.879355,888.247130,-11843.295072,-76.609550
59486.879664,-74.020594,-10362.883188,-1302.362347
59486.879974,-1184.329507,-9548.656652,0.000000
59486.880284,2368.659014,-8660.409521,612.876398
59486.880593,5847.626942,-9178.553681,3447.429741
59486.880903,5329.482782,-6735.874072,3677.258390
59486.881212,3552.988522,-7550.100608,2604.724693
59486.881522,666.185348,-8438.347739,383.047749
59486.881832,-2368.659014,-8956.491898,0.000000
59486.882141,-2368.659014,-9548.656652,-2221.676944
59486.882451,-1628.453072,-10140.821405,0.000000
59486.882761,-74.020594,-9474.636058,-689.485948
59486.883070,-1480.411884,-9548.656652,0.000000
59486.883380,-1184.329507,-9696.697840,-76.609550
59486.883690,4663.297435,-11843.295072,2987.772442
59486.883999,6513.812290,-6587.832884,3907.087040
59486.884309,4589.276840,-8660.409521,4136.915689
59486.884619,2072.576638,-7920.203579,1378.971896
59486.884928,-4737.318029,-9548.656652,0.000000
59486.885238,0.000000,-7772.162391,-3064.381992
59486.885547,-592.164754,-11621.233289,1532.190996
59486.885857,-666.185348,-8586.388927,-1302.362347
59486.886167,-2368.659014,-10288.862594,153.219100
59486.886476,-666.185348,-8882.471304,-76.609550
59486.886786,3478.967927,-11251.130318,3447.429741
59486.887096,2146.597232,-6661.853478,3140.991542
59486.887405,444.123565,-8068.244768,2451.505594
59486.887715,0.000000,-9400.615463,1455.581446
59486.888025,-4737.318029,-7772.162391,0.000000
59486.888334,-4589.276840,-11177.109724,536.266849
59486.888644,-4737.318029,-7179.997637,0.000000
59486.888954,-666.185348,-9178.553681,-76.609550
59486.889263,-2368.659014,-7772.162391,0.000000
59486.889573,-1258.350101,-9474.636058,2987.772442
59486.889882,888.247130,-10066.800811,3370.820191
59486.890192,2590.720797,-8216.285956,3294.210641
59486.890502,1998.556043,-8290.306550,3217.601092
59486.890811,0.000000,-9548.656652,2145.067394
59486.891121,-4885.359217,-7179.997637,-995.924147
59486.891431,-3552.988522,-10584.944971,-1072.533697
59486.891740,-3701.029710,-8512.368333,-1762.019645
59486.892050,-3849.070898,-10436.903782,306.438199
59486.892360,-3034.844362,-9178.553681,-1302.362347
59486.892669,-3256.906145,-9474.636058,2374.896044
59486.892979,0.000000,-7772.162391,3064.381992
59486.893289,3256.906145,-7031.956449,4213.525239
59486.893598,2664.741391,-5995.668130,3677.258390
59486.893908,1554.432478,-7254.018232,1838.629195
59486.894217,-3330.926739,-9474.636058,-76.609550
59486.894527,-3627.009116,-12435.459826,-2528.115143
59486.894837,-5921.647536,-10288.862594,-3677.258390
59486.895146,-2960.823768,-10732.986159,-459.657299
59486.895456,-1554.432478,-10066.800811,-2528.115143
59486.895766,-666.185348,-10214.842000,2834.553343
59486.896075,1184.329507,-7179.997637,2757.943793
59486.896385,5477.523971,-6587.832884,4519.963438
59486.896695,5403.503377,-5255.462188,4519.963438
59486.897004,4071.132681,-7105.977043,3294.210641
59486.897314,-74.020594,-9474.636058,1149.143247
59486.897624,-1258.350101,-10436.903782,-1225.752797
59486.897933,-3330.926739,-9770.718434,-3600.648841
59486.898243,-3552.988522,-10732.986159,-1838.629195
59486.898552,-1850.514855,-11843.295072,-1302.362347
59486.898862,-2368.659014,-10732.986159,306.438199
59486.899172,0.000000,-8660.409521,612.876398
59486.899481,5847.626942,-8586.388927,4213.525239
59486.899791,6439.791695,-7105.977043,4903.011187
59486.900101,4811.338623,-7846.182985,3677.258390
59486.900410,2886.803174,-9474.636058,1762.019645
59486.900720,-74.020594,-8956.491898,153.219100
59486.901030,-74.020594,-11843.295072,-76.609550
59486.901339,-2368.659014,-7772.162391,-1838.629195
59486.901649,-74.020594,-13027.624579,2068.457845
59486.901959,-2368.659014,-8660.409521,0.000000
59486.902268,-1776.494261,-7476.080014,0.000000
59486.902578,2368.659014,-8586.388927,2145.067394
59486.902887,2664.741391,-7920.203579,2681.334243
59486.903197,1184.329507,-9252.574275,1685.410096
59486.903507,-74.020594,-11251.130318,842.705048
59486.903816,-3552.988522,-9548.656652,-1532.190996
59486.904126,-74.020594,-11843.295072,-76.609550
59486.904436,-2072.576638,-6587.832884,0.000000
59486.904745,-370.102971,-11251.130318,-76.609550
59486.905055,-4737.318029,-5995.668130,0.000000
59486.905365,-2738.761985,-7328.038826,153.219100
59486.905674,3330.926739,-8068.244768,3677.258390
59486.905984,4367.215058,-7254.018232,4519.963438
59486.906294,2516.700203,-7772.162391,3064.381992
59486.906603,-74.020594,-10584.944971,1225.752797
59486.906913,-4737.318029,-9548.656652,0.000000
59486.907223,-3034.844362,-12731.542202,-1915.238745
59486.907532,-6513.812290,-10140.821405,-2451.505594
59486.907842,-2442.679609,-13915.871710,-76.609550
59486.908151,-5921.647536,-8364.327145,-2451.505594
59486.908461,-2442.679609,-8290.306550,995.924147
59486.908771,1184.329507,-7328.038826,3140.991542
59486.909080,4293.194464,-5107.421000,4903.011187
59486.909390,3330.926739,-5921.647536,4366.744339
59486.909700,592.164754,-7179.997637,2451.505594
59486.910009,-2442.679609,-9474.636058,153.219100
59486.910319,-74.020594,-12657.521608,1149.143247
59486.910629,-3034.844362,-9770.718434,-1915.238745
59486.910938,-4737.318029,-10732.986159,0.000000
59486.911248,-5403.503377,-10214.842000,-2834.553343
59486.911558,-1850.514855,-10658.965565,-76.609550
59486.911867,1480.411884,-8512.368333,2068.457845
59486.912177,3034.844362,-7402.059420,4519.963438
59486.912486,3478.967927,-5773.606348,3447.429741
59486.912796,1184.329507,-5995.668130,1838.629195
59486.913106,-2368.659014,-5995.668130,0.000000
59486.913415,-1184.329507,-9844.739029,612.876398
59486.913725,-1850.514855,-10362.883188,-689.485948
59486.914035,-2368.659014,-10140.821405,0.000000
59486.914344,-1258.350101,-10658.965565,-1915.238745
59486.914654,-74.020594,-10510.924376,-76.609550
59486.914964,2442.679609,-9326.594869,2528.115143
59486.915273,5033.400406,-7772.162391,3907.087040
59486.915583,4737.318029,-7254.018232,3677.258390
59486.915893,740.205942,-8364.327145,612.876398
59486.916202,-962.267725,-7550.100608,-919.314598
59486.916512,-1184.329507,-10140.821405,306.438199
59486.916821,-74.020594,-11251.130318,-76.609550
59486.917131,-4737.318029,-5995.668130,-2451.505594
59486.917441,-74.020594,-9474.636058,-689.485948
59486.917750,-1036.288319,-9474.636058,536.266849
59486.918060,518.144159,-9104.533087,842.705048
59486.918370,3034.844362,-8586.388927,2834.553343
59486.918679,4071.132681,-7105.977043,2987.772442
59486.918989,1480.411884,-6883.915261,1762.019645
59486.919299,370.102971,-7994.224174,-76.609550
59486.919608,0.000000,-9548.656652,0.000000
59486.919918,-74.020594,-12435.459826,-76.609550
59486.920228,-4737.318029,-7179.997637,0.000000
59486.920537,-3627.009116,-14211.954086,-383.047749
59486.920847,-2368.659014,-11769.274478,459.657299
59486.921156,2072.576638,-7920.203579,2757.943793
59486.921466,3552.988522,-7254.018232,4596.572988
59486.921776,3997.112087,-4367.215058,3447.429741
59486.922085,1702.473667,-7105.977043,2987.772442
59486.922395,1332.370696,-7402.059420,1225.752797
59486.922705,-3997.112087,-9548.656652,0.000000
59486.923014,-2590.720797,-11695.253884,-76.609550
59486.923324,-8290.306550,-8364.327145,-4903.011187
59486.923634,-3627.009116,-13619.789333,-689.485948
59486.923943,-4737.318029,-11769.274478,-1225.752797
59486.924253,-2146.597232,-9474.636058,1149.143247
59486.924563,1184.329507,-7994.224174,2374.896044
59486.924872,2590.720797,-6809.894666,3907.087040
59486.925182,4367.215058,-6809.894666,3677.258390
59486.925491,888.247130,-8438.347739,3983.696590
59486.925801,-74.020594,-7254.018232,459.657299
59486.926111,-888.247130,-9548.656652,1225.752797
59486.926420,-74.020594,-9474.636058,-689.485948
59486.926730,-2368.659014,-11621.233289,306.438199
59486.927040,-4737.318029,-9548.656652,0.000000
59486.927349,-1628.453072,-10140.821405,919.314598
59486.927659,1406.391290,-8882.471304,1762.019645
59486.927969,1554.432478,-7846.182985,3217.601092
59486.928278,2294.638420,-9474.636058,2757.943793
59486.928588,1406.391290,-9474.636058,2681.334243
59486.928898,-74.020594,-9178.553681,-76.609550
59486.929207,0.000000,-9548.656652,0.000000
59486.929517,-74.020594,-11843.295072,-76.609550
59486.929826,-3552.988522,-9622.677246,-612.876398
59486.930136,-5625.565159,-9548.656652,-1838.629195
59486.930446,-1332.370696,-8512.368333,306.438199
59486.930755,2368.659014,-8364.327145,2757.943793
59486.931065,4589.276840,-7179.997637,4366.744339
59486.931375,4663.297435,-9178.553681,4136.915689
59486.931684,4071.132681,-10658.965565,4213.525239
59486.931994,-74.020594,-8290.306550,-229.828649
59486.932304,0.000000,-9548.656652,0.000000
59486.932613,-74.020594,-11251.130318,-689.485948
59486.932923,-4737.318029,-9548.656652,-2451.505594
59486.933233,-4737.318029,-9696.697840,-2451.505594
59486.933542,-1776.494261,-9992.780217,76.609550
59486.933852,2590.720797,-8734.430116,2221.676944
59486.934161,3775.050304,-7105.977043,3294.210641
59486.934471,4219.173869,-7328.038826,3064.381992
59486.934781,2368.659014,-8512.368333,3677.258390
59486.935090,2294.638420,-9474.636058,1762.019645
59486.935400,0.000000,-8660.409521,0.000000
59486.935710,-74.020594,-13027.624579,-76.609550
59486.936019,-4737.318029,-9548.656652,-3677.258390
59486.936329,-4515.256246,-10955.047942,-3140.991542
59486.936639,-3701.029710,-10288.862594,-919.314598
59486.936948,0.000000,-9992.780217,1378.971896
59486.937258,1998.556043,-7920.203579,2681.334243
59486.937568,4145.153275,-6143.709319,3677.258390
59486.937877,2368.659014,-6587.832884,3677.258390
59486.938187,2886.803174,-8882.471304,2987.772442
59486.938496,-962.267725,-8364.327145,-2451.505594
59486.938806,-888.247130,-9992.780217,919.314598
59486.939116,-5551.544565,-8660.409521,-3677.258390
59486.939425,-4811.338623,-11251.130318,-3140.991542
59486.939735,-4737.318029,-11029.068536,-1225.752797
59486.940045,-1406.391290,-9992.780217,536.266849
59486.940354,296.082377,-9178.553681,2221.676944
59486.940664,0.000000,-7179.997637,3064.381992
59486.940974,0.000000,-5995.668130,2451.505594
59486.941283,1184.329507,-8068.244768,3983.696590
59486.941593,2294.638420,-9474.636058,2374.896044
59486.941903,0.000000,-6587.832884,612.876398
59486.942212,-2072.576638,-7402.059420,-1838.629195
59486.942522,-2442.679609,-10362.883188,-383.047749
59486.942832,-4145.153275,-9474.636058,-536.266849
59486.943141,-888.247130,-9696.697840,536.266849
59486.943451,1110.308913,-8364.327145,2068.457845
59486.943760,0.000000,-7476.080014,2451.505594
59486.944070,0.000000,-7328.038826,383.047749
59486.944380,-1184.329507,-9030.512492,1838.629195
59486.944689,-74.020594,-11547.212695,-76.609550
59486.944999,0.000000,-8364.327145,306.438199
59486.945309,-1258.350101,-9326.594869,-689.485948
59486.945618,-1850.514855,-10658.965565,-153.219100
59486.945928,-3849.070898,-8956.491898,-383.047749
59486.946237,-592.164754,-9548.656652,766.095498
59486.946547,1850.514855,-7698.141797,2221.676944
59486.946857,962.267725,-7105.977043,3294.210641
59486.947166,518.144159,-5403.503377,383.047749
59486.947476,296.082377,-8364.327145,2757.943793
59486.947785,2294.638420,-9474.636058,-76.609550
59486.948095,0.000000,-9548.656652,0.000000
59486.948405,-74.020594,-11251.130318,-1302.362347
59486.948714,-1850.514855,-12139.377449,-1302.362347
59486.949024,-3997.112087,-10066.800811,-1608.800546
59486.949334,-1480.411884,-10362.883188,0.000000
59486.949643,666.185348,-9178.553681,1608.800546
59486.949953,2294.638420,-6809.894666,3600.648841
59486.950262,2590.720797,-7698.141797,3140.991542
59486.950572,0.000000,-5995.668130,1225.752797
59486.950882,2294.638420,-11695.253884,4826.401637
59486.951191,666.185348,-6735.874072,0.000000
59486.951501,-74.020594,-10658.965565,-76.609550
59486.951810,-2812.782580,-11621.233289,-1378.971896
59486.952120,-3627.009116,-11103.089130,-1838.629195
59486.952430,-1332.370696,-11029.068536,-612.876398
59486.952739,1480.411884,-9252.574275,1149.143247
59486.953049,2294.638420,-7994.224174,3064.381992
59486.953358,2294.638420,-8882.471304,1762.019645
59486.953668,-814.226536,-8142.265362,919.314598
59486.953978,592.164754,-10140.821405,3677.258390
59486.954287,2294.638420,-9474.636058,1455.581446
59486.954597,962.267725,-9474.636058,2374.896044
59486.954906,-3404.947333,-8956.491898,0.000000
59486.955216,-4737.318029,-10288.862594,-1302.362347
59486.955526,-4145.153275,-10510.924376,-1302.362347
59486.955835,-814.226536,-9918.759623,919.314598
59486.956145,962.267725,-8438.347739,2145.067394
59486.956454,2294.638420,-9474.636058,2374.896044
59486.956764,222.061783,-7550.100608,842.705048
59486.957074,0.000000,-7179.997637,1225.752797
59486.957383,3478.967927,-10658.965565,2374.896044
59486.957693,666.185348,-9474.636058,3370.820191
59486.958003,-2960.823768,-8734.430116,-1225.752797
59486.958312,-4367.215058,-10214.842000,-612.876398
59486.958622,-3330.926739,-10066.800811,229.828649
59486.958931,1184.329507,-8734.430116,2451.505594
59486.959241,3256.906145,-7105.977043,3064.381992
59486.959551,2072.576638,-6439.791695,2604.724693
59486.959860,-740.205942,-6957.935855,842.705048
59486.960170,-2368.659014,-7476.080014,1225.752797
59486.960479,2294.638420,-11547.212695,-76.609550
59486.960789,0.000000,-8956.491898,1685.410096
59486.961099,-2220.617826,-9548.656652,-1225.752797
59486.961408,-3404.947333,-10510.924376,-1608.800546
59486.961718,-3108.864956,-10584.944971,-919.314598
59486.962027,-296.082377,-10214.842000,536.266849
59486.962337,740.205942,-8956.491898,612.876398
59486.962647,444.123565,-7402.059420,1532.190996
59486.962956,-74.020594,-11843.295072,3600.648841
59486.963266,0.000000,-4811.338623,306.438199
59486.963575,3849.070898,-10140.821405,5209.449386
59486.963885,2368.659014,-5107.421000,3064.381992
59486.964195,-1776.494261,-7772.162391,0.000000
59486.964504,-2442.679609,-8660.409521,-842.705048
59486.964814,-3701.029710,-10066.800811,-1072.533697
59486.965124,-2368.659014,-10807.006753,-229.828649
59486.965433,-518.144159,-8438.347739,-919.314598
59486.965743,888.247130,-10584.944971,2298.286494
59486.966052,518.144159,-7994.224174,-383.047749
59486.966362,-4737.318029,-5995.668130,0.000000
59486.966672,2294.638420,-9474.636058,1762.019645
59486.966981,0.000000,-7179.997637,1225.752797
59486.967291,1406.391290,-7698.141797,842.705048
59486.967600,-296.082377,-10955.047942,459.657299
59486.967910,-1480.411884,-9474.636058,153.219100
59486.968220,370.102971,-9770.718434,229.828649
59486.968529,1480.411884,-7476.080014,1762.019645
59486.968839,0.000000,-8364.327145,2451.505594
59486.969148,-74.020594,-9474.636058,2374.896044
59486.969458,-3552.988522,-7179.997637,0.000000
59486.969768,1776.494261,-10881.027347,2451.505594
59486.970077,0.000000,-6291.750507,153.219100
59486.970387,-370.102971,-7698.141797,-76.609550
59486.970696,-3256.906145,-8808.450710,-1378.971896
59486.971006,-4959.379811,-9474.636058,-1991.848295
59486.971316,-3034.844362,-10658.965565,-1149.143247
59486.971625,-444.123565,-9474.636058,1149.143247
59486.971935,0.000000,-8364.327145,612.876398
59486.972244,962.267725,-10214.842000,2374.896044
59486.972554,-4145.153275,-5403.503377,0.000000
59486.972864,3182.885551,-10584.944971,2987.772442
59486.973173,1702.473667,-6217.729913,766.095498
59486.973483,2294.638420,-9104.533087,2374.896044
59486.973793,-1258.350101,-9992.780217,-383.047749
59486.974102,-3552.988522,-9918.759623,-689.485948
59486.974412,-1850.514855,-10584.944971,-153.219100
59486.974721,-370.102971,-9474.636058,2374.896044
59486.975031,370.102971,-8364.327145,1762.019645
59486.975341,-1184.329507,-8364.327145,1838.629195
59486.975650,-74.020594,-9474.636058,2374.896044
59486.975960,-2368.659014,-6587.832884,0.000000
59486.976269,2294.638420,-7105.977043,1149.143247
59486.976579,1628.453072,-8586.388927,1762.019645
59486.976889,-370.102971,-9844.739029,229.828649
59486.977198,-2960.823768,-9844.739029,-153.219100
59486.977508,-1850.514855,-10214.842000,-995.924147
59486.977817,1110.308913,-11399.171507,1762.019645
59486.978127,1406.391290,-9474.636058,1685.410096
59486.978437,0.000000,-9548.656652,0.000000
59486.978746,-74.020594,-11843.295072,3600.648841
59486.979056,222.061783,-7698.141797,229.828649
59486.979365,4663.297435,-7994.224174,3524.039291
59486.979675,2072.576638,-7328.038826,2451.505594
59486.979985,0.000000,-9696.697840,766.095498
59486.980294,-3849.070898,-8956.491898,-383.047749
59486.980604,-4145.153275,-11325.150913,-766.095498
59486.980914,2442.679609,-10436.903782,1685.410096
59486.981223,1184.329507,-8956.491898,2068.457845
59486.981533,0.000000,-7179.997637,-1838.629195
59486.981842,-3552.988522,-8956.491898,612.876398
59486.982152,-74.020594,-9474.636058,-76.609550
59486.982462,4367.215058,-9474.636058,2068.457845
59486.982771,0.000000,-7772.162391,612.876398
59486.983081,-444.123565,-9770.718434,-459.657299
59486.983390,-1628.453072,-9622.677246,-153.219100
59486.983700,-222.061783,-9622.677246,536.266849
59486.984010,3256.906145,-9548.656652,3370.820191
59486.984319,1258.350101,-6883.915261,2374.896044
59486.984629,370.102971,-7179.997637,0.000000
59486.984938,-1776.494261,-8364.327145,1838.629195
59486.985248,-74.020594,-11251.130318,1762.019645
59486.985558,2294.638420,-10658.965565,2987.772442
59486.985867,592.164754,-7179.997637,689.485948
59486.986177,-518.144159,-9844.739029,-536.266849
59486.986486,-3849.070898,-9696.697840,-1838.629195
59486.986796,-4737.318029,-10955.047942,-919.314598
59486.987106,-1184.329507,-9548.656652,0.000000
59486.987415,222.061783,-9400.615463,1149.143247
59486.987725,-666.185348,-9178.553681,-689.485948
59486.988034,-3552.988522,-7772.162391,0.000000
59486.988344,-222.061783,-9474.636058,1762.019645
59486.988654,2368.659014,-8290.306550,3677.258390
59486.988963,1554.432478,-6883.915261,2374.896044
59486.989273,888.247130,-7846.182985,1378.971896
59486.989583,-1850.514855,-9696.697840,612.876398
59486.989892,-2146.597232,-9992.780217,-383.047749
59486.990202,0.000000,-9548.656652,0.000000
59486.990511,-74.020594,-10214.842000,2068.457845
59486.990821,-74.020594,-9474.636058,-76.609550
59486.991131,-4737.318029,-7179.997637,0.000000
59486.991440,-222.061783,-10658.965565,1302.362347
59486.991750,888.247130,-10140.821405,2451.505594
59486.992059,2146.597232,-7698.141797,2221.676944
59486.992369,1628.453072,-8364.327145,1838.629195
59486.992679,296.082377,-8216.285956,1149.143247
59486.992988,-1036.288319,-8290.306550,766.095498
59486.993298,0.000000,-8364.327145,0.000000
59486.993607,1480.411884,-9548.656652,2834.553343
59486.993917,1110.308913,-9474.636058,-76.609550
59486.994227,0.000000,-9548.656652,0.000000
59486.994536,-74.020594,-9474.636058,1149.143247
59486.994846,0.000000,-8364.327145,1532.190996
59486.995155,1554.432478,-8734.430116,2221.676944
59486.995465,-74.020594,-9400.615463,0.000000
59486.995775,-1702.473667,-9844.739029,-459.657299
59486.996084,-1702.473667,-8956.491898,306.438199
59486.996394,444.123565,-7254.018232,-1225.752797
59486.996704,592.164754,-7179.997637,1225.752797
59486.997013,1110.308913,-11843.295072,3600.648841
59486.997323,-4145.153275,-7476.080014,-2298.286494
59486.997632,-1776.494261,-10807.006753,1072.533697
59486.997942,-1184.329507,-8956.491898,459.657299
59486.998252,1924.535449,-8438.347739,1685.410096
59486.998561,814.226536,-8512.368333,766.095498
59486.998871,592.164754,-8808.450710,536.266849
59486.999180,-592.164754,-8808.450710,995.924147
59486.999490,814.226536,-9474.636058,-76.609550
59486.999800,74.020594,-9400.615463,1378.971896
59487.000109,-74.020594,-11103.089130,3217.601092
59487.000419,-2442.679609,-8290.306550,-1302.362347
59487.000728,-3552.988522,-9548.656652,612.876398
59487.001038,-1776.494261,-7476.080014,229.828649
59487.001348,1258.350101,-7994.224174,1608.800546
59487.001657,592.164754,-7402.059420,842.705048
59487.001967,-370.102971,-8734.430116,842.705048
59487.002276,-1406.391290,-8142.265362,536.266849
59487.002586,1110.308913,-10658.965565,-76.609550
59487.002896,-1110.308913,-8512.368333,153.219100
59487.003205,-888.247130,-11843.295072,2145.067394
59487.003515,-4219.173869,-9474.636058,-2528.115143
59487.003824,-4737.318029,-9844.739029,0.000000
59487.004134,-2146.597232,-8882.471304,-1225.752797
59487.004444,1036.288319,-8956.491898,1838.629195
59487.004753,814.226536,-7994.224174,2374.896044
59487.005063,666.185348,-7698.141797,1915.238745
59487.005373,-296.082377,-7994.224174,2298.286494
59487.005682,2294.638420,-9474.636058,2374.896044
59487.005992,1110.308913,-8142.265362,1762.019645
59487.006301,-2368.659014,-5995.668130,0.000000
59487.006611,-74.020594,-11843.295072,-76.609550
59487.006921,-4367.215058,-8956.491898,-1991.848295
59487.007230,-2590.720797,-10066.800811,-2451.505594
59487.007540,-888.247130,-9696.697840,383.047749
59487.007849,-962.267725,-9104.533087,306.438199
59487.008159,-592.164754,-9622.677246,383.047749
59487.008469,-814.226536,-9104.533087,1762.019645
59487.008778,2590.720797,-9474.636058,3294.210641
59487.009088,2886.803174,-8290.306550,2681.334243
59487.009397,0.000000,-5403.503377,2451.505594
59487.009707,2294.638420,-7698.141797,1149.143247
59487.010017,-2072.576638,-7476.080014,612.876398
59487.010326,-74.020594,-9474.636058,76.609550
59487.010636,0.000000,-9844.739029,612.876398
59487.010945,148.041188,-9548.656652,612.876398
59487.011255,-148.041188,-9474.636058,153.219100
59487.011565,-666.185348,-10362.883188,2374.896044
59487.011874,3108.864956,-11251.130318,2604.724693
59487.012184,3478.967927,-10955.047942,2374.896044
59487.012494,-2072.576638,-5403.503377,0.000000
59487.012803,-1184.329507,-10436.903782,1532.190996
59487.013113,-1258.350101,-9474.636058,-76.609550
59487.013422,-666.185348,-9474.636058,-76.609550
59487.013732,-888.247130,-8364.327145,459.657299
59487.014042,592.164754,-7105.977043,1072.533697
59487.014351,1332.370696,-8216.285956,1608.800546
59487.014661,888.247130,-8068.244768,2451.505594
59487.014970,296.082377,-9844.739029,3064.381992
59487.015280,-74.020594,-10362.883188,1149.143247
59487.015590,-3256.906145,-9548.656652,0.000000
59487.015899,2886.803174,-9474.636058,2068.457845
59487.016209,-3627.009116,-10214.842000,-612.876398
59487.016518,-2294.638420,-8956.491898,-76.609550
59487.016828,-2368.659014,-10436.903782,-459.657299
59487.017138,1406.391290,-7031.956449,612.876398
59487.017447,222.061783,-8808.450710,1838.629195
59487.017757,-444.123565,-7179.997637,306.438199
59487.018066,0.000000,-7179.997637,1532.190996
59487.018376,3627.009116,-9326.594869,3294.210641
59487.018686,0.000000,-7179.997637,612.876398
59487.018995,-222.061783,-11843.295072,1762.019645
59487.019305,-4071.132681,-8660.409521,-2681.334243
59487.019614,-2960.823768,-13027.624579,-76.609550
59487.019924,-740.205942,-9770.718434,76.609550
59487.020234,-1332.370696,-9474.636058,612.876398
59487.020543,-222.061783,-7920.203579,689.485948
59487.020853,-592.164754,-8068.244768,0.000000
59487.021163,0.000000,-5403.503377,306.438199
59487.021472,1776.494261,-8660.409521,3064.381992
59487.021782,3478.967927,-8290.306550,2374.896044
59487.022091,0.000000,-8364.327145,1838.629195
59487.022401,-666.185348,-10066.800811,-76.609550
59487.022711,-3256.906145,-10881.027347,1149.143247
59487.023020,-1110.308913,-9992.780217,-306.438199
59487.023330,0.000000,-8734.430116,0.000000
59487.023639,-296.082377,-9030.512492,-229.828649
59487.023949,-592.164754,-9548.656652,-1532.190996
59487.024259,-1776.494261,-7772.162391,0.000000
59487.024568,592.164754,-8956.491898,1225.752797
59487.024878,4663.297435,-9474.636058,3600.648841
59487.025187,0.000000,-7179.997637,0.000000
59487.025497,-74.020594,-10066.800811,2374.896044
59487.025807,-2368.659014,-8586.388927,1685.410096
59487.026116,-814.226536,-10066.800811,383.047749
59487.026426,296.082377,-8068.244768,1072.533697
59487.026735,148.041188,-8438.347739,766.095498
59487.027045,-296.082377,-7550.100608,76.609550
59487.027355,-74.020594,-7254.018232,0.000000
59487.027664,592.164754,-7179.997637,0.000000
59487.027974,3849.070898,-10066.800811,3447.429741
59487.028284,-370.102971,-9178.553681,-229.828649
59487.028593,-2368.659014,-10732.986159,459.657299
59487.028903,-4293.194464,-10140.821405,0.000000
59487.029212,-1554.432478,-11399.171507,-689.485948
59487.029522,-888.247130,-9178.553681,-76.609550
59487.029832,-1036.288319,-8734.430116,689.485948
59487.030141,0.000000,-8882.471304,1762.019645
59487.030451,2294.638420,-7105.977043,1149.143247
59487.030760,2960.823768,-5995.668130,919.314598
59487.031070,5625.565159,-8660.409521,5822.325785
59487.031380,0.000000,-6291.750507,612.876398
59487.031689,-1110.308913,-9252.574275,1838.629195
59487.031999,-4145.153275,-8364.327145,-2451.505594
59487.032308,-3404.947333,-11547.212695,-1532.190996
59487.032618,-1850.514855,-9992.780217,-766.095498
59487.032928,-1998.556043,-9178.553681,-842.705048
59487.033237,-888.247130,-10658.965565,-76.609550
59487.033547,-74.020594,-9474.636058,-76.609550
59487.033856,1110.308913,-9178.553681,1762.019645
59487.034166,0.000000,-7179.997637,2451.505594
59487.034476,2294.638420,-8882.471304,2374.896044
59487.034785,-2368.659014,-8364.327145,0.000000
59487.035095,-4145.153275,-7179.997637,0.000000
59487.035404,-2368.659014,-9918.759623,0.000000
59487.035714,-296.082377,-8660.409521,383.047749
59487.036024,-1110.308913,-8438.347739,383.047749
59487.036333,-666.185348,-10658.965565,2374.896044
59487.036643,-74.020594,-10658.965565,3600.648841
59487.036953,2294.638420,-9474.636058,3600.648841
59487.037262,296.082377,-5995.668130,612.876398
59487.037572,2664.741391,-9400.615463,3600.648841
59487.037881,-962.267725,-9178.553681,-1838.629195
59487.038191,-4885.359217,-9252.574275,-2681.334243
59487.038501,-4737.318029,-10436.903782,-2298.286494
59487.038810,-2812.782580,-11177.109724,-459.657299
59487.039120,-222.061783,-8290.306550,306.438199
59487.039429,2294.638420,-10658.965565,3294.210641
59487.039739,1480.411884,-9474.636058,4826.401637
59487.040049,2146.597232,-7105.977043,-76.609550
59487.040358,2368.659014,-7179.997637,3677.258390
59487.040668,4663.297435,-7698.141797,3294.210641
59487.040977,0.000000,-8364.327145,0.000000
59487.041287,-1554.432478,-9474.636058,-383.047749
59487.041597,-2738.761985,-10807.006753,-1149.143247
59487.041906,-370.102971,-9992.780217,-842.705048
59487.042216,-1776.494261,-9178.553681,0.000000
59487.042525,-1628.453072,-9844.739029,919.314598
59487.042835,-888.247130,-11177.109724,3677.258390
59487.043145,3182.885551,-9474.636058,4213.525239
59487.043454,1480.411884,-5995.668130,1225.752797
59487.043764,5255.462188,-8290.306550,4826.401637
59487.044074,814.226536,-5995.668130,0.000000
59487.044383,-74.020594,-9474.636058,-76.609550
59487.044693,-2738.761985,-9548.656652,-1225.752797
59487.045002,-1850.514855,-11103.089130,-1302.362347
59487.045312,-1850.514855,-10584.944971,-459.657299
59487.045622,-2368.659014,-10140.821405,0.000000
59487.045931,-2368.659014,-10140.821405,2451.505594
59487.046241,1332.370696,-10140.821405,4596.572988
59487.046550,4663.297435,-9474.636058,3600.648841
59487.046860,2072.576638,-4811.338623,2757.943793
59487.047170,1184.329507,-7179.997637,2068.457845
59487.047479,-74.020594,-9474.636058,1149.143247
59487.047789,-3997.112087,-9844.739029,-459.657299
59487.048099,-2960.823768,-9844.739029,-1225.752797
59487.048409,-2220.617826,-8586.388927,-536.266849
59487.048718,-3552.988522,-7772.162391,0.000000
59487.049028,-4145.153275,-7179.997637,0.000000
59487.049338,-74.020594,-11843.295072,4213.525239
59487.049648,3478.967927,-9474.636058,1762.019645
59487.049957,3478.967927,-7698.141797,2068.457845
59487.050267,0.000000,-7179.997637,1225.752797
59487.050577,-1258.350101,-8290.306550,-536.266849
59487.050887,-5625.565159,-8512.368333,-2145.067394
59487.051196,-2072.576638,-10807.006753,-612.876398
59487.051506,-1332.370696,-9178.553681,383.047749
59487.051816,-2368.659014,-8956.491898,1225.752797
59487.052126,-2960.823768,-10140.821405,2451.505594
59487.052436,1998.556043,-10658.965565,4826.401637
59487.052745,2886.803174,-6513.812290,2374.896044
59487.053055,4737.318029,-5699.585753,4903.011187
59487.053365,3478.967927,-6513.812290,2374.896044
59487.053675,-74.020594,-10658.965565,-76.609550
59487.053984,-5107.421000,-10362.883188,-2298.286494
59487.054294,-5107.421000,-12139.377449,-2911.162892
59487.054604,-4441.235652,-11029.068536,-2298.286494
59487.054914,-4737.318029,-9548.656652,-3677.258390
59487.055223,-4145.153275,-9548.656652,0.000000
59487.055533,592.164754,-10732.986159,4290.134789
59487.055843,4663.297435,-8290.306550,2374.896044
59487.056153,3552.988522,-3923.091493,4903.011187
59487.056462,4071.132681,-9474.636058,5439.278036
59487.056772,4663.297435,-9104.533087,3294.210641
59487.057082,-740.205942,-9770.718434,1455.581446
59487.057392,-1036.288319,-10436.903782,536.266849
59487.057702,-2590.720797,-8956.491898,-766.095498
59487.058011,-4441.235652,-8364.327145,-2451.505594
59487.058321,-4145.153275,-7179.997637,0.000000
59487.058631,-4737.318029,-9548.656652,0.000000
59487.058941,2442.679609,-10066.800811,2374.896044
59487.059250,2294.638420,-8290.306550,2374.896044
59487.059560,2960.823768,-7698.141797,2374.896044
59487.059870,1184.329507,-10658.965565,1838.629195
59487.060180,-2368.659014,-7994.224174,-153.219100
59487.060489,-2368.659014,-10881.027347,-1302.362347
59487.060799,-1258.350101,-9696.697840,-306.438199
59487.061109,-2738.761985,-7846.182985,-1762.019645
59487.061419,-3256.906145,-7179.997637,0.000000
59487.061728,0.000000,-5995.668130,1225.752797
59487.062038,4663.297435,-10658.965565,4519.963438
59487.062348,4071.132681,-6217.729913,2374.896044
59487.062658,3478.967927,-10066.800811,5439.278036
59487.062967,1184.329507,-9844.739029,2451.505594
59487.063277,-2072.576638,-10140.821405,536.266849
59487.063587,-2442.679609,-11547.212695,-995.924147
59487.063897,-1332.370696,-9474.636058,-76.609550
59487.064207,-2146.597232,-8290.306550,-536.266849
59487.064516,-3923.091493,-7328.038826,-2145.067394
59487.064826,-7105.977043,-5403.503377,0.000000
59487.065136,1110.308913,-10955.047942,2834.553343
59487.065446,3182.885551,-7846.182985,2374.896044
59487.065755,3108.864956,-8660.409521,4903.011187
59487.066065,1184.329507,-7772.162391,1225.752797
59487.066375,-1554.432478,-9400.615463,536.266849
59487.066685,-2146.597232,-10288.862594,-766.095498
59487.066994,-740.205942,-10362.883188,-229.828649
59487.067304,-74.020594,-9474.636058,-76.609550
59487.067614,-1258.350101,-9474.636058,-689.485948
59487.067924,-3627.009116,-7772.162391,-1455.581446
59487.068233,0.000000,-8364.327145,2451.505594
59487.068543,4663.297435,-8290.306550,4213.525239
59487.068853,3256.906145,-4811.338623,4290.134789
59487.069163,1184.329507,-6291.750507,1225.752797
59487.069472,-666.185348,-9104.533087,842.705048
59487.069782,-2886.803174,-10436.903782,-995.924147
59487.070092,-3923.091493,-11177.109724,-1378.971896
59487.070402,-2442.679609,-11547.212695,-76.609550
59487.070712,-1258.350101,-11843.295072,-76.609550
59487.071021,-3330.926739,-7846.182985,-2528.115143
59487.071331,-1776.494261,-8660.409521,1225.752797
59487.071641,4663.297435,-9474.636058,3600.648841
59487.071951,3552.988522,-4811.338623,3677.258390
59487.072260,3552.988522,-6735.874072,2604.724693
59487.072570,1554.432478,-7920.203579,1838.629195
59487.072880,-1036.288319,-9992.780217,766.095498
59487.073190,-444.123565,-9178.553681,-459.657299
59487.073499,-74.020594,-11843.295072,2374.896044
59487.073809,-74.020594,-11843.295072,-76.609550
59487.074119,-2442.679609,-10658.965565,-1302.362347
59487.074429,-3552.988522,-7772.162391,0.000000
59487.074738,2664.741391,-9696.697840,4749.792088
59487.075048,1850.514855,-6291.750507,1225.752797
59487.075358,1702.473667,-7105.977043,1149.143247
59487.075668,-1184.329507,-8068.244768,383.047749
59487.075977,-2368.659014,-9474.636058,-383.047749
59487.076287,-1702.473667,-11177.109724,-612.876398
59487.076597,-1184.329507,-9696.697840,1532.190996
59487.076907,-370.102971,-11843.295072,612.876398
59487.077217,-74.020594,-9474.636058,-76.609550
59487.077526,-2368.659014,-7476.080014,0.000000
59487.077836,3552.988522,-9400.615463,5362.668486
59487.078146,3034.844362,-6661.853478,2068.457845
59487.078456,4663.297435,-8290.306550,2681.334243
59487.078765,592.164754,-8364.327145,1072.533697
59487.079075,-1258.350101,-9548.656652,995.924147
59487.079385,-1036.288319,-10066.800811,76.609550
59487.079695,-2368.659014,-9548.656652,0.000000
59487.080004,-3404.947333,-11325.150913,-2451.505594
59487.080314,-2442.679609,-11843.295072,-76.609550
59487.080624,-4811.338623,-9622.677246,-1149.143247
59487.080934,888.247130,-8956.491898,2451.505594
59487.081243,3775.050304,-6513.812290,2068.457845
59487.081553,4071.132681,-8290.306550,2987.772442
59487.081863,814.226536,-7179.997637,1838.629195
59487.082173,-444.123565,-8512.368333,919.314598
59487.082482,-814.226536,-10510.924376,0.000000
59487.082792,-4737.318029,-9548.656652,0.000000
59487.083102,-4145.153275,-9548.656652,-3677.258390
59487.083412,-74.020594,-12879.583391,2221.676944
59487.083722,-74.020594,-8882.471304,842.705048
59487.084031,1184.329507,-7772.162391,2451.505594
59487.084341,4663.297435,-6809.894666,3600.648841
59487.084651,4663.297435,-8290.306550,3600.648841
59487.084961,1110.308913,-7994.224174,1378.971896
59487.085270,-2072.576638,-8956.491898,383.047749
59487.085580,-1406.391290,-11029.068536,-766.095498
59487.085890,-3552.988522,-7179.997637,-2451.505594
59487.086200,-4737.318029,-8660.409521,-3524.039291
59487.086509,-4145.153275,-11325.150913,0.000000
59487.086819,-1258.350101,-11843.295072,-76.609550
59487.087129,592.164754,-9548.656652,0.000000
59487.087439,7031.956449,-9474.636058,4826.401637
59487.087748,5551.544565,-7994.224174,4826.401637
59487.088058,3478.967927,-7550.100608,3600.648841
59487.088368,1184.329507,-7846.182985,2298.286494
59487.088678,592.164754,-9252.574275,1455.581446
59487.088988,-2368.659014,-6587.832884,-1149.143247
59487.089297,-4737.318029,-7179.997637,-1915.238745
59487.089607,-4737.318029,-10732.986159,0.000000
59487.089917,-2442.679609,-11843.295072,-229.828649
59487.090227,-2960.823768,-9548.656652,-3064.381992
59487.090536,2590.720797,-9474.636058,3600.648841
59487.090846,1184.329507,-7624.121203,1838.629195
59487.091156,962.267725,-8438.347739,1608.800546
59487.091466,-666.185348,-7846.182985,766.095498
59487.091775,296.082377,-10140.821405,1072.533697
59487.092085,-666.185348,-7846.182985,-689.485948
59487.092395,-4219.173869,-6217.729913,-2834.553343
59487.092705,-7105.977043,-9548.656652,0.000000
59487.093014,-74.020594,-10955.047942,2221.676944
59487.093324,444.123565,-7179.997637,0.000000
59487.093634,4145.153275,-9474.636058,5515.887586
59487.093944,592.164754,-6143.709319,2451.505594
59487.094253,2072.576638,-7994.224174,2451.505594
59487.094563,148.041188,-8142.265362,1455.581446
59487.094873,-2294.638420,-11177.109724,76.609550
59487.095183,-1258.350101,-8882.471304,-1302.362347
59487.095493,-3034.844362,-11843.295072,-2528.115143
59487.095802,-6513.812290,-9548.656652,-4673.182538
59487.096112,-4441.235652,-12065.356855,-612.876398
59487.096422,-1258.350101,-9474.636058,-76.609550
59487.096732,2368.659014,-8364.327145,3983.696590
59487.097041,1776.494261,-5107.421000,2528.115143
59487.097351,1924.535449,-7698.141797,2987.772442
59487.097661,0.000000,-7772.162391,2145.067394
59487.097971,518.144159,-8956.491898,1302.362347
59487.098280,2294.638420,-9474.636058,1762.019645
59487.098590,-74.020594,-11843.295072,-76.609550
59487.098900,-4515.256246,-9548.656652,-3064.381992
59487.099210,-2368.659014,-10732.986159,306.438199
59487.099519,-74.020594,-11843.295072,-76.609550
59487.099829,0.000000,-7772.162391,1532.190996
59487.100139,1776.494261,-7105.977043,2451.505594
59487.100449,2368.659014,-8068.244768,2068.457845
59487.100758,1036.288319,-7920.203579,1302.362347
59487.101068,-592.164754,-9104.533087,459.657299
59487.101378,2294.638420,-11251.130318,-76.609550
59487.101688,-74.020594,-11251.130318,-76.609550
59487.101998,-3627.009116,-8734.430116,-2681.334243
59487.102307,-2516.700203,-11621.233289,-76.609550
59487.102617,-3108.864956,-9548.656652,-2451.505594
59487.102927,1184.329507,-9844.739029,3677.258390
59487.103237,1184.329507,-5995.668130,2451.505594
59487.103546,4293.194464,-7846.182985,3907.087040
59487.103856,3330.926739,-6365.771101,3600.648841
59487.104166,1998.556043,-7846.182985,2374.896044
59487.104476,2294.638420,-9474.636058,2374.896044
59487.104785,-74.020594,-11843.295072,-76.609550
59487.105095,-5329.482782,-9548.656652,-3524.039291
59487.105405,-4145.153275,-11917.315666,-1225.752797
59487.105715,-2442.679609,-10066.800811,-1608.800546
59487.106024,592.164754,-9548.656652,2451.505594
59487.106334,1036.288319,-5995.668130,1838.629195
59487.106644,2442.679609,-8586.388927,3064.381992
59487.106954,1036.288319,-8364.327145,2221.676944
59487.107263,666.185348,-9326.594869,2145.067394
59487.107573,3478.967927,-9474.636058,2374.896044
59487.107883,-74.020594,-9474.636058,-76.609550
59487.108193,-4145.153275,-7179.997637,-2145.067394
59487.108503,-3182.885551,-10732.986159,0.000000
59487.108812,-4219.173869,-8364.327145,-4213.525239
59487.109122,0.000000,-10732.986159,2451.505594
59487.109432,1998.556043,-8290.306550,2528.115143
59487.109742,1480.411884,-7476.080014,1991.848295
59487.110051,518.144159,-7846.182985,1762.019645
59487.110361,-962.267725,-8734.430116,995.924147
59487.110671,-1258.350101,-8512.368333,-689.485948
59487.110981,-2812.782580,-9474.636058,-689.485948
59487.111290,-4737.318029,-8364.327145,-3370.820191
59487.111600,-1850.514855,-12731.542202,-76.609550
59487.111910,-4145.153275,-8660.409521,-3677.258390
59487.112220,1702.473667,-11843.295072,4060.306139
59487.112529,888.247130,-7328.038826,1838.629195
59487.112839,1776.494261,-8290.306550,2374.896044
59487.113149,814.226536,-7994.224174,1455.581446
59487.113459,-740.205942,-8586.388927,1378.971896
59487.113769,1702.473667,-8290.306550,-76.609550
59487.114078,1110.308913,-9474.636058,-76.609550
59487.114388,-2960.823768,-7179.997637,0.000000
59487.114698,-1776.494261,-11177.109724,-76.609550
59487.115008,-3627.009116,-9770.718434,-2528.115143
59487.115317,-2368.659014,-11917.315666,1532.190996
59487.115627,0.000000,-8364.327145,1225.752797
59487.115937,1776.494261,-8364.327145,2374.896044
59487.116247,1850.514855,-8512.368333,2298.286494
59487.116556,666.185348,-7846.182985,1378.971896
59487.116866,3478.967927,-9474.636058,2374.896044
59487.117176,3478.967927,-9474.636058,-76.609550
59487.117486,-3552.988522,-6587.832884,-2145.067394
59487.117795,-74.020594,-11843.295072,-76.609550
59487.118105,-4145.153275,-9548.656652,0.000000
59487.118415,-1184.329507,-11029.068536,2451.505594
59487.118725,0.000000,-5995.668130,0.000000
59487.119034,2368.659014,-7994.224174,2911.162892
59487.119344,1924.535449,-8882.471304,2528.115143
59487.119654,0.000000,-8956.491898,1838.629195
59487.119964,3478.967927,-11843.295072,2374.896044
59487.120274,5847.626942,-11843.295072,4826.401637
59487.120583,0.000000,-5995.668130,0.000000
59487.120893,-888.247130,-9548.656652,919.314598
59487.121203,-2738.761985,-8290.306550,-1608.800546
59487.121513,-4145.153275,-9548.656652,0.000000
59487.121822,-814.226536,-8438.347739,0.000000
59487.122132,-814.226536,-9326.594869,1225.752797
59487.122442,-74.020594,-9622.677246,1149.143247
59487.122752,-814.226536,-9252.574275,1532.190996
59487.123061,2886.803174,-10658.965565,3524.039291
59487.123371,4885.359217,-8512.368333,4596.572988
59487.123681,3478.967927,-7105.977043,2068.457845
59487.123991,-1184.329507,-8364.327145,1225.752797
59487.124300,-2442.679609,-8586.388927,-1608.800546
59487.124610,-4737.318029,-8364.327145,0.000000
59487.124920,518.144159,-9474.636058,536.266849
59487.125230,444.123565,-7920.203579,1378.971896
59487.125539,-1184.329507,-8956.491898,536.266849
59487.125849,-3182.885551,-9030.512492,-612.876398
59487.126159,-1628.453072,-11621.233289,1225.752797
59487.126469,0.000000,-9548.656652,2451.505594
59487.126779,2294.638420,-9474.636058,1762.019645
59487.127088,-2368.659014,-7476.080014,0.000000
59487.127398,-74.020594,-11843.295072,-76.609550
59487.127708,-2368.659014,-7476.080014,0.000000
59487.128018,1110.308913,-8882.471304,1762.019645
59487.128327,148.041188,-8216.285956,2145.067394
59487.128637,0.000000,-7328.038826,1455.581446
59487.128947,-2220.617826,-9696.697840,1149.143247
59487.129257,-2960.823768,-7772.162391,0.000000
59487.129566,-3552.988522,-8364.327145,0.000000
59487.129876,2294.638420,-8882.471304,1149.143247
59487.130186,-3627.009116,-9030.512492,-1915.238745
59487.130496,-3849.070898,-10140.821405,0.000000
59487.130805,-3034.844362,-10362.883188,-2834.553343
59487.131115,1702.473667,-10658.965565,1762.019645
59487.131425,2368.659014,-8882.471304,2298.286494
59487.131735,1036.288319,-8808.450710,2757.943793
59487.132044,74.020594,-7920.203579,1532.190996
59487.132354,0.000000,-7179.997637,612.876398
59487.132664,592.164754,-5403.503377,0.000000
59487.132974,2664.741391,-8660.409521,3217.601092
59487.133284,814.226536,-8586.388927,-76.609550
59487.133593,-1776.494261,-10140.821405,1225.752797
59487.133903,-666.185348,-11843.295072,-689.485948
59487.134213,-74.020594,-11843.295072,536.266849
59487.134523,-370.102971,-9104.533087,689.485948
59487.134832,0.000000,-9400.615463,612.876398
59487.135142,-1406.391290,-9178.553681,842.705048
59487.135452,-2960.823768,-7476.080014,0.000000
59487.135762,74.020594,-6587.832884,229.828649
59487.136071,2368.659014,-6587.832884,3064.381992
59487.136381,2886.803174,-8290.306550,1762.019645
59487.136691,518.144159,-10658.965565,2987.772442
59487.137001,-74.020594,-9474.636058,-76.609550
59487.137310,-888.247130,-11029.068536,536.266849
59487.137620,-370.102971,-9918.759623,536.266849
59487.137930,296.082377,-10584.944971,536.266849
59487.138240,0.000000,-9696.697840,383.047749
59487.138549,-2442.679609,-8660.409521,-76.609550
59487.138859,-74.020594,-7698.141797,-76.609550
59487.139169,0.000000,-7476.080014,2451.505594
59487.139479,2886.803174,-8882.471304,2374.896044
59487.139789,0.000000,-7179.997637,1225.752797
59487.140098,-74.020594,-11251.130318,-76.609550
59487.140408,-1110.308913,-10436.903782,1225.752797
59487.140718,1184.329507,-7698.141797,1762.019645
59487.141028,-666.185348,-8512.368333,1302.362347
59487.141337,-2664.741391,-7994.224174,-383.047749
59487.141647,-4219.173869,-8882.471304,-76.609550
59487.141957,-74.020594,-11843.295072,-76.609550
59487.142267,-1776.494261,-7179.997637,-1072.533697
59487.142576,-296.082377,-10436.903782,2068.457845
59487.142886,-3182.885551,-7179.997637,-2221.676944
59487.143196,-1184.329507,-11769.274478,1149.143247
59487.143506,-1184.329507,-8956.491898,612.876398
59487.143815,666.185348,-7772.162391,1915.238745
59487.144125,370.102971,-7550.100608,1532.190996
59487.144435,0.000000,-8956.491898,1072.533697
59487.144745,-74.020594,-9474.636058,1762.019645
59487.145055,-74.020594,-11843.295072,2068.457845
59487.145364,0.000000,-6587.832884,0.000000
59487.145674,592.164754,-8956.491898,1838.629195
59487.145984,-74.020594,-9474.636058,-689.485948
59487.146294,-3552.988522,-10732.986159,0.000000
59487.146603,-2664.741391,-10732.986159,-919.314598
59487.146913,0.000000,-9992.780217,536.266849
59487.147222,-148.041188,-9326.594869,1072.533697
59487.147532,-1258.350101,-8882.471304,459.657299
59487.147841,-666.185348,-9474.636058,1149.143247
59487.148151,-74.020594,-11251.130318,2374.896044
59487.148461,1406.391290,-5773.606348,919.314598
59487.148770,2368.659014,-7476.080014,3294.210641
59487.149080,0.000000,-6587.832884,0.000000
59487.149389,0.000000,-7772.162391,1838.629195
59487.149699,0.000000,-9992.780217,0.000000
59487.150009,666.185348,-9104.533087,612.876398
59487.150318,222.061783,-8364.327145,0.000000
59487.150628,-370.102971,-10955.047942,459.657299
59487.150937,-666.185348,-12139.377449,383.047749
59487.151247,-814.226536,-11029.068536,-689.485948
59487.151556,2072.576638,-10881.027347,4290.134789
59487.151866,518.144159,-7105.977043,842.705048
59487.152176,740.205942,-8956.491898,1991.848295
59487.152485,-1184.329507,-5995.668130,1378.971896
59487.152795,370.102971,-8734.430116,1762.019645
59487.153104,1480.411884,-7476.080014,1838.629195
59487.153414,-592.164754,-7846.182985,1149.143247
59487.153724,-1184.329507,-10436.903782,766.095498
59487.154033,0.000000,-8364.327145,612.876398
59487.154343,0.000000,-10732.986159,1225.752797
59487.154652,1702.473667,-9474.636058,-76.609550
59487.154962,-1628.453072,-8364.327145,0.000000
59487.155271,3404.947333,-11843.295072,2987.772442
59487.155581,-2886.803174,-7179.997637,0.000000
59487.155891,-666.185348,-10955.047942,766.095498
59487.156200,0.000000,-8512.368333,383.047749
59487.156510,0.000000,-8216.285956,1225.752797
59487.156819,-1036.288319,-9474.636058,919.314598
59487.157129,-4737.318029,-7179.997637,0.000000
59487.157439,-4145.153275,-7772.162391,0.000000
59487.157748,4071.132681,-9474.636058,3447.429741
59487.158058,1628.453072,-5551.544565,1225.752797
59487.158367,3478.967927,-11843.295072,2987.772442
59487.158677,-2886.803174,-6809.894666,-1838.629195
59487.158986,-666.185348,-11251.130318,-76.609550
59487.159296,0.000000,-10807.006753,229.828649
59487.159606,-1628.453072,-9548.656652,0.000000
59487.159915,-2294.638420,-11029.068536,-689.485948
59487.160225,-4737.318029,-8364.327145,-2451.505594
59487.160534,-4737.318029,-8364.327145,0.000000
59487.160844,296.082377,-9548.656652,1378.971896
59487.161153,0.000000,-6069.688724,306.438199
59487.161463,3478.967927,-9474.636058,3600.648841
59487.161773,1110.308913,-7105.977043,536.266849
59487.162082,296.082377,-8142.265362,2451.505594
59487.162392,2294.638420,-8290.306550,2374.896044
59487.162701,-666.185348,-8438.347739,842.705048
59487.163011,-1998.556043,-10214.842000,-383.047749
59487.163321,-4515.256246,-9326.594869,-2528.115143
59487.163630,-6957.935855,-9548.656652,-3064.381992
59487.163940,-888.247130,-10807.006753,612.876398
59487.164249,-74.020594,-9474.636058,-76.609550
59487.164559,296.082377,-8364.327145,1838.629195
59487.164868,2294.638420,-8882.471304,2374.896044
59487.165178,592.164754,-7476.080014,2145.067394
59487.165488,2590.720797,-8216.285956,2681.334243
59487.165797,2368.659014,-6439.791695,2528.115143
59487.166107,888.247130,-9548.656652,1991.848295
59487.166416,-666.185348,-9474.636058,1762.019645
59487.166726,-2442.679609,-8438.347739,-1302.362347
59487.167036,296.082377,-10732.986159,1225.752797
59487.167345,1110.308913,-8290.306550,-76.609550
59487.167655,-3552.988522,-8364.327145,0.000000
59487.167964,-74.020594,-11547.212695,1455.581446
59487.168274,-1184.329507,-10066.800811,306.438199
59487.168583,888.247130,-10436.903782,1532.190996
59487.168893,1184.329507,-7846.182985,1225.752797
59487.169203,0.000000,-8438.347739,1225.752797
59487.169512,-74.020594,-8290.306550,-76.609550
59487.169822,-666.185348,-8882.471304,-76.609550
59487.170131,0.000000,-7476.080014,612.876398
59487.170441,3034.844362,-9474.636058,4213.525239
59487.170751,0.000000,-6143.709319,0.000000
59487.171060,1702.473667,-10362.883188,2374.896044
59487.171370,0.000000,-8660.409521,689.485948
59487.171679,814.226536,-10214.842000,1072.533697
59487.171989,-222.061783,-9030.512492,-383.047749
59487.172298,-2960.823768,-10436.903782,-1149.143247
59487.172608,-1776.494261,-11843.295072,-612.876398
59487.172918,-2442.679609,-12731.542202,-76.609550
59487.173227,-2146.597232,-9770.718434,-459.657299
59487.173537,1110.308913,-10658.965565,4213.525239
59487.173846,518.144159,-5921.647536,842.705048
59487.174156,1776.494261,-8068.244768,4826.401637
59487.174466,1628.453072,-5995.668130,3217.601092
59487.174775,3256.906145,-7772.162391,3447.429741
59487.175085,2664.741391,-7105.977043,2451.505594
59487.175394,-1110.308913,-9918.759623,-153.219100
59487.175704,-3552.988522,-12213.398043,-1838.629195
59487.176013,-4219.173869,-13619.789333,-1915.238745
59487.176323,-4589.276840,-11621.233289,-3140.991542
59487.176633,-4145.153275,-8364.327145,0.000000
59487.176942,-74.020594,-11251.130318,-76.609550
59487.177252,0.000000,-9252.574275,1991.848295
59487.177561,1406.391290,-7994.224174,2528.115143
59487.177871,3404.947333,-7994.224174,3983.696590
59487.178181,4219.173869,-6217.729913,3907.087040
59487.178490,2072.576638,-6661.853478,2987.772442
59487.178800,0.000000,-8364.327145,0.000000
59487.179109,-2664.741391,-10140.821405,612.876398
59487.179419,-1850.514855,-11843.295072,-689.485948
59487.179728,-4737.318029,-8364.327145,0.000000
59487.180038,-74.020594,-10584.944971,919.314598
59487.180348,-1480.411884,-9548.656652,536.266849
59487.180657,-74.020594,-8882.471304,842.705048
59487.180967,2220.617826,-10436.903782,1991.848295
59487.181276,2960.823768,-8882.471304,2681.334243
59487.181586,1110.308913,-8364.327145,2221.676944
59487.181895,-1480.411884,-8364.327145,0.000000
59487.182205,-3552.988522,-8956.491898,0.000000
59487.182515,-1258.350101,-11251.130318,-76.609550
59487.182824,-4441.235652,-5995.668130,0.000000
59487.183134,0.000000,-7772.162391,1838.629195
59487.183443,-740.205942,-7179.997637,1838.629195
59487.183753,666.185348,-8290.306550,2068.457845
59487.184063,518.144159,-10140.821405,2068.457845
59487.184372,2368.659014,-9326.594869,2374.896044
59487.184682,1110.308913,-9104.533087,1608.800546
59487.184991,-1776.494261,-7476.080014,-1225.752797
59487.185301,-4145.153275,-8364.327145,0.000000
59487.185610,-666.185348,-11843.295072,-76.609550
59487.185920,-3552.988522,-7179.997637,0.000000
59487.186230,666.185348,-10288.862594,2374.896044
59487.186539,-1184.329507,-7772.162391,842.705048
59487.186849,-74.020594,-8290.306550,2374.896044
59487.187158,1184.329507,-7772.162391,2374.896044
59487.187468,2590.720797,-7476.080014,2604.724693
59487.187778,1036.288319,-7031.956449,1302.362347
59487.188087,-1702.473667,-8882.471304,-689.485948
59487.188397,-4737.318029,-8364.327145,-3064.381992
59487.188706,-4737.318029,-13397.727550,-76.609550
59487.189016,-3034.844362,-8364.327145,-3140.991542
59487.189325,-592.164754,-9696.697840,842.705048
59487.189635,-518.144159,-7624.121203,0.000000
59487.189945,444.123565,-8660.409521,1532.190996
59487.190254,2442.679609,-9104.533087,2834.553343
59487.190564,4885.359217,-8216.285956,3907.087040
59487.190873,2590.720797,-7031.956449,3217.601092
59487.191183,-370.102971,-8586.388927,-76.609550
59487.191493,-5773.606348,-8364.327145,-2451.505594
59487.191802,-3627.009116,-12435.459826,-459.657299
59487.192112,-6513.812290,-8364.327145,-4290.134789
59487.192421,-666.185348,-10362.883188,-76.609550
59487.192731,-1258.350101,-9474.636058,-2451.505594
59487.193040,-888.247130,-8068.244768,766.095498
59487.193350,222.061783,-8956.491898,2145.067394
59487.193660,3775.050304,-8216.285956,3140.991542
59487.193969,3256.906145,-6291.750507,3600.648841
59487.194279,2294.638420,-9474.636058,1762.019645
59487.194588,-2442.679609,-8586.388927,-1149.143247
59487.194898,-5329.482782,-10732.986159,0.000000
59487.195208,-74.020594,-13915.871710,-76.609550
59487.195517,-962.267725,-7994.224174,-689.485948
59487.195827,-74.020594,-8290.306550,0.000000
59487.196136,0.000000,-8512.368333,1685.410096
59487.196446,1554.432478,-8216.285956,2757.943793
59487.196755,4737.318029,-7920.203579,3370.820191
59487.197065,3330.926739,-6809.894666,4826.401637
59487.197375,1702.473667,-9474.636058,1762.019645
59487.197684,-2442.679609,-10066.800811,-1915.238745
59487.197994,-6809.894666,-10140.821405,-4903.011187
59487.198303,-74.020594,-14211.954086,-689.485948
59487.198613,-3404.947333,-8512.368333,-1991.848295
59487.198923,1110.308913,-9474.636058,842.705048
59487.199232,1110.308913,-8068.244768,2528.115143
59487.199542,666.185348,-9104.533087,3600.648841
59487.199851,4811.338623,-8364.327145,4749.792088
59487.200161,4663.297435,-4515.256246,5209.449386
59487.200470,4071.132681,-9844.739029,5209.449386
59487.200780,-74.020594,-7698.141797,-76.609550
59487.201090,-4737.318029,-8956.491898,-3677.258390
59487.201399,-74.020594,-12731.542202,-76.609550
59487.201709,-3923.091493,-8586.388927,-2374.896044
59487.202018,-2294.638420,-10140.821405,-76.609550
59487.202328,-3552.988522,-10732.986159,-919.314598
59487.202637,-2368.659014,-8956.491898,0.000000
59487.202947,1628.453072,-10436.903782,1838.629195
59487.203257,2738.761985,-6143.709319,3064.381992
59487.203566,3256.906145,-7328.038826,3064.381992
59487.203876,2294.638420,-9474.636058,2374.896044
59487.204185,-3923.091493,-7254.018232,-3677.258390
59487.204495,-296.082377,-14211.954086,2068.457845
59487.204805,-814.226536,-7254.018232,-1302.362347
59487.205114,-1110.308913,-10362.883188,2221.676944
59487.205424,-370.102971,-8734.430116,76.609550
59487.205733,-1850.514855,-9474.636058,842.705048
59487.206043,1480.411884,-9622.677246,1532.190996
59487.206352,2812.782580,-7846.182985,1225.752797
59487.206662,1184.329507,-7179.997637,1225.752797
59487.206972,888.247130,-10658.965565,1302.362347
59487.207281,-4219.173869,-8882.471304,-3140.991542
59487.207591,-3552.988522,-12509.480420,0.000000
59487.207900,-1850.514855,-9326.594869,-1302.362347
59487.208210,-2368.659014,-9474.636058,1762.019645
59487.208520,-814.226536,-8586.388927,689.485948
59487.208829,-1924.535449,-7698.141797,919.314598
59487.209139,1036.288319,-8586.388927,2298.286494
59487.209448,4737.318029,-6291.750507,2604.724693
59487.209758,2368.659014,-5995.668130,1225.752797
59487.210067,1184.329507,-8364.327145,1532.190996
59487.210377,-2442.679609,-13027.624579,-76.609550
59487.210687,-5921.647536,-10732.986159,-2451.505594
59487.210996,-444.123565,-11843.295072,-76.609550
59487.211306,-2220.617826,-10732.986159,919.314598
59487.211615,-814.226536,-9326.594869,-76.609550
59487.211925,-1850.514855,-8512.368333,842.705048
59487.212235,1628.453072,-8290.306550,2528.115143
59487.212544,3849.070898,-5403.503377,3524.039291
59487.212854,1776.494261,-3627.009116,1225.752797
59487.213163,1776.494261,-7772.162391,2451.505594
59487.213473,-74.020594,-9474.636058,-76.609550
59487.213782,-4737.318029,-10140.821405,-2451.505594
59487.214092,-1258.350101,-11843.295072,-76.609550
59487.214402,-3256.906145,-8660.409521,0.000000
59487.214711,-1258.350101,-11177.109724,-76.609550
59487.215021,-1480.411884,-9104.533087,459.657299
59487.215330,888.247130,-9474.636058,2145.067394
59487.215640,5477.523971,-7698.141797,4826.401637
59487.215950,5107.421000,-5181.441594,2068.457845
59487.216259,2368.659014,-6587.832884,2757.943793
59487.216569,1702.473667,-10955.047942,4213.525239
59487.216878,-3034.844362,-9474.636058,-2528.115143
59487.217188,-2960.823768,-11029.068536,306.438199
59487.217497,-4737.318029,-8364.327145,-1838.629195
59487.217807,-3034.844362,-10732.986159,-1072.533697
59487.218117,-3182.885551,-9178.553681,-766.095498
59487.218426,-1332.370696,-9622.677246,919.314598
59487.218736,4663.297435,-9474.636058,4519.963438
59487.219045,3478.967927,-6217.729913,2374.896044
59487.219355,0.000000,-6291.750507,1225.752797
59487.219665,-74.020594,-10436.903782,2987.772442
59487.219974,-4219.173869,-9622.677246,-1915.238745
59487.220284,-2960.823768,-9844.739029,0.000000
59487.220593,-3849.070898,-7476.080014,-1532.190996
59487.220903,-2368.659014,-9992.780217,-306.438199
59487.221212,-2368.659014,-8364.327145,-229.828649
59487.221522,-888.247130,-8882.471304,1149.143247
59487.221832,3775.050304,-9474.636058,4826.401637
59487.222141,4663.297435,-7105.977043,3600.648841
59487.222451,1850.514855,-7179.997637,1455.581446
59487.222760,0.000000,-8364.327145,1225.752797
59487.223070,-2738.761985,-10658.965565,-2528.115143
59487.223380,-5921.647536,-10732.986159,-2451.505594
59487.223689,-4737.318029,-8364.327145,-2834.553343
59487.223999,-3478.967927,-10288.862594,-1225.752797
59487.224308,-2294.638420,-9178.553681,-76.609550
59487.224618,-962.267725,-8142.265362,1762.019645
59487.224927,3478.967927,-9474.636058,4826.401637
59487.225237,7031.956449,-8290.306550,6052.154434
59487.225547,3478.967927,-6143.709319,2374.896044
59487.225856,1184.329507,-8660.409521,3064.381992
59487.226166,-4071.132681,-9030.512492,-2528.115143
59487.226475,-2220.617826,-11917.315666,-2451.505594
59487.226785,-2146.597232,-8882.471304,-1915.238745
59487.227094,-2072.576638,-10510.924376,-919.314598
59487.227404,-1406.391290,-9474.636058,-306.438199
59487.227714,-1480.411884,-9400.615463,459.657299
59487.228023,3997.112087,-10732.986159,3830.477490
59487.228333,5551.544565,-9474.636058,6665.030833
59487.228642,3478.967927,-7105.977043,3600.648841
59487.228952,0.000000,-4811.338623,0.000000
59487.229262,2294.638420,-9474.636058,1762.019645
59487.229571,-2294.638420,-9548.656652,-2451.505594
59487.229881,-370.102971,-9474.636058,-229.828649
59487.230190,-2886.803174,-9992.780217,-1762.019645
59487.230500,-2368.659014,-9992.780217,-1149.143247
59487.230809,-2442.679609,-10214.842000,153.219100
59487.231119,1776.494261,-10732.986159,3677.258390
59487.231429,6809.894666,-9474.636058,6894.859482
59487.231738,6291.750507,-8142.265362,4826.401637
59487.232048,1702.473667,-4811.338623,229.828649
59487.232357,-1184.329507,-9548.656652,1838.629195
59487.232667,-2442.679609,-9178.553681,-1915.238745
59487.232977,-666.185348,-10658.965565,-76.609550
59487.233286,-3552.988522,-9918.759623,-1225.752797
59487.233596,-2960.823768,-10066.800811,-766.095498
59487.233905,-3034.844362,-8882.471304,-76.609550
59487.234215,0.000000,-8660.409521,1532.190996
59487.234524,3108.864956,-6587.832884,4903.011187
59487.234834,3775.050304,-8734.430116,6052.154434
59487.235144,2294.638420,-8290.306550,1149.143247
59487.235453,-2368.659014,-8364.327145,0.000000
59487.235763,-666.185348,-11843.295072,-76.609550
59487.236072,-74.020594,-10658.965565,-689.485948
59487.236382,-4219.173869,-9548.656652,-1838.629195
59487.236692,-4219.173869,-9548.656652,-1915.238745
59487.237001,-3997.112087,-9548.656652,-459.657299
59487.237311,-1776.494261,-8364.327145,0.000000
59487.237620,2960.823768,-7179.997637,4903.011187
59487.237930,4663.297435,-7105.977043,6588.421283
59487.238239,2294.638420,-7105.977043,1762.019645
59487.238549,-2368.659014,-7179.997637,1225.752797
59487.238859,-1258.350101,-11843.295072,-76.609550
59487.239168,-666.185348,-11621.233289,-995.924147
59487.239478,-3923.091493,-10510.924376,-2068.457845
59487.239787,-3627.009116,-11399.171507,-1608.800546
59487.240097,-3182.885551,-10362.883188,-306.438199
59487.240407,-2146.597232,-9548.656652,0.000000
59487.240716,0.000000,-5403.503377,2451.505594
59487.241026,2368.659014,-7179.997637,4903.011187
59487.241335,4663.297435,-9474.636058,4213.525239
59487.241645,0.000000,-5995.668130,612.876398
59487.241954,-74.020594,-12731.542202,2374.896044
59487.242264,444.123565,-10584.944971,766.095498
59487.242574,-1850.514855,-9474.636058,-689.485948
59487.242883,-2516.700203,-10214.842000,-1762.019645
59487.243193,-3330.926739,-9696.697840,-842.705048
59487.243502,-2146.597232,-8956.491898,0.000000
59487.243812,0.000000,-5995.668130,0.000000
59487.244122,2664.741391,-7179.997637,1225.752797
59487.244431,4663.297435,-10658.965565,4826.401637
59487.244741,0.000000,-5995.668130,0.000000
59487.245050,2294.638420,-12435.459826,3600.648841
59487.245360,592.164754,-9548.656652,1225.752797
59487.245669,-666.185348,-8586.388927,-153.219100
59487.245979,-2368.659014,-9992.780217,-919.314598
59487.246289,-3478.967927,-9770.718434,-1302.362347
59487.246598,-1258.350101,-10066.800811,-229.828649
59487.246908,-1406.391290,-7179.997637,0.000000
59487.247217,1184.329507,-5995.668130,0.000000
59487.247527,4737.318029,-9696.697840,4903.011187
59487.247836,1406.391290,-5403.503377,995.924147
59487.248146,1776.494261,-11325.150913,3370.820191
59487.248456,0.000000,-8956.491898,0.000000
59487.248765,-444.123565,-9252.574275,-306.438199
59487.249075,-2146.597232,-10807.006753,-689.485948
59487.249385,-2960.823768,-9178.553681,-1149.143247
59487.249694,-1258.350101,-11251.130318,-76.609550
59487.250004,1110.308913,-8290.306550,1149.143247
59487.250314,1184.329507,-5403.503377,0.000000
59487.250623,2960.823768,-8956.491898,4903.011187
59487.250933,1110.308913,-7105.977043,1149.143247
59487.251243,-1184.329507,-9548.656652,1532.190996
59487.251552,-370.102971,-11843.295072,1532.190996
59487.251862,-2738.761985,-8586.388927,-995.924147
59487.252172,-3256.906145,-11251.130318,-1915.238745
59487.252482,-4515.256246,-9770.718434,-2298.286494
59487.252791,-3182.885551,-9548.656652,-1838.629195
59487.253101,0.000000,-7179.997637,0.000000
59487.253411,1332.370696,-7179.997637,3677.258390
59487.253720,3478.967927,-9474.636058,6052.154434
59487.254030,0.000000,-4811.338623,766.095498
59487.254340,666.185348,-9474.636058,3600.648841
59487.254649,148.041188,-9844.739029,1225.752797
59487.254959,-1480.411884,-9178.553681,-229.828649
59487.255269,-3256.906145,-10288.862594,-1378.971896
59487.255578,-4145.153275,-9992.780217,-1378.971896
59487.255888,-4071.132681,-9178.553681,-1302.362347
59487.256198,-2072.576638,-8660.409521,-1685.410096
59487.256507,0.000000,-7179.997637,1532.190996
59487.256817,4071.132681,-10658.965565,4826.401637
59487.257127,0.000000,-5995.668130,0.000000
59487.257436,1850.514855,-9326.594869,4826.401637
59487.257746,2146.597232,-8956.491898,1838.629195
59487.258056,2294.638420,-10658.965565,1762.019645
59487.258365,-1850.514855,-9918.759623,-842.705048
59487.258675,-3182.885551,-10955.047942,-612.876398
59487.258985,-3182.885551,-10066.800811,-76.609550
59487.259295,-74.020594,-9622.677246,-76.609550
59487.259604,1184.329507,-5995.668130,1991.848295
59487.259914,2960.823768,-8364.327145,4903.011187
59487.260224,3478.967927,-7994.224174,1762.019645
59487.260533,0.000000,-7179.997637,1225.752797
59487.260843,592.164754,-8364.327145,0.000000
59487.261153,148.041188,-9844.739029,76.609550
59487.261462,-2664.741391,-10658.965565,-1532.190996
59487.261772,-2664.741391,-10436.903782,-1455.581446
59487.262082,-1702.473667,-11843.295072,-76.609550
59487.262391,2294.638420,-9474.636058,1762.019645
59487.262701,1776.494261,-6291.750507,1915.238745
59487.263011,0.000000,-4811.338623,2451.505594
59487.263320,5551.544565,-9474.636058,4826.401637
59487.263630,0.000000,-6735.874072,612.876398
59487.263940,0.000000,-7772.162391,0.000000
59487.264249,74.020594,-8438.347739,306.438199
59487.264559,-1850.514855,-8586.388927,-1532.190996
59487.264869,-2886.803174,-10214.842000,-2068.457845
59487.265178,-3627.009116,-11547.212695,-76.609550
59487.265488,-74.020594,-11843.295072,-76.609550
59487.265798,370.102971,-7476.080014,306.438199
59487.266108,0.000000,-5995.668130,2451.505594
59487.266417,3478.967927,-9474.636058,3294.210641
59487.266727,-2220.617826,-6143.709319,0.000000
59487.267037,222.061783,-9548.656652,0.000000
59487.267346,888.247130,-7772.162391,919.314598
59487.267656,-1628.453072,-9474.636058,76.609550
59487.267966,-2738.761985,-9918.759623,-1149.143247
59487.268275,-3034.844362,-10658.965565,1149.143247
59487.268585,-666.185348,-14211.954086,2987.772442
59487.268895,518.144159,-7920.203579,1149.143247
59487.269204,0.000000,-5995.668130,2451.505594
59487.269514,2294.638420,-9474.636058,2374.896044
59487.269824,-2368.659014,-7179.997637,0.000000
59487.270133,-74.020594,-9474.636058,1149.143247
59487.270443,74.020594,-8068.244768,1455.581446
59487.270753,-1184.329507,-7550.100608,0.000000
59487.271062,-2368.659014,-10584.944971,-383.047749
59487.271372,-2960.823768,-10140.821405,1532.190996
59487.271682,-370.102971,-13027.624579,3600.648841
59487.271991,1998.556043,-9474.636058,2374.896044
59487.272301,-3552.988522,-4811.338623,0.000000
59487.272611,740.205942,-9400.615463,2757.943793
59487.272921,-1258.350101,-7105.977043,-76.609550
59487.273230,-74.020594,-9474.636058,1149.143247
59487.273540,-592.164754,-9548.656652,842.705048
59487.273850,-1554.432478,-8512.368333,536.266849
59487.274159,-3627.009116,-9696.697840,-689.485948
59487.274469,-7105.977043,-8956.491898,0.000000
59487.274779,-6513.812290,-11917.315666,1225.752797
59487.275088,-2442.679609,-12435.459826,2374.896044
59487.275398,-4367.215058,-5107.421000,0.000000
59487.275708,-1184.329507,-9548.656652,3983.696590
59487.276017,-2146.597232,-5625.565159,1149.143247
59487.276327,-1406.391290,-9178.553681,2374.896044
59487.276637,-3034.844362,-9252.574275,1225.752797
59487.276946,-2664.741391,-7772.162391,766.095498
59487.277256,-3701.029710,-7994.224174,0.000000
59487.277566,-7105.977043,-8364.327145,-2451.505594
59487.277875,-8290.306550,-9548.656652,0.000000
59487.278185,-6883.915261,-13545.768739,306.438199
59487.278495,-4811.338623,-10658.965565,-76.609550
59487.278804,-4737.318029,-7179.997637,1225.752797
59487.279114,-1258.350101,-9474.636058,4213.525239
59487.279424,-2072.576638,-9178.553681,4136.915689
59487.279734,-3034.844362,-7328.038826,1991.848295
59487.280043,-3627.009116,-8216.285956,1915.238745
59487.280353,-3552.988522,-7179.997637,1838.629195
59487.280663,-4737.318029,-5995.668130,0.000000
59487.280972,-8290.306550,-5995.668130,0.000000
59487.281282,-8586.388927,-9548.656652,-153.219100
59487.281592,-8364.327145,-11251.130318,-3140.991542
59487.281901,-10658.965565,-11325.150913,0.000000
59487.282211,-4811.338623,-11843.295072,-76.609550
59487.282521,-2812.782580,-9252.574275,2451.505594
59487.282830,-592.164754,-7624.121203,3600.648841
59487.283140,-962.267725,-7698.141797,3447.429741
59487.283450,-1628.453072,-8586.388927,2604.724693
59487.283759,-3775.050304,-6809.894666,0.000000
59487.284069,-7105.977043,-4811.338623,0.000000
59487.284379,-4441.235652,-7772.162391,0.000000
59487.284688,-74.020594,-11843.295072,2374.896044
59487.284998,-4441.235652,-7179.997637,0.000000
59487.285308,-3627.009116,-13619.789333,-76.609550
59487.285617,-7105.977043,-12509.480420,-1225.752797
59487.285927,-5995.668130,-12805.562797,-229.828649
59487.286237,-4367.215058,-11473.192101,536.266849
59487.286547,-3108.864956,-9030.512492,2451.505594
59487.286856,-74.020594,-6513.812290,3600.648841
59487.287166,1850.514855,-2442.679609,3064.381992
59487.287476,1776.494261,-3627.009116,1225.752797
59487.287785,-74.020594,-9474.636058,4826.401637
59487.288095,-4293.194464,-7179.997637,0.000000
59487.288405,-1036.288319,-10584.944971,1149.143247
59487.288714,-6513.812290,-8956.491898,-3064.381992
59487.289024,-6809.894666,-11103.089130,-3140.991542
59487.289334,-3182.885551,-10955.047942,-1608.800546
59487.289643,222.061783,-10214.842000,-76.609550
59487.289953,-74.020594,-13027.624579,-76.609550
59487.290263,-4811.338623,-11251.130318,-76.609550
59487.290572,-2960.823768,-9548.656652,0.000000
59487.290882,4367.215058,-10436.903782,5975.544884
59487.291192,0.000000,-5329.482782,2681.334243
59487.291501,-2368.659014,-8364.327145,5209.449386
59487.291811,-2960.823768,-5995.668130,383.047749
59487.292121,1924.535449,-6217.729913,1915.238745
59487.292430,1036.288319,-6069.688724,2221.676944
59487.292740,-3849.070898,-8290.306550,229.828649
59487.293050,-5995.668130,-13027.624579,-76.609550
59487.293360,-4811.338623,-12731.542202,-3753.867940
59487.293669,-7402.059420,-12435.459826,-3753.867940
59487.293979,-8882.471304,-11325.150913,0.000000
59487.294289,-4811.338623,-11843.295072,-76.609550
59487.294598,-5921.647536,-8364.327145,0.000000
59487.294908,0.000000,-6587.832884,2451.505594
59487.295218,4959.379811,-4959.379811,7584.345430
59487.295527,4811.338623,-3330.926739,7201.297681
59487.295837,-222.061783,-4663.297435,3370.820191
59487.296147,-4811.338623,-11843.295072,2068.457845
59487.296456,-4811.338623,-14211.954086,-1302.362347
59487.296766,-6883.915261,-11251.130318,-3140.991542
59487.297076,-10658.965565,-9548.656652,-3064.381992
59487.297385,-10140.821405,-11843.295072,-4366.744339
59487.297695,-12435.459826,-11325.150913,-4903.011187
59487.298005,-5107.421000,-10140.821405,229.828649
59487.298314,-2368.659014,-5995.668130,3677.258390
59487.298624,-1036.288319,-3775.050304,4903.011187
59487.298934,3330.926739,-2368.659014,6665.030833
59487.299243,5921.647536,-4737.318029,8656.879127
59487.299553,4071.132681,-10658.965565,6052.154434
59487.299863,-4811.338623,-11251.130318,-76.609550
59487.300173,-11843.295072,-12509.480420,-4290.134789
59487.300482,-6587.832884,-15396.283594,-2681.334243
59487.300792,-9844.739029,-9548.656652,-6128.763984
59487.301102,-7772.162391,-10658.965565,-4060.306139
59487.301411,-7994.224174,-11399.171507,-2911.162892
59487.301721,-6217.729913,-12361.439231,-766.095498
59487.302031,-4737.318029,-12583.501014,1685.410096
59487.302340,-1776.494261,-8956.491898,6128.763984
59487.302650,2812.782580,-6661.853478,9346.365076
59487.302960,6439.791695,0.000000,9729.412825
59487.303269,4737.318029,2294.638420,7354.516781
59487.303579,7031.956449,-2368.659014,6052.154434
59487.303889,518.144159,-4885.359217,842.705048
59487.304198,-3182.885551,-13323.706956,-2528.115143
59487.304508,-10584.944971,-17394.839637,-6281.983084
59487.304818,-15396.283594,-20651.745782,-8503.660028
59487.305127,-15396.283594,-19467.416275,-7584.345430
59487.305437,-12435.459826,-14285.974681,-4903.011187
59487.305747,-5921.647536,-11029.068536,0.000000
59487.306056,-592.164754,-7179.997637,5515.887586
59487.306366,6439.791695,-3552.988522,7277.907231
59487.306676,6217.729913,-74.020594,8580.269578
59487.306986,9400.615463,0.000000,9729.412825
59487.307295,7624.121203,-2960.823768,9652.803275
59487.307605,1998.556043,-5921.647536,4519.963438
59487.307915,-3256.906145,-9400.615463,-306.438199
59487.308224,-8216.285956,-13545.768739,-3600.648841
59487.308534,-14211.954086,-15470.304188,-7048.078582
59487.308844,-15396.283594,-17838.963202,-7354.516781
59487.309153,-13027.624579,-17838.963202,-4903.011187
59487.309463,-8364.327145,-14211.954086,-4060.306139
59487.309773,-5625.565159,-8364.327145,0.000000
59487.310082,4071.132681,-4737.318029,4826.401637
59487.310392,6661.853478,-2960.823768,8197.221829
59487.310702,7402.059420,740.205942,7890.783629
59487.311011,7105.977043,-888.247130,8044.002729
59487.311321,5403.503377,-3849.070898,6281.983084
59487.311631,0.000000,-3330.926739,612.876398
59487.311940,-6513.812290,-9548.656652,-2451.505594
59487.312250,-8882.471304,-12509.480420,-3677.258390
59487.312560,-10732.986159,-18949.272115,-7431.126331
59487.312869,-14211.954086,-17838.963202,-9499.584175
59487.313179,-9548.656652,-22502.260637,-3140.991542
59487.313489,-6735.874072,-17394.839637,-1762.019645
59487.313799,-1554.432478,-10955.047942,2221.676944
59487.314108,666.185348,-6365.771101,6281.983084
59487.314418,4959.379811,-296.082377,8733.488677
59487.314728,4959.379811,3552.988522,7354.516781
59487.315037,2368.659014,4071.132681,7354.516781
59487.315347,1184.329507,-74.020594,7354.516781
59487.315657,-74.020594,-5921.647536,4826.401637
59487.315966,-6217.729913,-8956.491898,0.000000
59487.316276,-5403.503377,-15396.283594,-76.609550
59487.316586,-9474.636058,-15766.386565,-4749.792088
59487.316895,-9770.718434,-17838.963202,-4366.744339
59487.317205,-8068.244768,-17024.736666,-3140.991542
59487.317515,-4367.215058,-14878.139434,-459.657299
59487.317824,-74.020594,-11251.130318,3294.210641
59487.318134,3478.967927,-4885.359217,4826.401637
59487.318444,4737.318029,-74.020594,6281.983084
59487.318753,9474.636058,-2442.679609,12410.747068
59487.319063,8512.368333,1332.370696,9729.412825
59487.319373,8882.471304,-3330.926739,12870.404366
59487.319682,2664.741391,-4811.338623,6128.763984
59487.319992,-814.226536,-10140.821405,4213.525239
59487.320302,-4885.359217,-11769.274478,536.266849
59487.320612,-7476.080014,-15692.365970,-1991.848295
59487.320921,-5403.503377,-20133.601622,-1302.362347
59487.321231,-3627.009116,-18357.107362,-76.609550
59487.321541,-5921.647536,-14285.974681,0.000000
59487.321850,0.000000,-13397.727550,5822.325785
59487.322160,4663.297435,-8586.388927,8503.660028
59487.322470,3552.988522,-4811.338623,10112.460574
59487.322779,5921.647536,-74.020594,9806.022374
59487.323089,7105.977043,0.000000,11491.432470
59487.323399,6143.709319,-962.267725,10955.165621
59487.323708,4441.235652,-2516.700203,9882.631924
59487.324018,4071.132681,-9474.636058,8503.660028
59487.324328,-74.020594,-11843.295072,6052.154434
59487.324637,-4515.256246,-11917.315666,1915.238745
59487.324947,-6513.812290,-16062.468941,2451.505594
59487.325257,-7179.997637,-21317.931130,3294.210641
59487.325566,-10658.965565,-14582.057057,2451.505594
59487.325876,-5995.668130,-9844.739029,4366.744339
59487.326186,1554.432478,-3256.906145,8656.879127
59487.326495,7328.038826,888.247130,11874.480219
59487.326805,6957.935855,2072.576638,13406.671215
59487.327115,7328.038826,-2368.659014,16471.053207
59487.327425,5847.626942,-4737.318029,14019.547613
59487.327734,-74.020594,-4145.153275,6665.030833
59487.328044,-4737.318029,-7772.162391,5515.887586
59487.328354,-4811.338623,-10362.883188,4519.963438
59487.328663,-6513.812290,-7179.997637,919.314598
59487.328973,-2442.679609,-13915.871710,2221.676944
59487.329283,-4737.318029,-14434.015869,2145.067394
59487.329592,-6587.832884,-18135.045579,1455.581446
59487.329902,-6513.812290,-17320.819043,3677.258390
59487.330212,-1184.329507,-12361.439231,6741.640382
59487.330521,3478.967927,-7105.977043,9806.022374
59487.330831,7031.956449,0.000000,9729.412825
59487.331141,2368.659014,4071.132681,6435.202183
59487.331450,4737.318029,-666.185348,8580.269578
59487.331760,2220.617826,-444.123565,4290.134789
59487.332070,1110.308913,-7105.977043,4213.525239
59487.332379,-1776.494261,-11029.068536,2604.724693
59487.332689,-4441.235652,-15914.427753,229.828649
59487.332999,-8660.409521,-19837.519246,-2221.676944
59487.333308,-9474.636058,-19911.539840,-1838.629195
59487.333618,-6217.729913,-17542.880825,-1225.752797
59487.333928,-666.185348,-15396.283594,1762.019645
59487.334238,518.144159,-7402.059420,1149.143247
59487.334547,2368.659014,-4811.338623,4903.011187
59487.334857,6439.791695,-2664.741391,3907.087040
59487.335167,8808.450710,-2368.659014,5745.716235
59487.335476,5625.565159,-3256.906145,4519.963438
59487.335786,1554.432478,-8142.265362,3677.258390
59487.336096,518.144159,-9622.677246,1532.190996
59487.336405,-2368.659014,-10732.986159,0.000000
59487.336715,-2368.659014,-10732.986159,-3677.258390
59487.337025,-2664.741391,-13989.892304,-766.095498
59487.337334,-3627.009116,-13619.789333,-2528.115143
59487.337644,-3552.988522,-12509.480420,-4903.011187
59487.337954,-74.020594,-13619.789333,-1608.800546
59487.338263,962.267725,-13619.789333,842.705048
59487.338573,-370.102971,-11547.212695,1378.971896
59487.338883,3108.864956,-7031.956449,2757.943793
59487.339192,5329.482782,-2738.761985,3983.696590
59487.339502,3552.988522,-74.020594,4903.011187
59487.339812,2368.659014,-74.020594,1225.752797
59487.340121,3552.988522,-6735.874072,4903.011187
59487.340431,2294.638420,-7105.977043,-76.609550
59487.340741,-2368.659014,-11917.315666,0.000000
59487.341051,-2442.679609,-17764.942608,-76.609550
59487.341360,-4737.318029,-17542.880825,-306.438199
59487.341670,-3478.967927,-12731.542202,-1915.238745
59487.341980,-2368.659014,-10584.944971,0.000000
59487.342289,518.144159,-7846.182985,2834.553343
59487.342599,1184.329507,-3034.844362,2451.505594
59487.342909,1184.329507,-2442.679609,1225.752797
59487.343218,0.000000,-8660.409521,6128.763984
59487.343528,-74.020594,-10658.965565,4826.401637
59487.343838,0.000000,-8364.327145,7354.516781
59487.344147,2294.638420,-8882.471304,7277.907231
59487.344457,-1480.411884,-6883.915261,4903.011187
59487.344767,-74.020594,-7402.059420,4903.011187
59487.345076,518.144159,-9252.574275,5209.449386
59487.345386,-666.185348,-10214.842000,4060.306139
59487.345696,-4811.338623,-9770.718434,536.266849
59487.346005,-5181.441594,-10955.047942,1762.019645
59487.346315,0.000000,-9548.656652,4903.011187
59487.346625,4071.132681,-8882.471304,7277.907231
59487.346934,0.000000,-5699.585753,6435.202183
59487.347244,1850.514855,-10658.965565,9576.193725
59487.347554,592.164754,-8660.409521,7354.516781
59487.347863,592.164754,-8660.409521,7660.954980
59487.348173,-2590.720797,-10066.800811,7277.907231
59487.348483,-2146.597232,-8364.327145,6665.030833
59487.348792,-370.102971,-8142.265362,6052.154434
59487.349102,-1850.514855,-8290.306550,6052.154434
59487.349412,-3552.988522,-4811.338623,4903.011187
59487.349722,-74.020594,-7698.141797,5439.278036
59487.350031,0.000000,-5995.668130,2528.115143
59487.350341,2368.659014,-8364.327145,7354.516781
59487.350651,-1480.411884,-8068.244768,4903.011187
59487.350960,-2072.576638,-11029.068536,5439.278036
59487.351270,-1258.350101,-10510.924376,5132.839837
59487.351580,-74.020594,-11547.212695,4673.182538
59487.351889,-74.020594,-10362.883188,7277.907231
59487.352199,666.185348,-7698.141797,5286.058936
59487.352509,-74.020594,-11843.295072,6971.469032
59487.352818,-3552.988522,-7179.997637,3677.258390
59487.353128,-1184.329507,-9400.615463,5286.058936
59487.353438,0.000000,-5995.668130,4903.011187
59487.353747,518.144159,-5181.441594,3983.696590
59487.354057,148.041188,-6587.832884,4290.134789
59487.354367,148.041188,-7328.038826,2987.772442
59487.354676,-1036.288319,-8808.450710,3677.258390
59487.354986,2294.638420,-11843.295072,5745.716235
59487.355296,2294.638420,-11843.295072,7201.297681
59487.355605,-74.020594,-10658.965565,4826.401637
59487.355915,-2368.659014,-8512.368333,2604.724693
59487.356225,-74.020594,-10881.027347,5822.325785
59487.356534,-2072.576638,-7179.997637,2451.505594
59487.356844,-518.144159,-6513.812290,1455.581446
59487.357154,-888.247130,-6809.894666,842.705048
59487.357463,370.102971,-7402.059420,842.705048
59487.357773,148.041188,-8068.244768,1149.143247
59487.358083,296.082377,-10881.027347,1225.752797
59487.358392,592.164754,-12657.521608,3370.820191
59487.358702,-1258.350101,-11843.295072,-76.609550
59487.359012,-2072.576638,-10140.821405,0.000000
59487.359321,-74.020594,-9474.636058,-76.609550
59487.359631,0.000000,-3627.009116,0.000000
59487.359941,2294.638420,-6809.894666,842.705048
59487.360250,740.205942,-7994.224174,76.609550
59487.360560,-74.020594,-10214.842000,-689.485948
59487.360870,-518.144159,-10510.924376,-1608.800546
59487.361179,0.000000,-10732.986159,-1225.752797
59487.361489,0.000000,-9548.656652,0.000000
59487.361799,-74.020594,-11843.295072,-2528.115143
59487.362108,-3552.988522,-8364.327145,-5822.325785
59487.362418,-74.020594,-12805.562797,-842.705048
59487.362728,-666.185348,-8882.471304,-5362.668486
59487.363037,814.226536,-10288.862594,-2604.724693
59487.363347,-296.082377,-10288.862594,-2451.505594
59487.363657,370.102971,-9844.739029,-2451.505594
59487.363966,296.082377,-9178.553681,-2451.505594
59487.364276,0.000000,-8364.327145,-2451.505594
59487.364586,0.000000,-8364.327145,0.000000
59487.364895,-74.020594,-11843.295072,-1608.800546
59487.365205,-1554.432478,-8438.347739,-4519.963438
59487.365515,1110.308913,-10140.821405,-1225.752797
59487.365824,-74.020594,-6809.894666,-5592.497135
59487.366134,0.000000,-7328.038826,-4290.134789
59487.366444,-666.185348,-11029.068536,-3753.867940
59487.366753,-1036.288319,-13767.830521,-3830.477490
59487.367063,-296.082377,-13249.686362,-2681.334243
59487.367373,-2368.659014,-11325.150913,-3677.258390
59487.367682,0.000000,-7179.997637,-4290.134789
59487.367992,1702.473667,-9474.636058,-76.609550
59487.368302,-1924.535449,-5699.585753,-3064.381992
59487.368611,2886.803174,-9474.636058,-76.609550
59487.368921,2294.638420,-8290.306550,-1302.362347
59487.369231,592.164754,-9252.574275,0.000000
59487.369540,-1258.350101,-10584.944971,-76.609550
59487.369850,-666.185348,-9474.636058,-536.266849
59487.370160,370.102971,-9326.594869,919.314598
59487.370469,74.020594,-6809.894666,0.000000
59487.370779,0.000000,-5551.544565,0.000000
59487.371089,-2368.659014,-7772.162391,1225.752797
59487.371398,-74.020594,-11695.253884,2374.896044
59487.371708,-4219.173869,-8660.409521,0.000000
59487.372018,-74.020594,-9474.636058,2374.896044
59487.372327,-740.205942,-8660.409521,2451.505594
59487.372637,222.061783,-6513.812290,3217.601092
59487.372947,1110.308913,-6957.935855,3677.258390
59487.373256,1480.411884,-7031.956449,4290.134789
59487.373566,1110.308913,-7105.977043,3294.210641
59487.373876,-74.020594,-7105.977043,2374.896044
59487.374185,-3256.906145,-7772.162391,2451.505594
59487.374495,-1258.350101,-10658.965565,3600.648841
59487.374805,-2368.659014,-8364.327145,3677.258390
59487.375114,-74.020594,-10658.965565,6052.154434
59487.375424,-1184.329507,-7920.203579,3064.381992
59487.375734,-1036.288319,-7846.182985,3983.696590
59487.376043,-148.041188,-8808.450710,4596.572988
59487.376353,962.267725,-8438.347739,5286.058936
59487.376663,2886.803174,-9474.636058,6665.030833
59487.376972,2886.803174,-8882.471304,4826.401637
59487.377282,-2368.659014,-7772.162391,3677.258390
59487.377592,-1258.350101,-11251.130318,4826.401637
59487.377901,-5921.647536,-5995.668130,0.000000
59487.378211,-1776.494261,-9474.636058,5439.278036
59487.378521,-740.205942,-6587.832884,2374.896044
59487.378830,-518.144159,-7402.059420,3370.820191
59487.379140,-1406.391290,-10140.821405,3677.258390
59487.379450,-888.247130,-10658.965565,3294.210641
59487.379759,-74.020594,-11843.295072,4826.401637
59487.380069,2294.638420,-10658.965565,4826.401637
59487.380379,0.000000,-5995.668130,3677.258390
59487.380688,2294.638420,-8290.306550,5439.278036
59487.380998,-2368.659014,-4811.338623,0.000000
59487.381308,-1184.329507,-9548.656652,2757.943793
59487.381617,-3182.885551,-10214.842000,229.828649
59487.381927,-592.164754,-10658.965565,3370.820191
59487.382237,0.000000,-8216.285956,1225.752797
59487.382546,0.000000,-6439.791695,0.000000
59487.382856,1406.391290,-10288.862594,2145.067394
59487.383166,3775.050304,-11843.295072,3294.210641
59487.383475,-74.020594,-10955.047942,1149.143247
59487.383785,-2368.659014,-10732.986159,0.000000
59487.384095,-74.020594,-11843.295072,-76.609550
59487.384404,-3256.906145,-8364.327145,612.876398
59487.384714,-74.020594,-7105.977043,-689.485948
59487.385024,-370.102971,-7402.059420,-842.705048
59487.385333,-370.102971,-7476.080014,-1378.971896
59487.385643,1036.288319,-9474.636058,-1072.533697
59487.385953,1480.411884,-11621.233289,0.000000
59487.386262,3182.885551,-13619.789333,1532.190996
59487.386572,-1702.473667,-10436.903782,-1838.629195
59487.386882,-148.041188,-11399.171507,-76.609550
59487.387191,-74.020594,-9474.636058,-3140.991542
59487.387501,-3552.988522,-7179.997637,-2451.505594
59487.387811,-962.267725,-9770.718434,-2604.724693
59487.388120,-518.144159,-8586.388927,-2911.162892
59487.388430,296.082377,-9548.656652,-1225.752797
59487.388740,1184.329507,-8438.347739,-1072.533697
59487.389049,296.082377,-8660.409521,0.000000
59487.389359,592.164754,-8364.327145,1225.752797
59487.389669,3478.967927,-9474.636058,-76.609550
59487.389978,-1258.350101,-6587.832884,-4903.011187
59487.390288,-1184.329507,-10140.821405,-919.314598
59487.390598,-3330.926739,-8364.327145,-3524.039291
59487.390907,-2146.597232,-12583.501014,-3447.429741
59487.391217,-1332.370696,-11769.274478,-2834.553343
59487.391527,-1850.514855,-12139.377449,-1915.238745
59487.391836,370.102971,-10658.965565,-536.266849
59487.392146,592.164754,-7772.162391,459.657299
59487.392456,0.000000,-6587.832884,306.438199
59487.392765,3478.967927,-9178.553681,3524.039291
59487.393075,1702.473667,-6587.832884,0.000000
59487.393385,1184.329507,-8956.491898,2451.505594
59487.393694,-1258.350101,-7105.977043,0.000000
59487.394004,-1776.494261,-8364.327145,-766.095498
59487.394314,-1850.514855,-9770.718434,-919.314598
59487.394624,-1480.411884,-9992.780217,0.000000
59487.394933,-740.205942,-12139.377449,995.924147
59487.395243,-2368.659014,-9548.656652,995.924147
59487.395553,0.000000,-7179.997637,1225.752797
59487.395862,2960.823768,-8068.244768,4903.011187
59487.396172,2294.638420,-5033.400406,1762.019645
59487.396482,0.000000,-9548.656652,3064.381992
59487.396791,-1258.350101,-9178.553681,153.219100
59487.397101,-3552.988522,-9548.656652,612.876398
59487.397411,-2960.823768,-9474.636058,459.657299
59487.397720,-3256.906145,-7105.977043,0.000000
59487.398030,-2294.638420,-6957.935855,1149.143247
59487.398340,-1628.453072,-5033.400406,536.266849
59487.398649,-1184.329507,-7179.997637,1302.362347
59487.398959,1184.329507,-8364.327145,3064.381992
59487.399269,1702.473667,-10658.965565,2374.896044
59487.399578,0.000000,-10140.821405,2451.505594
59487.399888,-2960.823768,-9548.656652,612.876398
59487.400198,-2960.823768,-8660.409521,919.314598
59487.400507,-962.267725,-8882.471304,995.924147
59487.400817,-1184.329507,-6883.915261,1225.752797
59487.401127,148.041188,-8364.327145,2528.115143
59487.401436,0.000000,-7772.162391,2451.505594
59487.401746,0.000000,-8364.327145,3677.258390
59487.402056,2294.638420,-9474.636058,4213.525239
59487.402365,740.205942,-9548.656652,6358.592633
59487.402675,-1258.350101,-7179.997637,1455.581446
59487.402985,-1332.370696,-7624.121203,1225.752797
59487.403294,-2072.576638,-9030.512492,1762.019645
59487.403604,-888.247130,-9326.594869,1378.971896
59487.403914,-1258.350101,-9104.533087,1991.848295
59487.404223,-888.247130,-10362.883188,2374.896044
59487.404533,-1036.288319,-9548.656652,2451.505594
59487.404843,0.000000,-8956.491898,5515.887586
59487.405152,3478.967927,-8290.306550,4826.401637
59487.405462,0.000000,-6587.832884,5515.887586
59487.405772,1702.473667,-7105.977043,2374.896044
59487.406081,-2368.659014,-6587.832884,1225.752797
59487.406391,-1924.535449,-9326.594869,766.095498
59487.406701,-2442.679609,-10362.883188,76.609550
59487.407010,-2738.761985,-9770.718434,0.000000
59487.407320,-2294.638420,-9548.656652,612.876398
59487.407630,-1036.288319,-9252.574275,1838.629195
59487.407939,-1776.494261,-7179.997637,2451.505594
59487.408249,2886.803174,-8290.306550,3294.210641
59487.408559,1776.494261,-6587.832884,3064.381992
59487.408868,3478.967927,-9474.636058,2068.457845
59487.409178,-962.267725,-10955.047942,1455.581446
59487.409488,-2442.679609,-11251.130318,-1302.362347
59487.409797,-2664.741391,-10288.862594,-2221.676944
59487.410107,-2886.803174,-9918.759623,-1149.143247
59487.410417,-2294.638420,-8808.450710,-1608.800546
59487.410726,592.164754,-10214.842000,0.000000
59487.411036,4293.194464,-10362.883188,2987.772442
59487.411346,2294.638420,-7402.059420,-76.609550
59487.411655,592.164754,-8364.327145,1225.752797
59487.411965,-74.020594,-9474.636058,-76.609550
59487.412275,-1776.494261,-10140.821405,-1532.190996
59487.412584,-1554.432478,-10658.965565,-1991.848295
59487.412894,-2220.617826,-11177.109724,-2681.334243
59487.413204,-1480.411884,-9844.739029,-2451.505594
59487.413513,-888.247130,-10140.821405,-2145.067394
59487.413823,-592.164754,-9622.677246,-1225.752797
59487.414133,296.082377,-9252.574275,612.876398
59487.414442,2886.803174,-9474.636058,-76.609550
59487.414752,1776.494261,-8068.244768,0.000000
59487.415062,3775.050304,-11251.130318,3370.820191
59487.415371,0.000000,-8586.388927,-1762.019645
59487.415681,-1850.514855,-8882.471304,-2145.067394
59487.415991,-2220.617826,-8734.430116,-3753.867940
59487.416300,-2146.597232,-8068.244768,-2987.772442
59487.416610,-2368.659014,-9326.594869,-2834.553343
59487.416920,-2072.576638,-9548.656652,-2145.067394
59487.417229,0.000000,-10732.986159,1225.752797
59487.417539,4071.132681,-11843.295072,2374.896044
59487.417849,1776.494261,-7179.997637,0.000000
59487.418158,3923.091493,-9474.636058,4443.353888
59487.418468,962.267725,-5773.606348,0.000000
59487.418778,-74.020594,-7698.141797,-76.609550
59487.419087,-1332.370696,-8734.430116,-842.705048
59487.419397,-1998.556043,-9770.718434,-1072.533697
59487.419707,-3849.070898,-11695.253884,-1302.362347
59487.420016,-4737.318029,-10140.821405,-1608.800546
59487.420326,-4145.153275,-8364.327145,0.000000
59487.420636,1776.494261,-8660.409521,3524.039291
59487.420945,3923.091493,-5921.647536,2374.896044
59487.421255,0.000000,-4811.338623,2451.505594
59487.421565,1110.308913,-7994.224174,0.000000
59487.421874,-592.164754,-9992.780217,1532.190996
59487.422184,-2738.761985,-10658.965565,0.000000
59487.422494,-3182.885551,-10140.821405,-383.047749
59487.422803,-3552.988522,-8734.430116,-383.047749
59487.423113,-3330.926739,-6217.729913,0.000000
59487.423423,-1406.391290,-5107.421000,0.000000
59487.423732,1480.411884,-8068.244768,3064.381992
59487.424042,4663.297435,-11251.130318,4826.401637
59487.424352,0.000000,-10140.821405,2451.505594
59487.424661,1702.473667,-13323.706956,2298.286494
59487.424971,-1184.329507,-10436.903782,2068.457845
59487.425281,-1184.329507,-8808.450710,1532.190996
59487.425590,0.000000,-5847.626942,1378.971896
59487.425900,-666.185348,-5921.647536,2374.896044
59487.426210,-1702.473667,-8882.471304,2068.457845
59487.426519,-1258.350101,-9474.636058,1149.143247
59487.426829,-2368.659014,-11029.068536,2757.943793
59487.427139,2294.638420,-14211.954086,7277.907231
59487.427448,0.000000,-5995.668130,3677.258390
59487.427758,2294.638420,-7698.141797,3294.210641
59487.428068,0.000000,-5033.400406,2221.676944
59487.428377,-814.226536,-7328.038826,1608.800546
59487.428687,-1258.350101,-9178.553681,842.705048
59487.428997,-3330.926739,-11473.192101,1149.143247
59487.429306,-4811.338623,-13027.624579,-76.609550
59487.429616,-3627.009116,-10955.047942,-689.485948
59487.429926,-2072.576638,-8660.409521,2757.943793
59487.430235,2590.720797,-7105.977043,4826.401637
59487.430545,0.000000,-4811.338623,3677.258390
59487.430855,3108.864956,-7698.141797,4826.401637
59487.431164,370.102971,-7179.997637,2068.457845
59487.431474,-1628.453072,-8586.388927,766.095498
59487.431784,-2146.597232,-9178.553681,-536.266849
59487.432093,-4219.173869,-9548.656652,-1838.629195
59487.432403,-2442.679609,-12435.459826,-689.485948
59487.432713,-1258.350101,-12435.459826,-76.609550
59487.433022,-1776.494261,-7328.038826,0.000000
59487.433332,2960.823768,-8956.491898,4903.011187
59487.433642,4071.132681,-7105.977043,2987.772442
59487.433951,2960.823768,-8586.388927,3600.648841
59487.434261,1110.308913,-9104.533087,1838.629195
59487.434571,0.000000,-9400.615463,229.828649
59487.434880,74.020594,-9178.553681,-689.485948
59487.435190,-1850.514855,-8216.285956,-2451.505594
59487.435500,-1258.350101,-10584.944971,-383.047749
59487.435809,-74.020594,-11843.295072,-76.609550
59487.436119,-962.267725,-9548.656652,-1915.238745
59487.436429,3256.906145,-11621.233289,3677.258390
59487.436738,3478.967927,-9474.636058,1762.019645
59487.437048,1776.494261,-10807.006753,3907.087040
59487.437358,2294.638420,-8290.306550,842.705048
59487.437667,962.267725,-8290.306550,153.219100
59487.437977,148.041188,-9400.615463,-1302.362347
59487.438287,-2368.659014,-10436.903782,-3677.258390
59487.438596,-2960.823768,-12065.356855,-2451.505594
59487.438906,-666.185348,-13619.789333,-229.828649
59487.439216,-1554.432478,-8660.409521,-1608.800546
59487.439526,0.000000,-7179.997637,1225.752797
59487.439835,4663.297435,-8882.471304,2987.772442
59487.440145,888.247130,-8956.491898,2681.334243
59487.440455,1850.514855,-9474.636058,1149.143247
59487.440764,0.000000,-9770.718434,-383.047749
59487.441074,-444.123565,-9400.615463,-1608.800546
59487.441384,-1924.535449,-7476.080014,-3524.039291
59487.441693,-3552.988522,-9548.656652,-4290.134789
59487.442003,-2812.782580,-11029.068536,-1225.752797
59487.442313,-1258.350101,-11843.295072,-689.485948
59487.442622,0.000000,-9548.656652,1225.752797
59487.442932,4071.132681,-10658.965565,4826.401637
59487.443242,0.000000,-6587.832884,3677.258390
59487.443551,1406.391290,-5625.565159,1915.238745
59487.443861,518.144159,-5625.565159,1072.533697
59487.444171,-370.102971,-7920.203579,689.485948
59487.444480,-2220.617826,-9178.553681,-383.047749
59487.444790,-5329.482782,-10732.986159,-3677.258390
59487.445100,-4737.318029,-11029.068536,0.000000
59487.445409,-370.102971,-9474.636058,1762.019645
59487.445719,-74.020594,-4293.194464,-229.828649
59487.446029,1184.329507,-5403.503377,4903.011187
59487.446338,1776.494261,-6587.832884,3064.381992
59487.446648,2738.761985,-10658.965565,3294.210641
59487.446958,1110.308913,-11251.130318,2145.067394
59487.447267,0.000000,-9474.636058,536.266849
59487.447577,-1480.411884,-8290.306550,-76.609550
59487.447887,-3997.112087,-7179.997637,-3140.991542
59487.448196,-4441.235652,-8364.327145,-1838.629195
59487.448506,-74.020594,-11621.233289,3370.820191
59487.448816,-74.020594,-9178.553681,76.609550
59487.449125,1184.329507,-10140.821405,4903.011187
59487.449435,592.164754,-7179.997637,2528.115143
59487.449745,2220.617826,-7994.224174,3217.601092
59487.450054,1702.473667,-7476.080014,2528.115143
59487.450364,1480.411884,-7624.121203,1608.800546
59487.450673,666.185348,-10658.965565,1762.019645
59487.450983,-3034.844362,-10214.842000,-689.485948
59487.451293,-5921.647536,-10732.986159,-2451.505594
59487.451602,-2664.741391,-12435.459826,995.924147
59487.451912,-4737.318029,-7772.162391,0.000000
59487.452222,0.000000,-5995.668130,1225.752797
59487.452531,0.000000,-5995.668130,3983.696590
59487.452841,370.102971,-5033.400406,1762.019645
59487.453151,1184.329507,-7179.997637,3677.258390
59487.453460,1110.308913,-8290.306550,2374.896044
59487.453770,-74.020594,-8882.471304,1149.143247
59487.454079,-4293.194464,-8364.327145,-1302.362347
59487.454389,-4737.318029,-9548.656652,-1685.410096
59487.454699,-962.267725,-11029.068536,2374.896044
59487.455008,-666.185348,-7698.141797,-689.485948
59487.455318,0.000000,-7179.997637,2451.505594
59487.455628,0.000000,-5995.668130,2451.505594
59487.455937,1924.535449,-8216.285956,3064.381992
59487.456247,1406.391290,-7772.162391,2451.505594
59487.456557,888.247130,-8142.265362,1838.629195
59487.456866,740.205942,-9474.636058,2374.896044
59487.457176,-2072.576638,-8290.306550,-76.609550
59487.457485,-4145.153275,-8438.347739,-1608.800546
59487.457795,-592.164754,-10066.800811,1149.143247
59487.458105,-3552.988522,-5403.503377,0.000000
59487.458414,888.247130,-8364.327145,1225.752797
59487.458724,222.061783,-5995.668130,0.000000
59487.459034,592.164754,-9548.656652,919.314598
59487.459343,296.082377,-10436.903782,306.438199
59487.459653,-962.267725,-11695.253884,0.000000
59487.459963,-74.020594,-12805.562797,-76.609550
59487.460272,-1554.432478,-10658.965565,-76.609550
59487.460582,-3330.926739,-8364.327145,-2681.334243
59487.460891,-592.164754,-9474.636058,536.266849
59487.461201,-3552.988522,-5995.668130,0.000000
59487.461511,2960.823768,-9474.636058,1225.752797
59487.461820,1110.308913,-8290.306550,1149.143247
59487.462130,1036.288319,-9030.512492,1455.581446
59487.462440,962.267725,-8586.388927,842.705048
59487.462749,148.041188,-8290.306550,-536.266849
59487.463059,-74.020594,-8956.491898,-1225.752797
59487.463369,-1258.350101,-11251.130318,-1608.800546
59487.463678,-3775.050304,-11103.089130,-4366.744339
59487.463988,-4737.318029,-12213.398043,-2451.505594
59487.464297,-74.020594,-15396.283594,-76.609550
59487.464607,-2368.659014,-9548.656652,-2451.505594
59487.464917,2294.638420,-9178.553681,2987.772442
59487.465226,2442.679609,-7105.977043,3140.991542
59487.465536,3256.906145,-5847.626942,3370.820191
59487.465846,2664.741391,-5255.462188,2145.067394
59487.466155,2368.659014,-5107.421000,1225.752797
59487.466465,2294.638420,-9030.512492,1455.581446
59487.466775,-1258.350101,-10658.965565,-1302.362347
59487.467084,-4737.318029,-11917.315666,-2451.505594
59487.467394,-1258.350101,-15396.283594,-689.485948
59487.467703,-4441.235652,-10140.821405,-2221.676944
59487.468013,1702.473667,-10362.883188,2374.896044
59487.468323,1628.453072,-6217.729913,2068.457845
59487.468632,2812.782580,-4663.297435,2298.286494
59487.468942,3256.906145,-4663.297435,2451.505594
59487.469252,1480.411884,-5995.668130,1225.752797
59487.469561,1924.535449,-10140.821405,2451.505594
59487.469871,-666.185348,-13619.789333,-76.609550
59487.470181,-3923.091493,-11621.233289,-3677.258390
59487.470490,-444.123565,-13027.624579,1762.019645
59487.470800,-1406.391290,-7105.977043,-76.609550
59487.471109,1998.556043,-7624.121203,2068.457845
59487.471419,1702.473667,-7105.977043,1455.581446
59487.471729,1998.556043,-8586.388927,1455.581446
59487.472038,740.205942,-9770.718434,1608.800546
59487.472348,0.000000,-9844.739029,0.000000
59487.472658,0.000000,-10732.986159,1225.752797
59487.472967,-74.020594,-13027.624579,2221.676944
59487.473277,-1702.473667,-8438.347739,-1302.362347
59487.473587,-1776.494261,-9548.656652,2451.505594
59487.473896,1998.556043,-9474.636058,2374.896044
59487.474206,2072.576638,-7846.182985,3064.381992
59487.474515,740.205942,-8290.306550,2451.505594
59487.474825,148.041188,-9548.656652,1838.629195
59487.475135,-296.082377,-10436.903782,1685.410096
59487.475444,-1924.535449,-9548.656652,229.828649
59487.475754,-3552.988522,-7772.162391,0.000000
59487.476064,-2368.659014,-9548.656652,1225.752797
59487.476373,-1850.514855,-7328.038826,-2451.505594
59487.476683,-74.020594,-9474.636058,2374.896044
59487.476993,-1258.350101,-9474.636058,1762.019645
59487.477302,0.000000,-8364.327145,2757.943793
59487.477612,888.247130,-9326.594869,3830.477490
59487.477921,740.205942,-8216.285956,2604.724693
59487.478231,-148.041188,-6957.935855,1915.238745
59487.478541,-74.020594,-5921.647536,1149.143247
59487.478850,-2072.576638,-4811.338623,0.000000
59487.479160,-2368.659014,-8364.327145,0.000000
59487.479470,-1258.350101,-11843.295072,-76.609550
59487.479779,-5921.647536,-9548.656652,-2451.505594
59487.480089,-74.020594,-14211.954086,2911.162892
59487.480399,-2072.576638,-9548.656652,1225.752797
59487.480708,296.082377,-8956.491898,2374.896044
59487.481018,1702.473667,-7994.224174,2681.334243
59487.481327,2664.741391,-6217.729913,2681.334243
59487.481637,4071.132681,-6513.812290,2374.896044
59487.481947,1110.308913,-5329.482782,383.047749
59487.482256,0.000000,-7476.080014,0.000000
59487.482566,-74.020594,-14211.954086,-76.609550
59487.482876,-4737.318029,-11917.315666,0.000000
59487.483185,-1258.350101,-13175.665768,1072.533697
59487.483495,-2960.823768,-9844.739029,0.000000
59487.483805,0.000000,-9030.512492,1149.143247
59487.484114,1776.494261,-8216.285956,1838.629195
59487.484424,1628.453072,-7179.997637,1685.410096
59487.484733,3478.967927,-9474.636058,3600.648841
59487.485043,2294.638420,-7698.141797,-76.609550
59487.485353,-1776.494261,-7476.080014,0.000000
59487.485662,-74.020594,-13027.624579,2374.896044
59487.485972,-4145.153275,-9548.656652,-2451.505594
59487.486282,-2368.659014,-11917.315666,0.000000
59487.486591,-1776.494261,-8956.491898,-1685.410096
59487.486901,-1480.411884,-8808.450710,229.828649
59487.487211,666.185348,-8068.244768,1149.143247
59487.487520,1480.411884,-6661.853478,919.314598
59487.487830,2294.638420,-9474.636058,3600.648841
59487.488139,2294.638420,-9474.636058,-76.609550
59487.488449,-1776.494261,-8808.450710,0.000000
59487.488759,-370.102971,-14211.954086,2374.896044
59487.489068,-4441.235652,-7179.997637,-2145.067394
59487.489378,-2960.823768,-7772.162391,0.000000
59487.489688,-518.144159,-5921.647536,-229.828649
59487.489997,74.020594,-6291.750507,1225.752797
59487.490307,148.041188,-8808.450710,1225.752797
59487.490617,0.000000,-9548.656652,689.485948
59487.490926,592.164754,-10732.986159,2604.724693
59487.491236,2294.638420,-10658.965565,1762.019645
59487.491545,1702.473667,-7402.059420,-76.609550
59487.491855,0.000000,-8956.491898,1838.629195
59487.492165,-1998.556043,-7772.162391,-1915.238745
59487.492474,-4145.153275,-9548.656652,0.000000
59487.492784,-666.185348,-11251.130318,-76.609550
59487.493094,-1036.288319,-9992.780217,689.485948
59487.493403,-222.061783,-9252.574275,766.095498
59487.493713,0.000000,-7402.059420,612.876398
59487.494023,0.000000,-7179.997637,1225.752797
59487.494332,2886.803174,-9326.594869,2221.676944
59487.494642,962.267725,-7698.141797,-76.609550
59487.494951,0.000000,-10140.821405,612.876398
59487.495261,-74.020594,-13619.789333,-76.609550
59487.495571,-4737.318029,-9548.656652,-2834.553343
59487.495880,-74.020594,-13027.624579,-76.609550
59487.496190,0.000000,-8882.471304,1455.581446
59487.496500,666.185348,-8142.265362,1762.019645
59487.496809,1258.350101,-7328.038826,1608.800546
59487.497119,0.000000,-6587.832884,1225.752797
59487.497429,2368.659014,-9326.594869,2757.943793
59487.497738,1998.556043,-9474.636058,1762.019645
59487.498048,-2368.659014,-10732.986159,1838.629195
59487.498357,-74.020594,-11547.212695,-76.609550
59487.498667,-2368.659014,-8956.491898,76.609550
59487.498977,-74.020594,-10955.047942,2374.896044
59487.499286,-370.102971,-8216.285956,1762.019645
59487.499596,-518.144159,-7550.100608,2145.067394
59487.499906,518.144159,-7179.997637,1685.410096
59487.500215,0.000000,-4811.338623,1225.752797
59487.500525,592.164754,-7772.162391,2451.505594
59487.500835,1998.556043,-9474.636058,4519.963438
59487.501144,-3182.885551,-7179.997637,0.000000
59487.501454,518.144159,-11103.089130,2451.505594
59487.501763,-74.020594,-9474.636058,-76.609550
59487.502073,-148.041188,-9252.574275,2451.505594
59487.502383,-814.226536,-8142.265362,842.705048
59487.502692,-1332.370696,-9918.759623,995.924147
59487.503002,-1258.350101,-10288.862594,919.314598
59487.503312,-3256.906145,-6587.832884,0.000000
59487.503621,-2072.576638,-7772.162391,612.876398
59487.503931,1480.411884,-7846.182985,3600.648841
59487.504241,-1776.494261,-5107.421000,0.000000
59487.504550,1998.556043,-10955.047942,2834.553343
59487.504860,-74.020594,-11843.295072,2987.772442
59487.505169,-592.164754,-11621.233289,1991.848295
59487.505479,-444.123565,-10288.862594,1378.971896
59487.505789,-1554.432478,-9400.615463,766.095498
59487.506098,-1406.391290,-8586.388927,229.828649
59487.506408,-1258.350101,-6291.750507,-1991.848295
59487.506718,-1776.494261,-7179.997637,0.000000
59487.507027,296.082377,-8512.368333,0.000000
59487.507337,-74.020594,-11843.295072,-76.609550
59487.507647,-2368.659014,-9548.656652,0.000000
59487.507956,-74.020594,-13619.789333,3600.648841
59487.508266,-1184.329507,-11177.109724,612.876398
59487.508575,-74.020594,-9400.615463,536.266849
59487.508885,-962.267725,-8882.471304,153.219100
59487.509195,-740.205942,-8586.388927,153.219100
59487.509504,-74.020594,-6809.894666,-689.485948
59487.509814,0.000000,-6587.832884,0.000000
59487.510124,0.000000,-7179.997637,0.000000
59487.510433,3478.967927,-11843.295072,2374.896044
59487.510743,0.000000,-9844.739029,306.438199
59487.511053,-74.020594,-11103.089130,2374.896044
59487.511362,-2072.576638,-8512.368333,0.000000
59487.511672,-518.144159,-8734.430116,76.609550
59487.511981,-1110.308913,-7698.141797,229.828649
59487.512291,-962.267725,-8290.306550,0.000000
59487.512601,-74.020594,-8290.306550,-76.609550
59487.512910,74.020594,-7402.059420,-383.047749
59487.513220,296.082377,-7772.162391,1225.752797
59487.513530,3478.967927,-11251.130318,2374.896044
59487.513839,0.000000,-9696.697840,1225.752797
59487.514149,296.082377,-10140.821405,2757.943793
59487.514459,-1184.329507,-7179.997637,306.438199
59487.514768,296.082377,-7624.121203,995.924147
59487.515078,-444.123565,-7254.018232,306.438199
59487.515387,-1406.391290,-10066.800811,0.000000
59487.515697,-74.020594,-11843.295072,-76.609550
59487.516007,-370.102971,-11843.295072,-76.609550
59487.516316,-1184.329507,-9548.656652,0.000000
59487.516626,2738.761985,-10658.965565,3600.648841
59487.516936,0.000000,-5477.523971,0.000000
59487.517245,0.000000,-5995.668130,2451.505594
59487.517555,370.102971,-7402.059420,842.705048
59487.517865,0.000000,-8660.409521,612.876398
59487.518174,-2072.576638,-10362.883188,0.000000
59487.518484,-3330.926739,-11991.336260,-1149.143247
59487.518793,-888.247130,-13027.624579,1149.143247
59487.519103,-74.020594,-11251.130318,-76.609550
59487.519413,-74.020594,-8068.244768,-2451.505594
59487.519722,1998.556043,-10066.800811,2834.553343
59487.520032,-1406.391290,-7476.080014,0.000000
59487.520342,0.000000,-5995.668130,612.876398
59487.520651,814.226536,-7994.224174,1149.143247
59487.520961,518.144159,-8734.430116,1302.362347
59487.521271,-296.082377,-8808.450710,1149.143247
59487.521580,-1184.329507,-10362.883188,153.219100
59487.521890,-74.020594,-11251.130318,2604.724693
59487.522199,-74.020594,-10658.965565,2068.457845
59487.522509,1110.308913,-8290.306550,-76.609550
