#time,accel_x,accel_y,accel_z
163553.452575,0.000000,-8956.491898,0.000000
163553.452894,888.247130,-10584.944971,1762.019645
163553.453214,2294.638420,-11251.130318,1762.019645
163553.453534,0.000000,-7772.162391,0.000000
163553.453854,-296.082377,-9030.512492,229.828649
163553.454173,-592.164754,-8882.471304,0.000000
163553.454493,-370.102971,-9400.615463,0.000000
163553.454813,-74.020594,-8882.471304,-76.609550
163553.455133,-74.020594,-9474.636058,-383.047749
163553.455453,-74.020594,-11251.130318,-76.609550
163553.455772,-666.185348,-8882.471304,-1302.362347
163553.456092,-592.164754,-9548.656652,0.000000
163553.456412,296.082377,-9844.739029,2451.505594
163553.456732,-2072.576638,-8512.368333,-1532.190996
163553.457051,-1036.288319,-9696.697840,-995.924147
163553.457371,-370.102971,-9326.594869,-766.095498
163553.457691,-222.061783,-9178.553681,-842.705048
163553.458011,1702.473667,-10658.965565,-76.609550
163553.458331,0.000000,-9548.656652,919.314598
163553.458650,-74.020594,-9474.636058,-995.924147
163553.458970,-1036.288319,-8364.327145,-1532.190996
163553.459290,0.000000,-8364.327145,0.000000
163553.459610,-1406.391290,-7179.997637,-2298.286494
163553.459929,518.144159,-9474.636058,76.609550
163553.460249,0.000000,-9252.574275,0.000000
163553.460569,0.000000,-9252.574275,0.000000
163553.460889,-74.020594,-11843.295072,-76.609550
163553.461209,740.205942,-9178.553681,-536.266849
163553.461528,-74.020594,-8882.471304,-383.047749
163553.461848,-1184.329507,-7179.997637,-2298.286494
163553.462168,0.000000,-8956.491898,306.438199
163553.462488,-74.020594,-9474.636058,-1302.362347
163553.462807,-74.020594,-10066.800811,-76.609550
163553.463127,-1036.288319,-9252.574275,-536.266849
163553.463447,-1110.308913,-9474.636058,-383.047749
163553.463767,-888.247130,-9696.697840,-306.438199
163553.464087,-2368.659014,-7772.162391,0.000000
163553.464406,-370.102971,-9400.615463,-995.924147
163553.464726,-592.164754,-9400.615463,-689.485948
163553.465046,-518.144159,-9474.636058,-612.876398
163553.465366,-222.061783,-8660.409521,-2451.505594
163553.465685,-74.020594,-8882.471304,-383.047749
163553.466005,-74.020594,-9474.636058,-383.047749
163553.466325,-962.267725,-8364.327145,-1378.971896
163553.466645,148.041188,-9548.656652,0.000000
163553.466965,1702.473667,-11251.130318,2374.896044
163553.467284,0.000000,-8364.327145,0.000000
163553.467604,370.102971,-9474.636058,-76.609550
163553.467924,296.082377,-9400.615463,0.000000
163553.468244,0.000000,-9178.553681,0.000000
163553.468563,-74.020594,-9770.718434,153.219100
163553.468883,-814.226536,-8956.491898,-459.657299
163553.469203,592.164754,-9844.739029,1072.533697
163553.469523,-74.020594,-11547.212695,-76.609550
163553.469843,-74.020594,-8586.388927,-689.485948
163553.470162,-1184.329507,-9548.656652,1838.629195
163553.470482,-1628.453072,-8956.491898,0.000000
163553.470802,-814.226536,-9696.697840,-459.657299
163553.471122,-1258.350101,-9326.594869,0.000000
163553.471441,-888.247130,-9252.574275,-536.266849
163553.471761,-962.267725,-8142.265362,-2451.505594
163553.472081,-1110.308913,-8956.491898,-766.095498
163553.472401,0.000000,-9844.739029,1915.238745
163553.472721,-666.185348,-8290.306550,-2221.676944
163553.473040,-1184.329507,-9548.656652,0.000000
163553.473360,0.000000,-10140.821405,1225.752797
163553.473680,-592.164754,-9622.677246,-459.657299
163553.474000,-370.102971,-9326.594869,-612.876398
163553.474319,-222.061783,-9326.594869,-612.876398
163553.474639,-1850.514855,-7772.162391,-1838.629195
163553.474959,-666.185348,-7254.018232,-229.828649
163553.475279,-74.020594,-9474.636058,-76.609550
163553.475599,0.000000,-7920.203579,0.000000
163553.475918,444.123565,-9696.697840,0.000000
163553.476238,1702.473667,-11843.295072,2374.896044
163553.476558,0.000000,-8956.491898,612.876398
163553.476878,-148.041188,-9252.574275,-229.828649
163553.477197,-666.185348,-9178.553681,76.609550
163553.477517,-666.185348,-8956.491898,229.828649
163553.477837,814.226536,-8882.471304,-153.219100
163553.478157,296.082377,-8956.491898,0.000000
163553.478477,1702.473667,-9474.636058,536.266849
163553.478796,518.144159,-11251.130318,-76.609550
163553.479116,0.000000,-8660.409521,-2145.067394
163553.479436,2294.638420,-12213.398043,1455.581446
163553.479756,74.020594,-9400.615463,-1225.752797
163553.480075,1184.329507,-9548.656652,-766.095498
163553.480395,1998.556043,-9474.636058,-306.438199
163553.480715,3034.844362,-9696.697840,0.000000
163553.481035,2664.741391,-7772.162391,0.000000
163553.481355,3256.906145,-8364.327145,306.438199
163553.481674,5329.482782,-9548.656652,2145.067394
163553.481994,6439.791695,-9474.636058,1149.143247
163553.482314,5107.421000,-8882.471304,-383.047749
163553.482634,6217.729913,-10140.821405,1915.238745
163553.482953,5107.421000,-9696.697840,-766.095498
163553.483273,4663.297435,-10214.842000,-536.266849
163553.483593,4663.297435,-9622.677246,-1072.533697
163553.483913,3849.070898,-7179.997637,-2451.505594
163553.484233,6439.791695,-7624.121203,536.266849
163553.484552,8808.450710,-8142.265362,-383.047749
163553.484872,7105.977043,-7772.162391,153.219100
163553.485192,7920.203579,-9992.780217,2145.067394
163553.485512,8216.285956,-13027.624579,-76.609550
163553.485831,3552.988522,-11473.192101,0.000000
163553.486151,2072.576638,-12065.356855,-459.657299
163553.486471,1480.411884,-11917.315666,0.000000
163553.486791,2294.638420,-10658.965565,153.219100
163553.487111,2590.720797,-7994.224174,-76.609550
163553.487430,3552.988522,-7179.997637,612.876398
163553.487750,4071.132681,-5921.647536,-689.485948
163553.488070,3478.967927,-7105.977043,-1302.362347
163553.488390,2590.720797,-5403.503377,-3830.477490
163553.488709,6439.791695,-11843.295072,-76.609550
163553.489029,3256.906145,-11325.150913,-2528.115143
163553.489349,2960.823768,-14063.912898,-1225.752797
163553.489669,2220.617826,-15618.345376,0.000000
163553.489989,1480.411884,-14285.974681,2451.505594
163553.490308,2368.659014,-10436.903782,1838.629195
163553.490628,2960.823768,-7476.080014,1378.971896
163553.490948,3256.906145,-6587.832884,1838.629195
163553.491268,2294.638420,-4737.318029,-1302.362347
163553.491587,2886.803174,-6513.812290,-76.609550
163553.491907,3552.988522,-7476.080014,612.876398
163553.492227,-148.041188,-7846.182985,-459.657299
163553.492547,-2590.720797,-9030.512492,-306.438199
163553.492867,-2516.700203,-9992.780217,0.000000
163553.493186,-2368.659014,-7179.997637,0.000000
163553.493506,1406.391290,-9030.512492,919.314598
163553.493826,-1184.329507,-7772.162391,0.000000
163553.494146,592.164754,-10436.903782,2451.505594
163553.494465,1998.556043,-10066.800811,2374.896044
163553.494785,2294.638420,-9474.636058,-689.485948
163553.495105,-2368.659014,-7031.956449,-4596.572988
163553.495425,-3034.844362,-9030.512492,-5132.839837
163553.495745,-1332.370696,-12435.459826,-3294.210641
163553.496064,888.247130,-13323.706956,1302.362347
163553.496384,0.000000,-9918.759623,0.000000
163553.496704,2294.638420,-10658.965565,1762.019645
163553.497024,962.267725,-7179.997637,-766.095498
163553.497343,4219.173869,-8956.491898,612.876398
163553.497663,8216.285956,-11843.295072,4826.401637
163553.497983,7698.141797,-8364.327145,7354.516781
163553.498303,6513.812290,-7031.956449,2681.334243
163553.498623,2590.720797,-6957.935855,-2681.334243
163553.498942,-1480.411884,-9548.656652,-6358.592633
163553.499262,-2590.720797,-11029.068536,-7354.516781
163553.499582,-1110.308913,-14285.974681,-3677.258390
163553.499902,-1184.329507,-13397.727550,-3064.381992
163553.500221,0.000000,-11325.150913,-1838.629195
163553.500541,4071.132681,-11843.295072,995.924147
163553.500861,7698.141797,-6587.832884,4903.011187
163553.501181,13693.809927,-4737.318029,9193.145976
163553.501501,12213.398043,-1406.391290,8886.707777
163553.501820,8068.244768,-962.267725,3907.087040
163553.502140,5033.400406,-4441.235652,-536.266849
163553.502460,5847.626942,-13027.624579,-76.609550
163553.502780,444.123565,-12435.459826,-2298.286494
163553.503099,-3552.988522,-13915.871710,-5822.325785
163553.503419,-5107.421000,-14656.077652,-9116.536426
163553.503739,-4145.153275,-14285.974681,-8427.050478
163553.504059,0.000000,-13397.727550,-3217.601092
163553.504379,4367.215058,-9474.636058,-995.924147
163553.504698,5329.482782,-7179.997637,1608.800546
163553.505018,5329.482782,-3627.009116,1838.629195
163553.505338,9104.533087,-4145.153275,4826.401637
163553.505658,9992.780217,-6513.812290,7890.783629
163553.505977,8956.491898,-6957.935855,6511.811733
163553.506297,8216.285956,-7328.038826,4443.353888
163553.506617,4071.132681,-8290.306550,0.000000
163553.506937,-1258.350101,-11325.150913,-4519.963438
163553.507257,-3478.967927,-14285.974681,-7354.516781
163553.507576,-2442.679609,-16580.613101,-4903.011187
163553.507896,2294.638420,-15988.448347,-2528.115143
163553.508216,1110.308913,-11547.212695,-2528.115143
163553.508536,2294.638420,-9474.636058,-76.609550
163553.508855,2960.823768,-7179.997637,2221.676944
163553.509175,5995.668130,-5847.626942,3524.039291
163553.509495,6365.771101,-4219.173869,3753.867940
163553.509815,6069.688724,-4959.379811,6665.030833
163553.510135,2368.659014,-5995.668130,3677.258390
163553.510454,2368.659014,-8068.244768,0.000000
163553.510774,0.000000,-9844.739029,-1762.019645
163553.511094,-2442.679609,-12435.459826,-5286.058936
163553.511414,-4219.173869,-12065.356855,-7890.783629
163553.511733,-1258.350101,-15396.283594,-4979.620737
163553.512053,-888.247130,-12805.562797,-2221.676944
163553.512373,2738.761985,-10732.986159,-383.047749
163553.512693,4959.379811,-8068.244768,2068.457845
163553.513013,4737.318029,-4811.338623,2451.505594
163553.513332,3552.988522,-6365.771101,2987.772442
163553.513652,3552.988522,-6587.832884,2451.505594
163553.513972,3256.906145,-8364.327145,2528.115143
163553.514292,4071.132681,-10658.965565,2068.457845
163553.514611,1110.308913,-9178.553681,-3753.867940
163553.514931,2294.638420,-11843.295072,-2834.553343
163553.515251,296.082377,-11029.068536,-3294.210641
163553.515571,1702.473667,-11917.315666,-2221.676944
163553.515891,2812.782580,-11473.192101,-689.485948
163553.516210,2368.659014,-9696.697840,459.657299
163553.516530,4367.215058,-9474.636058,2528.115143
163553.516850,5847.626942,-8142.265362,4826.401637
163553.517170,5551.544565,-4811.338623,2757.943793
163553.517489,4737.318029,-6587.832884,4903.011187
163553.517809,4663.297435,-5921.647536,-76.609550
163553.518129,-1184.329507,-6735.874072,-3524.039291
163553.518449,-3256.906145,-9548.656652,-5822.325785
163553.518769,-1702.473667,-11843.295072,-5745.716235
163553.519088,-74.020594,-13175.665768,-3294.210641
163553.519408,444.123565,-13101.645173,-1225.752797
163553.519728,2442.679609,-11843.295072,-1838.629195
163553.520048,5625.565159,-11843.295072,2145.067394
163553.520367,7624.121203,-9474.636058,4673.182538
163553.520687,6809.894666,-4811.338623,3677.258390
163553.521007,9400.615463,-7105.977043,3600.648841
163553.521325,3034.844362,-6143.709319,229.828649
163553.521645,1258.350101,-8512.368333,-1915.238745
163553.521965,370.102971,-10436.903782,-2757.943793
163553.522284,2368.659014,-11621.233289,-306.438199
163553.522604,1184.329507,-11251.130318,-1915.238745
163553.522924,0.000000,-8808.450710,-4290.134789
163553.523244,1110.308913,-10658.965565,-1608.800546
163553.523564,4367.215058,-9474.636058,76.609550
163553.523884,3552.988522,-8364.327145,2451.505594
163553.524204,2886.803174,-7476.080014,2757.943793
163553.524524,1924.535449,-7624.121203,1378.971896
163553.524844,2590.720797,-6735.874072,1455.581446
163553.525164,4959.379811,-7254.018232,2145.067394
163553.525484,4737.318029,-8364.327145,1991.848295
163553.525803,296.082377,-7476.080014,-2681.334243
163553.526123,0.000000,-10732.986159,-2451.505594
163553.526443,0.000000,-11917.315666,0.000000
163553.526763,2442.679609,-12435.459826,-76.609550
163553.527083,-2368.659014,-7179.997637,-4290.134789
163553.527403,888.247130,-10066.800811,-2528.115143
163553.527723,2516.700203,-8290.306550,-1149.143247
163553.528043,5033.400406,-9548.656652,229.828649
163553.528363,5847.626942,-8290.306550,-76.609550
163553.528683,4663.297435,-9474.636058,2374.896044
163553.529003,2590.720797,-8734.430116,1991.848295
163553.529323,2368.659014,-7179.997637,0.000000
163553.529642,4071.132681,-10658.965565,2068.457845
163553.529962,1184.329507,-7179.997637,0.000000
163553.530282,1480.411884,-10140.821405,-1762.019645
163553.530602,4663.297435,-9326.594869,-995.924147
163553.530922,3849.070898,-10658.965565,-1685.410096
163553.531242,1554.432478,-10066.800811,-1455.581446
163553.531562,2886.803174,-11843.295072,-1915.238745
163553.531882,222.061783,-10955.047942,0.000000
163553.532202,-74.020594,-10362.883188,-1302.362347
163553.532522,0.000000,-7772.162391,612.876398
163553.532842,4663.297435,-8586.388927,3677.258390
163553.533162,7031.956449,-4885.359217,2374.896044
163553.533481,6069.688724,-6883.915261,3753.867940
163553.533801,3256.906145,-7179.997637,1608.800546
163553.534121,148.041188,-9474.636058,-1378.971896
163553.534441,-3627.009116,-12731.542202,-3753.867940
163553.534761,-8142.265362,-11547.212695,-4979.620737
163553.535081,-6587.832884,-11843.295072,-6358.592633
163553.535401,-2960.823768,-11399.171507,-2757.943793
163553.535721,-2368.659014,-8364.327145,-2451.505594
163553.536041,2294.638420,-10658.965565,1149.143247
163553.536361,1702.473667,-9178.553681,2374.896044
163553.536681,0.000000,-7698.141797,2451.505594
163553.537000,1184.329507,-7476.080014,1072.533697
163553.537320,1036.288319,-7994.224174,3217.601092
163553.537640,1184.329507,-7179.997637,3677.258390
163553.537960,3330.926739,-6957.935855,4290.134789
163553.538280,2220.617826,-9474.636058,2451.505594
163553.538600,-666.185348,-10658.965565,-76.609550
163553.538920,-5995.668130,-10066.800811,-4443.353888
163553.539240,-8586.388927,-13693.809927,-3600.648841
163553.539560,-8142.265362,-11917.315666,-5745.716235
163553.539880,-6883.915261,-11473.192101,-2987.772442
163553.540200,-1924.535449,-8660.409521,842.705048
163553.540520,-962.267725,-6291.750507,0.000000
163553.540839,2294.638420,-5625.565159,3600.648841
163553.541159,1776.494261,-5551.544565,3217.601092
163553.541479,592.164754,-5699.585753,4136.915689
163553.541799,-2664.741391,-7254.018232,0.000000
163553.542119,-2664.741391,-9474.636058,919.314598
163553.542439,-2146.597232,-9474.636058,-995.924147
163553.542759,-3552.988522,-10140.821405,-2451.505594
163553.543079,-1850.514855,-13027.624579,-2987.772442
163553.543399,-3552.988522,-13397.727550,-2987.772442
163553.543719,-5329.482782,-9844.739029,-4903.011187
163553.544039,-3923.091493,-9474.636058,-4366.744339
163553.544359,-2516.700203,-9992.780217,-2451.505594
163553.544678,888.247130,-9252.574275,229.828649
163553.544998,5255.462188,-7179.997637,4979.620737
163553.545318,6735.874072,-7994.224174,5745.716235
163553.545638,5107.421000,-7846.182985,5822.325785
163553.545958,1776.494261,-8364.327145,0.000000
163553.546278,1776.494261,-10066.800811,2834.553343
163553.546598,-1258.350101,-11251.130318,-3140.991542
163553.546918,-5921.647536,-9992.780217,-4903.011187
163553.547238,-1702.473667,-11917.315666,-4366.744339
163553.547558,-1184.329507,-11325.150913,-2834.553343
163553.547878,740.205942,-10807.006753,-2068.457845
163553.548197,518.144159,-11251.130318,-76.609550
163553.548517,3923.091493,-11843.295072,3600.648841
163553.548837,2294.638420,-9474.636058,-76.609550
163553.549157,2886.803174,-8290.306550,2987.772442
163553.549477,1776.494261,-6587.832884,612.876398
163553.549797,1776.494261,-5403.503377,1532.190996
163553.550117,1480.411884,-7179.997637,0.000000
163553.550437,2294.638420,-9474.636058,1532.190996
163553.550757,222.061783,-9844.739029,-2604.724693
163553.551077,-2590.720797,-10510.924376,-2451.505594
163553.551397,-2442.679609,-11843.295072,-4979.620737
163553.551717,-1998.556043,-11251.130318,-1532.190996
163553.552036,2738.761985,-11695.253884,-383.047749
163553.552356,3478.967927,-8586.388927,-76.609550
163553.552676,5847.626942,-8586.388927,1149.143247
163553.552996,3552.988522,-8364.327145,4903.011187
163553.553316,3256.906145,-7476.080014,2221.676944
163553.553636,1184.329507,-8142.265362,766.095498
163553.553956,-1036.288319,-8512.368333,842.705048
163553.554276,-444.123565,-9992.780217,-459.657299
163553.554596,1702.473667,-9548.656652,766.095498
163553.554916,592.164754,-9548.656652,0.000000
163553.555236,-74.020594,-10955.047942,1532.190996
163553.555556,-1258.350101,-9474.636058,-2528.115143
163553.555875,-4515.256246,-8586.388927,-3064.381992
163553.556195,-4737.318029,-9548.656652,-1225.752797
163553.556515,-3923.091493,-9992.780217,-2221.676944
163553.556835,-518.144159,-8882.471304,1532.190996
163553.557155,74.020594,-8660.409521,842.705048
163553.557475,0.000000,-6883.915261,842.705048
163553.557795,-1554.432478,-7772.162391,-1302.362347
163553.558115,-2886.803174,-7550.100608,-1302.362347
163553.558435,-7105.977043,-8364.327145,-4290.134789
163553.558755,-4737.318029,-11547.212695,-842.705048
163553.559075,-1850.514855,-13027.624579,-689.485948
163553.559394,0.000000,-8364.327145,306.438199
163553.559714,888.247130,-8586.388927,-306.438199
163553.560034,0.000000,-8956.491898,536.266849
163553.560354,518.144159,-8956.491898,842.705048
163553.560674,-1554.432478,-6809.894666,-1302.362347
163553.560994,-518.144159,-9474.636058,1991.848295
163553.561314,-666.185348,-10362.883188,-689.485948
163553.561634,0.000000,-8660.409521,842.705048
163553.561954,518.144159,-7846.182985,0.000000
163553.562274,3034.844362,-10362.883188,4213.525239
163553.562594,-1628.453072,-9696.697840,-1225.752797
163553.562914,-1258.350101,-9178.553681,0.000000
163553.563233,-3404.947333,-9622.677246,-3370.820191
163553.563553,-3330.926739,-11029.068536,0.000000
163553.563873,740.205942,-9326.594869,-2145.067394
163553.564193,1406.391290,-9918.759623,2987.772442
163553.564513,2886.803174,-7105.977043,1149.143247
163553.564833,-370.102971,-6587.832884,-1302.362347
163553.565153,592.164754,-7994.224174,842.705048
163553.565473,592.164754,-10140.821405,689.485948
163553.565793,-2146.597232,-9918.759623,-919.314598
163553.566113,-2442.679609,-10436.903782,-3217.601092
163553.566433,0.000000,-9548.656652,-995.924147
163553.566753,-2368.659014,-7328.038826,-4290.134789
163553.567072,0.000000,-9622.677246,76.609550
163553.567392,-888.247130,-10140.821405,-3677.258390
163553.567712,592.164754,-8660.409521,0.000000
163553.568032,-518.144159,-9178.553681,-2528.115143
163553.568352,2294.638420,-11843.295072,2374.896044
163553.568672,6513.812290,-9104.533087,2145.067394
163553.568992,5107.421000,-6809.894666,3524.039291
163553.569312,4663.297435,-8142.265362,2451.505594
163553.569632,2294.638420,-9178.553681,1608.800546
163553.569952,296.082377,-7328.038826,229.828649
163553.570272,-1850.514855,-9474.636058,-2528.115143
163553.570591,-6513.812290,-10140.821405,-3370.820191
163553.570911,-4737.318029,-10288.862594,-3524.039291
163553.571231,2294.638420,-12287.418637,3600.648841
163553.571551,1184.329507,-7179.997637,0.000000
163553.571871,740.205942,-8364.327145,919.314598
163553.572191,888.247130,-7179.997637,-306.438199
163553.572511,-74.020594,-8882.471304,-383.047749
163553.572831,-2812.782580,-7179.997637,-3677.258390
163553.573151,-4441.235652,-10288.862594,-1762.019645
163553.573471,-1184.329507,-11325.150913,1378.971896
163553.573791,740.205942,-8882.471304,-689.485948
163553.574111,0.000000,-7476.080014,0.000000
163553.574430,0.000000,-7179.997637,0.000000
163553.574750,1702.473667,-6809.894666,229.828649
163553.575070,-1110.308913,-8956.491898,-2681.334243
163553.575390,-2738.761985,-9844.739029,-2374.896044
163553.575710,-3552.988522,-11029.068536,-3140.991542
163553.576030,-74.020594,-11843.295072,2374.896044
163553.576350,1036.288319,-8956.491898,0.000000
163553.576670,1480.411884,-9252.574275,2145.067394
163553.576990,1406.391290,-8586.388927,1608.800546
163553.577310,0.000000,-7624.121203,1225.752797
163553.577630,-2368.659014,-7179.997637,0.000000
163553.577950,-4737.318029,-9548.656652,0.000000
163553.578269,-2072.576638,-9548.656652,919.314598
163553.578589,-666.185348,-9474.636058,-76.609550
163553.578909,0.000000,-8290.306550,229.828649
163553.579229,-74.020594,-11843.295072,-76.609550
163553.579549,-1184.329507,-8438.347739,153.219100
163553.579869,-3404.947333,-8438.347739,-2911.162892
163553.580189,-3627.009116,-10214.842000,-1225.752797
163553.580509,-3552.988522,-9696.697840,-3677.258390
163553.580829,-1406.391290,-8956.491898,0.000000
163553.581149,592.164754,-8068.244768,0.000000
163553.581469,1110.308913,-9326.594869,1838.629195
163553.581788,4367.215058,-10658.965565,-76.609550
163553.582108,-74.020594,-9474.636058,-1302.362347
163553.582428,-74.020594,-10658.965565,-76.609550
163553.582748,-2072.576638,-10584.944971,-1762.019645
163553.583068,148.041188,-9844.739029,229.828649
163553.583388,222.061783,-9178.553681,-1455.581446
163553.583708,1776.494261,-10510.924376,3140.991542
163553.584028,1184.329507,-8808.450710,-1149.143247
163553.584348,1480.411884,-7179.997637,0.000000
163553.584668,-2368.659014,-7772.162391,0.000000
163553.584988,-74.020594,-10066.800811,1762.019645
163553.585308,-2220.617826,-7772.162391,-3370.820191
163553.585627,962.267725,-9326.594869,2068.457845
163553.585947,1998.556043,-8586.388927,612.876398
163553.586267,814.226536,-9178.553681,842.705048
163553.586587,1702.473667,-9474.636058,-76.609550
163553.586907,-74.020594,-10658.965565,-76.609550
163553.587227,-962.267725,-11251.130318,-383.047749
163553.587547,-3034.844362,-9474.636058,-3907.087040
163553.587867,0.000000,-9548.656652,0.000000
163553.588187,0.000000,-8364.327145,-1225.752797
163553.588507,74.020594,-7772.162391,0.000000
163553.588827,1332.370696,-9252.574275,-689.485948
163553.589147,814.226536,-7698.141797,612.876398
163553.589466,-962.267725,-8216.285956,-2681.334243
163553.589786,-74.020594,-11843.295072,-76.609550
163553.590106,-2960.823768,-9548.656652,-2451.505594
163553.590426,-1184.329507,-10436.903782,459.657299
163553.590746,1702.473667,-9992.780217,-76.609550
163553.591066,-74.020594,-10066.800811,-1915.238745
163553.591386,0.000000,-7179.997637,612.876398
163553.591706,-74.020594,-7994.224174,-1608.800546
163553.592026,592.164754,-10288.862594,1149.143247
163553.592346,-444.123565,-9548.656652,-1532.190996
163553.592666,296.082377,-8956.491898,1762.019645
163553.592985,666.185348,-8068.244768,-383.047749
163553.593305,-1184.329507,-8364.327145,1838.629195
163553.593625,814.226536,-9474.636058,1225.752797
163553.593945,-74.020594,-9474.636058,1762.019645
163553.594265,-1628.453072,-7698.141797,-689.485948
163553.594585,-4737.318029,-7179.997637,0.000000
163553.594905,-2072.576638,-9252.574275,-689.485948
163553.595225,-4367.215058,-9474.636058,-2374.896044
163553.595545,-2664.741391,-9548.656652,-1608.800546
163553.595865,-2590.720797,-8882.471304,-3447.429741
163553.596185,-74.020594,-11251.130318,1455.581446
163553.596505,296.082377,-8882.471304,-76.609550
163553.596824,-1554.432478,-6735.874072,1225.752797
163553.597144,-888.247130,-9104.533087,0.000000
163553.597464,888.247130,-8364.327145,3217.601092
163553.597784,0.000000,-7772.162391,-1685.410096
163553.598104,-370.102971,-9918.759623,76.609550
163553.598424,-888.247130,-11621.233289,-1685.410096
163553.598744,-1924.535449,-10066.800811,-1532.190996
163553.599064,-74.020594,-11843.295072,-383.047749
163553.599384,-1332.370696,-9548.656652,-1225.752797
163553.599704,2294.638420,-10658.965565,1455.581446
163553.600024,1406.391290,-8586.388927,2374.896044
163553.600344,4663.297435,-8882.471304,1149.143247
163553.600663,2368.659014,-11029.068536,2221.676944
163553.600983,1036.288319,-7105.977043,2374.896044
163553.601303,-1184.329507,-8364.327145,-766.095498
163553.601623,222.061783,-10066.800811,1302.362347
163553.601943,740.205942,-9844.739029,-2451.505594
163553.602263,-370.102971,-10955.047942,0.000000
163553.602583,-1184.329507,-10436.903782,-1225.752797
163553.602903,-1332.370696,-9844.739029,-1225.752797
163553.603223,1702.473667,-11103.089130,-1302.362347
163553.603543,-1258.350101,-9474.636058,-1915.238745
163553.603863,0.000000,-9844.739029,306.438199
163553.604182,-814.226536,-8734.430116,-766.095498
163553.604502,2072.576638,-8142.265362,1991.848295
163553.604822,1776.494261,-7846.182985,153.219100
163553.605142,592.164754,-6587.832884,0.000000
163553.605462,1110.308913,-7550.100608,-1225.752797
163553.605782,740.205942,-7179.997637,0.000000
163553.606102,-2960.823768,-9548.656652,-3677.258390
163553.606422,-1110.308913,-12139.377449,-842.705048
163553.606742,1702.473667,-13619.789333,-76.609550
163553.607062,0.000000,-10140.821405,0.000000
163553.607382,-370.102971,-9400.615463,-1991.848295
163553.607702,296.082377,-9918.759623,536.266849
163553.608021,3330.926739,-7402.059420,2068.457845
163553.608341,0.000000,-5403.503377,-995.924147
163553.608661,1110.308913,-9474.636058,2374.896044
163553.608981,-3552.988522,-7476.080014,0.000000
163553.609301,0.000000,-8956.491898,2604.724693
163553.609621,-814.226536,-9844.739029,1149.143247
163553.609941,-2368.659014,-9548.656652,1225.752797
163553.610261,-2738.761985,-9104.533087,-2374.896044
163553.610581,-1998.556043,-8734.430116,-766.095498
163553.610901,-3034.844362,-8956.491898,-3524.039291
163553.611221,-3478.967927,-8956.491898,-3294.210641
163553.611541,-2664.741391,-9918.759623,-2145.067394
163553.611860,-1924.535449,-9548.656652,0.000000
163553.612180,518.144159,-9474.636058,612.876398
163553.612500,-74.020594,-9474.636058,-76.609550
163553.612820,0.000000,-4811.338623,0.000000
163553.613140,814.226536,-7994.224174,-1915.238745
163553.613460,0.000000,-9474.636058,306.438199
163553.613780,-1776.494261,-10510.924376,-1149.143247
163553.614100,-1110.308913,-9992.780217,919.314598
163553.614420,-74.020594,-13027.624579,-76.609550
163553.614740,0.000000,-10288.862594,919.314598
163553.615060,222.061783,-8882.471304,-842.705048
163553.615379,-888.247130,-7698.141797,612.876398
163553.615699,518.144159,-8586.388927,0.000000
163553.616019,0.000000,-6587.832884,0.000000
163553.616339,2294.638420,-7105.977043,-76.609550
163553.616659,0.000000,-7846.182985,0.000000
163553.616979,1110.308913,-10362.883188,1225.752797
163553.617299,-1036.288319,-10658.965565,-689.485948
163553.617619,-74.020594,-12213.398043,2374.896044
163553.617939,-2590.720797,-9622.677246,-2757.943793
163553.618259,-1628.453072,-9474.636058,-459.657299
163553.618579,-666.185348,-9474.636058,-1915.238745
163553.618899,0.000000,-7328.038826,842.705048
163553.619218,-296.082377,-8808.450710,-1302.362347
163553.619538,-148.041188,-9326.594869,229.828649
163553.619858,148.041188,-7179.997637,-2757.943793
163553.620178,0.000000,-8512.368333,919.314598
163553.620498,-74.020594,-9474.636058,-76.609550
163553.620818,-1480.411884,-9844.739029,-1302.362347
163553.621138,222.061783,-9770.718434,-153.219100
163553.621458,222.061783,-10362.883188,-1072.533697
163553.621777,0.000000,-10807.006753,0.000000
163553.622097,-888.247130,-9548.656652,0.000000
163553.622417,1480.411884,-8512.368333,1991.848295
163553.622737,2886.803174,-11251.130318,-76.609550
163553.623057,1702.473667,-9474.636058,1149.143247
163553.623377,296.082377,-7772.162391,0.000000
163553.623697,4663.297435,-9474.636058,-76.609550
163553.624016,0.000000,-8512.368333,-612.876398
163553.624336,-1776.494261,-11325.150913,612.876398
163553.624656,0.000000,-9844.739029,459.657299
163553.624976,-592.164754,-7920.203579,0.000000
163553.625296,0.000000,-7179.997637,1225.752797
163553.625616,-74.020594,-9474.636058,-1302.362347
163553.625935,0.000000,-7772.162391,919.314598
163553.626255,-148.041188,-10658.965565,306.438199
163553.626575,1702.473667,-10510.924376,-76.609550
163553.626895,-1332.370696,-10436.903782,-1302.362347
163553.627215,-1850.514855,-8734.430116,842.705048
163553.627535,-740.205942,-9326.594869,-2221.676944
163553.627855,296.082377,-9548.656652,536.266849
163553.628174,-2368.659014,-7772.162391,-2757.943793
163553.628494,-666.185348,-9474.636058,-995.924147
163553.628814,-3256.906145,-8956.491898,-3447.429741
163553.629134,-3552.988522,-9548.656652,-3677.258390
163553.629454,444.123565,-10955.047942,842.705048
163553.629774,-74.020594,-9474.636058,-383.047749
163553.630093,1184.329507,-9104.533087,1991.848295
163553.630413,1110.308913,-8586.388927,842.705048
163553.630733,1628.453072,-7624.121203,2374.896044
163553.631053,518.144159,-7920.203579,-76.609550
163553.631373,-814.226536,-10140.821405,2145.067394
163553.631693,-74.020594,-10362.883188,-842.705048
163553.632013,-1554.432478,-11843.295072,-76.609550
163553.632332,-1850.514855,-9326.594869,-2528.115143
163553.632652,-1184.329507,-8660.409521,0.000000
163553.632972,4663.297435,-9474.636058,-76.609550
163553.633292,1184.329507,-7994.224174,1532.190996
163553.633612,-592.164754,-8216.285956,-536.266849
163553.633932,-3701.029710,-9622.677246,-1378.971896
163553.634251,-2072.576638,-9548.656652,0.000000
163553.634571,-2960.823768,-9548.656652,-1225.752797
163553.634891,-1184.329507,-8956.491898,1225.752797
163553.635211,-74.020594,-10658.965565,-1302.362347
163553.635531,0.000000,-8586.388927,1455.581446
163553.635851,518.144159,-7031.956449,-3447.429741
163553.636170,1998.556043,-9474.636058,1149.143247
163553.636490,0.000000,-9474.636058,-1225.752797
163553.636810,-962.267725,-9548.656652,-536.266849
163553.637130,-444.123565,-9400.615463,-2451.505594
163553.637450,0.000000,-9844.739029,0.000000
163553.637770,2294.638420,-8512.368333,0.000000
163553.638090,592.164754,-8660.409521,306.438199
163553.638409,1850.514855,-9474.636058,1225.752797
163553.638729,1406.391290,-10510.924376,-76.609550
163553.639049,1110.308913,-7550.100608,-842.705048
163553.639369,1036.288319,-8290.306550,-1225.752797
163553.639689,296.082377,-9474.636058,612.876398
163553.640009,0.000000,-9400.615463,-689.485948
163553.640328,1702.473667,-9474.636058,2987.772442
163553.640648,1332.370696,-10362.883188,536.266849
163553.640968,518.144159,-8882.471304,536.266849
163553.641288,-1776.494261,-8364.327145,-2221.676944
163553.641608,-2960.823768,-10436.903782,-76.609550
163553.641928,-3330.926739,-7920.203579,-4903.011187
163553.642248,-2442.679609,-9474.636058,-3140.991542
163553.642567,518.144159,-9178.553681,-229.828649
163553.642887,0.000000,-8586.388927,-1149.143247
163553.643207,370.102971,-9844.739029,919.314598
163553.643527,-74.020594,-12731.542202,1455.581446
163553.643847,-888.247130,-9918.759623,1225.752797
163553.644167,-74.020594,-11843.295072,-76.609550
163553.644486,518.144159,-8512.368333,76.609550
163553.644806,-1184.329507,-7772.162391,-1225.752797
163553.645126,0.000000,-7179.997637,0.000000
163553.645446,2294.638420,-8290.306550,-1302.362347
163553.645766,-1258.350101,-9918.759623,383.047749
163553.646086,-1924.535449,-9400.615463,-1608.800546
163553.646406,-3034.844362,-9252.574275,-1378.971896
163553.646725,1184.329507,-10436.903782,-612.876398
163553.647045,0.000000,-9548.656652,1225.752797
163553.647365,4737.318029,-9326.594869,4519.963438
163553.647685,1702.473667,-8734.430116,3600.648841
163553.648005,2294.638420,-8882.471304,229.828649
163553.648325,-74.020594,-9474.636058,-689.485948
163553.648644,-2812.782580,-8734.430116,459.657299
163553.648964,-3997.112087,-8290.306550,-2221.676944
163553.649284,-1554.432478,-9844.739029,536.266849
163553.649604,888.247130,-7772.162391,0.000000
163553.649924,1184.329507,-7994.224174,1149.143247
163553.650244,-74.020594,-8586.388927,-1608.800546
163553.650564,-4293.194464,-9326.594869,-1915.238745
163553.650883,-4737.318029,-9548.656652,-2145.067394
163553.651203,-666.185348,-13619.789333,-1302.362347
163553.651523,-2886.803174,-10436.903782,-1532.190996
163553.651843,-1628.453072,-10436.903782,-1149.143247
163553.652163,2664.741391,-8882.471304,2528.115143
163553.652483,2886.803174,-7402.059420,76.609550
163553.652802,0.000000,-5995.668130,0.000000
163553.653122,518.144159,-9104.533087,76.609550
163553.653442,370.102971,-9104.533087,383.047749
163553.653762,-1406.391290,-9030.512492,-2221.676944
163553.654082,-518.144159,-11843.295072,-76.609550
163553.654402,3478.967927,-11103.089130,-76.609550
163553.654722,1184.329507,-9844.739029,1838.629195
163553.655041,-74.020594,-10066.800811,-383.047749
163553.655361,-2220.617826,-11843.295072,-383.047749
163553.655681,-3552.988522,-8364.327145,0.000000
163553.656001,-4515.256246,-7254.018232,-3370.820191
163553.656321,-1924.535449,-8808.450710,0.000000
163553.656641,-444.123565,-8290.306550,383.047749
163553.656960,3627.009116,-6217.729913,3600.648841
163553.657280,2812.782580,-5921.647536,1762.019645
163553.657600,1406.391290,-8142.265362,2374.896044
163553.657920,-148.041188,-9918.759623,-153.219100
163553.658240,-1554.432478,-11843.295072,-76.609550
163553.658560,-3034.844362,-9178.553681,-3753.867940
163553.658880,-5921.647536,-10140.821405,-2451.505594
163553.659199,518.144159,-8956.491898,-2528.115143
163553.659519,0.000000,-9622.677246,-1225.752797
163553.659839,1036.288319,-9622.677246,0.000000
163553.660159,-666.185348,-9770.718434,-1378.971896
163553.660479,1406.391290,-9178.553681,1149.143247
163553.660799,-1036.288319,-7994.224174,-1455.581446
163553.661118,0.000000,-7476.080014,766.095498
163553.661438,1776.494261,-9252.574275,1838.629195
163553.661758,5255.462188,-8438.347739,4826.401637
163553.662078,0.000000,-5995.668130,0.000000
163553.662398,518.144159,-10362.883188,842.705048
163553.662718,-1480.411884,-11325.150913,-2681.334243
163553.663038,-3108.864956,-11399.171507,-1762.019645
163553.663357,-2442.679609,-10658.965565,-3753.867940
163553.663677,-1258.350101,-11843.295072,-1608.800546
163553.663997,2294.638420,-9474.636058,-1302.362347
163553.664317,0.000000,-7179.997637,0.000000
163553.664637,1184.329507,-8734.430116,0.000000
163553.664957,0.000000,-8956.491898,1532.190996
163553.665276,0.000000,-5995.668130,612.876398
163553.665596,-1924.535449,-6957.935855,-1455.581446
163553.665916,-2220.617826,-8660.409521,995.924147
163553.666236,-592.164754,-8808.450710,-1225.752797
163553.666556,2294.638420,-10658.965565,2068.457845
163553.666876,0.000000,-8956.491898,-2145.067394
163553.667196,-1850.514855,-12435.459826,-995.924147
163553.667515,-1258.350101,-12731.542202,-842.705048
163553.667835,-2442.679609,-9474.636058,-2834.553343
163553.668155,-2960.823768,-10140.821405,0.000000
163553.668475,-1850.514855,-9400.615463,-919.314598
163553.668795,3552.988522,-8956.491898,2221.676944
163553.669115,4885.359217,-7402.059420,2604.724693
163553.669434,5329.482782,-7179.997637,2757.943793
163553.669754,1184.329507,-7328.038826,0.000000
163553.670074,296.082377,-7476.080014,1838.629195
163553.670394,-4145.153275,-5995.668130,-3677.258390
163553.670714,-3552.988522,-11621.233289,0.000000
163553.671034,-2442.679609,-13619.789333,-1302.362347
163553.671354,-4145.153275,-9548.656652,0.000000
163553.671673,740.205942,-9178.553681,-995.924147
163553.671993,-592.164754,-8364.327145,-919.314598
163553.672313,-1258.350101,-8586.388927,-1762.019645
163553.672633,-3034.844362,-6365.771101,-2834.553343
163553.672953,-666.185348,-7105.977043,-383.047749
163553.673273,-666.185348,-9474.636058,-1915.238745
163553.673592,296.082377,-8364.327145,612.876398
163553.673912,2072.576638,-9252.574275,1225.752797
163553.674232,5847.626942,-11843.295072,6665.030833
163553.674552,1184.329507,-7772.162391,0.000000
163553.674872,-222.061783,-9696.697840,536.266849
163553.675192,-2886.803174,-9252.574275,-4213.525239
163553.675512,-3923.091493,-10584.944971,-1762.019645
163553.675831,-370.102971,-10362.883188,-2528.115143
163553.676151,0.000000,-9696.697840,1532.190996
163553.676471,3034.844362,-9030.512492,1608.800546
163553.676791,2294.638420,-9474.636058,2987.772442
163553.677111,2294.638420,-8290.306550,1149.143247
163553.677431,-1406.391290,-10658.965565,1149.143247
163553.677750,-2516.700203,-9622.677246,-1532.190996
163553.678070,-3330.926739,-10362.883188,-1225.752797
163553.678390,-296.082377,-10362.883188,536.266849
163553.678710,0.000000,-8364.327145,-2451.505594
163553.679030,592.164754,-8364.327145,2451.505594
163553.679350,2072.576638,-8956.491898,919.314598
163553.679670,0.000000,-7179.997637,1225.752797
163553.679989,-74.020594,-9474.636058,-1608.800546
163553.680309,-1258.350101,-11843.295072,-76.609550
163553.680629,0.000000,-9548.656652,-842.705048
163553.680949,-1406.391290,-9844.739029,0.000000
163553.681269,-444.123565,-9844.739029,-766.095498
163553.681589,-2442.679609,-9474.636058,-1149.143247
163553.681908,-2960.823768,-7179.997637,-3677.258390
163553.682228,-3182.885551,-8956.491898,-3753.867940
163553.682548,-5921.647536,-9548.656652,-2451.505594
163553.682868,-1480.411884,-10658.965565,-919.314598
163553.683188,814.226536,-9474.636058,1455.581446
163553.683508,1184.329507,-7772.162391,1838.629195
163553.683828,2294.638420,-8734.430116,2681.334243
163553.684147,3034.844362,-7550.100608,1991.848295
163553.684467,518.144159,-6513.812290,1838.629195
163553.684787,0.000000,-7179.997637,-3064.381992
163553.685107,-1332.370696,-11843.295072,-1762.019645
163553.685427,0.000000,-10140.821405,-612.876398
163553.685747,-74.020594,-10955.047942,-1608.800546
163553.686066,0.000000,-9178.553681,-1302.362347
163553.686386,-3552.988522,-9548.656652,-2451.505594
163553.686706,222.061783,-8586.388927,0.000000
163553.687026,-1332.370696,-8290.306550,-1532.190996
163553.687346,-1850.514855,-9474.636058,1225.752797
163553.687666,148.041188,-8586.388927,153.219100
163553.687986,4663.297435,-9474.636058,4519.963438
163553.688305,3552.988522,-7698.141797,1532.190996
163553.688625,1406.391290,-8364.327145,1685.410096
163553.688945,0.000000,-7179.997637,0.000000
163553.689265,-2960.823768,-9548.656652,-1838.629195
163553.689585,-2442.679609,-10658.965565,-4979.620737
163553.689905,-4959.379811,-12361.439231,-3983.696590
163553.690224,-1776.494261,-11843.295072,-1991.848295
163553.690544,-296.082377,-10140.821405,-2528.115143
163553.690864,1850.514855,-9548.656652,2374.896044
163553.691184,0.000000,-6587.832884,612.876398
163553.691504,2294.638420,-7402.059420,2374.896044
163553.691824,0.000000,-7031.956449,-689.485948
163553.692144,0.000000,-8290.306550,1991.848295
163553.692463,1110.308913,-8882.471304,-383.047749
163553.692783,2294.638420,-11103.089130,4060.306139
163553.693103,-74.020594,-7920.203579,-1685.410096
163553.693423,-2368.659014,-8956.491898,0.000000
163553.693743,2072.576638,-11621.233289,919.314598
163553.694063,-888.247130,-11399.171507,-76.609550
163553.694382,-3552.988522,-8364.327145,-1838.629195
163553.694702,-3034.844362,-9992.780217,-1455.581446
163553.695022,1332.370696,-8882.471304,1149.143247
163553.695342,1850.514855,-8734.430116,0.000000
163553.695662,2738.761985,-8068.244768,1685.410096
163553.695982,740.205942,-6883.915261,1225.752797
163553.696302,1258.350101,-9178.553681,4826.401637
163553.696621,-74.020594,-7105.977043,-3753.867940
163553.696941,-4737.318029,-9548.656652,-1378.971896
163553.697261,-2960.823768,-11325.150913,-536.266849
163553.697581,-2812.782580,-10288.862594,-2987.772442
163553.697901,-1332.370696,-11843.295072,-1762.019645
163553.698221,-1998.556043,-10288.862594,-1149.143247
163553.698540,888.247130,-8808.450710,-2451.505594
163553.698860,-814.226536,-7105.977043,-4136.915689
163553.699180,518.144159,-9474.636058,-1302.362347
163553.699500,-2738.761985,-9548.656652,-2145.067394
163553.699820,2812.782580,-10436.903782,3830.477490
163553.700140,2442.679609,-9474.636058,2374.896044
163553.700460,1184.329507,-10140.821405,3830.477490
163553.700779,1702.473667,-9548.656652,536.266849
163553.701099,518.144159,-8142.265362,2068.457845
163553.701419,-444.123565,-8364.327145,-1378.971896
163553.701739,-3478.967927,-7846.182985,-2221.676944
163553.702059,-1258.350101,-10658.965565,-766.095498
163553.702379,-1258.350101,-10510.924376,-76.609550
163553.702698,-666.185348,-10214.842000,-1302.362347
163553.703018,-1258.350101,-10362.883188,-1608.800546
163553.703338,-74.020594,-11843.295072,2068.457845
163553.703658,-3552.988522,-7476.080014,-3064.381992
163553.703978,-1702.473667,-9696.697840,-689.485948
163553.704298,-1998.556043,-9474.636058,-1149.143247
163553.704618,0.000000,-9400.615463,766.095498
163553.704937,1110.308913,-8660.409521,0.000000
163553.705257,1850.514855,-9844.739029,2528.115143
163553.705577,2738.761985,-10362.883188,2374.896044
163553.705897,2886.803174,-9474.636058,2374.896044
163553.706217,370.102971,-8734.430116,-1455.581446
163553.706537,-74.020594,-13027.624579,2374.896044
163553.706856,74.020594,-9104.533087,-995.924147
163553.707176,-1332.370696,-9474.636058,-383.047749
163553.707496,-370.102971,-9474.636058,-842.705048
163553.707816,-2368.659014,-8956.491898,-2451.505594
163553.708136,0.000000,-7179.997637,0.000000
163553.708456,-888.247130,-7179.997637,-3983.696590
163553.708776,0.000000,-9548.656652,1838.629195
163553.709095,1702.473667,-10066.800811,-76.609550
163553.709415,2886.803174,-9474.636058,3600.648841
163553.709735,3256.906145,-8216.285956,2145.067394
163553.710055,296.082377,-8364.327145,1378.971896
163553.710375,814.226536,-9474.636058,-689.485948
163553.710695,-1850.514855,-9400.615463,-1302.362347
163553.711014,-4737.318029,-8364.327145,-2451.505594
163553.711334,-3256.906145,-10066.800811,-1302.362347
163553.711654,-2072.576638,-8364.327145,-2145.067394
163553.711974,-1480.411884,-9104.533087,-1378.971896
163553.712294,-74.020594,-10658.965565,-76.609550
163553.712614,-74.020594,-9474.636058,-1302.362347
163553.712934,814.226536,-8956.491898,1225.752797
163553.713253,0.000000,-9104.533087,-1378.971896
163553.713573,-518.144159,-9844.739029,1225.752797
163553.713893,-370.102971,-10066.800811,-76.609550
163553.714213,-74.020594,-9474.636058,-76.609550
163553.714533,-74.020594,-10658.965565,-1915.238745
163553.714853,-2960.823768,-9696.697840,-383.047749
163553.715172,-1036.288319,-7179.997637,-1532.190996
163553.715492,0.000000,-5403.503377,-2451.505594
163553.715812,3478.967927,-10658.965565,2068.457845
163553.716132,-1036.288319,-8808.450710,-459.657299
163553.716452,0.000000,-8364.327145,689.485948
163553.716772,-1332.370696,-8734.430116,-766.095498
163553.717092,-2072.576638,-9548.656652,2451.505594
163553.717411,-3404.947333,-9548.656652,-1378.971896
163553.717731,-1924.535449,-8808.450710,1532.190996
163553.718051,-666.185348,-11251.130318,-995.924147
163553.718371,-1998.556043,-9178.553681,-76.609550
163553.718691,-74.020594,-9326.594869,-1915.238745
163553.719011,-74.020594,-8882.471304,1838.629195
163553.719330,74.020594,-8216.285956,0.000000
163553.719650,-1776.494261,-8882.471304,306.438199
163553.719970,0.000000,-9474.636058,-229.828649
163553.720290,-3552.988522,-7179.997637,-2451.505594
163553.720610,-2146.597232,-9548.656652,-3217.601092
163553.720930,-3552.988522,-10732.986159,-1838.629195
163553.721250,1110.308913,-10955.047942,-76.609550
163553.721569,1184.329507,-10140.821405,-306.438199
163553.721889,2812.782580,-14211.954086,3447.429741
163553.722209,3256.906145,-8364.327145,-919.314598
163553.722529,3997.112087,-8512.368333,2221.676944
163553.722849,2960.823768,-7031.956449,-1072.533697
163553.723168,-2960.823768,-8364.327145,-3677.258390
163553.723488,-74.020594,-10732.986159,-1225.752797
163553.723808,1110.308913,-10658.965565,-76.609550
163553.724128,74.020594,-9548.656652,0.000000
163553.724448,-1776.494261,-8364.327145,0.000000
163553.724767,2886.803174,-9030.512492,766.095498
163553.725087,-1776.494261,-8734.430116,-689.485948
163553.725407,0.000000,-7328.038826,0.000000
163553.725727,0.000000,-10584.944971,-612.876398
163553.726047,814.226536,-9918.759623,2068.457845
163553.726366,-666.185348,-7402.059420,-2068.457845
163553.726686,1924.535449,-9030.512492,3600.648841
163553.727006,1776.494261,-7772.162391,76.609550
163553.727326,0.000000,-7772.162391,919.314598
163553.727646,-1332.370696,-7920.203579,-2221.676944
163553.727965,-2738.761985,-11843.295072,-76.609550
163553.728285,-3404.947333,-13249.686362,-2068.457845
163553.728605,-3627.009116,-11843.295072,-3140.991542
163553.728925,-2812.782580,-10881.027347,-1838.629195
163553.729245,-1480.411884,-9474.636058,0.000000
163553.729564,-370.102971,-6143.709319,-1455.581446
163553.729884,-74.020594,-7476.080014,-1149.143247
163553.730204,148.041188,-8290.306550,1532.190996
163553.730524,518.144159,-8660.409521,383.047749
163553.730844,3478.967927,-9474.636058,3524.039291
163553.731163,0.000000,-8660.409521,0.000000
163553.731483,0.000000,-9844.739029,2451.505594
163553.731803,2590.720797,-10362.883188,2374.896044
163553.732123,2294.638420,-9474.636058,-76.609550
163553.732442,-2368.659014,-7772.162391,-3677.258390
163553.732762,-2442.679609,-10066.800811,-1302.362347
163553.733082,-592.164754,-9844.739029,-1685.410096
163553.733402,-2072.576638,-10288.862594,-1455.581446
163553.733722,-666.185348,-10658.965565,0.000000
163553.734041,-1924.535449,-9474.636058,-76.609550
163553.734361,0.000000,-7476.080014,919.314598
163553.734681,-1554.432478,-7179.997637,0.000000
163553.735001,2294.638420,-9474.636058,1149.143247
163553.735321,296.082377,-7179.997637,-1532.190996
163553.735640,0.000000,-5995.668130,0.000000
163553.735960,-1406.391290,-10066.800811,-2528.115143
163553.736280,-4663.297435,-11843.295072,-919.314598
163553.736600,-2664.741391,-10881.027347,-3140.991542
163553.736920,-2368.659014,-9474.636058,-1302.362347
163553.737239,1702.473667,-11547.212695,-76.609550
163553.737559,1110.308913,-11843.295072,2374.896044
163553.737879,2886.803174,-8216.285956,1149.143247
163553.738199,296.082377,-6291.750507,0.000000
163553.738519,1184.329507,-8956.491898,2451.505594
163553.738838,-2368.659014,-7772.162391,-1685.410096
163553.739158,740.205942,-9104.533087,1302.362347
163553.739478,-666.185348,-9400.615463,-766.095498
163553.739798,740.205942,-10510.924376,1302.362347
163553.740117,3182.885551,-10955.047942,-76.609550
163553.740437,962.267725,-9252.574275,2451.505594
163553.740757,-74.020594,-10658.965565,-689.485948
163553.741077,-962.267725,-10658.965565,842.705048
163553.741397,2294.638420,-9326.594869,-383.047749
163553.741716,-2368.659014,-7179.997637,1225.752797
163553.742036,-888.247130,-7476.080014,0.000000
163553.742356,-444.123565,-8586.388927,-459.657299
163553.742676,1702.473667,-9252.574275,153.219100
163553.742996,-1332.370696,-9178.553681,-1915.238745
163553.743315,-1258.350101,-11251.130318,-383.047749
163553.743635,-4145.153275,-10732.986159,-3064.381992
163553.743955,-888.247130,-11029.068536,0.000000
163553.744275,-1776.494261,-10140.821405,-1225.752797
163553.744595,-74.020594,-8882.471304,1149.143247
163553.744914,1184.329507,-5995.668130,0.000000
163553.745234,1702.473667,-7105.977043,1838.629195
163553.745554,1110.308913,-8808.450710,-995.924147
163553.745874,-3108.864956,-10140.821405,229.828649
163553.746194,962.267725,-8882.471304,-689.485948
163553.746513,-74.020594,-8586.388927,-76.609550
163553.746833,962.267725,-9474.636058,-76.609550
163553.747153,0.000000,-7179.997637,-1532.190996
163553.747473,1184.329507,-9548.656652,76.609550
163553.747792,888.247130,-11325.150913,-306.438199
163553.748112,-2368.659014,-9844.739029,-1225.752797
163553.748432,-740.205942,-10436.903782,-2068.457845
163553.748752,592.164754,-10436.903782,1149.143247
163553.749072,1776.494261,-7624.121203,-919.314598
163553.749391,-74.020594,-7105.977043,-76.609550
163553.749711,2072.576638,-8660.409521,383.047749
163553.750031,1110.308913,-9474.636058,-76.609550
163553.750351,518.144159,-10658.965565,-76.609550
163553.750671,-1554.432478,-9474.636058,-1302.362347
163553.750990,-2368.659014,-11029.068536,1532.190996
163553.751310,-2072.576638,-8956.491898,-2298.286494
163553.751630,-1184.329507,-9474.636058,-1072.533697
163553.751950,-2812.782580,-8734.430116,-1915.238745
163553.752270,1036.288319,-8438.347739,0.000000
163553.752589,2960.823768,-8808.450710,0.000000
163553.752909,2368.659014,-7772.162391,2604.724693
163553.753229,888.247130,-8364.327145,0.000000
163553.753549,-74.020594,-8290.306550,2374.896044
163553.753869,-74.020594,-8290.306550,-1302.362347
163553.754188,-3256.906145,-9548.656652,612.876398
163553.754508,-1480.411884,-9770.718434,-1378.971896
163553.754828,-1480.411884,-10436.903782,-383.047749
163553.755148,370.102971,-10658.965565,-76.609550
163553.755467,-2738.761985,-8068.244768,-4213.525239
163553.755787,-1554.432478,-9474.636058,-306.438199
163553.756107,-2368.659014,-7476.080014,-3677.258390
163553.756427,1332.370696,-10436.903782,2451.505594
163553.756747,1998.556043,-8882.471304,-76.609550
163553.757066,2738.761985,-9474.636058,4673.182538
163553.757386,1776.494261,-7772.162391,1225.752797
163553.757706,1998.556043,-8882.471304,3064.381992
163553.758026,1702.473667,-9770.718434,0.000000
163553.758346,-2220.617826,-9918.759623,-306.438199
163553.758665,-3182.885551,-8586.388927,-4366.744339
163553.758985,-2738.761985,-11843.295072,-2528.115143
163553.759305,-2220.617826,-8660.409521,-3677.258390
163553.759625,-2072.576638,-10066.800811,-2451.505594
163553.759945,0.000000,-10732.986159,689.485948
163553.760264,-3552.988522,-9548.656652,0.000000
163553.760584,296.082377,-9844.739029,842.705048
163553.760904,-2072.576638,-7402.059420,-612.876398
163553.761224,0.000000,-7328.038826,1455.581446
163553.761544,2886.803174,-5921.647536,-689.485948
163553.761863,3108.864956,-7402.059420,2298.286494
163553.762183,1776.494261,-8364.327145,1225.752797
163553.762503,-74.020594,-9992.780217,0.000000
163553.762823,-74.020594,-12435.459826,-76.609550
163553.763142,-4811.338623,-8364.327145,-4903.011187
163553.763462,-2442.679609,-10658.965565,-2528.115143
163553.763782,-2368.659014,-10658.965565,-612.876398
163553.764102,1924.535449,-8660.409521,383.047749
163553.764422,666.185348,-7994.224174,306.438199
163553.764741,1776.494261,-9474.636058,3600.648841
163553.765061,-2960.823768,-8364.327145,-1762.019645
163553.765381,-1850.514855,-8882.471304,1225.752797
163553.765701,-1258.350101,-8586.388927,-1149.143247
163553.766021,-814.226536,-8956.491898,612.876398
163553.766340,0.000000,-6809.894666,0.000000
163553.766660,1702.473667,-8882.471304,536.266849
163553.766980,0.000000,-9548.656652,0.000000
163553.767300,-814.226536,-11251.130318,-306.438199
163553.767620,-2146.597232,-10658.965565,-2528.115143
163553.767939,-4737.318029,-11029.068536,-2911.162892
163553.768259,-4737.318029,-11029.068536,-2834.553343
163553.768579,-1776.494261,-9030.512492,-1838.629195
163553.768899,2516.700203,-8660.409521,2068.457845
163553.769219,5033.400406,-6069.688724,2145.067394
163553.769538,6291.750507,-7698.141797,3600.648841
163553.769858,1110.308913,-7476.080014,-536.266849
163553.770178,-2960.823768,-7179.997637,-2681.334243
163553.770498,-4737.318029,-11621.233289,-1838.629195
163553.770818,-74.020594,-14211.954086,2374.896044
163553.771137,1480.411884,-8956.491898,306.438199
163553.771457,518.144159,-7994.224174,1915.238745
163553.771777,1628.453072,-8068.244768,229.828649
163553.772097,-296.082377,-9770.718434,306.438199
163553.772416,0.000000,-7772.162391,-1225.752797
163553.772736,-4145.153275,-8734.430116,-2451.505594
163553.773056,-1776.494261,-9548.656652,612.876398
163553.773376,2294.638420,-9474.636058,-76.609550
163553.773696,3775.050304,-8068.244768,2451.505594
163553.774015,4071.132681,-9474.636058,-76.609550
163553.774335,-888.247130,-9992.780217,306.438199
163553.774655,-962.267725,-10066.800811,-1838.629195
163553.774975,-2072.576638,-10066.800811,-1072.533697
163553.775295,-1184.329507,-11029.068536,-919.314598
163553.775614,-3552.988522,-7179.997637,0.000000
163553.775934,4663.297435,-10658.965565,-76.609550
163553.776254,74.020594,-7179.997637,-2145.067394
163553.776574,0.000000,-9548.656652,0.000000
163553.776894,-1258.350101,-11843.295072,-383.047749
163553.777213,296.082377,-11621.233289,1149.143247
163553.777533,-962.267725,-8586.388927,-612.876398
163553.777853,2220.617826,-8438.347739,1608.800546
163553.778173,2368.659014,-7846.182985,842.705048
163553.778493,2516.700203,-7179.997637,2834.553343
163553.778812,5255.462188,-9474.636058,1608.800546
163553.779132,0.000000,-8660.409521,2451.505594
163553.779452,-1628.453072,-8364.327145,-3907.087040
163553.779772,-4441.235652,-10140.821405,0.000000
163553.780091,-74.020594,-9474.636058,-383.047749
163553.780411,-2072.576638,-8512.368333,-459.657299
163553.780731,-296.082377,-8512.368333,-1302.362347
163553.781051,-1406.391290,-8068.244768,-2374.896044
163553.781371,-814.226536,-9474.636058,-76.609550
163553.781690,-2368.659014,-9548.656652,-2451.505594
163553.782010,-1850.514855,-11251.130318,-383.047749
163553.782330,-3034.844362,-13027.624579,-1302.362347
163553.782650,-4515.256246,-9548.656652,-2681.334243
163553.782970,-1776.494261,-8364.327145,-2298.286494
163553.783289,4663.297435,-10658.965565,2374.896044
163553.783609,2960.823768,-8142.265362,1532.190996
163553.783929,2146.597232,-8734.430116,2528.115143
163553.784249,2368.659014,-8512.368333,842.705048
163553.784569,-2368.659014,-7772.162391,0.000000
163553.784888,-2368.659014,-10140.821405,0.000000
163553.785208,-3552.988522,-9548.656652,-1838.629195
163553.785528,1628.453072,-10436.903782,1225.752797
163553.785848,-370.102971,-9622.677246,-383.047749
163553.786168,-74.020594,-9474.636058,-1608.800546
163553.786487,-370.102971,-10658.965565,-1455.581446
163553.786807,-1332.370696,-9622.677246,919.314598
163553.787127,-2368.659014,-9252.574275,-2068.457845
163553.787447,-2146.597232,-9770.718434,1532.190996
163553.787766,0.000000,-6587.832884,0.000000
163553.788086,2294.638420,-6365.771101,1455.581446
163553.788406,1184.329507,-6291.750507,612.876398
163553.788726,0.000000,-8956.491898,2451.505594
163553.789046,0.000000,-9104.533087,689.485948
163553.789365,-3034.844362,-8882.471304,-3140.991542
163553.789685,-3108.864956,-11621.233289,-1991.848295
163553.790005,-2590.720797,-11103.089130,-1838.629195
163553.790325,-666.185348,-9474.636058,-383.047749
163553.790645,1110.308913,-9474.636058,-76.609550
163553.790964,666.185348,-9992.780217,153.219100
163553.791284,1110.308913,-9474.636058,-1302.362347
163553.791604,0.000000,-7920.203579,-1455.581446
163553.791924,0.000000,-9548.656652,0.000000
163553.792244,-666.185348,-10214.842000,0.000000
163553.792563,4071.132681,-9474.636058,-76.609550
163553.792883,2664.741391,-8734.430116,1455.581446
163553.793203,3552.988522,-9104.533087,1149.143247
163553.793523,1406.391290,-9992.780217,1302.362347
163553.793843,2368.659014,-10140.821405,2987.772442
163553.794162,-1924.535449,-9104.533087,-842.705048
163553.794482,-2368.659014,-9548.656652,0.000000
163553.794802,-2146.597232,-10658.965565,-1991.848295
163553.795122,222.061783,-9992.780217,536.266849
163553.795441,-962.267725,-5995.668130,-3064.381992
163553.795761,-74.020594,-10955.047942,919.314598
163553.796081,-1702.473667,-8882.471304,-1532.190996
163553.796401,-3404.947333,-8956.491898,-2681.334243
163553.796721,-2960.823768,-9918.759623,-995.924147
163553.797040,-2960.823768,-9844.739029,306.438199
163553.797360,0.000000,-6291.750507,0.000000
163553.797680,1776.494261,-8734.430116,2681.334243
163553.798000,3478.967927,-8586.388927,2374.896044
163553.798320,-74.020594,-8586.388927,-76.609550
163553.798639,2294.638420,-10658.965565,-383.047749
163553.798959,-3849.070898,-9844.739029,-4519.963438
163553.799279,-3330.926739,-11695.253884,-1685.410096
163553.799599,-1036.288319,-11029.068536,-1762.019645
163553.799919,0.000000,-9548.656652,1838.629195
163553.800238,3182.885551,-9030.512492,766.095498
163553.800558,3478.967927,-9474.636058,2374.896044
163553.800878,2442.679609,-7105.977043,-383.047749
163553.801198,-2368.659014,-7179.997637,0.000000
163553.801518,2146.597232,-13027.624579,2987.772442
163553.801837,-2368.659014,-7920.203579,0.000000
163553.802157,666.185348,-8216.285956,1302.362347
163553.802477,518.144159,-8216.285956,0.000000
163553.802797,1406.391290,-9770.718434,1225.752797
163553.803116,-1258.350101,-7105.977043,-3140.991542
163553.803436,-1924.535449,-9326.594869,-1608.800546
163553.803756,-4515.256246,-10584.944971,-3600.648841
163553.804076,-3330.926739,-10807.006753,-1762.019645
163553.804396,-1850.514855,-11251.130318,-1302.362347
163553.804715,888.247130,-12435.459826,1149.143247
163553.805035,2368.659014,-9548.656652,1838.629195
163553.805355,4071.132681,-8882.471304,4826.401637
163553.805675,4145.153275,-5551.544565,1149.143247
163553.805995,0.000000,-5995.668130,0.000000
163553.806314,-74.020594,-7105.977043,-1072.533697
163553.806634,-3034.844362,-8956.491898,-1532.190996
163553.806954,-2442.679609,-10510.924376,-2604.724693
163553.807274,-3404.947333,-10288.862594,-3830.477490
163553.807594,-1776.494261,-11991.336260,-76.609550
163553.807913,-666.185348,-10658.965565,-1378.971896
163553.808233,-1776.494261,-10732.986159,-459.657299
163553.808553,-4737.318029,-7772.162391,-2451.505594
163553.808873,-2368.659014,-8364.327145,612.876398
163553.809193,0.000000,-5995.668130,0.000000
163553.809512,3478.967927,-8290.306550,2987.772442
163553.809832,3849.070898,-7550.100608,3370.820191
163553.810152,2294.638420,-8068.244768,2987.772442
163553.810472,2664.741391,-7772.162391,1532.190996
163553.810791,-74.020594,-9474.636058,-76.609550
163553.811111,-2590.720797,-9548.656652,-2834.553343
163553.811431,-6439.791695,-10732.986159,-4903.011187
163553.811751,-4737.318029,-11621.233289,-2451.505594
163553.812071,-3404.947333,-11177.109724,-2298.286494
163553.812390,-4441.235652,-7179.997637,-3677.258390
163553.812710,814.226536,-9178.553681,-919.314598
163553.813030,1110.308913,-8290.306550,1608.800546
163553.813350,370.102971,-6809.894666,306.438199
163553.813670,1702.473667,-8290.306550,2374.896044
163553.813989,4663.297435,-8290.306550,1685.410096
163553.814309,3478.967927,-9474.636058,1762.019645
163553.814629,74.020594,-8734.430116,-1685.410096
163553.814949,-1480.411884,-9548.656652,-2451.505594
163553.815269,0.000000,-9548.656652,-1225.752797
163553.815588,-3627.009116,-9844.739029,-4290.134789
163553.815908,-2146.597232,-10658.965565,-2451.505594
163553.816228,-1258.350101,-9474.636058,-1149.143247
163553.816548,1036.288319,-8364.327145,1072.533697
163553.816868,4145.153275,-8660.409521,2068.457845
163553.817187,2664.741391,-7179.997637,2834.553343
163553.817507,3108.864956,-6883.915261,2528.115143
163553.817827,2294.638420,-9474.636058,3600.648841
163553.818147,-962.267725,-9178.553681,-1608.800546
163553.818467,-4737.318029,-9548.656652,0.000000
163553.818786,-1850.514855,-10362.883188,-1302.362347
163553.819106,-3108.864956,-10436.903782,-1762.019645
163553.819426,-666.185348,-10658.965565,-1532.190996
163553.819746,-592.164754,-8660.409521,-1762.019645
163553.820065,1998.556043,-9622.677246,-383.047749
163553.820385,-2368.659014,-7476.080014,-2145.067394
163553.820705,-4737.318029,-7179.997637,0.000000
163553.821025,-888.247130,-10362.883188,689.485948
163553.821345,2886.803174,-11251.130318,2987.772442
163553.821664,0.000000,-7179.997637,0.000000
163553.821984,0.000000,-10658.965565,2145.067394
163553.822304,962.267725,-8586.388927,-536.266849
163553.822624,-1998.556043,-9474.636058,-1838.629195
163553.822944,-2442.679609,-10362.883188,-4979.620737
163553.823264,-4219.173869,-11843.295072,-1302.362347
163553.823584,-74.020594,-11251.130318,-689.485948
163553.823904,-148.041188,-7994.224174,-383.047749
163553.824223,1184.329507,-7179.997637,0.000000
163553.824543,1184.329507,-8364.327145,4443.353888
163553.824863,0.000000,-5107.421000,1838.629195
163553.825183,370.102971,-6513.812290,612.876398
163553.825503,-148.041188,-9844.739029,919.314598
163553.825823,1036.288319,-9474.636058,1915.238745
163553.826143,-74.020594,-10955.047942,1149.143247
163553.826463,0.000000,-9548.656652,0.000000
163553.826783,-74.020594,-11251.130318,-1302.362347
163553.827102,1110.308913,-11029.068536,612.876398
163553.827422,-370.102971,-9474.636058,-2528.115143
163553.827742,-2368.659014,-9844.739029,-1225.752797
163553.828062,-3923.091493,-9252.574275,-3524.039291
163553.828382,-1332.370696,-8956.491898,-1378.971896
163553.828702,-1480.411884,-9104.533087,-1378.971896
163553.829022,222.061783,-7624.121203,0.000000
163553.829342,518.144159,-7994.224174,383.047749
163553.829661,0.000000,-8068.244768,1225.752797
163553.829981,740.205942,-9548.656652,612.876398
163553.830301,-74.020594,-9474.636058,-383.047749
163553.830621,3478.967927,-11843.295072,-76.609550
163553.830941,0.000000,-11029.068536,612.876398
163553.831261,444.123565,-11177.109724,-306.438199
163553.831581,222.061783,-10510.924376,995.924147
163553.831901,3404.947333,-7772.162391,459.657299
163553.832221,-74.020594,-5699.585753,-2145.067394
163553.832540,-666.185348,-7994.224174,229.828649
163553.832860,-3034.844362,-6587.832884,-2221.676944
163553.833180,-1184.329507,-8660.409521,0.000000
163553.833500,-1258.350101,-9770.718434,-76.609550
163553.833820,-3552.988522,-9548.656652,306.438199
163553.834140,-370.102971,-9918.759623,-76.609550
163553.834460,-1554.432478,-8290.306550,153.219100
163553.834780,-2886.803174,-8882.471304,-2145.067394
163553.835100,-5033.400406,-9326.594869,-2834.553343
163553.835419,-2886.803174,-11769.274478,-1608.800546
163553.835739,-4737.318029,-9548.656652,0.000000
163553.836059,-2072.576638,-11473.192101,-76.609550
163553.836379,-1406.391290,-11843.295072,2374.896044
163553.836699,-740.205942,-6587.832884,0.000000
163553.837019,-74.020594,-7105.977043,536.266849
163553.837339,-592.164754,-9400.615463,995.924147
163553.837659,-3330.926739,-10140.821405,229.828649
163553.837978,-3034.844362,-9992.780217,842.705048
163553.838298,-5033.400406,-11029.068536,-842.705048
163553.838618,-5699.585753,-11843.295072,-1225.752797
163553.838938,-5699.585753,-9326.594869,-1302.362347
163553.839258,-3627.009116,-9474.636058,-689.485948
163553.839578,-9474.636058,-7179.997637,-4596.572988
163553.839898,-6587.832884,-10658.965565,-76.609550
163553.840218,-6513.812290,-8586.388927,-612.876398
163553.840538,-3701.029710,-7698.141797,2757.943793
163553.840857,-3997.112087,-7105.977043,1915.238745
163553.841177,-4663.297435,-7402.059420,4826.401637
163553.841497,-3552.988522,-4811.338623,0.000000
163553.841817,222.061783,-8068.244768,4213.525239
163553.842137,-2812.782580,-7179.997637,-1149.143247
163553.842457,-8364.327145,-10436.903782,-1915.238745
163553.842777,-8364.327145,-12435.459826,-5745.716235
163553.843097,-8660.409521,-12805.562797,-4213.525239
163553.843416,-10658.965565,-10732.986159,-4903.011187
163553.843736,-9548.656652,-11399.171507,-1225.752797
163553.844056,-5107.421000,-9474.636058,-842.705048
163553.844376,-1776.494261,-6291.750507,4903.011187
163553.844696,148.041188,-2738.761985,2451.505594
163553.845016,-296.082377,-4737.318029,4673.182538
163553.845336,-1776.494261,-6069.688724,919.314598
163553.845656,-2738.761985,-9030.512492,1608.800546
163553.845976,-2442.679609,-12139.377449,-1455.581446
163553.846295,-6217.729913,-11769.274478,-2221.676944
163553.846615,-7179.997637,-13693.809927,-4903.011187
163553.846935,-5921.647536,-12731.542202,-4213.525239
163553.847255,-3627.009116,-13027.624579,-4060.306139
163553.847575,-3552.988522,-9548.656652,0.000000
163553.847895,-962.267725,-9400.615463,-76.609550
163553.848215,444.123565,-6883.915261,1455.581446
163553.848535,1184.329507,-6883.915261,2374.896044
163553.848854,2590.720797,-7179.997637,3064.381992
163553.849174,592.164754,-5995.668130,1838.629195
163553.849494,518.144159,-8290.306550,4213.525239
163553.849814,-4441.235652,-5995.668130,0.000000
163553.850134,-2886.803174,-11621.233289,536.266849
163553.850454,-2812.782580,-11917.315666,306.438199
163553.850774,-2368.659014,-11843.295072,-229.828649
163553.851094,-4811.338623,-9030.512492,-4366.744339
163553.851414,-6661.853478,-9400.615463,-5898.935335
163553.851733,-6217.729913,-9548.656652,-5515.887586
163553.852053,-4737.318029,-10140.821405,-3677.258390
163553.852373,0.000000,-7772.162391,0.000000
163553.852693,-2368.659014,-7179.997637,1225.752797
163553.853013,592.164754,-8660.409521,3983.696590
163553.853333,1110.308913,-6513.812290,2987.772442
163553.853653,1110.308913,-8882.471304,2987.772442
163553.853973,2368.659014,-8956.491898,2911.162892
163553.854293,148.041188,-8956.491898,1455.581446
163553.854612,-1628.453072,-8882.471304,0.000000
163553.854932,-5329.482782,-9326.594869,-4366.744339
163553.855252,-9252.574275,-11325.150913,-5745.716235
163553.855572,-5403.503377,-13027.624579,-4060.306139
163553.855892,-5107.421000,-12435.459826,-2681.334243
163553.856212,-5477.523971,-10362.883188,-383.047749
163553.856532,-5921.647536,-7772.162391,1378.971896
163553.856852,-666.185348,-8290.306550,2987.772442
163553.857171,0.000000,-5699.585753,3677.258390
163553.857491,518.144159,-6439.791695,3447.429741
163553.857811,-1110.308913,-7402.059420,3753.867940
163553.858131,-2220.617826,-7550.100608,2757.943793
163553.858451,-4145.153275,-8364.327145,306.438199
163553.858771,-6513.812290,-11029.068536,-3140.991542
163553.859091,-9030.512492,-13027.624579,-6205.373534
163553.859411,-10732.986159,-12139.377449,-7660.954980
163553.859731,-9030.512492,-11103.089130,-6818.249932
163553.860050,-4811.338623,-14211.954086,-689.485948
163553.860370,-4737.318029,-9918.759623,689.485948
163553.860690,-2220.617826,-6439.791695,1455.581446
163553.861010,-1924.535449,-5699.585753,1685.410096
163553.861330,-3552.988522,-5995.668130,3064.381992
163553.861650,-4441.235652,-4811.338623,1225.752797
163553.861970,-4737.318029,-5995.668130,1838.629195
163553.862290,-3849.070898,-8734.430116,459.657299
163553.862609,-2442.679609,-11843.295072,-76.609550
163553.862929,-3627.009116,-10510.924376,-2528.115143
163553.863249,-4811.338623,-11325.150913,-2681.334243
163553.863569,-7328.038826,-10955.047942,-5056.230287
163553.863889,-6143.709319,-12065.356855,-3524.039291
163553.864209,-4737.318029,-11399.171507,-766.095498
163553.864529,-4737.318029,-9548.656652,1225.752797
163553.864849,-74.020594,-8734.430116,3600.648841
163553.865169,1850.514855,-6291.750507,4290.134789
163553.865488,2072.576638,-3627.009116,3064.381992
163553.865808,-1184.329507,-4811.338623,2451.505594
163553.866128,-2442.679609,-8882.471304,-2528.115143
163553.866448,-6513.812290,-11177.109724,-2451.505594
163553.866768,-6809.894666,-12509.480420,-3140.991542
163553.867088,-8216.285956,-12361.439231,-4213.525239
163553.867408,-6069.688724,-14211.954086,-2757.943793
163553.867728,-5255.462188,-11621.233289,-2145.067394
163553.868047,-370.102971,-10066.800811,842.705048
163553.868367,-74.020594,-8290.306550,3600.648841
163553.868687,-74.020594,-4293.194464,842.705048
163553.869007,-1776.494261,-3627.009116,0.000000
163553.869327,2294.638420,-9178.553681,2374.896044
163553.869647,740.205942,-10140.821405,3370.820191
163553.869967,-1850.514855,-9992.780217,2145.067394
163553.870287,-4367.215058,-9918.759623,-1378.971896
163553.870607,-4737.318029,-11917.315666,-1608.800546
163553.870926,-2812.782580,-12213.398043,-2451.505594
163553.871246,-3552.988522,-9548.656652,0.000000
163553.871566,-2368.659014,-8068.244768,1225.752797
163553.871886,-3034.844362,-5921.647536,-689.485948
163553.872206,-4219.173869,-5921.647536,-5898.935335
163553.872526,-1850.514855,-10658.965565,-1149.143247
163553.872846,-2812.782580,-10807.006753,1991.848295
163553.873166,-3627.009116,-9696.697840,3830.477490
163553.873486,-5403.503377,-7698.141797,2068.457845
163553.873805,-4737.318029,-8364.327145,0.000000
163553.874125,-4441.235652,-7179.997637,-1838.629195
163553.874445,-1184.329507,-8956.491898,1838.629195
163553.874765,0.000000,-10140.821405,3064.381992
163553.875085,-1480.411884,-7476.080014,1532.190996
163553.875405,-2738.761985,-9474.636058,-1302.362347
163553.875725,-7254.018232,-7476.080014,-5975.544884
163553.876045,-5329.482782,-9474.636058,-6358.592633
163553.876364,-4589.276840,-11473.192101,-4979.620737
163553.876684,-6513.812290,-11917.315666,-2451.505594
163553.877004,-5995.668130,-13471.748144,-1072.533697
163553.877324,-4811.338623,-13027.624579,842.705048
163553.877644,-3034.844362,-9474.636058,2374.896044
163553.877964,-2368.659014,-5403.503377,2451.505594
163553.878284,2294.638420,-6957.935855,7277.907231
163553.878604,0.000000,-3627.009116,3983.696590
163553.878924,814.226536,-4663.297435,3294.210641
163553.879243,-740.205942,-7920.203579,1838.629195
163553.879563,-3775.050304,-10584.944971,0.000000
163553.879883,-5995.668130,-10955.047942,-5286.058936
163553.880203,-7920.203579,-12953.603985,-4366.744339
163553.880523,-9696.697840,-12509.480420,-5439.278036
163553.880843,-8364.327145,-11399.171507,-4213.525239
163553.881163,-4811.338623,-10658.965565,-2528.115143
163553.881483,-74.020594,-9178.553681,-995.924147
163553.881802,0.000000,-8660.409521,2451.505594
163553.882122,-666.185348,-7994.224174,2145.067394
163553.882442,-2590.720797,-8882.471304,2374.896044
163553.882762,-2368.659014,-9548.656652,4290.134789
163553.883082,-2738.761985,-8734.430116,2757.943793
163553.883402,-1258.350101,-9474.636058,4366.744339
163553.883722,-1776.494261,-8142.265362,2451.505594
163553.884042,-3330.926739,-6661.853478,-1072.533697
163553.884362,-4589.276840,-6365.771101,-4519.963438
163553.884681,-7994.224174,-7624.121203,-7354.516781
163553.885001,-9178.553681,-9844.739029,-7967.393179
163553.885321,-9474.636058,-9548.656652,-7354.516781
163553.885641,-3849.070898,-12065.356855,-2298.286494
163553.885961,-2368.659014,-9548.656652,1838.629195
163553.886281,888.247130,-8216.285956,2987.772442
163553.886601,3404.947333,-8216.285956,5209.449386
163553.886921,4145.153275,-7698.141797,6358.592633
163553.887240,2738.761985,-7254.018232,5515.887586
163553.887560,1110.308913,-6957.935855,2374.896044
163553.887880,-3849.070898,-8364.327145,536.266849
163553.888200,-8882.471304,-7179.997637,-3677.258390
163553.888520,-8290.306550,-10732.986159,-3447.429741
163553.888840,-8956.491898,-11399.171507,-4366.744339
163553.889160,-9474.636058,-9548.656652,-4903.011187
163553.889480,-5699.585753,-10510.924376,-2451.505594
163553.889800,-2442.679609,-9252.574275,919.314598
163553.890119,370.102971,-7624.121203,3064.381992
163553.890439,2294.638420,-7105.977043,3907.087040
163553.890759,3478.967927,-7105.977043,4826.401637
163553.891079,2294.638420,-9474.636058,3600.648841
163553.891399,-2294.638420,-7476.080014,919.314598
163553.891719,-2220.617826,-9548.656652,0.000000
163553.892039,-592.164754,-11917.315666,1991.848295
163553.892359,-2368.659014,-9844.739029,0.000000
163553.892678,1036.288319,-11843.295072,-153.219100
163553.892998,1924.535449,-11103.089130,689.485948
163553.893318,1776.494261,-10658.965565,1532.190996
163553.893638,3478.967927,-10658.965565,3294.210641
163553.893958,2960.823768,-8068.244768,3524.039291
163553.894278,4589.276840,-8290.306550,6052.154434
163553.894598,3923.091493,-9474.636058,7277.907231
163553.894918,1628.453072,-6587.832884,5669.106685
163553.895238,1184.329507,-8956.491898,8580.269578
163553.895557,-148.041188,-8734.430116,5515.887586
163553.895877,-1998.556043,-9918.759623,3600.648841
163553.896197,-3404.947333,-10436.903782,2451.505594
163553.896517,-4737.318029,-9548.656652,612.876398
163553.896837,-2146.597232,-11177.109724,2374.896044
163553.897157,-1480.411884,-10881.027347,5209.449386
163553.897477,0.000000,-7179.997637,5515.887586
163553.897797,2368.659014,-7624.121203,7507.735880
163553.898117,3478.967927,-6513.812290,7277.907231
163553.898436,0.000000,-4811.338623,4290.134789
163553.898756,1036.288319,-7031.956449,3983.696590
163553.899076,74.020594,-10066.800811,3677.258390
163553.899396,-962.267725,-13175.665768,5056.230287
163553.899716,-1702.473667,-14434.015869,4903.011187
163553.900036,-1850.514855,-15396.283594,8503.660028
163553.900356,-666.185348,-13915.871710,9116.536426
163553.900676,-2738.761985,-8586.388927,7354.516781
163553.900995,-1184.329507,-2442.679609,4979.620737
163553.901315,1554.432478,-4145.153275,9116.536426
163553.901635,148.041188,-2590.720797,5209.449386
163553.901955,962.267725,-6291.750507,5592.497135
163553.902275,0.000000,-9474.636058,6128.763984
163553.902595,-1406.391290,-10436.903782,6205.373534
163553.902915,-1554.432478,-11843.295072,5439.278036
163553.903235,-4145.153275,-11917.315666,5515.887586
163553.903555,-2442.679609,-11843.295072,4826.401637
163553.903874,-222.061783,-11843.295072,6052.154434
163553.904194,-74.020594,-10140.821405,4826.401637
163553.904514,296.082377,-11473.192101,7814.174080
163553.904834,-444.123565,-9992.780217,4979.620737
163553.905154,-1776.494261,-9548.656652,4213.525239
163553.905474,-3478.967927,-8364.327145,2145.067394
163553.905794,-4737.318029,-5995.668130,0.000000
163553.906114,-2220.617826,-5995.668130,1225.752797
163553.906433,1184.329507,-7254.018232,3677.258390
163553.906753,2516.700203,-7772.162391,3677.258390
163553.907073,3404.947333,-10510.924376,2374.896044
163553.907393,-74.020594,-13619.789333,-76.609550
163553.907713,-2368.659014,-13989.892304,1225.752797
163553.908033,-3034.844362,-12731.542202,-536.266849
163553.908353,-2294.638420,-11029.068536,612.876398
163553.908673,-592.164754,-9844.739029,-76.609550
163553.908993,0.000000,-7179.997637,0.000000
163553.909312,1776.494261,-8808.450710,1762.019645
163553.909632,1998.556043,-5033.400406,842.705048
163553.909952,1480.411884,-5699.585753,1838.629195
163553.910272,2294.638420,-7994.224174,1991.848295
163553.910592,1776.494261,-9548.656652,2757.943793
163553.910912,4589.276840,-8956.491898,3907.087040
163553.911232,2812.782580,-7550.100608,3370.820191
163553.911552,-1554.432478,-8290.306550,-1225.752797
163553.911871,-4811.338623,-9548.656652,-7048.078582
163553.912191,-4811.338623,-14804.118840,-4136.915689
163553.912511,-5921.647536,-13397.727550,0.000000
163553.912831,-2960.823768,-11251.130318,842.705048
163553.913151,-2442.679609,-7994.224174,-383.047749
163553.913471,0.000000,-3627.009116,0.000000
163553.913791,2886.803174,-3849.070898,-383.047749
163553.914111,2590.720797,-6069.688724,1225.752797
163553.914431,1998.556043,-9474.636058,383.047749
163553.914750,1480.411884,-11695.253884,1225.752797
163553.915070,1110.308913,-14063.912898,2374.896044
163553.915390,-2738.761985,-11843.295072,383.047749
163553.915710,-2590.720797,-11325.150913,-766.095498
163553.916030,-2960.823768,-8364.327145,0.000000
163553.916350,0.000000,-8364.327145,1378.971896
163553.916670,-74.020594,-9178.553681,-76.609550
163553.916990,-1850.514855,-9770.718434,1149.143247
163553.917310,222.061783,-8956.491898,2451.505594
163553.917629,2442.679609,-7550.100608,3677.258390
163553.917949,1924.535449,-7624.121203,4213.525239
163553.918269,0.000000,-7179.997637,2451.505594
163553.918589,1332.370696,-9400.615463,2834.553343
163553.918909,-444.123565,-11325.150913,1608.800546
163553.919229,-2664.741391,-13249.686362,1455.581446
163553.919549,-3034.844362,-11843.295072,1149.143247
163553.919869,-2294.638420,-8808.450710,1838.629195
163553.920188,-74.020594,-10658.965565,3600.648841
163553.920508,-962.267725,-7624.121203,4826.401637
163553.920828,-3627.009116,-4219.173869,2834.553343
163553.921148,296.082377,-6143.709319,6741.640382
163553.921468,0.000000,-4811.338623,3064.381992
163553.921788,3404.947333,-7624.121203,5822.325785
163553.922108,2516.700203,-8956.491898,5515.887586
163553.922428,1110.308913,-9474.636058,4366.744339
163553.922748,-2442.679609,-12657.521608,536.266849
163553.923067,-4071.132681,-13841.851115,612.876398
163553.923387,-3034.844362,-14211.954086,2145.067394
163553.923707,-962.267725,-14063.912898,4213.525239
163553.924027,-814.226536,-11251.130318,2987.772442
163553.924347,0.000000,-8364.327145,6128.763984
163553.924667,814.226536,-5033.400406,4903.011187
163553.924987,2146.597232,-4737.318029,5439.278036
163553.925307,2960.823768,-6365.771101,6894.859482
163553.925627,3627.009116,-7476.080014,4903.011187
163553.925946,2886.803174,-6661.853478,4903.011187
163553.926266,1998.556043,-10436.903782,7201.297681
163553.926586,-1406.391290,-10436.903782,4290.134789
163553.926906,-2294.638420,-11473.192101,4443.353888
163553.927226,-3552.988522,-12213.398043,5822.325785
163553.927546,-3256.906145,-10881.027347,3294.210641
163553.927866,-4811.338623,-9474.636058,1838.629195
163553.928186,-4515.256246,-7698.141797,2068.457845
163553.928506,-2294.638420,-6291.750507,1838.629195
163553.928826,-2368.659014,-3627.009116,612.876398
163553.929146,0.000000,-5921.647536,2374.896044
163553.929465,0.000000,-6587.832884,2451.505594
163553.929785,2368.659014,-11769.274478,6128.763984
163553.930105,4071.132681,-14211.954086,8810.098227
163553.930425,3182.885551,-15396.283594,8503.660028
163553.930745,0.000000,-11325.150913,5822.325785
163553.931065,-3330.926739,-9474.636058,3677.258390
163553.931385,-3182.885551,-7402.059420,2834.553343
163553.931705,-1258.350101,-5403.503377,536.266849
163553.932025,222.061783,-7328.038826,1991.848295
163553.932345,1628.453072,-7105.977043,689.485948
163553.932664,814.226536,-10510.924376,1149.143247
163553.932984,-666.185348,-10066.800811,1149.143247
163553.933304,0.000000,-12213.398043,4213.525239
163553.933624,2294.638420,-14211.954086,6665.030833
163553.933944,-962.267725,-8956.491898,3677.258390
163553.934264,-1628.453072,-9252.574275,3753.867940
163553.934584,-1406.391290,-7698.141797,3447.429741
163553.934904,592.164754,-7179.997637,3064.381992
163553.935224,-1184.329507,-7476.080014,1838.629195
163553.935544,-1258.350101,-9992.780217,0.000000
163553.935863,-1184.329507,-11695.253884,1685.410096
163553.936183,-1258.350101,-10510.924376,1149.143247
163553.936503,-666.185348,-7402.059420,-689.485948
163553.936823,-74.020594,-9474.636058,1149.143247
163553.937143,296.082377,-9844.739029,1149.143247
163553.937463,148.041188,-8068.244768,2374.896044
163553.937783,1628.453072,-9178.553681,2528.115143
163553.938103,0.000000,-5995.668130,0.000000
163553.938423,0.000000,-10362.883188,-383.047749
163553.938743,0.000000,-9548.656652,0.000000
163553.939063,1332.370696,-12213.398043,3217.601092
163553.939382,-74.020594,-12435.459826,3907.087040
163553.939702,-1258.350101,-9474.636058,-1302.362347
163553.940022,-888.247130,-9252.574275,995.924147
163553.940342,1554.432478,-7105.977043,1149.143247
163553.940662,1924.535449,-8216.285956,1532.190996
163553.940982,592.164754,-10510.924376,2374.896044
163553.941302,-1184.329507,-8956.491898,1991.848295
163553.941622,1110.308913,-11843.295072,2374.896044
163553.941942,-2886.803174,-6661.853478,0.000000
163553.942262,-5921.647536,-7772.162391,612.876398
163553.942581,-370.102971,-6883.915261,0.000000
163553.942901,4071.132681,-7698.141797,-76.609550
163553.943221,2664.741391,-9030.512492,2451.505594
163553.943541,518.144159,-13175.665768,3753.867940
163553.943861,-1924.535449,-11843.295072,3064.381992
163553.944181,-2960.823768,-11325.150913,3064.381992
163553.944501,-4737.318029,-8660.409521,-1072.533697
163553.944821,-2590.720797,-9178.553681,0.000000
163553.945141,3182.885551,-6809.894666,1455.581446
163553.945461,2886.803174,-4737.318029,1762.019645
163553.945781,1924.535449,-3923.091493,-1915.238745
163553.946100,1702.473667,-10955.047942,2681.334243
163553.946420,74.020594,-10807.006753,995.924147
163553.946740,-2294.638420,-10362.883188,1378.971896
163553.947060,-2590.720797,-11695.253884,153.219100
163553.947380,0.000000,-10140.821405,3677.258390
163553.947700,3849.070898,-7179.997637,0.000000
163553.948020,2960.823768,-6587.832884,2757.943793
163553.948340,3478.967927,-9474.636058,536.266849
163553.948660,-1554.432478,-11843.295072,2374.896044
163553.948980,-962.267725,-14211.954086,-689.485948
163553.949299,-4885.359217,-11621.233289,-2834.553343
163553.949619,-3404.947333,-11251.130318,-2145.067394
163553.949939,-1036.288319,-8956.491898,0.000000
163553.950259,1776.494261,-8364.327145,612.876398
163553.950579,2294.638420,-9252.574275,1225.752797
163553.950899,2294.638420,-12435.459826,1762.019645
163553.951219,148.041188,-10214.842000,842.705048
163553.951539,-4737.318029,-5995.668130,-3677.258390
163553.951859,-3849.070898,-10362.883188,-76.609550
163553.952179,-5329.482782,-7179.997637,-4903.011187
163553.952498,1332.370696,-8956.491898,-3753.867940
163553.952818,1702.473667,-10214.842000,-1225.752797
163553.953138,370.102971,-11177.109724,-766.095498
163553.953458,-2442.679609,-9326.594869,-3140.991542
163553.953778,-2442.679609,-8660.409521,-4673.182538
163553.954098,-1850.514855,-9474.636058,-3983.696590
163553.954418,1258.350101,-8290.306550,-2068.457845
163553.954738,3775.050304,-7846.182985,1149.143247
163553.955058,6069.688724,-9252.574275,4213.525239
163553.955378,2368.659014,-8364.327145,612.876398
163553.955698,-74.020594,-10658.965565,-76.609550
163553.956017,-2368.659014,-8068.244768,-3524.039291
163553.956337,-2664.741391,-8364.327145,-3677.258390
163553.956657,-1258.350101,-9474.636058,-3753.867940
163553.956977,-1184.329507,-7994.224174,-2451.505594
163553.957297,1036.288319,-7476.080014,-2757.943793
163553.957617,592.164754,-7550.100608,-2451.505594
163553.957937,1184.329507,-10436.903782,-919.314598
163553.958257,-74.020594,-10066.800811,-76.609550
163553.958577,-2368.659014,-7328.038826,-3064.381992
163553.958897,-2368.659014,-10140.821405,-3677.258390
163553.959216,0.000000,-9696.697840,153.219100
163553.959536,1480.411884,-7179.997637,-2451.505594
163553.959856,3478.967927,-10066.800811,1149.143247
163553.960176,74.020594,-10510.924376,-1532.190996
163553.960496,-1628.453072,-11177.109724,0.000000
163553.960816,-1480.411884,-9548.656652,-3140.991542
163553.961136,-2442.679609,-12435.459826,-689.485948
163553.961456,-1406.391290,-10807.006753,-1225.752797
163553.961776,-1110.308913,-8290.306550,-76.609550
163553.962096,1184.329507,-4811.338623,0.000000
163553.962416,1480.411884,-6439.791695,1608.800546
163553.962735,518.144159,-6291.750507,0.000000
163553.963055,1406.391290,-9844.739029,2528.115143
163553.963375,296.082377,-9474.636058,2451.505594
163553.963695,-2442.679609,-11473.192101,1838.629195
163553.964015,-1924.535449,-11251.130318,2987.772442
163553.964335,814.226536,-9474.636058,2987.772442
163553.964655,2294.638420,-9474.636058,3600.648841
163553.964975,2146.597232,-8290.306550,-76.609550
163553.965295,0.000000,-8660.409521,2451.505594
163553.965615,-2368.659014,-9548.656652,0.000000
163553.965934,-4219.173869,-9696.697840,-1915.238745
163553.966254,-4441.235652,-11917.315666,-1302.362347
163553.966574,-3849.070898,-9622.677246,-306.438199
163553.966894,-444.123565,-9252.574275,76.609550
163553.967214,2294.638420,-9844.739029,2757.943793
163553.967534,0.000000,-8660.409521,2451.505594
163553.967854,2294.638420,-10955.047942,3830.477490
163553.968174,-1258.350101,-9178.553681,1915.238745
163553.968494,-6809.894666,-7179.997637,-2451.505594
163553.968814,-6513.812290,-6587.832884,-2451.505594
163553.969133,-370.102971,-8290.306550,-2987.772442
163553.969453,1110.308913,-9844.739029,-383.047749
163553.969773,2146.597232,-10510.924376,766.095498
163553.970093,370.102971,-9844.739029,2068.457845
163553.970413,222.061783,-8956.491898,-76.609550
163553.970733,-2368.659014,-8512.368333,-1455.581446
163553.971053,0.000000,-8364.327145,-2451.505594
163553.971373,592.164754,-7328.038826,2451.505594
163553.971693,5551.544565,-8290.306550,5745.716235
163553.972013,1184.329507,-3923.091493,153.219100
163553.972333,3478.967927,-7994.224174,3294.210641
163553.972652,814.226536,-7328.038826,459.657299
163553.972972,-1850.514855,-9178.553681,-1149.143247
163553.973292,-2442.679609,-11843.295072,-2528.115143
163553.973612,-1554.432478,-11843.295072,-383.047749
163553.973932,-74.020594,-11843.295072,-383.047749
163553.974252,-74.020594,-8290.306550,-1302.362347
163553.974572,0.000000,-8364.327145,-919.314598
163553.974892,0.000000,-8364.327145,1532.190996
163553.975212,-592.164754,-6587.832884,-2451.505594
163553.975532,-2812.782580,-9326.594869,-536.266849
163553.975851,-2146.597232,-8956.491898,-1149.143247
163553.976171,-296.082377,-8512.368333,-2068.457845
163553.976491,4663.297435,-12435.459826,-76.609550
163553.976811,592.164754,-9548.656652,0.000000
163553.977131,518.144159,-12879.583391,1149.143247
163553.977451,-2146.597232,-10066.800811,-3447.429741
163553.977771,-3627.009116,-10658.965565,-4519.963438
163553.978091,-3552.988522,-11325.150913,-3064.381992
163553.978411,-814.226536,-8882.471304,-153.219100
163553.978731,2072.576638,-7920.203579,459.657299
163553.979051,1924.535449,-6069.688724,1302.362347
163553.979370,2220.617826,-5995.668130,0.000000
163553.979690,1480.411884,-7254.018232,1762.019645
163553.980010,296.082377,-7772.162391,0.000000
163553.980330,-1628.453072,-10732.986159,0.000000
163553.980650,-296.082377,-13027.624579,2374.896044
163553.980970,-74.020594,-11843.295072,-76.609550
163553.981290,-4145.153275,-7179.997637,-2451.505594
163553.981610,-592.164754,-7624.121203,-2987.772442
163553.981930,740.205942,-8660.409521,-153.219100
163553.982250,1924.535449,-9548.656652,-1991.848295
163553.982569,-74.020594,-10658.965565,-76.609550
163553.982889,-666.185348,-11547.212695,-76.609550
163553.983209,-1702.473667,-8290.306550,-76.609550
163553.983529,0.000000,-6291.750507,0.000000
163553.983849,2294.638420,-8290.306550,-76.609550
163553.984169,2738.761985,-8956.491898,2298.286494
163553.984489,1776.494261,-8364.327145,0.000000
163553.984809,1702.473667,-11769.274478,-689.485948
163553.985129,-3330.926739,-12509.480420,-2451.505594
163553.985449,-4515.256246,-11621.233289,-2374.896044
163553.985768,-1850.514855,-10658.965565,-3753.867940
163553.986088,1702.473667,-11547.212695,-76.609550
163553.986408,2886.803174,-8882.471304,-689.485948
163553.986728,2368.659014,-7772.162391,2451.505594
163553.987048,3552.988522,-7772.162391,2451.505594
163553.987368,-2368.659014,-6587.832884,0.000000
163553.987688,-1110.308913,-9992.780217,-383.047749
163553.988008,-3478.967927,-7772.162391,-995.924147
163553.988328,-1332.370696,-8660.409521,-1302.362347
163553.988648,-74.020594,-9474.636058,-76.609550
163553.988968,2368.659014,-10658.965565,2528.115143
163553.989287,0.000000,-7179.997637,229.828649
163553.989607,-2368.659014,-6587.832884,-1915.238745
163553.989927,-7105.977043,-8364.327145,-4290.134789
163553.990247,-4811.338623,-7328.038826,-4366.744339
163553.990567,-1258.350101,-10066.800811,-2068.457845
163553.990887,0.000000,-9252.574275,1072.533697
163553.991207,1850.514855,-9400.615463,995.924147
163553.991527,148.041188,-7105.977043,2834.553343
163553.991847,0.000000,-6587.832884,612.876398
163553.992167,-1110.308913,-9030.512492,-612.876398
163553.992486,148.041188,-10510.924376,-306.438199
163553.992806,74.020594,-9844.739029,1149.143247
163553.993126,814.226536,-8956.491898,0.000000
163553.993446,-74.020594,-7846.182985,-1915.238745
163553.993766,2294.638420,-10658.965565,-76.609550
163553.994086,0.000000,-7772.162391,-2145.067394
163553.994406,518.144159,-10140.821405,-2068.457845
163553.994726,-74.020594,-13619.789333,2374.896044
163553.995046,-2368.659014,-9548.656652,2451.505594
163553.995366,1184.329507,-8586.388927,459.657299
163553.995686,1184.329507,-7550.100608,1378.971896
163553.996005,1998.556043,-7772.162391,1072.533697
163553.996325,1406.391290,-8290.306550,1302.362347
163553.996645,296.082377,-8956.491898,0.000000
163553.996965,-1258.350101,-11843.295072,-76.609550
163553.997285,-3330.926739,-11547.212695,-76.609550
163553.997605,-5329.482782,-7772.162391,-2145.067394
163553.997925,-74.020594,-10658.965565,-76.609550
163553.998245,-1776.494261,-7772.162391,-1685.410096
163553.998565,1628.453072,-8586.388927,1149.143247
163553.998885,1554.432478,-9178.553681,612.876398
163553.999204,-296.082377,-10214.842000,1149.143247
163553.999524,-3404.947333,-10140.821405,-2451.505594
163553.999844,-3552.988522,-9252.574275,0.000000
163554.000164,-666.185348,-9696.697840,-76.609550
163554.000484,-370.102971,-7698.141797,-1302.362347
163554.000804,592.164754,-7772.162391,306.438199
163554.001124,3108.864956,-10658.965565,3600.648841
163554.001444,1332.370696,-9400.615463,0.000000
163554.001764,-1924.535449,-10658.965565,-612.876398
163554.002084,-2664.741391,-10807.006753,-1225.752797
163554.002403,-4145.153275,-8364.327145,-4290.134789
163554.002723,-3552.988522,-6587.832884,-2451.505594
163554.003043,74.020594,-7698.141797,-2145.067394
163554.003363,2368.659014,-7772.162391,3064.381992
163554.003683,3256.906145,-8882.471304,2374.896044
163554.004003,-74.020594,-9474.636058,-76.609550
163554.004323,-1480.411884,-11251.130318,-306.438199
163554.004643,-2812.782580,-8882.471304,-919.314598
163554.004963,-592.164754,-7328.038826,-1991.848295
163554.005283,0.000000,-8290.306550,-1072.533697
163554.005603,666.185348,-7179.997637,-766.095498
163554.005922,2886.803174,-10066.800811,-383.047749
163554.006242,814.226536,-9992.780217,-1762.019645
163554.006562,-3552.988522,-10140.821405,-4673.182538
163554.006882,-4737.318029,-10732.986159,0.000000
163554.007202,-74.020594,-9474.636058,-2528.115143
163554.007522,296.082377,-7476.080014,-919.314598
163554.007842,2664.741391,-8142.265362,-919.314598
163554.008162,3256.906145,-7624.121203,1532.190996
163554.008482,3478.967927,-8660.409521,76.609550
163554.008802,0.000000,-9548.656652,0.000000
163554.009121,-1776.494261,-12879.583391,-1608.800546
163554.009441,-666.185348,-11695.253884,1455.581446
163554.009761,1110.308913,-10066.800811,-995.924147
163554.010081,370.102971,-8438.347739,-689.485948
163554.010401,3478.967927,-11547.212695,1762.019645
163554.010721,888.247130,-7328.038826,0.000000
163554.011041,888.247130,-7476.080014,-383.047749
163554.011361,-1702.473667,-9474.636058,-1915.238745
163554.011681,-3552.988522,-10140.821405,1225.752797
163554.012001,-2368.659014,-8364.327145,-1225.752797
163554.012320,-2886.803174,-8364.327145,0.000000
163554.012640,-2368.659014,-8364.327145,0.000000
163554.012960,-1258.350101,-8882.471304,306.438199
163554.013280,-74.020594,-8882.471304,-1302.362347
163554.013600,-666.185348,-9474.636058,-306.438199
163554.013920,-2146.597232,-11251.130318,-459.657299
163554.014240,-1554.432478,-9622.677246,-153.219100
163554.014560,-1332.370696,-8734.430116,-1991.848295
163554.014880,-3256.906145,-7772.162391,-2451.505594
163554.015200,1998.556043,-9474.636058,-76.609550
163554.015520,370.102971,-7772.162391,0.000000
163554.015839,1776.494261,-8660.409521,0.000000
163554.016159,592.164754,-11917.315666,612.876398
163554.016479,-74.020594,-11547.212695,-76.609550
163554.016799,0.000000,-8882.471304,-612.876398
163554.017119,148.041188,-8660.409521,229.828649
163554.017439,666.185348,-9178.553681,0.000000
163554.017759,2294.638420,-9104.533087,3370.820191
163554.018079,2516.700203,-7772.162391,919.314598
163554.018399,1702.473667,-9474.636058,536.266849
163554.018719,-74.020594,-13027.624579,2374.896044
163554.019038,-666.185348,-9326.594869,76.609550
163554.019358,-1702.473667,-8364.327145,0.000000
163554.019678,-74.020594,-11251.130318,1149.143247
163554.019998,-370.102971,-9622.677246,1608.800546
163554.020318,592.164754,-8438.347739,689.485948
163554.020638,-666.185348,-7105.977043,459.657299
163554.020958,-2368.659014,-9548.656652,0.000000
163554.021278,-2368.659014,-8364.327145,0.000000
163554.021598,0.000000,-9548.656652,306.438199
163554.021918,-74.020594,-10658.965565,-76.609550
163554.022238,-2886.803174,-9548.656652,-919.314598
163554.022557,-1258.350101,-8586.388927,-76.609550
163554.022877,-148.041188,-8364.327145,-995.924147
163554.023197,-1258.350101,-9474.636058,-1608.800546
163554.023517,74.020594,-10584.944971,766.095498
163554.023837,814.226536,-9252.574275,689.485948
163554.024156,0.000000,-9548.656652,1838.629195
163554.024476,-1258.350101,-7328.038826,-1991.848295
163554.024796,-1184.329507,-7476.080014,1378.971896
163554.025116,814.226536,-8882.471304,-1302.362347
163554.025435,1702.473667,-7994.224174,-76.609550
163554.025755,2812.782580,-13323.706956,3294.210641
163554.026075,0.000000,-8660.409521,1762.019645
163554.026395,-666.185348,-9178.553681,-995.924147
163554.026714,-1258.350101,-11251.130318,-76.609550
163554.027034,-2368.659014,-9548.656652,0.000000
163554.027354,0.000000,-8512.368333,919.314598
163554.027674,0.000000,-7179.997637,-1302.362347
163554.027993,-2368.659014,-7179.997637,0.000000
163554.028313,-814.226536,-9474.636058,-76.609550
163554.028633,-1776.494261,-8808.450710,-76.609550
163554.028953,-1628.453072,-8364.327145,-1225.752797
163554.029272,-444.123565,-10288.862594,-2068.457845
163554.029592,-592.164754,-9844.739029,-229.828649
163554.029912,-148.041188,-9992.780217,-2681.334243
163554.030232,-666.185348,-9030.512492,-3907.087040
163554.030551,370.102971,-11251.130318,-842.705048
163554.030871,1110.308913,-9474.636058,536.266849
163554.031191,1998.556043,-7994.224174,-995.924147
163554.031511,518.144159,-10658.965565,-76.609550
163554.031830,1332.370696,-11843.295072,-76.609550
163554.032150,1184.329507,-9696.697840,919.314598
163554.032470,1110.308913,-8142.265362,-229.828649
163554.032790,-1184.329507,-7179.997637,-3447.429741
163554.033109,0.000000,-7772.162391,0.000000
163554.033429,814.226536,-7105.977043,-3753.867940
163554.033749,740.205942,-9474.636058,689.485948
163554.034069,-666.185348,-9992.780217,-1838.629195
163554.034388,-740.205942,-10732.986159,1685.410096
163554.034708,-592.164754,-10066.800811,-76.609550
163554.035028,-2960.823768,-8068.244768,0.000000
163554.035347,-2960.823768,-8216.285956,-919.314598
163554.035667,-3552.988522,-4811.338623,0.000000
163554.035987,814.226536,-9030.512492,-766.095498
163554.036307,-2960.823768,-7772.162391,-2451.505594
163554.036626,-74.020594,-11399.171507,536.266849
163554.036946,-1332.370696,-10436.903782,-383.047749
163554.037266,-2368.659014,-8660.409521,-1455.581446
163554.037586,-2960.823768,-9696.697840,-2987.772442
163554.037905,-74.020594,-9178.553681,-76.609550
163554.038225,1036.288319,-8956.491898,-2374.896044
163554.038545,0.000000,-9548.656652,306.438199
163554.038865,0.000000,-10140.821405,0.000000
163554.039184,-962.267725,-10140.821405,1378.971896
163554.039504,-3552.988522,-5403.503377,-4596.572988
163554.039824,-148.041188,-9474.636058,-1608.800546
163554.040144,592.164754,-9104.533087,153.219100
163554.040463,1258.350101,-9252.574275,229.828649
163554.040783,3478.967927,-11843.295072,2374.896044
163554.041103,3478.967927,-11843.295072,842.705048
163554.041423,1702.473667,-12731.542202,3600.648841
163554.041742,-1258.350101,-8290.306550,-995.924147
163554.042062,-2442.679609,-7105.977043,-76.609550
163554.042382,-3552.988522,-7179.997637,-1838.629195
163554.042702,1554.432478,-7550.100608,0.000000
163554.043021,3849.070898,-10140.821405,1149.143247
163554.043341,1628.453072,-10140.821405,4443.353888
163554.043661,-888.247130,-9992.780217,689.485948
163554.043981,-2738.761985,-9252.574275,-76.609550
163554.044300,-4145.153275,-7179.997637,-4136.915689
163554.044620,-1628.453072,-9474.636058,-1378.971896
163554.044940,2294.638420,-11843.295072,2374.896044
163554.045260,3182.885551,-9474.636058,1149.143247
163554.045579,0.000000,-9548.656652,2451.505594
163554.045899,-2072.576638,-9770.718434,-2528.115143
163554.046219,-3330.926739,-9844.739029,-1149.143247
163554.046539,-1480.411884,-9548.656652,-2757.943793
163554.046858,-74.020594,-8290.306550,-689.485948
163554.047178,1110.308913,-9474.636058,-689.485948
163554.047498,370.102971,-7179.997637,0.000000
163554.047817,0.000000,-6291.750507,-2451.505594
163554.048137,592.164754,-10362.883188,-153.219100
163554.048457,2072.576638,-13915.871710,1149.143247
163554.048777,-4145.153275,-9548.656652,0.000000
163554.049096,-1036.288319,-10362.883188,306.438199
163554.049416,-1554.432478,-9252.574275,0.000000
163554.049736,74.020594,-6291.750507,689.485948
163554.050056,2294.638420,-5329.482782,-1302.362347
163554.050375,3478.967927,-7698.141797,2374.896044
163554.050695,3478.967927,-11251.130318,-76.609550
163554.051015,-1110.308913,-10732.986159,1608.800546
163554.051335,-3256.906145,-10140.821405,-2451.505594
163554.051654,-4737.318029,-10436.903782,1838.629195
163554.051974,-4367.215058,-7772.162391,-3064.381992
163554.052294,-370.102971,-6513.812290,-459.657299
163554.052614,2072.576638,-7031.956449,-1455.581446
163554.052933,740.205942,-9400.615463,459.657299
163554.053253,2294.638420,-13915.871710,1455.581446
163554.053573,-1776.494261,-11029.068536,1225.752797
163554.053893,-666.185348,-11547.212695,-76.609550
163554.054212,-2442.679609,-10066.800811,-1302.362347
163554.054532,-370.102971,-6217.729913,-383.047749
163554.054852,296.082377,-5995.668130,306.438199
163554.055172,2590.720797,-7994.224174,842.705048
163554.055491,2294.638420,-11621.233289,-995.924147
163554.055811,74.020594,-13767.830521,2068.457845
163554.056131,-3034.844362,-10732.986159,-2451.505594
163554.056451,-3923.091493,-10881.027347,-1225.752797
163554.056770,-3552.988522,-8956.491898,-919.314598
163554.057090,0.000000,-4811.338623,306.438199
163554.057410,4515.256246,-6513.812290,1149.143247
163554.057730,5551.544565,-8290.306550,3600.648841
163554.058049,1776.494261,-11029.068536,3677.258390
163554.058369,-666.185348,-11843.295072,1149.143247
163554.058689,-4293.194464,-11103.089130,-459.657299
163554.059009,-7179.997637,-9696.697840,-2757.943793
163554.059328,-3627.009116,-4441.235652,-4213.525239
163554.059648,74.020594,-5921.647536,-2528.115143
163554.059968,1110.308913,-5699.585753,-1608.800546
163554.060288,1184.329507,-10288.862594,0.000000
163554.060607,-296.082377,-12509.480420,2451.505594
163554.060927,-4441.235652,-9548.656652,-1838.629195
163554.061247,-5255.462188,-9622.677246,-2528.115143
163554.061566,-2886.803174,-9030.512492,-2451.505594
163554.061886,1036.288319,-6587.832884,-1685.410096
163554.062206,5329.482782,-6069.688724,842.705048
163554.062526,5181.441594,-9252.574275,0.000000
163554.062845,0.000000,-10140.821405,612.876398
163554.063165,-1702.473667,-12657.521608,-2604.724693
163554.063485,-3552.988522,-13397.727550,-1225.752797
163554.063805,-4811.338623,-11547.212695,-5362.668486
163554.064124,-74.020594,-8882.471304,-689.485948
163554.064444,3256.906145,-6587.832884,-383.047749
163554.064764,3256.906145,-5477.523971,919.314598
163554.065084,2516.700203,-8216.285956,-229.828649
163554.065403,1924.535449,-12065.356855,3370.820191
163554.065723,-666.185348,-10362.883188,-1838.629195
163554.066043,-4071.132681,-10955.047942,-1302.362347
163554.066363,-5921.647536,-7476.080014,-2451.505594
163554.066682,0.000000,-7476.080014,-919.314598
163554.067002,4663.297435,-9474.636058,-76.609550
163554.067322,1480.411884,-8660.409521,0.000000
163554.067642,592.164754,-9548.656652,842.705048
163554.067961,-1850.514855,-9844.739029,-2298.286494
163554.068281,-3997.112087,-12435.459826,-76.609550
163554.068601,-5921.647536,-9548.656652,-3677.258390
163554.068921,-666.185348,-8512.368333,2374.896044
163554.069240,2294.638420,-6587.832884,766.095498
163554.069560,3034.844362,-5625.565159,919.314598
163554.069880,2886.803174,-8882.471304,-76.609550
163554.070200,-370.102971,-9474.636058,-76.609550
163554.070519,-74.020594,-12657.521608,-76.609550
163554.070839,-3478.967927,-12657.521608,-306.438199
163554.071159,-666.185348,-13027.624579,-76.609550
163554.071479,-1776.494261,-7476.080014,0.000000
163554.071798,370.102971,-6365.771101,0.000000
163554.072118,2960.823768,-8882.471304,766.095498
163554.072438,1702.473667,-9992.780217,3294.210641
163554.072758,0.000000,-9474.636058,1225.752797
163554.073077,-2590.720797,-10510.924376,536.266849
163554.073397,-3997.112087,-9918.759623,-1532.190996
163554.073717,-1776.494261,-7846.182985,0.000000
163554.074036,2294.638420,-9178.553681,-76.609550
163554.074356,1110.308913,-8586.388927,-1302.362347
163554.074676,0.000000,-11325.150913,1225.752797
163554.074996,-1110.308913,-11843.295072,0.000000
163554.075315,-3552.988522,-11843.295072,-612.876398
163554.075635,-5329.482782,-11325.150913,-2374.896044
163554.075955,-2812.782580,-7772.162391,-1532.190996
163554.076275,1702.473667,-4589.276840,-1302.362347
163554.076594,3552.988522,-4145.153275,-76.609550
163554.076914,2368.659014,-5995.668130,0.000000
163554.077234,3182.885551,-10658.965565,2681.334243
163554.077554,1110.308913,-13619.789333,-76.609550
163554.077873,-5921.647536,-10732.986159,0.000000
163554.078193,-4589.276840,-10955.047942,-1608.800546
163554.078513,-1924.535449,-7994.224174,-2145.067394
163554.078833,2960.823768,-7698.141797,-919.314598
163554.079152,5255.462188,-7698.141797,842.705048
163554.079472,6439.791695,-11547.212695,5439.278036
163554.079792,2294.638420,-9178.553681,1762.019645
163554.080112,-2146.597232,-8660.409521,-383.047749
163554.080431,-4811.338623,-9326.594869,-3753.867940
163554.080751,-2960.823768,-9474.636058,2374.896044
163554.081071,0.000000,-6291.750507,-1532.190996
163554.081391,2886.803174,-8142.265362,1225.752797
163554.081710,2146.597232,-9104.533087,-459.657299
163554.082030,-1258.350101,-9844.739029,0.000000
163554.082350,-3330.926739,-11029.068536,-4290.134789
163554.082670,-6513.812290,-12509.480420,-3677.258390
163554.082989,-4589.276840,-12805.562797,-1838.629195
163554.083309,-74.020594,-9474.636058,-76.609550
163554.083629,2738.761985,-6217.729913,-383.047749
163554.083949,3256.906145,-9104.533087,2911.162892
163554.084268,2294.638420,-7550.100608,1149.143247
163554.084588,666.185348,-9474.636058,-153.219100
163554.084908,-1406.391290,-11251.130318,-612.876398
163554.085228,-4737.318029,-11917.315666,-4290.134789
163554.085547,-4737.318029,-8660.409521,-1838.629195
163554.085867,0.000000,-5995.668130,-3983.696590
163554.086187,0.000000,-7179.997637,-1225.752797
163554.086506,2516.700203,-9770.718434,-229.828649
163554.086826,2294.638420,-11843.295072,2374.896044
163554.087146,0.000000,-11621.233289,459.657299
163554.087466,-2442.679609,-11769.274478,229.828649
163554.087785,-2886.803174,-9770.718434,1532.190996
163554.088105,-518.144159,-5107.421000,536.266849
163554.088425,1554.432478,-1998.556043,-1072.533697
163554.088745,4663.297435,-9474.636058,-76.609550
163554.089064,3478.967927,-9992.780217,2451.505594
163554.089384,0.000000,-11325.150913,76.609550
163554.089704,-3034.844362,-14211.954086,-76.609550
163554.090024,-4811.338623,-13323.706956,-2834.553343
163554.090343,-5329.482782,-8956.491898,-1838.629195
163554.090663,-666.185348,-7550.100608,-2451.505594
163554.090983,2368.659014,-6809.894666,383.047749
163554.091303,3923.091493,-9622.677246,2374.896044
163554.091622,1110.308913,-9548.656652,2374.896044
163554.091942,-74.020594,-11547.212695,-76.609550
163554.092262,-4737.318029,-10140.821405,-1915.238745
163554.092582,-4959.379811,-7772.162391,-2681.334243
163554.092901,0.000000,-7179.997637,-3064.381992
163554.093221,5847.626942,-9474.636058,-76.609550
163554.093541,3108.864956,-9326.594869,612.876398
163554.093861,592.164754,-10214.842000,1685.410096
163554.094180,-1850.514855,-10362.883188,-2145.067394
163554.094500,-4737.318029,-10140.821405,-2145.067394
163554.094820,-5329.482782,-9622.677246,-3524.039291
163554.095140,-296.082377,-8882.471304,612.876398
163554.095459,5847.626942,-8882.471304,1762.019645
163554.095779,3552.988522,-6143.709319,3064.381992
163554.096099,2590.720797,-5033.400406,1608.800546
163554.096419,-74.020594,-8290.306550,-76.609550
163554.096738,-3256.906145,-9770.718434,-1762.019645
163554.097058,-3923.091493,-11769.274478,-2987.772442
163554.097378,-2886.803174,-11473.192101,919.314598
163554.097698,-2072.576638,-9548.656652,1225.752797
163554.098017,148.041188,-6291.750507,-1915.238745
163554.098337,0.000000,-7179.997637,-1838.629195
163554.098657,-888.247130,-7402.059420,-612.876398
163554.098977,-370.102971,-10732.986159,-1378.971896
163554.099296,-666.185348,-14211.954086,-76.609550
163554.099616,-2368.659014,-11029.068536,-766.095498
163554.099936,-666.185348,-9030.512492,689.485948
163554.100255,1036.288319,-7402.059420,-1072.533697
163554.100575,1184.329507,-7772.162391,0.000000
163554.100895,3182.885551,-9622.677246,995.924147
163554.101215,2590.720797,-10658.965565,-76.609550
163554.101534,-148.041188,-12731.542202,-76.609550
163554.101854,-1258.350101,-11843.295072,-2528.115143
163554.102174,-296.082377,-10658.965565,2068.457845
163554.102494,0.000000,-6291.750507,-1838.629195
163554.102813,2294.638420,-6809.894666,-153.219100
163554.103133,2146.597232,-8364.327145,-383.047749
163554.103453,1702.473667,-8438.347739,1302.362347
163554.103773,1702.473667,-10955.047942,-76.609550
163554.104092,-1184.329507,-12435.459826,1991.848295
163554.104412,-2590.720797,-10584.944971,383.047749
163554.104732,-2368.659014,-7772.162391,-229.828649
163554.105052,-444.123565,-6069.688724,-689.485948
163554.105371,148.041188,-8660.409521,919.314598
163554.105691,1184.329507,-9548.656652,3064.381992
163554.106011,1110.308913,-10658.965565,-76.609550
163554.106331,-3404.947333,-10732.986159,-536.266849
163554.106650,-5329.482782,-10955.047942,-3677.258390
163554.106970,-2442.679609,-9474.636058,-1608.800546
163554.107290,-1776.494261,-6883.915261,-3064.381992
163554.107610,962.267725,-7179.997637,-383.047749
163554.107929,3552.988522,-9622.677246,1072.533697
163554.108249,4737.318029,-10288.862594,2451.505594
163554.108569,2294.638420,-11843.295072,995.924147
163554.108889,-4737.318029,-11029.068536,-1838.629195
163554.109208,-4145.153275,-10140.821405,-4290.134789
163554.109528,-3552.988522,-8512.368333,-1532.190996
163554.109848,222.061783,-5403.503377,-2145.067394
163554.110168,4071.132681,-8734.430116,-76.609550
163554.110487,3256.906145,-8808.450710,3064.381992
163554.110807,1110.308913,-8660.409521,-229.828649
163554.111127,-2294.638420,-10584.944971,76.609550
163554.111447,-3923.091493,-11251.130318,-689.485948
163554.111766,-3701.029710,-8142.265362,-766.095498
163554.112086,0.000000,-8216.285956,-2068.457845
163554.112406,1184.329507,-7476.080014,1225.752797
163554.112725,3478.967927,-10362.883188,4213.525239
163554.113045,74.020594,-6587.832884,0.000000
163554.113365,-1850.514855,-8882.471304,-383.047749
163554.113685,-5033.400406,-9474.636058,-2451.505594
163554.114004,-3034.844362,-9400.615463,-1532.190996
163554.114324,-518.144159,-9474.636058,-1302.362347
163554.114644,3182.885551,-11843.295072,4519.963438
163554.114964,1776.494261,-8956.491898,1838.629195
163554.115283,1702.473667,-9474.636058,1762.019645
163554.115603,-1258.350101,-8512.368333,-995.924147
163554.115923,-3552.988522,-9548.656652,-3677.258390
163554.116243,-1554.432478,-10510.924376,-2068.457845
163554.116562,370.102971,-9696.697840,2298.286494
163554.116882,1184.329507,-8660.409521,459.657299
163554.117202,370.102971,-7920.203579,229.828649
163554.117522,2886.803174,-9474.636058,536.266849
163554.117841,0.000000,-6587.832884,-1225.752797
163554.118161,1184.329507,-11399.171507,766.095498
163554.118481,-1258.350101,-11843.295072,-76.609550
163554.118801,-666.185348,-11843.295072,536.266849
163554.119120,-2960.823768,-7179.997637,0.000000
163554.119440,-74.020594,-8586.388927,-383.047749
163554.119760,0.000000,-9104.533087,153.219100
163554.120080,518.144159,-6809.894666,1225.752797
163554.120399,592.164754,-7920.203579,-766.095498
163554.120719,-962.267725,-10955.047942,-76.609550
163554.121039,-2294.638420,-10881.027347,-919.314598
163554.121359,-2812.782580,-8660.409521,0.000000
163554.121678,-1184.329507,-8660.409521,153.219100
163554.121998,-74.020594,-9474.636058,-76.609550
163554.122318,-2960.823768,-5995.668130,-2451.505594
163554.122638,-74.020594,-8142.265362,-1378.971896
163554.122957,-1258.350101,-10584.944971,-383.047749
163554.123277,-2368.659014,-10732.986159,-2068.457845
163554.123597,-74.020594,-11843.295072,-76.609550
163554.123917,-74.020594,-10658.965565,-1302.362347
163554.124236,814.226536,-9474.636058,-76.609550
163554.124556,0.000000,-7179.997637,0.000000
163554.124876,2072.576638,-8290.306550,1838.629195
163554.125195,1776.494261,-8660.409521,0.000000
163554.125515,-1628.453072,-9548.656652,-1762.019645
163554.125835,-888.247130,-12583.501014,0.000000
163554.126155,-1258.350101,-10436.903782,0.000000
163554.126475,-740.205942,-8660.409521,-842.705048
163554.126794,-74.020594,-9474.636058,-76.609550
163554.127114,2294.638420,-9918.759623,1225.752797
163554.127434,2368.659014,-8068.244768,1838.629195
163554.127754,1110.308913,-8882.471304,1455.581446
163554.128074,-2812.782580,-7624.121203,-2834.553343
163554.128393,-3552.988522,-8364.327145,0.000000
163554.128713,-1554.432478,-8142.265362,-2757.943793
163554.129033,-74.020594,-9252.574275,-536.266849
163554.129353,444.123565,-11547.212695,1302.362347
163554.129673,814.226536,-9622.677246,2451.505594
163554.129993,1998.556043,-9474.636058,-995.924147
163554.130312,-4145.153275,-7179.997637,-1838.629195
163554.130632,-1554.432478,-9178.553681,-1915.238745
163554.130952,222.061783,-11843.295072,-689.485948
163554.131272,1850.514855,-10214.842000,-1302.362347
163554.131592,0.000000,-13101.645173,2451.505594
163554.131911,-1480.411884,-9844.739029,1455.581446
163554.132231,-1036.288319,-7328.038826,-2451.505594
163554.132551,-814.226536,-8808.450710,-1762.019645
163554.132871,-1184.329507,-8364.327145,-3064.381992
163554.133191,444.123565,-8142.265362,919.314598
163554.133510,2368.659014,-8956.491898,1225.752797
163554.133830,296.082377,-9548.656652,1225.752797
163554.134150,-74.020594,-11843.295072,-76.609550
163554.134470,-74.020594,-10362.883188,-76.609550
163554.134790,0.000000,-9252.574275,-383.047749
163554.135109,-2960.823768,-10140.821405,-1455.581446
163554.135429,-2220.617826,-9548.656652,-383.047749
163554.135749,-1776.494261,-7179.997637,-2068.457845
163554.136069,1998.556043,-8142.265362,-766.095498
163554.136389,1776.494261,-9548.656652,689.485948
163554.136708,1332.370696,-8956.491898,612.876398
163554.137028,4367.215058,-9474.636058,1762.019645
163554.137348,-296.082377,-6883.915261,-1302.362347
163554.137668,-3552.988522,-7772.162391,-3677.258390
163554.137988,-888.247130,-9548.656652,0.000000
163554.138307,-74.020594,-9400.615463,-1762.019645
163554.138627,-1184.329507,-10140.821405,-612.876398
163554.138947,-1628.453072,-10658.965565,-919.314598
163554.139267,-2072.576638,-7476.080014,-3983.696590
163554.139587,-74.020594,-8882.471304,-1149.143247
163554.139907,-1258.350101,-8068.244768,-2834.553343
163554.140226,0.000000,-8364.327145,306.438199
163554.140546,2738.761985,-9104.533087,0.000000
163554.140866,4071.132681,-11843.295072,2374.896044
163554.141186,0.000000,-9918.759623,306.438199
163554.141506,444.123565,-10881.027347,3064.381992
163554.141825,666.185348,-8660.409521,2068.457845
163554.142145,-1258.350101,-9474.636058,612.876398
163554.142465,-2368.659014,-8364.327145,-1762.019645
163554.142785,-370.102971,-7105.977043,-1302.362347
163554.143105,-3552.988522,-7179.997637,-2911.162892
163554.143424,-2146.597232,-11547.212695,-2528.115143
163554.143744,-2368.659014,-12213.398043,612.876398
163554.144064,-1850.514855,-9548.656652,1225.752797
163554.144384,-2590.720797,-8216.285956,-612.876398
163554.144704,-2960.823768,-8290.306550,-1072.533697
163554.145023,592.164754,-6513.812290,1072.533697
163554.145343,1184.329507,-5995.668130,0.000000
163554.145663,1110.308913,-8290.306550,0.000000
163554.145983,-1480.411884,-9548.656652,-2451.505594
163554.146303,-2516.700203,-10807.006753,612.876398
163554.146622,-1184.329507,-11177.109724,-383.047749
163554.146942,-74.020594,-11843.295072,-76.609550
163554.147262,0.000000,-8364.327145,1532.190996
163554.147582,814.226536,-6069.688724,-383.047749
163554.147902,2072.576638,-7698.141797,-612.876398
163554.148221,1554.432478,-10140.821405,-995.924147
163554.148541,592.164754,-11029.068536,612.876398
163554.148861,1776.494261,-10658.965565,2298.286494
163554.149181,592.164754,-8956.491898,3677.258390
163554.149501,-296.082377,-8956.491898,2374.896044
163554.149820,2294.638420,-7105.977043,-76.609550
163554.150140,2368.659014,-5995.668130,0.000000
163554.150460,1406.391290,-7920.203579,153.219100
163554.150780,-370.102971,-13027.624579,1455.581446
163554.151100,-3701.029710,-11917.315666,612.876398
163554.151420,-4293.194464,-11325.150913,-3217.601092
163554.151739,-4811.338623,-9474.636058,-3753.867940
163554.152059,-2220.617826,-8438.347739,-1149.143247
163554.152379,1406.391290,-6587.832884,229.828649
163554.152699,3478.967927,-7624.121203,1455.581446
163554.153019,1702.473667,-10955.047942,2068.457845
163554.153338,-888.247130,-11917.315666,2374.896044
163554.153658,-4737.318029,-8660.409521,-3524.039291
163554.153978,-3552.988522,-10288.862594,-1532.190996
163554.154298,-1258.350101,-13027.624579,-1302.362347
163554.154618,-2220.617826,-7179.997637,-2451.505594
163554.154937,2294.638420,-8290.306550,-1915.238745
163554.155257,1036.288319,-9400.615463,383.047749
163554.155577,222.061783,-10807.006753,-153.219100
163554.155897,-1554.432478,-9400.615463,76.609550
163554.156217,-1924.535449,-9326.594869,-995.924147
163554.156536,-814.226536,-9474.636058,-229.828649
163554.156856,148.041188,-7254.018232,1072.533697
163554.157176,0.000000,-4811.338623,0.000000
163554.157496,1184.329507,-8364.327145,1378.971896
163554.157816,-2146.597232,-7179.997637,-3217.601092
163554.158135,-666.185348,-11695.253884,1072.533697
163554.158455,-2220.617826,-9696.697840,-2145.067394
163554.158775,-2368.659014,-10214.842000,0.000000
163554.159095,-1924.535449,-10436.903782,-766.095498
163554.159415,1110.308913,-9474.636058,2987.772442
163554.159734,1776.494261,-6513.812290,-306.438199
163554.160054,-1258.350101,-5995.668130,-1378.971896
163554.160374,0.000000,-9844.739029,0.000000
163554.160694,-666.185348,-10362.883188,-612.876398
163554.161014,-3034.844362,-9844.739029,-4213.525239
163554.161334,-1184.329507,-13027.624579,-766.095498
163554.161653,-518.144159,-10807.006753,306.438199
163554.161973,370.102971,-9548.656652,-306.438199
163554.162293,2294.638420,-9474.636058,-76.609550
163554.162613,2738.761985,-10658.965565,-2145.067394
163554.162933,3478.967927,-10658.965565,2374.896044
163554.163252,1110.308913,-8882.471304,-1302.362347
163554.163572,-666.185348,-9474.636058,-383.047749
163554.163892,-3552.988522,-7179.997637,0.000000
163554.164212,-666.185348,-7550.100608,-689.485948
163554.164532,1702.473667,-8290.306550,-689.485948
163554.164851,1406.391290,-9622.677246,689.485948
163554.165171,1184.329507,-11843.295072,2757.943793
163554.165491,814.226536,-11029.068536,2604.724693
163554.165811,-3330.926739,-8660.409521,153.219100
163554.166131,-4737.318029,-6883.915261,-1838.629195
163554.166450,-74.020594,-7920.203579,-76.609550
163554.166770,2294.638420,-7698.141797,-995.924147
163554.167090,0.000000,-7179.997637,0.000000
163554.167410,222.061783,-11843.295072,2298.286494
163554.167730,-2664.741391,-9918.759623,2757.943793
163554.168049,-4737.318029,-9400.615463,-2298.286494
163554.168369,-5255.462188,-9178.553681,-3140.991542
163554.168689,-2146.597232,-7328.038826,-2528.115143
163554.169009,-888.247130,-8068.244768,-459.657299
163554.169329,148.041188,-7328.038826,0.000000
163554.169648,592.164754,-9548.656652,0.000000
163554.169968,-444.123565,-12509.480420,3064.381992
163554.170288,-4737.318029,-7772.162391,-3370.820191
163554.170608,-3034.844362,-10288.862594,-1762.019645
163554.170928,-1480.411884,-9400.615463,-1915.238745
163554.171247,1110.308913,-6513.812290,0.000000
163554.171567,5847.626942,-8290.306550,-76.609550
163554.171887,6439.791695,-9474.636058,2374.896044
163554.172207,5255.462188,-13915.871710,2987.772442
163554.172527,-370.102971,-10807.006753,536.266849
163554.172847,-2664.741391,-8364.327145,-4213.525239
163554.173166,-3552.988522,-11325.150913,-919.314598
163554.173486,-1480.411884,-7179.997637,-1532.190996
163554.173806,1702.473667,-6809.894666,842.705048
163554.174126,3182.885551,-7105.977043,2068.457845
163554.174446,2516.700203,-7772.162391,536.266849
163554.174765,1406.391290,-10658.965565,2145.067394
163554.175085,-4145.153275,-8364.327145,-2451.505594
163554.175405,-3330.926739,-11843.295072,-229.828649
163554.175725,-2442.679609,-11843.295072,-76.609550
163554.176045,-74.020594,-8290.306550,1149.143247
163554.176364,592.164754,-7179.997637,1225.752797
163554.176684,1406.391290,-7846.182985,-76.609550
163554.177004,-296.082377,-9548.656652,-612.876398
163554.177324,-1332.370696,-11177.109724,153.219100
163554.177644,-2738.761985,-10066.800811,-2834.553343
163554.177963,-2442.679609,-11251.130318,-1302.362347
163554.178283,-2368.659014,-8956.491898,0.000000
163554.178603,0.000000,-4811.338623,0.000000
163554.178923,3182.885551,-8290.306550,1762.019645
163554.179243,1776.494261,-8364.327145,1838.629195
163554.179562,296.082377,-9548.656652,1302.362347
163554.179882,-222.061783,-11103.089130,0.000000
163554.180202,-2960.823768,-12139.377449,1762.019645
163554.180522,-4367.215058,-11621.233289,-1302.362347
163554.180842,-74.020594,-9474.636058,-1302.362347
163554.181161,148.041188,-7698.141797,-76.609550
163554.181481,-74.020594,-8290.306550,-76.609550
163554.181801,0.000000,-7920.203579,0.000000
163554.182121,148.041188,-10214.842000,1225.752797
163554.182441,-1776.494261,-10732.986159,0.000000
163554.182761,-2590.720797,-11547.212695,-76.609550
163554.183080,-2590.720797,-8142.265362,1838.629195
163554.183400,-814.226536,-5403.503377,-1225.752797
163554.183720,518.144159,-4811.338623,-1608.800546
163554.184040,2368.659014,-9696.697840,-1762.019645
163554.184360,0.000000,-9548.656652,1378.971896
163554.184679,740.205942,-11769.274478,0.000000
163554.184999,-1258.350101,-14211.954086,-76.609550
163554.185319,-5107.421000,-8660.409521,-4903.011187
163554.185639,-666.185348,-7698.141797,-2528.115143
163554.185959,2960.823768,-7846.182985,-1302.362347
163554.186278,4441.235652,-7698.141797,1455.581446
163554.186598,4441.235652,-9474.636058,2374.896044
163554.186918,3034.844362,-11251.130318,2374.896044
163554.187238,-1258.350101,-10362.883188,-1302.362347
163554.187558,-3034.844362,-11843.295072,-1302.362347
163554.187877,-1258.350101,-10658.965565,-689.485948
163554.188197,0.000000,-6291.750507,0.000000
163554.188517,4663.297435,-8290.306550,2374.896044
163554.188837,2368.659014,-8660.409521,536.266849
163554.189157,814.226536,-8438.347739,1532.190996
163554.189476,-888.247130,-9400.615463,-1915.238745
163554.189796,-3701.029710,-11547.212695,-153.219100
163554.190116,-7105.977043,-9548.656652,-2451.505594
163554.190436,-2442.679609,-7994.224174,-459.657299
163554.190756,74.020594,-7031.956449,-76.609550
163554.191075,1036.288319,-7698.141797,-153.219100
163554.191395,2294.638420,-10658.965565,1455.581446
163554.191715,222.061783,-7994.224174,-1685.410096
163554.192035,-1258.350101,-11843.295072,-76.609550
163554.192355,-4219.173869,-12361.439231,-689.485948
163554.192675,-4663.297435,-7179.997637,-2451.505594
163554.192994,0.000000,-8068.244768,0.000000
163554.193314,0.000000,-5699.585753,0.000000
163554.193634,1776.494261,-9474.636058,-1072.533697
163554.193954,370.102971,-9992.780217,1225.752797
163554.194274,-814.226536,-9400.615463,-1991.848295
163554.194593,-2738.761985,-11695.253884,-1302.362347
163554.194913,-1850.514855,-10732.986159,-689.485948
163554.195233,1184.329507,-8364.327145,0.000000
163554.195553,5033.400406,-9104.533087,3370.820191
163554.195873,4367.215058,-8586.388927,536.266849
163554.196192,1184.329507,-10140.821405,2757.943793
163554.196512,-74.020594,-8290.306550,-2528.115143
163554.196832,-3923.091493,-10214.842000,-1762.019645
163554.197152,-4811.338623,-11177.109724,-3140.991542
163554.197472,-1924.535449,-9548.656652,-3447.429741
163554.197791,2294.638420,-8734.430116,-2528.115143
163554.198111,1480.411884,-7772.162391,0.000000
163554.198431,1184.329507,-10732.986159,2145.067394
163554.198751,-74.020594,-10066.800811,-76.609550
163554.199071,-74.020594,-12435.459826,-76.609550
163554.199390,-4145.153275,-10732.986159,0.000000
163554.199710,-1998.556043,-10288.862594,1608.800546
163554.200030,-740.205942,-7920.203579,153.219100
163554.200350,1406.391290,-6291.750507,383.047749
163554.200670,1702.473667,-5921.647536,-2528.115143
163554.200989,1110.308913,-7476.080014,919.314598
163554.201309,1702.473667,-10955.047942,-1915.238745
163554.201629,-74.020594,-12657.521608,1149.143247
163554.201949,-666.185348,-13619.789333,229.828649
163554.202269,-296.082377,-10658.965565,6818.249932
163554.202588,0.000000,-3627.009116,306.438199
163554.202908,2072.576638,-3923.091493,536.266849
163554.203228,4515.256246,-6069.688724,842.705048
163554.203548,4515.256246,-8882.471304,2068.457845
163554.203868,2738.761985,-12287.418637,2451.505594
