#time,accel_x,accel_y,accel_z
163227.176585,-740.205942,-9548.656652,0.000000
163227.176904,-962.267725,-9178.553681,0.000000
163227.177222,-74.020594,-9474.636058,-76.609550
163227.177540,-74.020594,-9178.553681,-689.485948
163227.177858,-1554.432478,-9326.594869,-612.876398
163227.178177,-2368.659014,-7772.162391,0.000000
163227.178495,-74.020594,-10658.965565,-76.609550
163227.178813,-74.020594,-11843.295072,-76.609550
163227.179131,-1776.494261,-9548.656652,0.000000
163227.179450,-74.020594,-8438.347739,-1915.238745
163227.179768,-222.061783,-9474.636058,-229.828649
163227.180086,74.020594,-9696.697840,-689.485948
163227.180405,-2368.659014,-7179.997637,-3370.820191
163227.180723,-592.164754,-9400.615463,-306.438199
163227.181041,-3552.988522,-7179.997637,0.000000
163227.181359,1702.473667,-10658.965565,842.705048
163227.181678,148.041188,-8660.409521,-459.657299
163227.181996,888.247130,-11251.130318,2374.896044
163227.182314,0.000000,-8808.450710,229.828649
163227.182633,-1184.329507,-8068.244768,0.000000
163227.182951,370.102971,-9622.677246,689.485948
163227.183269,-296.082377,-9104.533087,766.095498
163227.183587,-1850.514855,-8216.285956,-1149.143247
163227.183906,-74.020594,-9474.636058,-76.609550
163227.184224,-1776.494261,-7772.162391,-919.314598
163227.184542,-592.164754,-9548.656652,0.000000
163227.184860,962.267725,-11843.295072,-76.609550
163227.185179,0.000000,-9548.656652,1225.752797
163227.185497,-814.226536,-9548.656652,-229.828649
163227.185815,-518.144159,-9474.636058,-229.828649
163227.186134,-1258.350101,-9770.718434,-1302.362347
163227.186452,-2960.823768,-7772.162391,0.000000
163227.186770,-592.164754,-9548.656652,-612.876398
163227.187088,0.000000,-10140.821405,229.828649
163227.187407,-74.020594,-11843.295072,-76.609550
163227.187725,-74.020594,-8734.430116,-1302.362347
163227.188043,0.000000,-10732.986159,1455.581446
163227.188361,0.000000,-8660.409521,0.000000
163227.188680,74.020594,-9474.636058,-689.485948
163227.188998,0.000000,-9030.512492,76.609550
163227.189316,222.061783,-9474.636058,0.000000
163227.189635,-1406.391290,-7476.080014,-2451.505594
163227.189953,518.144159,-9474.636058,612.876398
163227.190271,222.061783,-8586.388927,612.876398
163227.190589,0.000000,-8586.388927,0.000000
163227.190908,0.000000,-8290.306550,-76.609550
163227.191226,-74.020594,-9474.636058,-459.657299
163227.191544,1702.473667,-10658.965565,2068.457845
163227.191863,-666.185348,-8586.388927,-842.705048
163227.192181,0.000000,-8364.327145,0.000000
163227.192499,-74.020594,-10658.965565,2374.896044
163227.192817,-2072.576638,-8068.244768,0.000000
163227.193136,-666.185348,-9474.636058,-229.828649
163227.193454,-592.164754,-9326.594869,-306.438199
163227.193772,-592.164754,-9326.594869,-766.095498
163227.194090,-1406.391290,-8586.388927,-919.314598
163227.194409,-1110.308913,-8956.491898,-766.095498
163227.194727,-74.020594,-9474.636058,-689.485948
163227.195045,-1184.329507,-8956.491898,0.000000
163227.195364,2294.638420,-11251.130318,-76.609550
163227.195682,1998.556043,-10658.965565,-76.609550
163227.196000,0.000000,-10510.924376,766.095498
163227.196318,-444.123565,-9104.533087,-689.485948
163227.196637,-148.041188,-9400.615463,-306.438199
163227.196955,222.061783,-9178.553681,0.000000
163227.197273,296.082377,-9844.739029,1149.143247
163227.197591,148.041188,-9178.553681,229.828649
163227.197910,1110.308913,-8290.306550,-76.609550
163227.198228,0.000000,-6587.832884,0.000000
163227.198546,1332.370696,-8956.491898,612.876398
163227.198865,1702.473667,-7476.080014,-2298.286494
163227.199183,1776.494261,-9178.553681,536.266849
163227.199501,1628.453072,-8734.430116,-153.219100
163227.199819,1480.411884,-9400.615463,-842.705048
163227.200138,1776.494261,-10362.883188,-76.609550
163227.200456,3478.967927,-11843.295072,-76.609550
163227.200774,4367.215058,-11843.295072,1762.019645
163227.201092,3775.050304,-9474.636058,-689.485948
163227.201411,3701.029710,-8956.491898,306.438199
163227.201729,5847.626942,-9992.780217,2451.505594
163227.202047,2664.741391,-7179.997637,0.000000
163227.202366,5625.565159,-9252.574275,0.000000
163227.202684,5181.441594,-9844.739029,-536.266849
163227.203002,4589.276840,-10288.862594,-1149.143247
163227.203320,4071.132681,-8290.306550,-1608.800546
163227.203639,4959.379811,-9548.656652,-2298.286494
163227.203957,7031.956449,-10658.965565,-689.485948
163227.204275,6143.709319,-8956.491898,-995.924147
163227.204594,6439.791695,-7402.059420,-1532.190996
163227.204912,9400.615463,-12435.459826,2374.896044
163227.205230,6069.688724,-9844.739029,0.000000
163227.205548,3627.009116,-11399.171507,-689.485948
163227.205867,888.247130,-11917.315666,-995.924147
163227.206185,-962.267725,-12361.439231,-459.657299
163227.206503,-74.020594,-10436.903782,1225.752797
163227.206821,962.267725,-9844.739029,2298.286494
163227.207140,1110.308913,-6513.812290,2451.505594
163227.207458,1702.473667,-3997.112087,536.266849
163227.207776,0.000000,-4219.173869,612.876398
163227.208095,-74.020594,-5625.565159,-1302.362347
163227.208413,-2664.741391,-6365.771101,-2451.505594
163227.208731,-3182.885551,-9474.636058,-3677.258390
163227.209049,-3923.091493,-11695.253884,-3600.648841
163227.209368,-3923.091493,-15248.242405,-2528.115143
163227.209686,-4811.338623,-15396.283594,-689.485948
163227.210004,-5995.668130,-14434.015869,-1532.190996
163227.210322,-4811.338623,-13989.892304,1072.533697
163227.210641,-3330.926739,-10955.047942,2374.896044
163227.210959,-2368.659014,-5995.668130,3064.381992
163227.211277,1036.288319,-3849.070898,4213.525239
163227.211596,2812.782580,-3923.091493,5209.449386
163227.211914,148.041188,-2368.659014,2757.943793
163227.212232,-4219.173869,-4663.297435,-995.924147
163227.212550,-5995.668130,-8290.306550,-3753.867940
163227.212869,-8956.491898,-11251.130318,-7354.516781
163227.213187,-7476.080014,-15396.283594,-4979.620737
163227.213505,-5995.668130,-14211.954086,-4519.963438
163227.213824,-5181.441594,-13027.624579,-2528.115143
163227.214142,-2368.659014,-13101.645173,2451.505594
163227.214460,-3849.070898,-10140.821405,1532.190996
163227.214778,-1628.453072,-9622.677246,4519.963438
163227.215097,1184.329507,-6809.894666,5975.544884
163227.215415,3256.906145,-5107.421000,6205.373534
163227.215733,5551.544565,-4737.318029,5898.935335
163227.216051,2960.823768,-4811.338623,3677.258390
163227.216370,-74.020594,-7105.977043,-76.609550
163227.216688,-5033.400406,-9474.636058,-4979.620737
163227.217006,-10140.821405,-11621.233289,-10112.460574
163227.217325,-8068.244768,-16580.613101,-8656.879127
163227.217643,-6809.894666,-14434.015869,-7660.954980
163227.217961,-888.247130,-13693.809927,-2528.115143
163227.218279,3552.988522,-10288.862594,1455.581446
163227.218598,6513.812290,-8808.450710,6128.763984
163227.218916,7920.203579,-6587.832884,7354.516781
163227.219234,7994.224174,-6217.729913,6818.249932
163227.219552,8438.347739,-7476.080014,8733.488677
163227.219871,6143.709319,-5181.441594,2757.943793
163227.220189,4737.318029,-7179.997637,0.000000
163227.220507,5847.626942,-11251.130318,-689.485948
163227.220826,296.082377,-11029.068536,-3830.477490
163227.221144,-4293.194464,-12287.418637,-7584.345430
163227.221462,-6069.688724,-12805.562797,-8427.050478
163227.221780,-2146.597232,-15100.201217,-4979.620737
163227.222099,2220.617826,-11473.192101,-1225.752797
163227.222417,6513.812290,-7179.997637,3677.258390
163227.222735,10288.862594,-6513.812290,6052.154434
163227.223054,8882.471304,-3923.091493,5132.839837
163227.223372,4737.318029,-3627.009116,4903.011187
163227.223690,2590.720797,-7550.100608,2987.772442
163227.224008,-1258.350101,-10881.027347,1149.143247
163227.224327,-2442.679609,-12213.398043,0.000000
163227.224645,-2146.597232,-12139.377449,-1685.410096
163227.224963,-666.185348,-11843.295072,-1302.362347
163227.225281,-3552.988522,-9844.739029,-2451.505594
163227.225600,-3034.844362,-10658.965565,-3753.867940
163227.225918,-4811.338623,-9178.553681,-4979.620737
163227.226236,-2738.761985,-7698.141797,-3140.991542
163227.226555,-4737.318029,-5995.668130,-3677.258390
163227.226873,1110.308913,-7846.182985,995.924147
163227.227191,1998.556043,-7254.018232,2451.505594
163227.227509,1554.432478,-7846.182985,2451.505594
163227.227828,-74.020594,-8882.471304,995.924147
163227.228146,-3552.988522,-11177.109724,0.000000
163227.228464,-4737.318029,-11917.315666,0.000000
163227.228782,-3182.885551,-13397.727550,0.000000
163227.229101,-74.020594,-12731.542202,2374.896044
163227.229419,-1776.494261,-7179.997637,612.876398
163227.229737,-370.102971,-6143.709319,-229.828649
163227.230056,-1406.391290,-5847.626942,229.828649
163227.230374,-3478.967927,-6291.750507,-1378.971896
163227.230692,-4515.256246,-7105.977043,-2145.067394
163227.231010,-2442.679609,-8882.471304,-1302.362347
163227.231329,-2960.823768,-8882.471304,-919.314598
163227.231647,-1036.288319,-9992.780217,-383.047749
163227.231965,-148.041188,-10288.862594,0.000000
163227.232283,-1702.473667,-11547.212695,-76.609550
163227.232602,-3256.906145,-13101.645173,1225.752797
163227.232920,-4737.318029,-11917.315666,0.000000
163227.233238,-74.020594,-11843.295072,2374.896044
163227.233557,518.144159,-8142.265362,2068.457845
163227.233875,1924.535449,-6291.750507,2451.505594
163227.234193,1702.473667,-4293.194464,306.438199
163227.234511,1924.535449,-6365.771101,0.000000
163227.234830,-1480.411884,-7772.162391,-3140.991542
163227.235148,-4737.318029,-9696.697840,-4903.011187
163227.235466,-4811.338623,-12435.459826,-5286.058936
163227.235785,-2442.679609,-12879.583391,-4979.620737
163227.236103,592.164754,-11621.233289,-1685.410096
163227.236421,4737.318029,-11473.192101,1225.752797
163227.236739,6735.874072,-10955.047942,4443.353888
163227.237058,4737.318029,-8956.491898,4290.134789
163227.237376,2516.700203,-7920.203579,2757.943793
163227.237694,4071.132681,-9104.533087,4443.353888
163227.238012,3923.091493,-7550.100608,4060.306139
163227.238331,4071.132681,-7105.977043,3064.381992
163227.238649,3256.906145,-6587.832884,0.000000
163227.238967,1554.432478,-7550.100608,-1149.143247
163227.239286,-2146.597232,-9104.533087,-3677.258390
163227.239604,-3627.009116,-11547.212695,-6205.373534
163227.239922,-7994.224174,-10214.842000,-8350.440928
163227.240240,-2442.679609,-14211.954086,-3753.867940
163227.240559,0.000000,-9548.656652,-1991.848295
163227.240877,4441.235652,-8956.491898,1455.581446
163227.241195,5995.668130,-7846.182985,2681.334243
163227.241513,4811.338623,-8438.347739,4443.353888
163227.241832,1776.494261,-8364.327145,3677.258390
163227.242150,0.000000,-10732.986159,0.000000
163227.242468,-1776.494261,-11621.233289,1838.629195
163227.242787,-666.185348,-11547.212695,-76.609550
163227.243105,-1184.329507,-9548.656652,-1838.629195
163227.243421,-74.020594,-9474.636058,-1302.362347
163227.243740,-2368.659014,-7624.121203,-2911.162892
163227.244058,-4219.173869,-8290.306550,-3907.087040
163227.244376,-4367.215058,-8882.471304,-4290.134789
163227.244694,-2146.597232,-10658.965565,-1302.362347
163227.245013,0.000000,-7476.080014,-1532.190996
163227.245331,592.164754,-8364.327145,1225.752797
163227.245649,3182.885551,-9474.636058,4213.525239
163227.245967,518.144159,-9474.636058,3600.648841
163227.246285,-3552.988522,-9548.656652,2451.505594
163227.246604,-3775.050304,-9696.697840,1608.800546
163227.246922,-4737.318029,-9548.656652,612.876398
163227.247240,-2220.617826,-9178.553681,1072.533697
163227.247558,0.000000,-7328.038826,995.924147
163227.247876,1702.473667,-7698.141797,-76.609550
163227.248195,-74.020594,-7179.997637,-459.657299
163227.248513,-2738.761985,-8882.471304,-2528.115143
163227.248831,-5551.544565,-8734.430116,-4366.744339
163227.249149,-5995.668130,-7772.162391,-5362.668486
163227.249467,-1184.329507,-12361.439231,-76.609550
163227.249786,0.000000,-9548.656652,0.000000
163227.250104,1850.514855,-9918.759623,995.924147
163227.250422,1480.411884,-9992.780217,1072.533697
163227.250740,0.000000,-11029.068536,1149.143247
163227.251059,-74.020594,-11177.109724,1302.362347
163227.251377,518.144159,-11695.253884,2298.286494
163227.251695,1998.556043,-9770.718434,3600.648841
163227.252013,2886.803174,-6513.812290,1149.143247
163227.252331,2960.823768,-5551.544565,1225.752797
163227.252650,4663.297435,-7698.141797,-76.609550
163227.252968,-1850.514855,-7920.203579,-2451.505594
163227.253286,-4219.173869,-9622.677246,-4749.792088
163227.253604,-4885.359217,-11251.130318,-5286.058936
163227.253922,-1258.350101,-12435.459826,-1532.190996
163227.254241,888.247130,-12435.459826,-76.609550
163227.254559,2738.761985,-10214.842000,2068.457845
163227.254877,3478.967927,-9178.553681,1149.143247
163227.255195,1924.535449,-8142.265362,1838.629195
163227.255513,0.000000,-8364.327145,1225.752797
163227.255832,1998.556043,-8882.471304,1762.019645
163227.256150,1702.473667,-8142.265362,1915.238745
163227.256468,2368.659014,-8068.244768,1455.581446
163227.256786,2590.720797,-7846.182985,612.876398
163227.257104,3478.967927,-9474.636058,-76.609550
163227.257423,-666.185348,-9918.759623,-3677.258390
163227.257741,-3330.926739,-11547.212695,-4979.620737
163227.258059,-5699.585753,-10955.047942,-6818.249932
163227.258377,-3182.885551,-10955.047942,-4979.620737
163227.258696,592.164754,-10140.821405,306.438199
163227.259014,4219.173869,-7476.080014,1532.190996
163227.259332,6143.709319,-8068.244768,3294.210641
163227.259650,4589.276840,-8586.388927,3677.258390
163227.259968,1998.556043,-9696.697840,2834.553343
163227.260287,-74.020594,-11251.130318,2681.334243
163227.260605,-296.082377,-11843.295072,2374.896044
163227.260923,-74.020594,-11251.130318,1762.019645
163227.261241,-1776.494261,-7328.038826,-1302.362347
163227.261559,-2368.659014,-6735.874072,-1225.752797
163227.261878,-444.123565,-9474.636058,-76.609550
163227.262196,-4663.297435,-7624.121203,-3907.087040
163227.262514,-5329.482782,-8290.306550,-4290.134789
163227.262832,-4737.318029,-8586.388927,-3600.648841
163227.263150,-2368.659014,-9548.656652,-612.876398
163227.263469,740.205942,-9548.656652,612.876398
163227.263787,1850.514855,-10066.800811,2374.896044
163227.264105,-74.020594,-9474.636058,1762.019645
163227.264423,-2960.823768,-8956.491898,383.047749
163227.264742,-4737.318029,-9548.656652,0.000000
163227.265060,-370.102971,-12731.542202,2374.896044
163227.265378,-888.247130,-9548.656652,1685.410096
163227.265696,1110.308913,-8142.265362,1455.581446
163227.266014,1776.494261,-7179.997637,536.266849
163227.266333,1998.556043,-8290.306550,1455.581446
163227.266651,-1480.411884,-7698.141797,-1532.190996
163227.266969,-2220.617826,-10881.027347,-1455.581446
163227.267287,-3627.009116,-10066.800811,-4979.620737
163227.267605,-4145.153275,-9548.656652,-3064.381992
163227.267924,0.000000,-9548.656652,0.000000
163227.268242,2590.720797,-9178.553681,536.266849
163227.268560,2886.803174,-9844.739029,1915.238745
163227.268878,1850.514855,-10362.883188,2221.676944
163227.269196,148.041188,-10955.047942,2451.505594
163227.269515,2294.638420,-11843.295072,3600.648841
163227.269833,2220.617826,-11177.109724,5362.668486
163227.270151,1702.473667,-6809.894666,1685.410096
163227.270469,1776.494261,-6587.832884,2451.505594
163227.270788,0.000000,-5995.668130,612.876398
163227.271106,-4145.153275,-5107.421000,-4290.134789
163227.271424,-4737.318029,-9030.512492,-5745.716235
163227.271742,-6513.812290,-10732.986159,-6818.249932
163227.272060,-5107.421000,-11547.212695,-5898.935335
163227.272379,-1406.391290,-10214.842000,-3753.867940
163227.272697,444.123565,-10140.821405,-1225.752797
163227.273015,2368.659014,-9548.656652,1838.629195
163227.273333,3775.050304,-9992.780217,3064.381992
163227.273651,4663.297435,-11547.212695,4826.401637
163227.273970,0.000000,-7179.997637,2451.505594
163227.274288,2442.679609,-8438.347739,2298.286494
163227.274606,3775.050304,-8068.244768,2604.724693
163227.274924,3627.009116,-7698.141797,1838.629195
163227.275242,1554.432478,-8216.285956,-536.266849
163227.275561,-74.020594,-9474.636058,-3753.867940
163227.275879,-5625.565159,-9548.656652,-5669.106685
163227.276197,-6809.894666,-10732.986159,-6971.469032
163227.276515,-4589.276840,-11029.068536,-5286.058936
163227.276834,-148.041188,-10214.842000,-1302.362347
163227.277152,4441.235652,-9474.636058,4290.134789
163227.277470,3552.988522,-5995.668130,3677.258390
163227.277788,5847.626942,-9474.636058,4826.401637
163227.278106,740.205942,-8068.244768,2451.505594
163227.278425,-1480.411884,-9918.759623,2451.505594
163227.278743,-3627.009116,-9918.759623,0.000000
163227.279061,-2590.720797,-11029.068536,842.705048
163227.279379,-1776.494261,-9622.677246,-383.047749
163227.279697,-1628.453072,-8290.306550,-1532.190996
163227.280016,-2442.679609,-8882.471304,-3753.867940
163227.280334,-4663.297435,-7994.224174,-5362.668486
163227.280652,-5329.482782,-9548.656652,-4596.572988
163227.280970,-3627.009116,-10066.800811,-3524.039291
163227.281288,-74.020594,-11547.212695,-76.609550
163227.281607,2516.700203,-9548.656652,3677.258390
163227.281925,1776.494261,-7179.997637,2451.505594
163227.282243,2220.617826,-9252.574275,2911.162892
163227.282561,222.061783,-10362.883188,2298.286494
163227.282880,-962.267725,-11103.089130,2298.286494
163227.283198,-1332.370696,-10584.944971,612.876398
163227.283516,-740.205942,-9252.574275,1685.410096
163227.283834,2590.720797,-9696.697840,1532.190996
163227.284152,4071.132681,-8882.471304,2681.334243
163227.284471,1702.473667,-7105.977043,-76.609550
163227.284789,-74.020594,-8882.471304,-76.609550
163227.285107,-5033.400406,-7772.162391,-4136.915689
163227.285425,-4811.338623,-10066.800811,-4213.525239
163227.285743,-2368.659014,-9696.697840,-2451.505594
163227.286062,296.082377,-9474.636058,1685.410096
163227.286380,2368.659014,-9548.656652,2604.724693
163227.286698,2664.741391,-9918.759623,1991.848295
163227.287016,2886.803174,-11843.295072,1149.143247
163227.287334,-1702.473667,-10362.883188,383.047749
163227.287653,-1628.453072,-10436.903782,0.000000
163227.287971,-74.020594,-10066.800811,842.705048
163227.288289,1332.370696,-8956.491898,1532.190996
163227.288607,2960.823768,-7328.038826,1149.143247
163227.288926,2368.659014,-7031.956449,-76.609550
163227.289244,-74.020594,-9474.636058,-76.609550
163227.289562,-2590.720797,-10066.800811,-6128.763984
163227.289880,-4589.276840,-11621.233289,-4596.572988
163227.290198,-2442.679609,-11547.212695,-4979.620737
163227.290517,-1184.329507,-10362.883188,-1608.800546
163227.290835,1184.329507,-10140.821405,2451.505594
163227.291153,2886.803174,-8586.388927,1532.190996
163227.291471,3478.967927,-8808.450710,2834.553343
163227.291789,1850.514855,-9252.574275,3370.820191
163227.292108,1554.432478,-9400.615463,3830.477490
163227.292426,2886.803174,-10510.924376,3907.087040
163227.292744,1184.329507,-7179.997637,2451.505594
163227.293062,3182.885551,-8216.285956,2068.457845
163227.293380,1110.308913,-7698.141797,-76.609550
163227.293699,-2738.761985,-7698.141797,-4213.525239
163227.294017,-4737.318029,-10881.027347,-3753.867940
163227.294335,-7772.162391,-10510.924376,-7277.907231
163227.294653,-5551.544565,-10955.047942,-5362.668486
163227.294971,-1850.514855,-10214.842000,-2374.896044
163227.295290,2146.597232,-9030.512492,1225.752797
163227.295608,3552.988522,-8068.244768,2451.505594
163227.295926,3552.988522,-8882.471304,3064.381992
163227.296244,3478.967927,-11843.295072,3600.648841
163227.296563,-74.020594,-10066.800811,1149.143247
163227.296881,-2368.659014,-9548.656652,0.000000
163227.297199,-74.020594,-11843.295072,1762.019645
163227.297517,-740.205942,-9548.656652,459.657299
163227.297835,74.020594,-8216.285956,306.438199
163227.298154,-814.226536,-7698.141797,-1532.190996
163227.298472,-2146.597232,-8956.491898,-1838.629195
163227.298790,-4441.235652,-9252.574275,-3677.258390
163227.299108,-4737.318029,-8364.327145,-4290.134789
163227.299426,-888.247130,-10288.862594,-689.485948
163227.299745,1406.391290,-9104.533087,536.266849
163227.300063,0.000000,-7179.997637,0.000000
163227.300381,2294.638420,-8882.471304,2374.896044
163227.300699,74.020594,-9696.697840,3064.381992
163227.301017,-888.247130,-10584.944971,2145.067394
163227.301336,-1406.391290,-10140.821405,2221.676944
163227.301654,-74.020594,-11547.212695,2987.772442
163227.301972,0.000000,-7772.162391,2451.505594
163227.302290,3182.885551,-8290.306550,1149.143247
163227.302609,518.144159,-6809.894666,-1302.362347
163227.302927,-4219.173869,-5847.626942,-4213.525239
163227.303245,-5625.565159,-8364.327145,-3370.820191
163227.303563,-5847.626942,-9474.636058,-5822.325785
163227.303881,-3478.967927,-10510.924376,-3983.696590
163227.304200,0.000000,-10362.883188,-1378.971896
163227.304518,2368.659014,-9548.656652,0.000000
163227.304836,4071.132681,-10214.842000,306.438199
163227.305154,2368.659014,-10436.903782,2451.505594
163227.305472,1554.432478,-10955.047942,2145.067394
163227.305791,2886.803174,-11843.295072,2987.772442
163227.306109,814.226536,-8586.388927,1762.019645
163227.306427,4663.297435,-11103.089130,4673.182538
163227.306745,3182.885551,-7254.018232,1838.629195
163227.307063,2368.659014,-6883.915261,383.047749
163227.307382,-444.123565,-7846.182985,-2374.896044
163227.307700,-4737.318029,-8364.327145,-3677.258390
163227.308018,-6809.894666,-10140.821405,-6128.763984
163227.308336,-4515.256246,-11251.130318,-4290.134789
163227.308655,-74.020594,-11843.295072,-2528.115143
163227.308973,296.082377,-8956.491898,0.000000
163227.309291,1332.370696,-7179.997637,0.000000
163227.309609,4071.132681,-8882.471304,3907.087040
163227.309927,1406.391290,-8808.450710,2987.772442
163227.310246,1110.308913,-9400.615463,3064.381992
163227.310564,518.144159,-9178.553681,2145.067394
163227.310882,2294.638420,-10658.965565,3600.648841
163227.311200,1480.411884,-8808.450710,0.000000
163227.311518,2294.638420,-10658.965565,-76.609550
163227.311837,-2442.679609,-8290.306550,-4443.353888
163227.312155,-6513.812290,-7772.162391,-7431.126331
163227.312473,-6587.832884,-10362.883188,-8963.317327
163227.312791,-4663.297435,-10955.047942,-4749.792088
163227.313109,0.000000,-9770.718434,-1838.629195
163227.313428,4145.153275,-8586.388927,2298.286494
163227.313746,6439.791695,-8290.306550,4826.401637
163227.314064,4737.318029,-7179.997637,3524.039291
163227.314382,1406.391290,-7772.162391,2068.457845
163227.314701,222.061783,-11325.150913,3370.820191
163227.315019,-962.267725,-14211.954086,2374.896044
163227.315337,-3923.091493,-9548.656652,0.000000
163227.315655,-74.020594,-10362.883188,-76.609550
163227.315973,-814.226536,-8216.285956,-612.876398
163227.316292,-1406.391290,-7328.038826,-1991.848295
163227.316610,-3627.009116,-7179.997637,-3524.039291
163227.316928,-3701.029710,-9474.636058,-1915.238745
163227.317246,-4219.173869,-8660.409521,-3447.429741
163227.317564,-2146.597232,-9104.533087,-1762.019645
163227.317883,0.000000,-8364.327145,1225.752797
163227.318201,4071.132681,-9474.636058,2987.772442
163227.318519,1702.473667,-7698.141797,76.609550
163227.318837,0.000000,-10732.986159,1685.410096
163227.319155,-1998.556043,-11695.253884,229.828649
163227.319474,-2220.617826,-12213.398043,306.438199
163227.319792,-962.267725,-10732.986159,842.705048
163227.320110,1332.370696,-9844.739029,3064.381992
163227.320428,2516.700203,-7476.080014,76.609550
163227.320747,2072.576638,-6735.874072,0.000000
163227.321065,-370.102971,-7105.977043,-1455.581446
163227.321383,-3552.988522,-6587.832884,-3064.381992
163227.321701,-3997.112087,-9252.574275,-3064.381992
163227.322019,-2442.679609,-9548.656652,-3447.429741
163227.322338,0.000000,-9696.697840,-612.876398
163227.322656,3552.988522,-9844.739029,3217.601092
163227.322974,2886.803174,-8586.388927,-76.609550
163227.323292,3478.967927,-11843.295072,2374.896044
163227.323610,0.000000,-11325.150913,995.924147
163227.323929,-666.185348,-10881.027347,1762.019645
163227.324247,0.000000,-9696.697840,2298.286494
163227.324565,888.247130,-8586.388927,3370.820191
163227.324883,3182.885551,-7402.059420,2374.896044
163227.325201,1406.391290,-5551.544565,842.705048
163227.325520,-3552.988522,-4811.338623,-3064.381992
163227.325838,-4737.318029,-7772.162391,-3830.477490
163227.326156,-8142.265362,-8364.327145,-8580.269578
163227.326474,-5107.421000,-11695.253884,-5898.935335
163227.326793,-3256.906145,-11769.274478,-3907.087040
163227.327111,0.000000,-10881.027347,-842.705048
163227.327429,1702.473667,-10140.821405,612.876398
163227.327747,3478.967927,-8882.471304,1149.143247
163227.328065,1332.370696,-9252.574275,2451.505594
163227.328384,0.000000,-7772.162391,2451.505594
163227.328702,1480.411884,-8660.409521,3830.477490
163227.329020,4071.132681,-8734.430116,4213.525239
163227.329338,2960.823768,-7179.997637,3677.258390
163227.329656,2442.679609,-7698.141797,536.266849
163227.329975,-1184.329507,-8142.265362,-2145.067394
163227.330293,-5033.400406,-9622.677246,-5362.668486
163227.330611,-8290.306550,-9548.656652,-8580.269578
163227.330929,-7846.182985,-9548.656652,-7124.688131
163227.331247,-1850.514855,-9474.636058,-3447.429741
163227.331566,0.000000,-7772.162391,0.000000
163227.331884,4959.379811,-7772.162391,1225.752797
163227.332202,6439.791695,-8290.306550,3600.648841
163227.332520,3256.906145,-9474.636058,4673.182538
163227.332838,-592.164754,-9252.574275,2298.286494
163227.333157,-2072.576638,-10584.944971,1762.019645
163227.333475,-2072.576638,-11325.150913,995.924147
163227.333793,-2960.823768,-9548.656652,0.000000
163227.334111,-814.226536,-8882.471304,-1302.362347
163227.334430,-3552.988522,-7179.997637,-3370.820191
163227.334748,-4367.215058,-8512.368333,-4290.134789
163227.335066,-4219.173869,-10362.883188,-4366.744339
163227.335384,-4811.338623,-8512.368333,-7354.516781
163227.335702,-666.185348,-10658.965565,-1915.238745
163227.336021,1702.473667,-9326.594869,689.485948
163227.336339,3627.009116,-8660.409521,2987.772442
163227.336657,3775.050304,-8882.471304,3370.820191
163227.336975,1998.556043,-9104.533087,3294.210641
163227.337293,222.061783,-9622.677246,1915.238745
163227.337612,-592.164754,-9622.677246,383.047749
163227.337930,0.000000,-10140.821405,1225.752797
163227.338248,1924.535449,-9696.697840,2987.772442
163227.338566,0.000000,-5995.668130,0.000000
163227.338884,1702.473667,-7550.100608,-383.047749
163227.339203,-1258.350101,-7328.038826,-2451.505594
163227.339521,-3923.091493,-7624.121203,-3677.258390
163227.339839,-4885.359217,-7846.182985,-5745.716235
163227.340157,-2442.679609,-8290.306550,-3907.087040
163227.340476,0.000000,-7179.997637,-2374.896044
163227.340794,1184.329507,-8364.327145,1532.190996
163227.341112,3478.967927,-10362.883188,1762.019645
163227.341430,2294.638420,-12435.459826,2374.896044
163227.341748,-1776.494261,-11325.150913,612.876398
163227.342067,-1850.514855,-12065.356855,919.314598
163227.342385,-1184.329507,-11251.130318,536.266849
163227.342703,148.041188,-9326.594869,766.095498
163227.343021,0.000000,-5403.503377,0.000000
163227.343339,2442.679609,-7105.977043,-76.609550
163227.343658,0.000000,-5699.585753,-2757.943793
163227.343976,-3256.906145,-7772.162391,-3064.381992
163227.344294,-4737.318029,-9548.656652,-4903.011187
163227.344612,-3034.844362,-10658.965565,-5592.497135
163227.344930,-1480.411884,-11325.150913,-2145.067394
163227.345249,1332.370696,-10732.986159,-536.266849
163227.345567,2294.638420,-9770.718434,1991.848295
163227.345886,2146.597232,-9844.739029,2681.334243
163227.346204,0.000000,-8956.491898,2757.943793
163227.346522,370.102971,-8512.368333,2068.457845
163227.346841,0.000000,-8068.244768,3677.258390
163227.347159,0.000000,-5995.668130,1225.752797
163227.347477,3923.091493,-8882.471304,3677.258390
163227.347796,0.000000,-5995.668130,1225.752797
163227.348114,-74.020594,-8290.306550,-2528.115143
163227.348433,-5403.503377,-8290.306550,-4979.620737
163227.348751,-7846.182985,-10362.883188,-6511.811733
163227.349069,-7624.121203,-9548.656652,-7431.126331
163227.349388,-3923.091493,-10066.800811,-4060.306139
163227.349706,0.000000,-9548.656652,0.000000
163227.350024,3552.988522,-8660.409521,3064.381992
163227.350343,5255.462188,-9474.636058,2987.772442
163227.350661,2886.803174,-11251.130318,3600.648841
163227.350979,296.082377,-10732.986159,3064.381992
163227.351298,-1258.350101,-10066.800811,1915.238745
163227.351616,-740.205942,-10510.924376,1608.800546
163227.351935,0.000000,-9474.636058,1225.752797
163227.352253,0.000000,-7179.997637,0.000000
163227.352571,-814.226536,-7179.997637,-1685.410096
163227.352890,-4737.318029,-7179.997637,-3677.258390
163227.353208,-3627.009116,-10288.862594,-4519.963438
163227.353526,-4811.338623,-9326.594869,-5286.058936
163227.353845,-1258.350101,-9178.553681,-3753.867940
163227.354163,1776.494261,-9992.780217,842.705048
163227.354482,3849.070898,-9252.574275,2987.772442
163227.354800,3330.926739,-8586.388927,3983.696590
163227.355118,1702.473667,-8512.368333,3294.210641
163227.355437,0.000000,-9548.656652,2451.505594
163227.355755,-3552.988522,-8364.327145,0.000000
163227.356073,-444.123565,-11177.109724,1915.238745
163227.356392,370.102971,-8660.409521,842.705048
163227.356710,1702.473667,-7179.997637,-1915.238745
163227.357028,3478.967927,-8882.471304,-689.485948
163227.357347,-1702.473667,-8142.265362,-3217.601092
163227.357665,-4071.132681,-8586.388927,-4290.134789
163227.357984,-4737.318029,-9474.636058,-5056.230287
163227.358302,-1850.514855,-11547.212695,-1915.238745
163227.358620,518.144159,-10066.800811,-1532.190996
163227.358939,2590.720797,-8142.265362,229.828649
163227.359257,3256.906145,-8956.491898,0.000000
163227.359575,2960.823768,-9696.697840,2451.505594
163227.359894,2294.638420,-11547.212695,-76.609550
163227.360212,1110.308913,-11843.295072,2681.334243
163227.360530,74.020594,-11029.068536,2068.457845
163227.360849,1332.370696,-9844.739029,2221.676944
163227.361167,1998.556043,-8142.265362,1762.019645
163227.361486,1776.494261,-7179.997637,2757.943793
163227.361804,0.000000,-6809.894666,-1378.971896
163227.362122,-2812.782580,-8586.388927,-3217.601092
163227.362441,-5329.482782,-9252.574275,-4903.011187
163227.362759,-5403.503377,-9400.615463,-5515.887586
163227.363077,-4441.235652,-9548.656652,-4290.134789
163227.363396,-962.267725,-8660.409521,-1532.190996
163227.363714,592.164754,-8660.409521,1838.629195
163227.364033,2294.638420,-9918.759623,4826.401637
163227.364351,370.102971,-8882.471304,1149.143247
163227.364669,1998.556043,-13027.624579,3600.648841
163227.364988,0.000000,-9844.739029,2374.896044
163227.365306,592.164754,-8586.388927,2145.067394
163227.365624,1480.411884,-8068.244768,1532.190996
163227.365943,592.164754,-7772.162391,0.000000
163227.366261,-1554.432478,-7328.038826,-3140.991542
163227.366579,-5329.482782,-8068.244768,-4903.011187
163227.366898,-5995.668130,-11177.109724,-4979.620737
163227.367216,-4811.338623,-12731.542202,-4979.620737
163227.367535,-3849.070898,-8956.491898,-4903.011187
163227.367853,3182.885551,-9474.636058,-76.609550
163227.368171,4885.359217,-8512.368333,3140.991542
163227.368490,5625.565159,-8290.306550,3983.696590
163227.368808,3182.885551,-8882.471304,3370.820191
163227.369126,1110.308913,-10066.800811,3447.429741
163227.369445,-148.041188,-11177.109724,2374.896044
163227.369763,-1776.494261,-9844.739029,0.000000
163227.370082,-74.020594,-11251.130318,2374.896044
163227.370400,-666.185348,-7402.059420,-689.485948
163227.370718,-2368.659014,-5995.668130,-2145.067394
163227.371037,-3182.885551,-7698.141797,-3524.039291
163227.371355,-5403.503377,-8660.409521,-4979.620737
163227.371673,-5255.462188,-9252.574275,-4979.620737
163227.371992,-2960.823768,-9548.656652,-4903.011187
163227.372310,0.000000,-8956.491898,-2298.286494
163227.372628,1776.494261,-7772.162391,229.828649
163227.372947,1776.494261,-8660.409521,3064.381992
163227.373265,2294.638420,-11029.068536,2987.772442
163227.373584,-222.061783,-11251.130318,-76.609550
163227.373902,-592.164754,-12509.480420,2911.162892
163227.374220,-666.185348,-10362.883188,1225.752797
163227.374539,962.267725,-9474.636058,766.095498
163227.374857,2516.700203,-8438.347739,0.000000
163227.375175,0.000000,-6587.832884,0.000000
163227.375494,-2368.659014,-6587.832884,-2528.115143
163227.375812,-3404.947333,-7179.997637,-4673.182538
163227.376130,-3849.070898,-9252.574275,-3983.696590
163227.376449,-222.061783,-11769.274478,-536.266849
163227.376767,814.226536,-8290.306550,-1915.238745
163227.377086,4663.297435,-9474.636058,2298.286494
163227.377404,3997.112087,-8586.388927,2451.505594
163227.377722,2590.720797,-9696.697840,2221.676944
163227.378041,666.185348,-11029.068536,1455.581446
163227.378359,-1776.494261,-11177.109724,1225.752797
163227.378677,-1554.432478,-9622.677246,689.485948
163227.378996,-1184.329507,-8660.409521,1225.752797
163227.379314,3182.885551,-10658.965565,3600.648841
163227.379633,2294.638420,-7105.977043,-76.609550
163227.379951,-2368.659014,-4811.338623,-2451.505594
163227.380269,-2516.700203,-8364.327145,-3753.867940
163227.380588,-5921.647536,-9548.656652,-5439.278036
163227.380906,-5995.668130,-10288.862594,-5975.544884
163227.381224,-3923.091493,-9548.656652,-5515.887586
163227.381543,-222.061783,-10658.965565,-2221.676944
163227.381861,888.247130,-9918.759623,612.876398
163227.382179,0.000000,-9548.656652,2451.505594
163227.382498,2294.638420,-11029.068536,3524.039291
163227.382816,1998.556043,-11251.130318,4213.525239
163227.383135,592.164754,-8956.491898,3677.258390
163227.383453,2960.823768,-8068.244768,3294.210641
163227.383771,3701.029710,-7994.224174,2757.943793
163227.384090,3182.885551,-7328.038826,1608.800546
163227.384408,-2072.576638,-5995.668130,-2451.505594
163227.384726,-5329.482782,-7179.997637,-4290.134789
163227.385045,-8882.471304,-7772.162391,-7967.393179
163227.385363,-7698.141797,-10732.986159,-5822.325785
163227.385682,-3108.864956,-11843.295072,-1302.362347
163227.386000,1702.473667,-9178.553681,-76.609550
163227.386318,4515.256246,-9474.636058,3294.210641
163227.386637,4441.235652,-7772.162391,3294.210641
163227.386955,2442.679609,-8142.265362,3294.210641
163227.387273,148.041188,-9326.594869,2987.772442
163227.387592,-2368.659014,-9548.656652,1838.629195
163227.387910,-1258.350101,-10362.883188,1762.019645
163227.388228,-2960.823768,-8660.409521,0.000000
163227.388547,-1628.453072,-8734.430116,0.000000
163227.388865,-2368.659014,-8956.491898,-1838.629195
163227.389184,-5699.585753,-5995.668130,-7354.516781
163227.389502,-5699.585753,-9474.636058,-5822.325785
163227.389820,-5921.647536,-9548.656652,-5515.887586
163227.390139,-2738.761985,-10584.944971,-3370.820191
163227.390457,888.247130,-10066.800811,-76.609550
163227.390775,3552.988522,-8364.327145,3600.648841
163227.391094,3552.988522,-7772.162391,3217.601092
163227.391412,2664.741391,-8364.327145,1225.752797
163227.391730,1480.411884,-10881.027347,3677.258390
163227.392049,-74.020594,-12731.542202,3600.648841
163227.392367,-2368.659014,-9548.656652,306.438199
163227.392686,0.000000,-9400.615463,229.828649
163227.393004,1998.556043,-8660.409521,766.095498
163227.393322,1924.535449,-7179.997637,-306.438199
163227.393641,-666.185348,-5625.565159,-4060.306139
163227.393959,-2442.679609,-6809.894666,-3217.601092
163227.394277,-3997.112087,-6587.832884,-5439.278036
163227.394596,-4145.153275,-8364.327145,-2451.505594
163227.394914,-74.020594,-9474.636058,-229.828649
163227.395233,4663.297435,-9474.636058,2987.772442
163227.395551,2368.659014,-9548.656652,2145.067394
163227.395869,1628.453072,-9918.759623,1072.533697
163227.396188,-370.102971,-11769.274478,153.219100
163227.396506,-1480.411884,-11917.315666,76.609550
163227.396824,-3552.988522,-9548.656652,0.000000
163227.397143,-666.185348,-10066.800811,-76.609550
163227.397461,0.000000,-8364.327145,1225.752797
163227.397779,3478.967927,-7698.141797,2374.896044
163227.398098,3478.967927,-9030.512492,2145.067394
163227.398416,-74.020594,-9474.636058,-76.609550
163227.398735,-4367.215058,-8512.368333,-4903.011187
163227.399053,-4145.153275,-9844.739029,-4979.620737
163227.399371,-2886.803174,-11251.130318,-3524.039291
163227.399690,0.000000,-11325.150913,306.438199
163227.400008,1406.391290,-10881.027347,1455.581446
163227.400326,3478.967927,-10658.965565,2374.896044
163227.400645,444.123565,-9548.656652,2145.067394
163227.400963,592.164754,-9548.656652,4903.011187
163227.401282,4367.215058,-11843.295072,4826.401637
163227.401600,2368.659014,-8142.265362,4903.011187
163227.401918,3256.906145,-7031.956449,2834.553343
163227.402237,2664.741391,-6587.832884,1762.019645
163227.402555,-370.102971,-7105.977043,-689.485948
163227.402873,-6513.812290,-5403.503377,-4903.011187
163227.403192,-8290.306550,-10140.821405,-6435.202183
163227.403510,-7550.100608,-11695.253884,-6435.202183
163227.403828,-3627.009116,-13027.624579,-4366.744339
163227.404147,-1924.535449,-9400.615463,-2451.505594
163227.404465,2812.782580,-11103.089130,2987.772442
163227.404784,2960.823768,-7772.162391,2451.505594
163227.405102,3108.864956,-8586.388927,2911.162892
163227.405420,1258.350101,-9178.553681,3370.820191
163227.405739,-370.102971,-9992.780217,3677.258390
163227.406057,-2960.823768,-7476.080014,0.000000
163227.406375,-370.102971,-9844.739029,1302.362347
163227.406694,-370.102971,-9178.553681,153.219100
163227.407012,-962.267725,-8290.306550,-1608.800546
163227.407331,-2442.679609,-9178.553681,-3830.477490
163227.407649,-5033.400406,-8364.327145,-5669.106685
163227.407967,-3552.988522,-11547.212695,-4290.134789
163227.408286,-1924.535449,-10955.047942,-2528.115143
163227.408604,2294.638420,-11843.295072,-76.609550
163227.408922,4441.235652,-10288.862594,4826.401637
163227.409241,2368.659014,-7476.080014,4290.134789
163227.409559,3478.967927,-7994.224174,3983.696590
163227.409877,1184.329507,-8660.409521,2834.553343
163227.410196,-814.226536,-9696.697840,2374.896044
163227.410514,-1776.494261,-9400.615463,766.095498
163227.410833,-740.205942,-9326.594869,306.438199
163227.411151,1406.391290,-9474.636058,-76.609550
163227.411469,1110.308913,-8290.306550,-1915.238745
163227.411788,-2664.741391,-7328.038826,-4060.306139
163227.412106,-1258.350101,-9474.636058,-3140.991542
163227.412424,-4145.153275,-8808.450710,-4903.011187
163227.412743,-2146.597232,-9770.718434,-3064.381992
163227.413061,518.144159,-9252.574275,-842.705048
163227.413379,3034.844362,-7994.224174,2374.896044
163227.413698,4885.359217,-9030.512492,3294.210641
163227.414016,4663.297435,-9400.615463,2528.115143
163227.414335,3478.967927,-12435.459826,-76.609550
163227.414653,-2146.597232,-11029.068536,0.000000
163227.414971,-1480.411884,-12213.398043,306.438199
163227.415290,-1258.350101,-9770.718434,-1302.362347
163227.415608,1258.350101,-9474.636058,1149.143247
163227.415926,2146.597232,-7550.100608,1302.362347
163227.416245,1406.391290,-7105.977043,306.438199
163227.416563,-74.020594,-8290.306550,-76.609550
163227.416882,-666.185348,-8586.388927,-3677.258390
163227.417200,-1850.514855,-10658.965565,-3140.991542
163227.417518,-2442.679609,-9474.636058,-3447.429741
163227.417837,-1554.432478,-8364.327145,-2987.772442
163227.418155,592.164754,-10732.986159,1225.752797
163227.418473,-1776.494261,-9548.656652,0.000000
163227.418792,-1184.329507,-11473.192101,229.828649
163227.419110,-1554.432478,-11399.171507,919.314598
163227.419428,-1036.288319,-10584.944971,2145.067394
163227.419747,1702.473667,-9474.636058,1915.238745
163227.420065,2368.659014,-7476.080014,2604.724693
163227.420384,4071.132681,-7105.977043,2374.896044
163227.420702,518.144159,-3627.009116,-2451.505594
163227.421020,-3552.988522,-5403.503377,-3064.381992
163227.421339,-3330.926739,-11251.130318,-2528.115143
163227.421657,-7105.977043,-11029.068536,-6128.763984
163227.421975,-4811.338623,-11399.171507,-4596.572988
163227.422294,-1554.432478,-11177.109724,-1991.848295
163227.422612,1776.494261,-9770.718434,2221.676944
163227.422931,3627.009116,-9548.656652,1762.019645
163227.423249,3256.906145,-10140.821405,2987.772442
163227.423567,3478.967927,-11547.212695,4826.401637
163227.423886,0.000000,-7994.224174,2374.896044
163227.424204,0.000000,-8956.491898,2451.505594
163227.424522,2294.638420,-8290.306550,2987.772442
163227.424841,740.205942,-7772.162391,1838.629195
163227.425159,-222.061783,-7031.956449,-76.609550
163227.425477,-2886.803174,-7994.224174,-2757.943793
163227.425796,-4811.338623,-11547.212695,-3753.867940
163227.426114,-5403.503377,-12435.459826,-5362.668486
163227.426433,-4293.194464,-13027.624579,-3370.820191
163227.426751,-370.102971,-11843.295072,-2528.115143
163227.427069,444.123565,-9548.656652,306.438199
163227.427388,1184.329507,-8364.327145,2451.505594
163227.427706,1850.514855,-7550.100608,2145.067394
163227.428024,1184.329507,-8586.388927,2604.724693
163227.428343,814.226536,-9474.636058,2757.943793
163227.428661,888.247130,-9474.636058,2145.067394
163227.428979,3478.967927,-9474.636058,2068.457845
163227.429298,2442.679609,-9548.656652,1378.971896
163227.429616,3478.967927,-9474.636058,-76.609550
163227.429935,222.061783,-8068.244768,-2145.067394
163227.430253,-2442.679609,-7698.141797,-4443.353888
163227.430571,-3256.906145,-11177.109724,-1838.629195
163227.430890,-3182.885551,-9400.615463,-3830.477490
163227.431208,592.164754,-9178.553681,-689.485948
163227.431526,3552.988522,-7994.224174,1838.629195
163227.431845,4145.153275,-8068.244768,2451.505594
163227.432163,4367.215058,-9030.512492,3064.381992
163227.432482,2812.782580,-11251.130318,2987.772442
163227.432800,-592.164754,-10436.903782,1149.143247
163227.433118,-4145.153275,-9548.656652,0.000000
163227.433437,-2072.576638,-9548.656652,0.000000
163227.433755,2294.638420,-9474.636058,-76.609550
163227.434073,296.082377,-7402.059420,153.219100
163227.434392,74.020594,-7402.059420,-919.314598
163227.434710,-2368.659014,-7772.162391,-3140.991542
163227.435028,-4293.194464,-9252.574275,-3140.991542
163227.435347,-5329.482782,-10140.821405,-4903.011187
163227.435665,-2442.679609,-11251.130318,-2221.676944
163227.435984,-74.020594,-10658.965565,-2528.115143
163227.436302,0.000000,-9548.656652,0.000000
163227.436620,0.000000,-8364.327145,0.000000
163227.436939,1702.473667,-10658.965565,1608.800546
163227.437257,888.247130,-10510.924376,2757.943793
163227.437575,888.247130,-9844.739029,3140.991542
163227.437894,1924.535449,-8956.491898,2834.553343
163227.438212,5847.626942,-9474.636058,4213.525239
163227.438531,3775.050304,-7328.038826,3064.381992
163227.438849,3478.967927,-8882.471304,-76.609550
163227.439167,-2442.679609,-7550.100608,-3140.991542
163227.439486,-6809.894666,-7179.997637,-7660.954980
163227.439804,-8216.285956,-8808.450710,-9193.145976
163227.440122,-4811.338623,-11547.212695,-3753.867940
163227.440441,-1332.370696,-10214.842000,-1378.971896
163227.440759,1998.556043,-8586.388927,1685.410096
163227.441077,3552.988522,-7698.141797,2987.772442
163227.441396,2664.741391,-8364.327145,2757.943793
163227.441714,0.000000,-8956.491898,2451.505594
163227.442033,-74.020594,-10807.006753,3447.429741
163227.442351,-1258.350101,-11251.130318,2374.896044
163227.442669,-3552.988522,-8364.327145,0.000000
163227.442988,-666.185348,-8882.471304,-1915.238745
163227.443306,-1554.432478,-8512.368333,-1685.410096
163227.443624,-3182.885551,-8660.409521,-4060.306139
163227.443943,-5403.503377,-9030.512492,-5439.278036
163227.444261,-3182.885551,-11843.295072,-4979.620737
163227.444580,-3330.926739,-10584.944971,-4213.525239
163227.444898,74.020594,-9992.780217,-1685.410096
163227.445217,1184.329507,-7772.162391,0.000000
163227.445535,6069.688724,-9474.636058,4213.525239
163227.445854,2294.638420,-7254.018232,919.314598
163227.446172,4663.297435,-11843.295072,3600.648841
163227.446491,0.000000,-10140.821405,1991.848295
163227.446809,-370.102971,-10436.903782,1838.629195
163227.447128,1332.370696,-10288.862594,2374.896044
163227.447446,4219.173869,-10658.965565,2374.896044
163227.447765,2368.659014,-7476.080014,229.828649
163227.448083,592.164754,-7254.018232,-1225.752797
163227.448402,-2442.679609,-7179.997637,-2681.334243
163227.448720,-3552.988522,-8364.327145,-3064.381992
163227.449039,-3552.988522,-9104.533087,-1915.238745
163227.449357,-2812.782580,-8068.244768,-2911.162892
163227.449676,888.247130,-8956.491898,766.095498
163227.449994,4663.297435,-11843.295072,3600.648841
163227.450313,296.082377,-7476.080014,0.000000
163227.450631,-74.020594,-11843.295072,-76.609550
163227.450950,-1628.453072,-12361.439231,76.609550
163227.451268,-2146.597232,-11843.295072,689.485948
163227.451587,-740.205942,-10732.986159,1225.752797
163227.451905,1184.329507,-9474.636058,2374.896044
163227.452224,2886.803174,-7402.059420,1762.019645
163227.452542,1776.494261,-6587.832884,612.876398
163227.452861,1702.473667,-9474.636058,-76.609550
163227.453179,-1850.514855,-9474.636058,-4060.306139
163227.453498,-5921.647536,-8364.327145,-4903.011187
163227.453816,-3330.926739,-10658.965565,-4673.182538
163227.454135,-1554.432478,-11103.089130,-1838.629195
163227.454453,74.020594,-10658.965565,689.485948
163227.454772,1184.329507,-9918.759623,1532.190996
163227.455090,518.144159,-9252.574275,153.219100
163227.455409,148.041188,-9548.656652,2757.943793
163227.455727,1184.329507,-9548.656652,5669.106685
163227.456046,3775.050304,-9178.553681,4826.401637
163227.456364,2664.741391,-5995.668130,2834.553343
163227.456683,3552.988522,-7179.997637,4596.572988
163227.457001,1036.288319,-6291.750507,383.047749
163227.457320,-2812.782580,-8142.265362,-2911.162892
163227.457638,-7179.997637,-9104.533087,-6205.373534
163227.457957,-9474.636058,-9844.739029,-8580.269578
163227.458275,-9474.636058,-10140.821405,-7048.078582
163227.458594,-5921.647536,-9548.656652,-4903.011187
163227.458912,592.164754,-9844.739029,612.876398
163227.459231,4071.132681,-9178.553681,2374.896044
163227.459549,3478.967927,-6883.915261,2374.896044
163227.459868,3775.050304,-9474.636058,4519.963438
163227.460186,1110.308913,-9104.533087,3447.429741
163227.460505,592.164754,-9326.594869,2911.162892
163227.460823,518.144159,-9770.718434,2451.505594
163227.461142,0.000000,-8512.368333,1225.752797
163227.461460,-1554.432478,-6883.915261,-2068.457845
163227.461779,-3552.988522,-8364.327145,-3370.820191
163227.462097,-4367.215058,-10214.842000,-4596.572988
163227.462416,-4811.338623,-12435.459826,-5592.497135
163227.462734,-5921.647536,-9548.656652,-6128.763984
163227.463053,-74.020594,-10510.924376,-1608.800546
163227.463371,2812.782580,-8734.430116,2298.286494
163227.463690,4737.318029,-8216.285956,3830.477490
163227.464008,3849.070898,-8068.244768,4136.915689
163227.464327,2368.659014,-7254.018232,3447.429741
163227.464645,0.000000,-8364.327145,2145.067394
163227.464964,0.000000,-10732.986159,2757.943793
163227.465282,-74.020594,-10658.965565,-76.609550
163227.465601,74.020594,-9030.512492,-229.828649
163227.465919,0.000000,-8364.327145,0.000000
163227.466238,-592.164754,-8142.265362,-2757.943793
163227.466556,-2960.823768,-8364.327145,-4060.306139
163227.466875,-3552.988522,-8660.409521,-5132.839837
163227.467193,-4737.318029,-7772.162391,-6435.202183
163227.467512,-2368.659014,-7772.162391,-3677.258390
163227.467830,1776.494261,-7179.997637,0.000000
163227.468149,3552.988522,-8660.409521,2757.943793
163227.468467,5255.462188,-10658.965565,2374.896044
163227.468786,2886.803174,-10658.965565,-76.609550
163227.469104,814.226536,-12583.501014,2374.896044
163227.469423,-962.267725,-12065.356855,1762.019645
163227.469741,0.000000,-11177.109724,1685.410096
163227.470060,962.267725,-9252.574275,1455.581446
163227.470378,592.164754,-5995.668130,1225.752797
163227.470697,592.164754,-5921.647536,-76.609550
163227.471015,-2368.659014,-5403.503377,-1838.629195
163227.471334,-2664.741391,-8586.388927,-2834.553343
163227.471652,-3627.009116,-11843.295072,-3140.991542
163227.471971,-4219.173869,-8956.491898,-6128.763984
163227.472289,-1110.308913,-11399.171507,-1608.800546
163227.472608,0.000000,-10436.903782,0.000000
163227.472926,666.185348,-10288.862594,995.924147
163227.473245,74.020594,-10881.027347,1149.143247
163227.473563,0.000000,-10140.821405,1838.629195
163227.473882,-2220.617826,-8364.327145,919.314598
163227.474200,0.000000,-7772.162391,3064.381992
163227.474519,4293.194464,-8956.491898,5362.668486
163227.474837,4663.297435,-7105.977043,3600.648841
163227.475156,0.000000,-4811.338623,0.000000
163227.475474,-1702.473667,-7254.018232,-2834.553343
163227.475793,-5773.606348,-9474.636058,-6128.763984
163227.476111,-7698.141797,-11177.109724,-7277.907231
163227.476430,-7179.997637,-10436.903782,-7124.688131
163227.476748,-1554.432478,-11251.130318,-2987.772442
163227.477067,1184.329507,-9548.656652,766.095498
163227.477385,3552.988522,-8364.327145,3064.381992
163227.477704,4663.297435,-9178.553681,4826.401637
163227.478022,3478.967927,-9474.636058,4826.401637
163227.478341,1184.329507,-8956.491898,3677.258390
163227.478659,518.144159,-9474.636058,3140.991542
163227.478978,-370.102971,-9030.512492,2451.505594
163227.479296,-370.102971,-8364.327145,0.000000
163227.479615,-3997.112087,-5995.668130,-2451.505594
163227.479933,-3701.029710,-8364.327145,-4136.915689
163227.480252,-8882.471304,-7772.162391,-7354.516781
163227.480570,-7994.224174,-10140.821405,-6741.640382
163227.480889,-4811.338623,-11843.295072,-3753.867940
163227.481207,-74.020594,-10658.965565,-3140.991542
163227.481526,2072.576638,-9696.697840,1532.190996
163227.481844,3404.947333,-8364.327145,3140.991542
163227.482163,3182.885551,-7698.141797,3753.867940
163227.482481,2886.803174,-9104.533087,3600.648841
163227.482800,0.000000,-8364.327145,2451.505594
163227.483118,-74.020594,-12435.459826,2374.896044
163227.483437,-1036.288319,-8364.327145,0.000000
163227.483755,740.205942,-9548.656652,0.000000
163227.484074,2072.576638,-9548.656652,0.000000
163227.484392,3478.967927,-9474.636058,-2528.115143
163227.484711,-1628.453072,-8068.244768,-3524.039291
163227.485029,-2738.761985,-8882.471304,-4060.306139
163227.485348,-2442.679609,-9030.512492,-3064.381992
163227.485666,888.247130,-10288.862594,842.705048
163227.485985,3478.967927,-8290.306550,1302.362347
163227.486303,4663.297435,-7994.224174,2374.896044
163227.486622,2664.741391,-8068.244768,0.000000
163227.486940,3182.885551,-11769.274478,2987.772442
163227.487258,-74.020594,-10362.883188,-76.609550
163227.487577,-666.185348,-12731.542202,1302.362347
163227.487895,-1628.453072,-11103.089130,919.314598
163227.488214,-518.144159,-9474.636058,689.485948
163227.488532,444.123565,-7772.162391,229.828649
163227.488851,0.000000,-7179.997637,1225.752797
163227.489169,-1036.288319,-7031.956449,-1532.190996
163227.489488,-3182.885551,-8290.306550,-3677.258390
163227.489806,-4515.256246,-8660.409521,-4903.011187
163227.490125,-3997.112087,-9918.759623,-4903.011187
163227.490443,-3256.906145,-9548.656652,-3753.867940
163227.490762,-74.020594,-10658.965565,-1302.362347
163227.491080,0.000000,-9548.656652,0.000000
163227.491399,1702.473667,-11695.253884,2451.505594
163227.491717,222.061783,-10510.924376,1149.143247
163227.492036,2294.638420,-12139.377449,4060.306139
163227.492354,1776.494261,-8216.285956,3677.258390
163227.492673,2812.782580,-6587.832884,3064.381992
163227.492991,4441.235652,-6809.894666,2911.162892
163227.493310,1776.494261,-6291.750507,612.876398
163227.493628,-74.020594,-7105.977043,-766.095498
163227.493947,-4737.318029,-8660.409521,-4290.134789
163227.494265,-6587.832884,-11177.109724,-5669.106685
163227.494584,-5625.565159,-12287.418637,-4673.182538
163227.494902,-4663.297435,-9548.656652,-4903.011187
163227.495221,1554.432478,-10658.965565,-76.609550
163227.495539,2368.659014,-8734.430116,1762.019645
163227.495858,2516.700203,-8660.409521,2834.553343
163227.496176,1924.535449,-8660.409521,3600.648841
163227.496495,1110.308913,-9178.553681,3600.648841
163227.496813,0.000000,-8956.491898,2681.334243
163227.497132,296.082377,-9844.739029,1838.629195
163227.497450,-74.020594,-9474.636058,-76.609550
163227.497769,-2368.659014,-7476.080014,-2298.286494
163227.498087,-5921.647536,-7772.162391,-3677.258390
163227.498406,-5181.441594,-10658.965565,-5592.497135
163227.498724,-7328.038826,-11029.068536,-7201.297681
163227.499043,-5329.482782,-11029.068536,-6205.373534
163227.499361,-1554.432478,-10288.862594,-3677.258390
163227.499680,1184.329507,-8364.327145,0.000000
163227.499998,4737.318029,-7179.997637,1532.190996
163227.500317,4737.318029,-7476.080014,5515.887586
163227.500635,4663.297435,-9178.553681,4213.525239
163227.500954,1184.329507,-8290.306550,2987.772442
163227.501272,2294.638420,-12731.542202,3600.648841
163227.501591,0.000000,-9696.697840,1149.143247
163227.501909,888.247130,-9696.697840,0.000000
163227.502228,1110.308913,-9030.512492,0.000000
163227.502546,0.000000,-7772.162391,0.000000
163227.502865,-4145.153275,-6883.915261,-3907.087040
163227.503183,-6513.812290,-7179.997637,-5515.887586
163227.503502,-4441.235652,-9104.533087,-3677.258390
163227.503820,-74.020594,-10732.986159,459.657299
163227.504139,814.226536,-6143.709319,0.000000
163227.504457,4663.297435,-8882.471304,2987.772442
163227.504776,3775.050304,-8068.244768,2604.724693
163227.505094,1776.494261,-9622.677246,1225.752797
163227.505413,-1184.329507,-11251.130318,383.047749
163227.505731,-2960.823768,-12213.398043,536.266849
163227.506050,-3552.988522,-11917.315666,0.000000
163227.506368,-1184.329507,-11029.068536,153.219100
163227.506687,1110.308913,-8290.306550,-689.485948
163227.507005,0.000000,-5995.668130,0.000000
163227.507324,0.000000,-5403.503377,0.000000
163227.507642,-962.267725,-7328.038826,-2221.676944
163227.507961,-2220.617826,-8512.368333,-3217.601092
163227.508279,-1628.453072,-9548.656652,-2528.115143
163227.508598,-444.123565,-9548.656652,-2911.162892
163227.508916,518.144159,-9548.656652,0.000000
163227.509235,592.164754,-9696.697840,1072.533697
163227.509553,1184.329507,-11917.315666,3064.381992
163227.509872,-74.020594,-12435.459826,2374.896044
163227.510190,-1332.370696,-10658.965565,2374.896044
163227.510509,296.082377,-10436.903782,4443.353888
163227.510827,2146.597232,-7105.977043,2757.943793
163227.511146,3701.029710,-6143.709319,2757.943793
163227.511464,2738.761985,-5773.606348,1838.629195
163227.511783,-2368.659014,-4811.338623,0.000000
163227.512101,-6513.812290,-6291.750507,-4290.134789
163227.512420,-9104.533087,-7772.162391,-8197.221829
163227.512738,-7698.141797,-11325.150913,-5822.325785
163227.513057,-3923.091493,-11843.295072,-3753.867940
163227.513375,-74.020594,-10066.800811,-2528.115143
163227.513694,3775.050304,-10955.047942,1762.019645
163227.514012,2960.823768,-9252.574275,1991.848295
163227.514331,2146.597232,-9622.677246,2451.505594
163227.514649,888.247130,-9178.553681,2911.162892
163227.514968,296.082377,-9548.656652,3064.381992
163227.515286,0.000000,-7179.997637,1532.190996
163227.515605,1184.329507,-8364.327145,2451.505594
163227.515923,1702.473667,-8734.430116,2374.896044
163227.516242,-74.020594,-9474.636058,-689.485948
163227.516560,-6513.812290,-7179.997637,-6128.763984
163227.516879,-5699.585753,-10066.800811,-6511.811733
163227.517197,-5847.626942,-10732.986159,-5822.325785
163227.517516,-2886.803174,-11251.130318,-3524.039291
163227.517834,888.247130,-9548.656652,-229.828649
163227.518153,3997.112087,-8956.491898,2374.896044
163227.518471,2368.659014,-7179.997637,3677.258390
163227.518790,3478.967927,-9326.594869,4903.011187
163227.519108,2294.638420,-9178.553681,2374.896044
163227.519427,-1702.473667,-9474.636058,2834.553343
163227.519745,-2368.659014,-8364.327145,1225.752797
163227.520064,444.123565,-9770.718434,383.047749
163227.520382,666.185348,-8882.471304,-689.485948
163227.520701,-740.205942,-8512.368333,-2528.115143
163227.521019,-4737.318029,-7179.997637,-6741.640382
163227.521338,-5255.462188,-8364.327145,-5362.668486
163227.521656,-4737.318029,-9474.636058,-5898.935335
163227.521975,-4145.153275,-8364.327145,-3677.258390
163227.522293,2886.803174,-9474.636058,1149.143247
163227.522612,5847.626942,-9474.636058,2374.896044
163227.522930,5921.647536,-9178.553681,4213.525239
163227.523249,3182.885551,-8956.491898,2221.676944
163227.523567,444.123565,-10807.006753,1608.800546
163227.523886,-1258.350101,-11843.295072,1072.533697
163227.524204,-2368.659014,-10436.903782,1225.752797
163227.524523,0.000000,-9548.656652,0.000000
163227.524841,1184.329507,-9548.656652,2451.505594
163227.525160,2294.638420,-8586.388927,1149.143247
163227.525478,-666.185348,-7105.977043,-689.485948
163227.525797,-518.144159,-8290.306550,-1302.362347
163227.526115,-4145.153275,-8068.244768,-4519.963438
163227.526434,-3034.844362,-9474.636058,-3064.381992
163227.526752,-1406.391290,-9696.697840,-1762.019645
163227.527071,1850.514855,-11177.109724,1838.629195
163227.527389,0.000000,-9474.636058,842.705048
163227.527708,-74.020594,-10066.800811,536.266849
163227.528026,-2368.659014,-10732.986159,0.000000
163227.528345,-1184.329507,-10732.986159,2451.505594
163227.528663,-74.020594,-11843.295072,2374.896044
163227.528982,2368.659014,-9400.615463,3447.429741
163227.529300,3404.947333,-7328.038826,1991.848295
163227.529619,3478.967927,-6883.915261,1302.362347
163227.529937,370.102971,-7031.956449,-919.314598
163227.530256,-4737.318029,-7179.997637,-2451.505594
163227.530574,-6143.709319,-9992.780217,-5975.544884
163227.530893,-5107.421000,-11547.212695,-3753.867940
163227.531211,-3627.009116,-10214.842000,-4979.620737
163227.531530,0.000000,-9844.739029,-919.314598
163227.531848,5551.544565,-11843.295072,3294.210641
163227.532167,2960.823768,-8956.491898,2757.943793
163227.532485,2294.638420,-9104.533087,3294.210641
163227.532804,888.247130,-9030.512492,3830.477490
163227.533122,222.061783,-9474.636058,4826.401637
163227.533441,0.000000,-7179.997637,2451.505594
163227.533759,518.144159,-8512.368333,1991.848295
163227.534078,-296.082377,-7402.059420,612.876398
163227.534396,-2516.700203,-7105.977043,-1991.848295
163227.534715,-5551.544565,-7105.977043,-5132.839837
163227.535033,-5403.503377,-11251.130318,-5286.058936
163227.535352,-7179.997637,-10658.965565,-6818.249932
163227.535670,-4441.235652,-11177.109724,-4290.134789
163227.535989,-2146.597232,-8956.491898,-2604.724693
163227.536307,4071.132681,-11843.295072,4213.525239
163227.536626,2368.659014,-8660.409521,3677.258390
163227.536944,2146.597232,-8882.471304,2834.553343
163227.537263,962.267725,-9622.677246,2757.943793
163227.537581,-296.082377,-10140.821405,1991.848295
163227.537900,0.000000,-9548.656652,2145.067394
163227.538218,444.123565,-8956.491898,459.657299
163227.538537,888.247130,-8364.327145,0.000000
163227.538855,0.000000,-7179.997637,0.000000
163227.539174,-1776.494261,-9326.594869,-2451.505594
163227.539492,-2442.679609,-8882.471304,-4979.620737
163227.539811,-3775.050304,-9326.594869,-4290.134789
163227.540129,-1406.391290,-9548.656652,-2145.067394
163227.540448,2368.659014,-9104.533087,842.705048
163227.540766,4515.256246,-7698.141797,3294.210641
163227.541085,5107.421000,-9400.615463,4826.401637
163227.541403,3404.947333,-9178.553681,3600.648841
163227.541722,-74.020594,-9474.636058,0.000000
163227.542040,-2368.659014,-10436.903782,612.876398
163227.542359,-1332.370696,-12065.356855,1378.971896
163227.542677,-2886.803174,-7476.080014,0.000000
163227.542995,444.123565,-9326.594869,383.047749
163227.543314,296.082377,-7550.100608,-689.485948
163227.543632,-592.164754,-7328.038826,-2374.896044
163227.543951,-2442.679609,-7105.977043,-3140.991542
163227.544269,-2442.679609,-9474.636058,-2834.553343
163227.544588,-2442.679609,-9474.636058,-4366.744339
163227.544906,-2368.659014,-9548.656652,-3370.820191
163227.545225,1332.370696,-10732.986159,0.000000
163227.545543,3627.009116,-11177.109724,3600.648841
163227.545862,0.000000,-9548.656652,1532.190996
163227.546181,592.164754,-11399.171507,1608.800546
163227.546499,0.000000,-11399.171507,1915.238745
163227.546818,740.205942,-10140.821405,2374.896044
163227.547136,2886.803174,-8290.306550,2757.943793
163227.547455,4811.338623,-8068.244768,3370.820191
163227.547773,3478.967927,-6217.729913,1149.143247
163227.548092,74.020594,-5995.668130,-2451.505594
163227.548410,-3923.091493,-6587.832884,-4519.963438
163227.548729,-4811.338623,-10066.800811,-4979.620737
163227.549047,-5921.647536,-11769.274478,-3677.258390
163227.549366,-2738.761985,-11843.295072,-2834.553343
163227.549685,-518.144159,-9992.780217,-842.705048
163227.550003,1998.556043,-9326.594869,2068.457845
163227.550322,2368.659014,-9770.718434,2374.896044
163227.550640,1702.473667,-9474.636058,2068.457845
163227.550959,-370.102971,-11547.212695,3600.648841
163227.551277,-2146.597232,-8364.327145,1225.752797
163227.551596,-1184.329507,-9252.574275,1225.752797
163227.551914,-666.185348,-7105.977043,229.828649
163227.552233,0.000000,-8142.265362,0.000000
163227.552551,-1480.411884,-7920.203579,-2528.115143
163227.552870,-4811.338623,-8734.430116,-5056.230287
163227.553189,-5995.668130,-11843.295072,-4979.620737
163227.553507,-4219.173869,-13027.624579,-5592.497135
163227.553826,-2442.679609,-14211.954086,-1915.238745
163227.554144,1702.473667,-10955.047942,-383.047749
163227.554463,3108.864956,-8364.327145,2451.505594
163227.554781,5033.400406,-8956.491898,4903.011187
163227.555100,1776.494261,-7328.038826,2451.505594
163227.555418,1554.432478,-9474.636058,3600.648841
163227.555737,74.020594,-9844.739029,2911.162892
163227.556055,222.061783,-9548.656652,2068.457845
163227.556374,1702.473667,-8290.306550,1149.143247
163227.556692,3478.967927,-11251.130318,2374.896044
163227.557011,-1184.329507,-6587.832884,-1838.629195
163227.557330,-2368.659014,-8512.368333,-2374.896044
163227.557648,-4737.318029,-8364.327145,-4290.134789
163227.557967,-2812.782580,-11843.295072,-2528.115143
163227.558285,-3256.906145,-9548.656652,-3064.381992
163227.558604,370.102971,-9030.512492,0.000000
163227.558922,3404.947333,-8438.347739,2068.457845
163227.559241,4515.256246,-8438.347739,3753.867940
163227.559559,3182.885551,-9030.512492,1762.019645
163227.559878,1332.370696,-11843.295072,2068.457845
163227.560196,-1850.514855,-10881.027347,229.828649
163227.560515,-4145.153275,-9548.656652,0.000000
163227.560834,-888.247130,-10732.986159,0.000000
163227.561152,2294.638420,-9474.636058,-76.609550
163227.561471,1184.329507,-7698.141797,0.000000
163227.561789,1184.329507,-7698.141797,-459.657299
163227.562108,-518.144159,-7476.080014,-2528.115143
163227.562426,-962.267725,-10658.965565,-1915.238745
163227.562745,-1332.370696,-10362.883188,-2528.115143
163227.563063,-666.185348,-10066.800811,-1762.019645
163227.563382,74.020594,-7920.203579,-1915.238745
163227.563700,1184.329507,-9548.656652,1225.752797
163227.564019,0.000000,-8364.327145,2451.505594
163227.564337,-370.102971,-10658.965565,689.485948
163227.564656,-370.102971,-10807.006753,2528.115143
163227.564975,592.164754,-9622.677246,2604.724693
163227.565293,2294.638420,-7920.203579,3140.991542
163227.565612,4663.297435,-7105.977043,2987.772442
163227.565930,3330.926739,-6439.791695,3907.087040
163227.566249,1702.473667,-6809.894666,-1302.362347
163227.566567,-4737.318029,-6587.832884,-4290.134789
163227.566886,-7031.956449,-9400.615463,-8580.269578
163227.567204,-9474.636058,-8364.327145,-8580.269578
163227.567523,-5699.585753,-11843.295072,-5439.278036
163227.567841,-2368.659014,-10955.047942,-2528.115143
163227.568160,1332.370696,-9844.739029,0.000000
163227.568479,2664.741391,-7846.182985,1149.143247
163227.568797,3552.988522,-10955.047942,2757.943793
163227.569116,1184.329507,-8660.409521,4903.011187
163227.569434,2294.638420,-9474.636058,4519.963438
163227.569753,1406.391290,-8290.306550,3600.648841
163227.570071,370.102971,-5995.668130,1532.190996
163227.570390,222.061783,-6587.832884,0.000000
163227.570708,-1258.350101,-8216.285956,-1532.190996
163227.571027,-5181.441594,-8956.491898,-4673.182538
163227.571345,-7254.018232,-10362.883188,-7201.297681
163227.571664,-4811.338623,-11843.295072,-6205.373534
163227.571983,-4293.194464,-11029.068536,-4979.620737
163227.572301,-1184.329507,-9548.656652,0.000000
163227.572620,3552.988522,-9548.656652,4290.134789
163227.572938,4663.297435,-7698.141797,4673.182538
163227.573257,0.000000,-5403.503377,2451.505594
163227.573575,1850.514855,-8586.388927,4213.525239
163227.573894,148.041188,-8882.471304,3370.820191
163227.574212,-296.082377,-9178.553681,2145.067394
163227.574531,-296.082377,-9696.697840,0.000000
163227.574849,2294.638420,-11843.295072,-76.609550
163227.575168,-1776.494261,-8660.409521,-3217.601092
163227.575486,-3404.947333,-9104.533087,-4826.401637
163227.575805,-4885.359217,-9844.739029,-6128.763984
163227.576124,-3627.009116,-11177.109724,-4596.572988
163227.576442,-2664.741391,-8956.491898,-1915.238745
163227.576761,0.000000,-7179.997637,0.000000
163227.577079,4811.338623,-8364.327145,3524.039291
163227.577398,7031.956449,-8882.471304,4826.401637
163227.577716,2960.823768,-7179.997637,1225.752797
163227.578035,2886.803174,-9474.636058,1149.143247
163227.578353,-592.164754,-11769.274478,1302.362347
163227.578672,-1184.329507,-11917.315666,612.876398
163227.578990,-296.082377,-11325.150913,229.828649
163227.579309,1480.411884,-9104.533087,383.047749
163227.579628,1702.473667,-8586.388927,-383.047749
163227.579946,0.000000,-7846.182985,-459.657299
163227.580265,-74.020594,-9474.636058,-76.609550
163227.580583,-1554.432478,-8586.388927,-2834.553343
163227.580902,-3552.988522,-8364.327145,-1838.629195
163227.581220,-1776.494261,-8808.450710,-2068.457845
163227.581539,1036.288319,-9326.594869,306.438199
163227.581857,1702.473667,-9474.636058,1455.581446
163227.582176,1110.308913,-10436.903782,1149.143247
163227.582494,-1258.350101,-10140.821405,0.000000
163227.582813,-2368.659014,-11843.295072,536.266849
163227.583132,-1184.329507,-12213.398043,2451.505594
163227.583450,2294.638420,-10658.965565,2374.896044
163227.583769,1998.556043,-7105.977043,612.876398
163227.584087,4145.153275,-9104.533087,4213.525239
163227.584406,1110.308913,-6143.709319,-842.705048
163227.584724,-1998.556043,-6957.935855,-2604.724693
163227.585043,-4737.318029,-9178.553681,-5132.839837
163227.585361,-5921.647536,-9548.656652,-4290.134789
163227.585680,-4737.318029,-9548.656652,-3677.258390
163227.585998,-3256.906145,-8364.327145,-2451.505594
163227.586317,2738.761985,-10881.027347,1838.629195
163227.586635,3478.967927,-10658.965565,2374.896044
163227.586954,666.185348,-7846.182985,766.095498
163227.587273,2294.638420,-10658.965565,3294.210641
163227.587591,0.000000,-9548.656652,2987.772442
163227.587910,296.082377,-8808.450710,3140.991542
163227.588228,518.144159,-7920.203579,2528.115143
163227.588547,1924.535449,-8068.244768,2451.505594
163227.588865,-1258.350101,-6069.688724,-2068.457845
163227.589184,-5921.647536,-7476.080014,-4290.134789
163227.589502,-7105.977043,-9844.739029,-7354.516781
163227.589821,-6883.915261,-11843.295072,-5592.497135
163227.590139,-7698.141797,-9548.656652,-6741.640382
163227.590458,-1258.350101,-11103.089130,-2068.457845
163227.590777,1406.391290,-9844.739029,919.314598
163227.591095,3256.906145,-8290.306550,2757.943793
163227.591414,2738.761985,-8290.306550,3447.429741
163227.591732,2664.741391,-8956.491898,2987.772442
163227.592051,296.082377,-8438.347739,2757.943793
163227.592369,1258.350101,-9474.636058,2451.505594
163227.592688,3182.885551,-11251.130318,2374.896044
163227.593006,2146.597232,-9474.636058,-153.219100
163227.593325,0.000000,-9844.739029,0.000000
163227.593643,-1258.350101,-8734.430116,-3217.601092
163227.593962,-3478.967927,-9696.697840,-4366.744339
163227.594281,-4219.173869,-9992.780217,-4903.011187
163227.594599,-3552.988522,-9548.656652,-4903.011187
163227.594918,0.000000,-5995.668130,0.000000
163227.595236,4737.318029,-6587.832884,1149.143247
163227.595555,4737.318029,-7179.997637,4290.134789
163227.595873,5107.421000,-9326.594869,3600.648841
163227.596192,1998.556043,-9178.553681,2374.896044
163227.596510,1110.308913,-12657.521608,2374.896044
163227.596829,-2072.576638,-11621.233289,76.609550
163227.597147,-2220.617826,-11399.171507,0.000000
163227.597466,-962.267725,-10214.842000,-536.266849
163227.597784,0.000000,-8364.327145,0.000000
163227.598103,0.000000,-6587.832884,-3294.210641
163227.598422,-3552.988522,-7179.997637,-3064.381992
163227.598740,-2442.679609,-9178.553681,-3600.648841
163227.599059,-2960.823768,-8734.430116,-3753.867940
163227.599377,-2368.659014,-7328.038826,-4903.011187
163227.599696,2294.638420,-10658.965565,229.828649
163227.600014,1998.556043,-9548.656652,229.828649
163227.600333,1406.391290,-10436.903782,919.314598
163227.600651,-370.102971,-11399.171507,766.095498
163227.600970,0.000000,-11621.233289,1991.848295
163227.601288,-1776.494261,-9844.739029,1225.752797
163227.601607,1480.411884,-9104.533087,2757.943793
163227.601926,5847.626942,-9474.636058,5745.716235
163227.602244,4663.297435,-6513.812290,2374.896044
163227.602563,296.082377,-4811.338623,612.876398
163227.602881,-666.185348,-6957.935855,-1608.800546
163227.603200,-5033.400406,-8512.368333,-4673.182538
163227.603518,-6513.812290,-10140.821405,-5592.497135
163227.603837,-6883.915261,-9548.656652,-5669.106685
163227.604155,-3923.091493,-9696.697840,-2757.943793
163227.604474,0.000000,-9548.656652,0.000000
163227.604792,0.000000,-8364.327145,1225.752797
163227.605111,1332.370696,-10288.862594,2604.724693
163227.605429,-74.020594,-11843.295072,4826.401637
163227.605748,-888.247130,-10436.903782,3370.820191
163227.606067,-148.041188,-9474.636058,2681.334243
163227.606385,296.082377,-7920.203579,1991.848295
163227.606704,518.144159,-7254.018232,1149.143247
163227.607022,-2960.823768,-5995.668130,-2451.505594
163227.607341,-4145.153275,-7772.162391,-3983.696590
163227.607659,-8290.306550,-8364.327145,-6741.640382
163227.607978,-6957.935855,-11843.295072,-6052.154434
163227.608296,-5107.421000,-11991.336260,-5439.278036
163227.608615,-1258.350101,-10510.924376,-3447.429741
163227.608933,3182.885551,-10881.027347,1915.238745
163227.609252,3775.050304,-9252.574275,4136.915689
163227.609571,3627.009116,-8290.306550,4366.744339
163227.609889,2294.638420,-8438.347739,4213.525239
163227.610208,1924.535449,-8956.491898,5056.230287
163227.610526,0.000000,-6587.832884,2451.505594
163227.610845,3330.926739,-9474.636058,3294.210641
163227.611163,1998.556043,-8364.327145,842.705048
163227.611482,2294.638420,-8290.306550,-2221.676944
163227.611800,-1258.350101,-9474.636058,-3140.991542
163227.612119,-4737.318029,-9548.656652,-5132.839837
163227.612437,-5551.544565,-9770.718434,-5975.544884
163227.612756,-3997.112087,-10510.924376,-4443.353888
163227.613075,1110.308913,-11547.212695,-76.609550
163227.613393,4293.194464,-7994.224174,1762.019645
163227.613712,4663.297435,-7105.977043,2221.676944
163227.614030,4441.235652,-8364.327145,3064.381992
163227.614349,4663.297435,-11843.295072,2374.896044
163227.614667,-666.185348,-8586.388927,0.000000
163227.614986,-74.020594,-12435.459826,1149.143247
163227.615304,-1258.350101,-11325.150913,153.219100
163227.615623,0.000000,-10584.944971,0.000000
163227.615941,962.267725,-8734.430116,-536.266849
163227.616260,1184.329507,-10140.821405,-76.609550
163227.616578,-1036.288319,-7328.038826,-2987.772442
163227.616897,-2072.576638,-8512.368333,-3447.429741
163227.617216,-2146.597232,-9104.533087,-3447.429741
163227.617534,-592.164754,-9548.656652,-2451.505594
163227.617853,0.000000,-7179.997637,0.000000
163227.618171,2886.803174,-8290.306550,536.266849
163227.618490,592.164754,-8660.409521,2757.943793
163227.618808,1702.473667,-11251.130318,4213.525239
163227.619127,-888.247130,-9548.656652,229.828649
163227.619445,-74.020594,-11843.295072,2374.896044
163227.619764,-370.102971,-9104.533087,2145.067394
163227.620082,1480.411884,-8216.285956,2145.067394
163227.620401,2294.638420,-6735.874072,1685.410096
163227.620720,1184.329507,-6883.915261,306.438199
163227.621038,-370.102971,-6513.812290,-1378.971896
163227.621357,-6143.709319,-6883.915261,-4903.011187
163227.621675,-6365.771101,-9548.656652,-7354.516781
163227.621994,-4589.276840,-11843.295072,-3830.477490
163227.622312,-4737.318029,-8660.409521,-4903.011187
163227.622631,-74.020594,-10658.965565,-842.705048
163227.622949,1184.329507,-10732.986159,536.266849
163227.623268,888.247130,-10436.903782,1455.581446
163227.623586,148.041188,-10584.944971,2068.457845
163227.623905,518.144159,-9918.759623,3447.429741
163227.624224,1554.432478,-9474.636058,3294.210641
163227.624542,1850.514855,-7846.182985,3677.258390
163227.624861,4663.297435,-9474.636058,3600.648841
163227.625179,1110.308913,-5921.647536,0.000000
163227.625498,-2368.659014,-7179.997637,-1225.752797
163227.625816,-5995.668130,-9178.553681,-5286.058936
163227.626135,-7328.038826,-10658.965565,-6818.249932
163227.626453,-5921.647536,-11695.253884,-5669.106685
163227.626772,-2812.782580,-11473.192101,-4290.134789
163227.627090,0.000000,-8512.368333,0.000000
163227.627409,2368.659014,-8364.327145,919.314598
163227.627727,2368.659014,-7772.162391,4903.011187
163227.628046,3330.926739,-8734.430116,4826.401637
163227.628365,1406.391290,-7698.141797,4213.525239
163227.628683,2220.617826,-10362.883188,4826.401637
163227.629002,740.205942,-7624.121203,1608.800546
163227.629320,814.226536,-8438.347739,0.000000
163227.629639,148.041188,-8956.491898,-1149.143247
163227.629957,-4145.153275,-8364.327145,-3677.258390
163227.630276,-7105.977043,-9548.656652,-6205.373534
163227.630594,-8290.306550,-9548.656652,-7354.516781
163227.630913,-3552.988522,-11769.274478,-4596.572988
163227.631231,1702.473667,-12731.542202,-76.609550
163227.631550,2886.803174,-5995.668130,-1532.190996
163227.631869,7624.121203,-8290.306550,4213.525239
163227.632187,6513.812290,-7328.038826,4213.525239
163227.632506,4145.153275,-8956.491898,2987.772442
163227.632824,814.226536,-10436.903782,2528.115143
163227.633143,-1184.329507,-11399.171507,2068.457845
163227.633461,-1702.473667,-10732.986159,0.000000
163227.633780,0.000000,-10140.821405,0.000000
163227.634098,2072.576638,-10881.027347,2221.676944
163227.634417,-74.020594,-8882.471304,-1302.362347
163227.634735,-3552.988522,-5995.668130,-3370.820191
163227.635054,-2738.761985,-7550.100608,-4136.915689
163227.635373,-3034.844362,-8364.327145,-3830.477490
163227.635691,-1184.329507,-9104.533087,-2145.067394
163227.636010,666.185348,-8068.244768,-1838.629195
163227.636328,1480.411884,-7920.203579,0.000000
163227.636647,740.205942,-8364.327145,1378.971896
163227.636965,0.000000,-9548.656652,612.876398
163227.637284,-1332.370696,-13027.624579,1608.800546
163227.637602,-1258.350101,-13027.624579,1762.019645
163227.637921,0.000000,-11029.068536,2757.943793
163227.638239,1850.514855,-9030.512492,1149.143247
163227.638558,2368.659014,-6957.935855,1225.752797
163227.638876,1702.473667,-6143.709319,306.438199
163227.639195,-2368.659014,-4811.338623,-3064.381992
163227.639514,-4737.318029,-6587.832884,-3983.696590
163227.639832,-4811.338623,-8290.306550,-6358.592633
163227.640151,-5625.565159,-9548.656652,-4596.572988
163227.640469,-1184.329507,-11695.253884,-76.609550
163227.640788,1702.473667,-9474.636058,-1302.362347
163227.641106,3182.885551,-11547.212695,2068.457845
163227.641425,1258.350101,-10807.006753,2451.505594
163227.641743,0.000000,-10732.986159,2834.553343
163227.642062,-444.123565,-10066.800811,3370.820191
163227.642380,0.000000,-8364.327145,3677.258390
163227.642699,1702.473667,-6439.791695,2528.115143
163227.643018,1184.329507,-6439.791695,3064.381992
163227.643336,1702.473667,-6513.812290,1608.800546
163227.643655,-666.185348,-8882.471304,-1302.362347
163227.643973,-7698.141797,-6735.874072,-8580.269578
163227.644292,-7624.121203,-11547.212695,-7431.126331
163227.644610,-7550.100608,-11917.315666,-6818.249932
163227.644929,-4515.256246,-12657.521608,-4519.963438
163227.645247,-592.164754,-10807.006753,-1302.362347
163227.645566,2072.576638,-9548.656652,1149.143247
163227.645884,1480.411884,-7772.162391,2451.505594
163227.646203,2368.659014,-8068.244768,2451.505594
163227.646522,4071.132681,-9474.636058,6052.154434
163227.646840,3478.967927,-9474.636058,4826.401637
163227.647159,1184.329507,-7179.997637,3677.258390
163227.647477,2590.720797,-8586.388927,842.705048
163227.647796,2072.576638,-8438.347739,-459.657299
163227.648114,-1258.350101,-9400.615463,-3140.991542
163227.648433,-6439.791695,-8068.244768,-7354.516781
163227.648751,-6513.812290,-10732.986159,-6128.763984
163227.649070,-3627.009116,-11177.109724,-4979.620737
163227.649388,-74.020594,-10658.965565,-2528.115143
163227.649707,2368.659014,-7179.997637,689.485948
163227.650025,6439.791695,-7624.121203,2987.772442
163227.650344,7031.956449,-7105.977043,2987.772442
163227.650662,2590.720797,-7476.080014,3140.991542
163227.650981,222.061783,-9548.656652,2221.676944
163227.651299,-814.226536,-10362.883188,1838.629195
163227.651618,-74.020594,-11843.295072,2374.896044
163227.651936,-962.267725,-9918.759623,0.000000
163227.652255,1998.556043,-11251.130318,-76.609550
163227.652573,-74.020594,-9474.636058,-2221.676944
163227.652892,-3108.864956,-7179.997637,-6205.373534
163227.653210,-4811.338623,-7402.059420,-7354.516781
163227.653529,-3627.009116,-9474.636058,-4826.401637
163227.653847,-1110.308913,-9770.718434,-2911.162892
163227.654166,1258.350101,-9548.656652,0.000000
163227.654484,2442.679609,-9474.636058,1762.019645
163227.654803,2368.659014,-9548.656652,1762.019645
163227.655121,0.000000,-9548.656652,1225.752797
163227.655440,814.226536,-11843.295072,2604.724693
163227.655758,-74.020594,-13619.789333,4213.525239
163227.656077,0.000000,-9252.574275,689.485948
163227.656395,3478.967927,-8290.306550,2068.457845
163227.656714,3108.864956,-7105.977043,1838.629195
163227.657032,1406.391290,-6587.832884,766.095498
163227.657351,-888.247130,-7105.977043,-1072.533697
163227.657669,-2442.679609,-9474.636058,-1915.238745
163227.657988,-5551.544565,-9770.718434,-4979.620737
163227.658306,-5773.606348,-9696.697840,-4903.011187
163227.658625,-2664.741391,-10140.821405,-612.876398
163227.658943,-74.020594,-10658.965565,-76.609550
163227.659262,518.144159,-8438.347739,-1991.848295
163227.659580,888.247130,-10955.047942,2068.457845
163227.659899,-444.123565,-10658.965565,2451.505594
163227.660217,-444.123565,-9622.677246,2528.115143
163227.660536,444.123565,-9178.553681,3370.820191
163227.660854,2072.576638,-10362.883188,4826.401637
163227.661173,1184.329507,-6661.853478,1455.581446
163227.661491,592.164754,-6735.874072,0.000000
163227.661810,-2294.638420,-7105.977043,-3064.381992
163227.662128,-6513.812290,-7772.162391,-5515.887586
163227.662447,-8882.471304,-10807.006753,-6358.592633
163227.662765,-7994.224174,-10140.821405,-7967.393179
163227.663084,-3108.864956,-12657.521608,-3524.039291
163227.663402,1776.494261,-12509.480420,1838.629195
163227.663721,2590.720797,-8660.409521,536.266849
163227.664039,6439.791695,-10362.883188,4826.401637
163227.664358,3404.947333,-8216.285956,4903.011187
163227.664676,2886.803174,-7624.121203,4979.620737
163227.664995,2368.659014,-7994.224174,4749.792088
163227.665313,2368.659014,-7624.121203,3217.601092
163227.665632,2886.803174,-8512.368333,2145.067394
163227.665951,148.041188,-7476.080014,0.000000
163227.666269,-1480.411884,-9548.656652,-1838.629195
163227.666588,-4219.173869,-10658.965565,-4979.620737
163227.666906,-9474.636058,-8364.327145,-8580.269578
163227.667225,-5403.503377,-11251.130318,-6205.373534
163227.667543,-2072.576638,-10436.903782,-3140.991542
163227.667862,2220.617826,-8586.388927,612.876398
163227.668180,4737.318029,-7698.141797,2757.943793
163227.668499,6439.791695,-7846.182985,2374.896044
163227.668817,2960.823768,-8512.368333,2757.943793
163227.669136,0.000000,-7772.162391,612.876398
163227.669454,0.000000,-11473.192101,2681.334243
163227.669773,-74.020594,-11843.295072,1762.019645
163227.670091,0.000000,-11917.315666,1838.629195
163227.670410,666.185348,-9178.553681,-76.609550
163227.670728,444.123565,-8734.430116,-1378.971896
163227.671047,-740.205942,-8068.244768,-2451.505594
163227.671365,-4145.153275,-7179.997637,-6128.763984
163227.671684,-5625.565159,-5995.668130,-5515.887586
163227.672002,-2738.761985,-7179.997637,-4903.011187
163227.672321,0.000000,-8364.327145,0.000000
163227.672639,3182.885551,-9474.636058,2604.724693
163227.672958,3478.967927,-9474.636058,2374.896044
163227.673276,2294.638420,-11251.130318,4290.134789
163227.673595,0.000000,-10658.965565,2604.724693
163227.673913,-296.082377,-11325.150913,2987.772442
163227.674232,222.061783,-9918.759623,3140.991542
163227.674550,0.000000,-7772.162391,2451.505594
163227.674869,1406.391290,-6291.750507,383.047749
163227.675187,592.164754,-6587.832884,766.095498
163227.675506,-1184.329507,-7105.977043,-536.266849
163227.675824,-3627.009116,-9474.636058,-3753.867940
163227.676143,-8216.285956,-7772.162391,-8427.050478
163227.676461,-5699.585753,-11399.171507,-5745.716235
163227.676780,-3552.988522,-10658.965565,-3600.648841
163227.677098,0.000000,-10658.965565,-689.485948
163227.677417,1554.432478,-10214.842000,1225.752797
163227.677735,1776.494261,-9992.780217,2374.896044
163227.678054,0.000000,-9548.656652,2451.505594
163227.678372,1628.453072,-11029.068536,2451.505594
163227.678691,3478.967927,-11843.295072,4826.401637
163227.679009,2294.638420,-7994.224174,3600.648841
163227.679328,1184.329507,-5995.668130,2757.943793
163227.679646,1998.556043,-6957.935855,689.485948
163227.679965,-1258.350101,-7476.080014,-2298.286494
163227.680283,-5033.400406,-8956.491898,-4903.011187
163227.680602,-8586.388927,-8364.327145,-7354.516781
163227.680920,-8364.327145,-10140.821405,-7431.126331
163227.681239,-4145.153275,-11547.212695,-4366.744339
163227.681557,-2072.576638,-9548.656652,0.000000
163227.681876,3108.864956,-9992.780217,3600.648841
163227.682194,4663.297435,-9474.636058,4519.963438
163227.682513,2368.659014,-8956.491898,4903.011187
163227.682831,888.247130,-8216.285956,3907.087040
163227.683150,222.061783,-8216.285956,3064.381992
163227.683468,1110.308913,-8512.368333,1991.848295
163227.683787,0.000000,-7179.997637,0.000000
163227.684105,-1110.308913,-8290.306550,-1915.238745
163227.684424,-4145.153275,-7772.162391,-4903.011187
163227.684742,-4589.276840,-10436.903782,-5439.278036
163227.685061,-5773.606348,-11029.068536,-5515.887586
163227.685379,-3627.009116,-10658.965565,-6818.249932
163227.685698,-370.102971,-10881.027347,-1455.581446
163227.686016,4145.153275,-8808.450710,1762.019645
163227.686335,6291.750507,-7476.080014,3983.696590
163227.686653,5921.647536,-7328.038826,3907.087040
163227.686972,2368.659014,-8068.244768,3830.477490
163227.687290,1110.308913,-9252.574275,1608.800546
163227.687609,0.000000,-10881.027347,1378.971896
163227.687927,-74.020594,-13619.789333,3753.867940
163227.688246,1110.308913,-11547.212695,2374.896044
163227.688564,0.000000,-5995.668130,-2145.067394
163227.688883,296.082377,-8512.368333,-995.924147
163227.689201,-1036.288319,-7772.162391,-2068.457845
163227.689520,-2664.741391,-8290.306550,-3370.820191
163227.689839,-2442.679609,-7698.141797,-4979.620737
163227.690157,-1554.432478,-8734.430116,-2681.334243
163227.690476,-1184.329507,-8364.327145,-1149.143247
163227.690794,0.000000,-7476.080014,612.876398
163227.691113,3404.947333,-10362.883188,2834.553343
163227.691431,2294.638420,-13027.624579,3600.648841
163227.691750,-2368.659014,-10732.986159,1378.971896
163227.692068,-1702.473667,-11547.212695,1072.533697
163227.692387,-814.226536,-10288.862594,1302.362347
163227.692705,1406.391290,-8586.388927,1072.533697
163227.693024,1184.329507,-5995.668130,0.000000
163227.693342,1776.494261,-6587.832884,612.876398
163227.693661,-2368.659014,-4811.338623,-2451.505594
163227.693979,-2960.823768,-8882.471304,-3370.820191
163227.694298,-4219.173869,-9474.636058,-3140.991542
163227.694616,-4589.276840,-11177.109724,-3524.039291
163227.694935,-2738.761985,-10436.903782,-3447.429741
163227.695253,222.061783,-10510.924376,-766.095498
163227.695572,1702.473667,-10436.903782,919.314598
163227.695890,1554.432478,-9696.697840,1225.752797
163227.696209,1110.308913,-9326.594869,2987.772442
163227.696527,2294.638420,-11843.295072,4213.525239
163227.696846,1110.308913,-9326.594869,3600.648841
163227.697164,1184.329507,-7476.080014,3983.696590
163227.697483,2886.803174,-8882.471304,4826.401637
163227.697801,0.000000,-5995.668130,153.219100
163227.698120,-2442.679609,-7698.141797,-2451.505594
163227.698438,-6587.832884,-9104.533087,-5362.668486
163227.698757,-9030.512492,-10732.986159,-7507.735880
163227.699075,-9474.636058,-9696.697840,-9806.022374
163227.699394,-5773.606348,-12583.501014,-5209.449386
163227.699712,-1110.308913,-11473.192101,-612.876398
163227.700031,3478.967927,-11695.253884,4366.744339
163227.700349,4367.215058,-7994.224174,2987.772442
163227.700668,2960.823768,-8660.409521,6281.983084
163227.700986,1776.494261,-7179.997637,4290.134789
163227.701305,2368.659014,-8512.368333,4213.525239
163227.701623,1776.494261,-7994.224174,2681.334243
163227.701942,1702.473667,-8956.491898,766.095498
163227.702260,370.102971,-7476.080014,-3217.601092
163227.702579,-1554.432478,-9770.718434,-2987.772442
163227.702897,-4811.338623,-9844.739029,-4903.011187
163227.703216,-6365.771101,-10066.800811,-6741.640382
163227.703534,-4515.256246,-10658.965565,-4979.620737
163227.703853,1702.473667,-11547.212695,-2221.676944
163227.704171,5329.482782,-9400.615463,4136.915689
163227.704490,7031.956449,-7105.977043,4519.963438
163227.704808,7031.956449,-8290.306550,6665.030833
163227.705127,5181.441594,-9178.553681,5515.887586
163227.705445,0.000000,-8364.327145,2451.505594
163227.705764,-1332.370696,-11473.192101,1532.190996
163227.706082,-2368.659014,-11991.336260,76.609550
163227.706401,-2368.659014,-11547.212695,-919.314598
163227.706719,-888.247130,-10066.800811,-2145.067394
163227.707038,-1480.411884,-8660.409521,-2374.896044
163227.707356,-74.020594,-8882.471304,-2528.115143
163227.707675,-2516.700203,-9474.636058,-3753.867940
163227.707993,-3034.844362,-7994.224174,-4903.011187
163227.708312,-74.020594,-10658.965565,-689.485948
163227.708630,592.164754,-8956.491898,0.000000
163227.708949,3182.885551,-9400.615463,1532.190996
163227.709267,3330.926739,-8956.491898,2374.896044
163227.709586,1406.391290,-10584.944971,1915.238745
163227.709904,-592.164754,-11029.068536,1838.629195
163227.710223,-814.226536,-11843.295072,1149.143247
163227.710541,-962.267725,-11251.130318,1149.143247
163227.710860,0.000000,-7772.162391,612.876398
163227.711178,2368.659014,-7179.997637,1532.190996
163227.711497,3478.967927,-5921.647536,-76.609550
163227.711815,888.247130,-5551.544565,0.000000
163227.712134,-2442.679609,-6957.935855,-2528.115143
163227.712452,-5107.421000,-8364.327145,-4366.744339
163227.712771,-4811.338623,-11251.130318,-3753.867940
163227.713089,-1406.391290,-13619.789333,-76.609550
163227.713408,-74.020594,-12435.459826,1608.800546
163227.713726,518.144159,-9474.636058,-689.485948
163227.714045,0.000000,-9548.656652,612.876398
163227.714364,0.000000,-10732.986159,2451.505594
163227.714682,-2590.720797,-9548.656652,306.438199
163227.715001,-518.144159,-10288.862594,2911.162892
163227.715319,296.082377,-8660.409521,2528.115143
163227.715638,1480.411884,-7624.121203,2145.067394
163227.715956,2294.638420,-7105.977043,1149.143247
163227.716275,-74.020594,-6883.915261,-1225.752797
163227.716593,-3034.844362,-9474.636058,-3753.867940
163227.716912,-7920.203579,-9696.697840,-7431.126331
163227.717230,-8660.409521,-10732.986159,-8120.612279
163227.717549,-3552.988522,-14656.077652,-2604.724693
163227.717867,-1480.411884,-11325.150913,-1225.752797
163227.718186,2590.720797,-10510.924376,2374.896044
163227.718504,3775.050304,-8364.327145,4290.134789
163227.718823,3552.988522,-7698.141797,4673.182538
163227.719141,3182.885551,-7402.059420,4903.011187
163227.719460,2368.659014,-8216.285956,4826.401637
163227.719778,2590.720797,-7105.977043,4826.401637
163227.720097,518.144159,-5403.503377,76.609550
163227.720415,0.000000,-7476.080014,0.000000
163227.720734,-74.020594,-9474.636058,-1915.238745
163227.721052,-5625.565159,-9400.615463,-4903.011187
163227.721371,-7476.080014,-10807.006753,-6818.249932
163227.721689,-6439.791695,-11621.233289,-6435.202183
163227.722008,-1258.350101,-12287.418637,-1915.238745
163227.722326,3034.844362,-10658.965565,1838.629195
163227.722645,5255.462188,-8290.306550,3677.258390
163227.722963,7031.956449,-8290.306550,4826.401637
163227.723282,2960.823768,-6883.915261,2451.505594
163227.723600,0.000000,-8364.327145,612.876398
163227.723919,-74.020594,-10362.883188,-76.609550
163227.724237,-1480.411884,-11769.274478,919.314598
163227.724556,-888.247130,-11029.068536,-383.047749
163227.724874,0.000000,-10140.821405,-689.485948
163227.725193,2294.638420,-11843.295072,-76.609550
163227.725511,1110.308913,-9474.636058,-1838.629195
163227.725830,-1258.350101,-9474.636058,-2528.115143
163227.726148,-2442.679609,-9474.636058,-3753.867940
163227.726467,-1850.514855,-7402.059420,-4366.744339
163227.726785,1184.329507,-8956.491898,1838.629195
163227.727104,1776.494261,-7846.182985,1072.533697
163227.727422,3404.947333,-8438.347739,2834.553343
163227.727741,2146.597232,-9696.697840,2374.896044
163227.728059,222.061783,-11029.068536,2145.067394
163227.728378,-74.020594,-11843.295072,1762.019645
163227.728696,-296.082377,-12213.398043,2911.162892
163227.729015,814.226536,-10066.800811,2068.457845
163227.729333,1998.556043,-9474.636058,-76.609550
163227.729652,148.041188,-5699.585753,-1532.190996
163227.729970,1702.473667,-9474.636058,-76.609550
163227.730289,-3108.864956,-6587.832884,-3524.039291
163227.730607,-5033.400406,-8438.347739,-5286.058936
163227.730926,-5625.565159,-9548.656652,-5439.278036
163227.731244,-2960.823768,-10732.986159,-2451.505594
163227.731563,666.185348,-10140.821405,0.000000
163227.731881,2516.700203,-10658.965565,1072.533697
163227.732200,2072.576638,-11843.295072,1762.019645
163227.732518,-296.082377,-10140.821405,76.609550
163227.732837,-2368.659014,-9548.656652,0.000000
163227.733155,1110.308913,-11547.212695,2834.553343
163227.733474,1184.329507,-8956.491898,3064.381992
163227.733792,2220.617826,-7772.162391,2681.334243
163227.734111,2516.700203,-6439.791695,1838.629195
163227.734429,2220.617826,-8586.388927,1762.019645
163227.734748,-2664.741391,-8216.285956,-2757.943793
163227.735066,-4811.338623,-11843.295072,-3753.867940
163227.735385,-5995.668130,-11843.295072,-6205.373534
163227.735703,-6365.771101,-11325.150913,-5515.887586
163227.736022,-3552.988522,-9548.656652,0.000000
163227.736340,1110.308913,-9918.759623,842.705048
163227.736659,2146.597232,-9104.533087,3140.991542
163227.736977,1850.514855,-9030.512492,3677.258390
163227.737296,1184.329507,-8438.347739,4366.744339
163227.737614,2294.638420,-9474.636058,4826.401637
163227.737933,2072.576638,-9252.574275,5822.325785
163227.738252,2886.803174,-8882.471304,1762.019645
163227.738570,592.164754,-7179.997637,0.000000
163227.738889,-2738.761985,-7179.997637,-2451.505594
163227.739207,-5921.647536,-7179.997637,-6128.763984
163227.739526,-6291.750507,-11029.068536,-6665.030833
163227.739844,-6735.874072,-11769.274478,-6894.859482
163227.740163,-3256.906145,-11251.130318,-4290.134789
163227.740481,1998.556043,-8660.409521,-1302.362347
163227.740800,4811.338623,-7624.121203,2451.505594
163227.741118,7105.977043,-7476.080014,4903.011187
163227.741437,5847.626942,-7846.182985,4826.401637
163227.741755,592.164754,-6587.832884,2145.067394
163227.742074,0.000000,-10140.821405,3677.258390
163227.742392,-666.185348,-10214.842000,612.876398
163227.742711,-592.164754,-10658.965565,1225.752797
163227.743029,296.082377,-9770.718434,-76.609550
163227.743348,0.000000,-8882.471304,-1455.581446
163227.743666,-74.020594,-9474.636058,-2528.115143
163227.743985,-4219.173869,-8734.430116,-4596.572988
163227.744303,-5181.441594,-9178.553681,-4979.620737
163227.744622,-4737.318029,-7476.080014,-4903.011187
163227.744940,296.082377,-9548.656652,-306.438199
163227.745259,0.000000,-6291.750507,153.219100
163227.745577,2220.617826,-7624.121203,1455.581446
163227.745896,1924.535449,-9178.553681,2528.115143
163227.746214,0.000000,-10140.821405,1532.190996
163227.746533,-1850.514855,-11177.109724,0.000000
163227.746851,-1258.350101,-10362.883188,-76.609550
163227.747170,0.000000,-9844.739029,689.485948
163227.747488,1406.391290,-8438.347739,612.876398
163227.747807,1702.473667,-7698.141797,153.219100
163227.748126,1702.473667,-8290.306550,-689.485948
163227.748444,-2368.659014,-7179.997637,-2145.067394
163227.748763,-2442.679609,-9918.759623,-3524.039291
163227.749081,-3627.009116,-9474.636058,-3753.867940
163227.749400,-4441.235652,-8068.244768,-4290.134789
163227.749718,0.000000,-8956.491898,0.000000
163227.750037,1628.453072,-8364.327145,0.000000
163227.750356,2146.597232,-10066.800811,1762.019645
163227.750674,444.123565,-10510.924376,1991.848295
163227.750993,-370.102971,-10658.965565,2451.505594
163227.751311,518.144159,-10214.842000,2451.505594
163227.751630,222.061783,-8956.491898,3064.381992
163227.751949,2146.597232,-8290.306550,3064.381992
163227.752267,3478.967927,-7105.977043,1762.019645
163227.752586,-1776.494261,-5995.668130,-1838.629195
163227.752904,-2442.679609,-10362.883188,-1915.238745
163227.753223,-7772.162391,-9400.615463,-6665.030833
163227.753541,-8142.265362,-11325.150913,-7507.735880
163227.753860,-6439.791695,-11991.336260,-6128.763984
163227.754179,-2960.823768,-12139.377449,-919.314598
163227.754497,0.000000,-9548.656652,612.876398
163227.754816,3034.844362,-9474.636058,4826.401637
163227.755134,4367.215058,-8882.471304,3600.648841
163227.755453,1332.370696,-7328.038826,3677.258390
163227.755771,1850.514855,-7179.997637,3064.381992
163227.756090,4071.132681,-7105.977043,3600.648841
163227.756409,2516.700203,-7772.162391,1762.019645
163227.756727,2294.638420,-8216.285956,995.924147
163227.757046,222.061783,-8660.409521,-1608.800546
163227.757364,-1850.514855,-11251.130318,-2528.115143
163227.757683,-5033.400406,-11621.233289,-5822.325785
163227.758001,-5329.482782,-12583.501014,-5362.668486
163227.758320,-2442.679609,-11843.295072,-3753.867940
163227.758639,1702.473667,-9474.636058,-76.609550
163227.758957,2368.659014,-6587.832884,3677.258390
163227.759276,4959.379811,-6217.729913,3600.648841
163227.759594,4811.338623,-7179.997637,4443.353888
163227.759913,2590.720797,-8438.347739,3370.820191
163227.760231,148.041188,-10732.986159,2221.676944
163227.760550,-962.267725,-12435.459826,1915.238745
163227.760869,-1776.494261,-11177.109724,766.095498
163227.761187,-370.102971,-10807.006753,-536.266849
163227.761506,-74.020594,-11843.295072,-76.609550
163227.761824,-666.185348,-9474.636058,-3753.867940
163227.762143,-3552.988522,-10140.821405,-3294.210641
163227.762461,-5403.503377,-8512.368333,-6205.373534
163227.762780,-3182.885551,-9770.718434,-4826.401637
163227.763099,296.082377,-9992.780217,-1685.410096
163227.763417,3478.967927,-8512.368333,1838.629195
163227.763736,3552.988522,-7179.997637,2757.943793
163227.764054,4145.153275,-9918.759623,4213.525239
163227.764373,1702.473667,-10658.965565,2374.896044
163227.764691,-1776.494261,-9548.656652,766.095498
163227.765010,-1184.329507,-9548.656652,0.000000
163227.765329,3182.885551,-11843.295072,3600.648841
163227.765647,2368.659014,-8364.327145,1225.752797
163227.765966,2368.659014,-7402.059420,1072.533697
163227.766284,814.226536,-6735.874072,-536.266849
163227.766603,-1480.411884,-7179.997637,-612.876398
163227.766922,-4737.318029,-8364.327145,-4443.353888
163227.767240,-4737.318029,-9548.656652,-3370.820191
163227.767559,-1850.514855,-11547.212695,-1915.238745
163227.767877,-962.267725,-9030.512492,-383.047749
163227.768196,0.000000,-7179.997637,0.000000
163227.768514,1406.391290,-10066.800811,1149.143247
163227.768833,-518.144159,-10807.006753,1225.752797
163227.769152,-1184.329507,-10881.027347,2145.067394
163227.769470,-1332.370696,-10955.047942,2451.505594
163227.769789,1998.556043,-11251.130318,4213.525239
163227.770107,1184.329507,-7772.162391,2451.505594
163227.770426,2294.638420,-7698.141797,842.705048
163227.770744,0.000000,-5995.668130,-1685.410096
163227.771063,-5107.421000,-6587.832884,-4903.011187
163227.771382,-6513.812290,-9548.656652,-4903.011187
163227.771700,-7105.977043,-11251.130318,-7431.126331
163227.772019,-5255.462188,-12361.439231,-5439.278036
163227.772337,-1332.370696,-12213.398043,-1685.410096
163227.772656,1776.494261,-10214.842000,306.438199
163227.772974,3775.050304,-9178.553681,2451.505594
163227.773293,3552.988522,-9030.512492,5975.544884
163227.773612,3478.967927,-8808.450710,6128.763984
163227.773930,4663.297435,-8882.471304,4826.401637
163227.774249,1332.370696,-5625.565159,3907.087040
163227.774567,3849.070898,-8290.306550,4749.792088
163227.774886,1110.308913,-7328.038826,459.657299
163227.775204,-1258.350101,-8512.368333,-1838.629195
163227.775523,-4367.215058,-9104.533087,-4903.011187
163227.775842,-8290.306550,-9548.656652,-6741.640382
163227.776160,-8734.430116,-11029.068536,-7967.393179
163227.776479,-4737.318029,-11177.109724,-6741.640382
163227.776797,592.164754,-10658.965565,-76.609550
163227.777116,4663.297435,-8882.471304,2068.457845
163227.777434,5033.400406,-5551.544565,1302.362347
163227.777753,6439.791695,-8586.388927,4213.525239
163227.778072,2516.700203,-8586.388927,2987.772442
163227.778390,370.102971,-10658.965565,1762.019645
163227.778709,-962.267725,-11325.150913,995.924147
163227.779027,-296.082377,-12731.542202,1685.410096
163227.779346,-666.185348,-10584.944971,-2451.505594
163227.779664,2294.638420,-11843.295072,-76.609550
163227.779983,-370.102971,-9030.512492,-2987.772442
163227.780302,-2960.823768,-7772.162391,-6741.640382
163227.780620,-4219.173869,-7920.203579,-7048.078582
163227.780939,-1850.514855,-9104.533087,-2911.162892
163227.781257,592.164754,-8364.327145,-919.314598
163227.781576,3182.885551,-7994.224174,2451.505594
163227.781895,4145.153275,-7698.141797,3600.648841
163227.782213,3108.864956,-8364.327145,3600.648841
163227.782532,1480.411884,-10362.883188,3524.039291
163227.782850,-740.205942,-11399.171507,2374.896044
163227.783169,-74.020594,-13619.789333,3600.648841
163227.783487,-1850.514855,-9548.656652,0.000000
163227.783806,-1776.494261,-7328.038826,0.000000
163227.784125,222.061783,-7476.080014,0.000000
163227.784443,0.000000,-6735.874072,-1302.362347
163227.784762,-2072.576638,-6365.771101,-2451.505594
163227.785080,-3627.009116,-7698.141797,-5592.497135
163227.785399,-5329.482782,-8660.409521,-4903.011187
163227.785717,-3552.988522,-9844.739029,-3370.820191
163227.786036,1702.473667,-12435.459826,-76.609550
163227.786355,2886.803174,-10658.965565,-76.609550
163227.786673,0.000000,-7772.162391,0.000000
163227.786992,518.144159,-10658.965565,842.705048
163227.787310,-518.144159,-11695.253884,1838.629195
163227.787629,-148.041188,-11843.295072,2528.115143
163227.787947,1036.288319,-10362.883188,3217.601092
163227.788266,4663.297435,-8882.471304,3600.648841
163227.788585,1776.494261,-6143.709319,2068.457845
163227.788903,1480.411884,-6439.791695,229.828649
163227.789222,-2738.761985,-5995.668130,-3294.210641
163227.789540,-4219.173869,-9474.636058,-3753.867940
163227.789859,-7179.997637,-11103.089130,-6511.811733
163227.790177,-3627.009116,-14211.954086,-4366.744339
163227.790496,-2368.659014,-12213.398043,-1915.238745
163227.790815,-370.102971,-10658.965565,-76.609550
163227.791133,592.164754,-8364.327145,1685.410096
163227.791452,2072.576638,-8586.388927,5056.230287
163227.791770,2294.638420,-8808.450710,4366.744339
163227.792089,1184.329507,-8512.368333,3983.696590
163227.792407,1480.411884,-7550.100608,2911.162892
163227.792726,0.000000,-4811.338623,306.438199
163227.793045,2294.638420,-7698.141797,229.828649
163227.793363,-2368.659014,-5995.668130,-3677.258390
163227.793682,-2664.741391,-10066.800811,-3677.258390
163227.794000,-6217.729913,-11325.150913,-5515.887586
163227.794319,-6587.832884,-13027.624579,-7431.126331
163227.794637,-2590.720797,-14211.954086,-4979.620737
163227.794956,222.061783,-10510.924376,-1915.238745
163227.795275,5255.462188,-8660.409521,2681.334243
163227.795593,7179.997637,-7254.018232,4903.011187
163227.795912,5921.647536,-6587.832884,3983.696590
163227.796230,4589.276840,-9030.512492,4903.011187
163227.796549,1702.473667,-9548.656652,3217.601092
163227.796868,1702.473667,-12731.542202,4443.353888
163227.797186,-74.020594,-10658.965565,-76.609550
163227.797505,-3552.988522,-8364.327145,-2451.505594
163227.797823,0.000000,-8364.327145,0.000000
163227.798142,-592.164754,-8290.306550,-1915.238745
163227.798460,-2960.823768,-8216.285956,-3370.820191
163227.798779,-4145.153275,-8438.347739,-4136.915689
163227.799098,-4515.256246,-8734.430116,-4060.306139
163227.799416,296.082377,-7994.224174,-153.219100
163227.799735,2368.659014,-5995.668130,1838.629195
163227.800053,4145.153275,-7179.997637,4596.572988
163227.800372,4663.297435,-9474.636058,4519.963438
163227.800690,2886.803174,-10658.965565,2374.896044
163227.801009,-222.061783,-12139.377449,2068.457845
163227.801328,-1480.411884,-11621.233289,536.266849
163227.801646,-962.267725,-11177.109724,0.000000
163227.801965,370.102971,-10140.821405,0.000000
163227.802283,1998.556043,-9474.636058,1149.143247
163227.802602,222.061783,-6587.832884,-1838.629195
163227.802920,-1998.556043,-5995.668130,-4903.011187
163227.803239,-4145.153275,-7772.162391,-3983.696590
163227.803558,-3256.906145,-9178.553681,-3217.601092
163227.803876,-3849.070898,-7179.997637,-4903.011187
163227.804195,1110.308913,-9474.636058,459.657299
163227.804513,2368.659014,-9178.553681,1685.410096
163227.804832,2368.659014,-9400.615463,1838.629195
163227.805150,592.164754,-10066.800811,1149.143247
163227.805469,-74.020594,-11843.295072,-76.609550
163227.805788,-1258.350101,-12435.459826,1762.019645
163227.806106,-1258.350101,-10066.800811,1762.019645
163227.806425,0.000000,-8364.327145,2604.724693
163227.806743,2294.638420,-8882.471304,3600.648841
163227.807062,0.000000,-4811.338623,0.000000
163227.807380,-2294.638420,-6809.894666,-2298.286494
163227.807699,-5625.565159,-8068.244768,-4826.401637
163227.808018,-6957.935855,-10066.800811,-6818.249932
163227.808336,-7179.997637,-9696.697840,-7124.688131
163227.808655,-3627.009116,-13027.624579,-2528.115143
163227.808973,-2368.659014,-9548.656652,-1225.752797
163227.809292,2516.700203,-11177.109724,2374.896044
163227.809610,3034.844362,-11843.295072,4213.525239
163227.809929,3478.967927,-9474.636058,4826.401637
163227.810248,1628.453072,-9400.615463,4903.011187
163227.810566,1850.514855,-7920.203579,3524.039291
163227.810885,3034.844362,-6809.894666,3140.991542
163227.811203,3478.967927,-7105.977043,1838.629195
163227.811522,1406.391290,-7179.997637,842.705048
163227.811841,-1258.350101,-8734.430116,-3140.991542
163227.812159,-6217.729913,-8660.409521,-6358.592633
163227.812478,-8290.306550,-9548.656652,-7967.393179
163227.812796,-4663.297435,-12065.356855,-4290.134789
163227.813115,-666.185348,-9696.697840,-3753.867940
163227.813433,3775.050304,-9326.594869,2221.676944
163227.813752,5847.626942,-7920.203579,3677.258390
163227.814071,5551.544565,-7698.141797,4443.353888
163227.814389,3182.885551,-9474.636058,4519.963438
163227.814708,814.226536,-10658.965565,3600.648841
163227.815026,-1110.308913,-10881.027347,2068.457845
163227.815345,-1850.514855,-9178.553681,-995.924147
163227.815663,-592.164754,-10732.986159,766.095498
163227.815982,1184.329507,-10584.944971,766.095498
163227.816301,-3552.988522,-7179.997637,-4290.134789
163227.816619,-3627.009116,-9622.677246,-4826.401637
163227.816938,-4959.379811,-9326.594869,-5745.716235
163227.817256,-4071.132681,-10066.800811,-4903.011187
163227.817575,-74.020594,-10362.883188,-3140.991542
163227.817893,2886.803174,-9474.636058,2374.896044
163227.818212,4663.297435,-8882.471304,2987.772442
163227.818531,2368.659014,-7179.997637,2757.943793
163227.818849,2960.823768,-9548.656652,1838.629195
163227.819168,2294.638420,-12731.542202,4826.401637
163227.819486,-1184.329507,-10140.821405,1838.629195
163227.819805,148.041188,-10436.903782,1762.019645
163227.820123,1998.556043,-8956.491898,1762.019645
163227.820442,2442.679609,-7550.100608,766.095498
163227.820761,666.185348,-6069.688724,-383.047749
163227.821079,-74.020594,-8882.471304,-689.485948
163227.821398,-3330.926739,-7698.141797,-4443.353888
163227.821716,-5625.565159,-8364.327145,-7354.516781
163227.822035,-2960.823768,-10732.986159,-2528.115143
163227.822353,-74.020594,-10658.965565,-2528.115143
163227.822672,592.164754,-9844.739029,459.657299
163227.822991,1702.473667,-9770.718434,689.485948
163227.823309,0.000000,-10584.944971,919.314598
163227.823628,-1258.350101,-13915.871710,1762.019645
163227.823946,-1998.556043,-12213.398043,2374.896044
163227.824265,-814.226536,-9992.780217,1455.581446
163227.824583,74.020594,-8142.265362,1149.143247
163227.824902,0.000000,-5995.668130,459.657299
163227.825221,0.000000,-5995.668130,0.000000
163227.825539,-1850.514855,-5773.606348,-3217.601092
163227.825858,-4515.256246,-8808.450710,-4903.011187
163227.826176,-7031.956449,-10362.883188,-6665.030833
163227.826495,-5699.585753,-11325.150913,-5515.887586
163227.826814,-666.185348,-13027.624579,-2528.115143
163227.827132,1110.308913,-11695.253884,-76.609550
163227.827451,1850.514855,-9474.636058,1762.019645
163227.827769,2294.638420,-8364.327145,2987.772442
163227.828088,1776.494261,-8216.285956,4290.134789
163227.828406,2664.741391,-9252.574275,7660.954980
163227.828725,1184.329507,-6143.709319,3830.477490
163227.829044,2812.782580,-6587.832884,4060.306139
163227.829362,2812.782580,-6735.874072,2068.457845
163227.829681,1480.411884,-7476.080014,0.000000
163227.829999,-3034.844362,-7105.977043,-4979.620737
163227.830318,-6587.832884,-11843.295072,-5286.058936
163227.830636,-8660.409521,-11251.130318,-8350.440928
163227.830955,-7698.141797,-11621.233289,-7354.516781
163227.831274,-3552.988522,-10140.821405,-2451.505594
163227.831592,296.082377,-9548.656652,2451.505594
163227.831911,4293.194464,-8512.368333,2374.896044
163227.832229,4441.235652,-8364.327145,3294.210641
163227.832548,3182.885551,-8364.327145,3064.381992
163227.832866,0.000000,-8364.327145,1225.752797
163227.833185,888.247130,-9252.574275,3064.381992
163227.833504,1036.288319,-11103.089130,2374.896044
163227.833822,74.020594,-9770.718434,229.828649
163227.834141,-1776.494261,-7179.997637,-2451.505594
163227.834459,296.082377,-10732.986159,383.047749
163227.834778,-4737.318029,-8364.327145,-4903.011187
163227.835096,-4737.318029,-9622.677246,-5515.887586
163227.835415,-4145.153275,-10214.842000,-4979.620737
163227.835734,-370.102971,-9770.718434,-1915.238745
163227.836052,2590.720797,-7624.121203,-1149.143247
163227.836371,4663.297435,-8438.347739,4060.306139
163227.836689,3701.029710,-7402.059420,4366.744339
163227.837008,2294.638420,-7920.203579,3907.087040
163227.837326,666.185348,-9622.677246,2681.334243
163227.837645,-74.020594,-11843.295072,3600.648841
163227.837964,-444.123565,-11843.295072,2374.896044
163227.838282,-2072.576638,-7772.162391,0.000000
163227.838601,1998.556043,-9178.553681,536.266849
163227.838919,814.226536,-7994.224174,-76.609550
163227.839238,-3552.988522,-5403.503377,-4290.134789
163227.839556,-3923.091493,-7994.224174,-4596.572988
163227.839875,-5255.462188,-9326.594869,-5515.887586
163227.840194,-3256.906145,-9844.739029,-4519.963438
163227.840512,-962.267725,-9178.553681,-2221.676944
163227.840831,2812.782580,-9104.533087,306.438199
163227.841149,4071.132681,-11251.130318,2374.896044
163227.841468,1702.473667,-10658.965565,1455.581446
163227.841787,-74.020594,-10362.883188,383.047749
163227.842105,-74.020594,-13027.624579,4826.401637
163227.842424,0.000000,-10732.986159,3677.258390
163227.842742,1628.453072,-9252.574275,3294.210641
163227.843061,2368.659014,-6957.935855,2528.115143
163227.843379,1998.556043,-5625.565159,1532.190996
163227.843698,-222.061783,-5773.606348,0.000000
163227.844017,-4145.153275,-7476.080014,-3600.648841
163227.844335,-5995.668130,-9474.636058,-4366.744339
163227.844654,-4811.338623,-11843.295072,-5592.497135
163227.844972,-4367.215058,-11473.192101,-4136.915689
163227.845291,-74.020594,-11251.130318,-1302.362347
163227.845609,296.082377,-10288.862594,1532.190996
163227.845928,370.102971,-9474.636058,2221.676944
163227.846247,592.164754,-9178.553681,3294.210641
163227.846565,592.164754,-8734.430116,4213.525239
163227.846884,1998.556043,-9474.636058,6052.154434
163227.847202,2294.638420,-7105.977043,3600.648841
163227.847521,1702.473667,-5329.482782,0.000000
163227.847839,0.000000,-7179.997637,0.000000
163227.848158,-1332.370696,-8660.409521,-1302.362347
163227.848477,-8290.306550,-7179.997637,-7354.516781
163227.848795,-7254.018232,-11843.295072,-7201.297681
163227.849114,-6143.709319,-12287.418637,-6894.859482
163227.849432,-2664.741391,-11917.315666,-3524.039291
163227.849751,2294.638420,-9474.636058,-689.485948
163227.850069,5847.626942,-7698.141797,1149.143247
163227.850388,3552.988522,-7179.997637,4290.134789
163227.850706,4293.194464,-8956.491898,4826.401637
163227.851025,3182.885551,-11251.130318,4826.401637
163227.851343,2294.638420,-10362.883188,4826.401637
163227.851662,888.247130,-9770.718434,3370.820191
163227.851980,2294.638420,-11251.130318,3370.820191
163227.852299,370.102971,-8882.471304,0.000000
163227.852617,-1332.370696,-7920.203579,-2374.896044
163227.852936,-4737.318029,-7772.162391,-5822.325785
163227.853254,-5403.503377,-9474.636058,-6511.811733
163227.853573,-6809.894666,-9548.656652,-6435.202183
163227.853891,-2960.823768,-9548.656652,-4903.011187
163227.854210,1776.494261,-9844.739029,689.485948
163227.854528,3478.967927,-6809.894666,76.609550
163227.854847,4367.215058,-8290.306550,4290.134789
163227.855165,2516.700203,-7994.224174,3140.991542
163227.855484,1036.288319,-9770.718434,2604.724693
163227.855802,-74.020594,-10658.965565,1991.848295
163227.856121,-1184.329507,-10362.883188,1149.143247
163227.856439,518.144159,-8882.471304,76.609550
163227.856758,1480.411884,-8660.409521,0.000000
163227.857077,1776.494261,-9104.533087,-76.609550
163227.857395,-74.020594,-8882.471304,-1302.362347
163227.857714,-4737.318029,-5403.503377,-4903.011187
163227.858032,-3330.926739,-9474.636058,-4596.572988
163227.858351,-1998.556043,-9474.636058,-3294.210641
163227.858669,1036.288319,-9696.697840,-766.095498
163227.858988,3404.947333,-7550.100608,1149.143247
163227.859306,3478.967927,-7698.141797,2068.457845
163227.859625,1480.411884,-8068.244768,229.828649
163227.859943,0.000000,-11325.150913,3064.381992
163227.860262,-148.041188,-12139.377449,2987.772442
163227.860580,-74.020594,-13027.624579,4213.525239
163227.860899,-2072.576638,-8956.491898,2451.505594
163227.861217,444.123565,-7402.059420,1608.800546
163227.861536,222.061783,-5625.565159,383.047749
163227.861854,-1702.473667,-6439.791695,-1991.848295
163227.862173,-6809.894666,-5107.421000,-5515.887586
163227.862491,-7031.956449,-9474.636058,-5592.497135
163227.862810,-7328.038826,-9548.656652,-7354.516781
163227.863128,-4737.318029,-11177.109724,-4136.915689
163227.863447,-74.020594,-14063.912898,-76.609550
163227.863765,1702.473667,-10658.965565,-76.609550
163227.864084,666.185348,-10140.821405,2145.067394
163227.864402,888.247130,-9918.759623,2528.115143
163227.864721,666.185348,-9474.636058,3447.429741
163227.865039,1406.391290,-8660.409521,4519.963438
163227.865358,1776.494261,-5995.668130,2451.505594
163227.865677,5033.400406,-8068.244768,4979.620737
163227.865995,3182.885551,-6217.729913,229.828649
163227.866314,-1110.308913,-6809.894666,-2528.115143
163227.866632,-5921.647536,-7772.162391,-4903.011187
163227.866951,-5403.503377,-11251.130318,-5592.497135
163227.867269,-6439.791695,-12583.501014,-6128.763984
163227.867588,-3627.009116,-11547.212695,-3447.429741
163227.867906,962.267725,-9992.780217,0.000000
163227.868225,4663.297435,-10066.800811,4749.792088
163227.868543,4959.379811,-9918.759623,4136.915689
163227.868862,3478.967927,-9178.553681,3753.867940
163227.869180,814.226536,-9474.636058,3600.648841
163227.869499,-2368.659014,-7772.162391,2451.505594
163227.869817,0.000000,-8364.327145,612.876398
163227.870136,-74.020594,-8734.430116,-76.609550
163227.870454,444.123565,-9400.615463,-306.438199
163227.870773,-1036.288319,-8734.430116,-2374.896044
163227.871091,-3701.029710,-9104.533087,-4749.792088
163227.871410,-3627.009116,-11843.295072,-4979.620737
163227.871728,-4219.173869,-11843.295072,-5898.935335
163227.872047,-74.020594,-13027.624579,-1302.362347
163227.872365,1702.473667,-9474.636058,-1302.362347
163227.872684,3552.988522,-8364.327145,2604.724693
163227.873002,5329.482782,-8364.327145,5822.325785
163227.873321,3108.864956,-7179.997637,3217.601092
163227.873639,2220.617826,-9474.636058,3370.820191
163227.873958,740.205942,-10658.965565,3064.381992
163227.874277,592.164754,-10288.862594,2528.115143
163227.874595,2294.638420,-9474.636058,1149.143247
163227.874914,3478.967927,-10658.965565,2374.896044
163227.875232,1998.556043,-7994.224174,-229.828649
163227.875551,-2072.576638,-6883.915261,-2834.553343
163227.875869,-5921.647536,-5403.503377,-4903.011187
163227.876188,-5921.647536,-7772.162391,-4903.011187
163227.876506,-3627.009116,-9696.697840,-4443.353888
163227.876825,-1406.391290,-9696.697840,-1991.848295
163227.877143,888.247130,-8882.471304,0.000000
163227.877462,296.082377,-7476.080014,0.000000
163227.877780,592.164754,-9548.656652,1225.752797
163227.878099,-592.164754,-11621.233289,2451.505594
163227.878417,-1554.432478,-12139.377449,2374.896044
163227.878736,-1850.514855,-10362.883188,536.266849
163227.879054,0.000000,-9548.656652,2451.505594
163227.879373,0.000000,-6883.915261,842.705048
163227.879691,1332.370696,-6513.812290,612.876398
163227.880010,-592.164754,-6439.791695,-1455.581446
163227.880328,-3552.988522,-7476.080014,-3907.087040
163227.880647,-5107.421000,-8586.388927,-6358.592633
163227.880965,-5699.585753,-10658.965565,-6281.983084
163227.881284,-3849.070898,-10732.986159,-6128.763984
163227.881602,-74.020594,-12583.501014,-76.609550
163227.881921,1554.432478,-10658.965565,1149.143247
163227.882239,0.000000,-8364.327145,1838.629195
163227.882558,1258.350101,-9474.636058,3217.601092
163227.882877,814.226536,-9400.615463,4366.744339
163227.883195,1554.432478,-8512.368333,4749.792088
163227.883514,2516.700203,-6587.832884,2451.505594
163227.883832,4663.297435,-7105.977043,2374.896044
163227.884151,2590.720797,-6217.729913,919.314598
163227.884469,-666.185348,-7476.080014,-1608.800546
163227.884788,-5403.503377,-9030.512492,-4979.620737
163227.885106,-7179.997637,-11547.212695,-6741.640382
163227.885425,-7179.997637,-13027.624579,-7277.907231
163227.885743,-5329.482782,-11917.315666,-4903.011187
163227.886062,518.144159,-11399.171507,0.000000
163227.886380,4663.297435,-9474.636058,3600.648841
163227.886699,2368.659014,-5995.668130,3064.381992
163227.887017,3775.050304,-8290.306550,3294.210641
163227.887336,2294.638420,-9104.533087,3600.648841
163227.887654,1110.308913,-9400.615463,2987.772442
163227.887973,666.185348,-9178.553681,2145.067394
163227.888291,1258.350101,-9252.574275,1149.143247
163227.888610,2220.617826,-9104.533087,536.266849
163227.888928,814.226536,-9400.615463,-1225.752797
163227.889247,-666.185348,-11251.130318,-3753.867940
163227.889565,-5551.544565,-9696.697840,-6818.249932
163227.889884,-4737.318029,-11325.150913,-4443.353888
163227.890202,-2368.659014,-10288.862594,-3753.867940
163227.890521,2072.576638,-9844.739029,153.219100
163227.890839,4663.297435,-8438.347739,3524.039291
163227.891158,4959.379811,-7179.997637,3677.258390
163227.891477,2664.741391,-5995.668130,2451.505594
163227.891795,1406.391290,-8364.327145,612.876398
163227.892114,592.164754,-11547.212695,4213.525239
163227.892432,-370.102971,-9474.636058,1455.581446
163227.892751,-74.020594,-8956.491898,-383.047749
163227.893069,3478.967927,-11843.295072,-76.609550
163227.893388,0.000000,-8364.327145,-1532.190996
163227.893706,-2072.576638,-8438.347739,-3140.991542
163227.894025,-4071.132681,-8660.409521,-4749.792088
163227.894343,-5329.482782,-9548.656652,-5515.887586
163227.894662,-4737.318029,-9548.656652,-5209.449386
163227.894980,-2368.659014,-7772.162391,-3064.381992
163227.895299,2220.617826,-8660.409521,1072.533697
163227.895617,4663.297435,-10658.965565,3600.648841
163227.895936,1332.370696,-7772.162391,0.000000
163227.896254,2146.597232,-11251.130318,2374.896044
163227.896573,-1258.350101,-11769.274478,2374.896044
163227.896891,-1036.288319,-11769.274478,2374.896044
163227.897210,0.000000,-10362.883188,2451.505594
163227.897528,1776.494261,-8364.327145,2911.162892
163227.897847,222.061783,-6291.750507,612.876398
163227.898165,-1184.329507,-5995.668130,0.000000
163227.898484,-4737.318029,-6587.832884,-2451.505594
163227.898802,-4367.215058,-10214.842000,-4366.744339
163227.899121,-7105.977043,-8660.409521,-6128.763984
163227.899439,-3627.009116,-10807.006753,-3753.867940
163227.899758,-1258.350101,-11251.130318,-1072.533697
163227.900077,370.102971,-10214.842000,1302.362347
163227.900395,444.123565,-9548.656652,0.000000
163227.900714,0.000000,-9252.574275,766.095498
163227.901032,-1184.329507,-9696.697840,2451.505594
163227.901351,0.000000,-9548.656652,4903.011187
163227.901669,2886.803174,-9474.636058,3600.648841
163227.901988,2294.638420,-7105.977043,1149.143247
163227.902306,3108.864956,-8068.244768,2145.067394
163227.902625,74.020594,-7105.977043,-2374.896044
163227.902943,-3997.112087,-9178.553681,-4596.572988
163227.903262,-6809.894666,-10510.924376,-6588.421283
163227.903580,-8882.471304,-10732.986159,-7048.078582
163227.903899,-5921.647536,-10140.821405,-4903.011187
163227.904217,0.000000,-8364.327145,0.000000
163227.904536,6069.688724,-9992.780217,3830.477490
163227.904854,5847.626942,-7994.224174,4213.525239
163227.905173,4663.297435,-6587.832884,2221.676944
163227.905491,4071.132681,-9474.636058,4519.963438
163227.905810,888.247130,-9400.615463,3294.210641
163227.906128,592.164754,-9770.718434,2374.896044
163227.906447,518.144159,-9326.594869,1378.971896
163227.906765,1184.329507,-8660.409521,612.876398
163227.907084,-2368.659014,-6291.750507,-2681.334243
163227.907402,-4145.153275,-8364.327145,-4749.792088
163227.907721,-5329.482782,-9326.594869,-7354.516781
163227.908039,-4441.235652,-11177.109724,-4979.620737
163227.908358,-4737.318029,-7772.162391,-4903.011187
163227.908676,1406.391290,-10066.800811,-995.924147
163227.908995,3552.988522,-8882.471304,1991.848295
163227.909314,3701.029710,-8364.327145,2987.772442
163227.909632,2368.659014,-7179.997637,2145.067394
163227.909951,1036.288319,-9548.656652,1149.143247
163227.910269,-1776.494261,-10140.821405,1838.629195
163227.910588,-74.020594,-11695.253884,1991.848295
163227.910906,1998.556043,-9474.636058,-76.609550
163227.911225,1406.391290,-8882.471304,1149.143247
163227.911543,1184.329507,-8364.327145,0.000000
163227.911862,-74.020594,-7994.224174,-2221.676944
163227.912180,-2442.679609,-8216.285956,-3447.429741
163227.912499,-3627.009116,-9104.533087,-4136.915689
163227.912817,-4145.153275,-7476.080014,-4903.011187
163227.913136,-888.247130,-8068.244768,-1225.752797
163227.913454,2368.659014,-8290.306550,1225.752797
163227.913773,4663.297435,-9474.636058,3294.210641
163227.914091,1702.473667,-8882.471304,1149.143247
163227.914410,-74.020594,-11843.295072,2374.896044
163227.914728,-1184.329507,-12361.439231,2757.943793
163227.915047,-2442.679609,-10732.986159,1991.848295
163227.915365,-1258.350101,-9474.636058,2145.067394
163227.915684,0.000000,-7698.141797,1838.629195
163227.916002,0.000000,-5995.668130,1225.752797
163227.916321,-1258.350101,-5403.503377,-3370.820191
163227.916639,-4737.318029,-7179.997637,-3677.258390
163227.916958,-4811.338623,-9918.759623,-5286.058936
163227.917276,-7476.080014,-8660.409521,-8350.440928
163227.917595,-2442.679609,-13619.789333,-2528.115143
163227.917914,-2368.659014,-11325.150913,-2604.724693
163227.918232,74.020594,-11325.150913,383.047749
163227.918551,592.164754,-10881.027347,1302.362347
163227.918869,2220.617826,-11103.089130,3983.696590
163227.919188,0.000000,-9770.718434,3600.648841
163227.919506,2886.803174,-8882.471304,3600.648841
163227.919825,2960.823768,-7179.997637,4290.134789
163227.920143,6069.688724,-8364.327145,6128.763984
163227.920462,5847.626942,-7105.977043,2374.896044
163227.920780,1924.535449,-8512.368333,-76.609550
