#time,accel_x,accel_y,accel_z
163515.563166,1184.329507,-9622.677246,1532.190996
163515.563486,1406.391290,-9178.553681,1149.143247
163515.563806,2294.638420,-8882.471304,-383.047749
163515.564125,0.000000,-7179.997637,0.000000
163515.564445,-74.020594,-9474.636058,536.266849
163515.564765,-888.247130,-9400.615463,-306.438199
163515.565085,-1184.329507,-9252.574275,-383.047749
163515.565404,-1184.329507,-8364.327145,-536.266849
163515.565724,-1184.329507,-8512.368333,-76.609550
163515.566044,-1924.535449,-8660.409521,-842.705048
163515.566364,-1776.494261,-8364.327145,-2451.505594
163515.566683,888.247130,-10658.965565,-76.609550
163515.567003,-74.020594,-10066.800811,1378.971896
163515.567323,-3552.988522,-7179.997637,0.000000
163515.567643,-222.061783,-9474.636058,-306.438199
163515.567962,-814.226536,-9400.615463,-536.266849
163515.568282,-740.205942,-9326.594869,-612.876398
163515.568602,-74.020594,-9474.636058,-689.485948
163515.568921,814.226536,-10362.883188,-76.609550
163515.569241,740.205942,-10658.965565,-76.609550
163515.569561,-1184.329507,-7179.997637,-1685.410096
163515.569881,0.000000,-9252.574275,0.000000
163515.570200,1480.411884,-10436.903782,2757.943793
163515.570520,0.000000,-7920.203579,0.000000
163515.570840,1036.288319,-9252.574275,229.828649
163515.571160,370.102971,-9474.636058,0.000000
163515.571479,0.000000,-9400.615463,-383.047749
163515.571799,-74.020594,-9474.636058,-76.609550
163515.572119,0.000000,-9548.656652,1225.752797
163515.572439,-74.020594,-10658.965565,-76.609550
163515.572758,-740.205942,-9770.718434,-76.609550
163515.573078,-3404.947333,-7254.018232,-1225.752797
163515.573398,-2442.679609,-6661.853478,-2451.505594
163515.573718,-296.082377,-9104.533087,-383.047749
163515.574037,-592.164754,-8956.491898,0.000000
163515.574357,-592.164754,-9252.574275,-383.047749
163515.574677,-74.020594,-11251.130318,-76.609550
163515.574997,-592.164754,-10066.800811,-1532.190996
163515.575316,-1332.370696,-9548.656652,-1762.019645
163515.575636,-814.226536,-10140.821405,0.000000
163515.575956,-74.020594,-11251.130318,-76.609550
163515.576275,-74.020594,-9474.636058,-2528.115143
163515.576595,1702.473667,-10362.883188,-76.609550
163515.576915,370.102971,-9104.533087,-459.657299
163515.577235,814.226536,-8808.450710,76.609550
163515.577554,666.185348,-9252.574275,306.438199
163515.577874,0.000000,-8364.327145,1225.752797
163515.578194,74.020594,-9474.636058,-76.609550
163515.578514,74.020594,-9326.594869,306.438199
163515.578833,0.000000,-9474.636058,0.000000
163515.579153,0.000000,-9548.656652,-1532.190996
163515.579473,-74.020594,-8734.430116,-76.609550
163515.579793,1702.473667,-10658.965565,1149.143247
163515.580112,-74.020594,-9474.636058,-76.609550
163515.580432,-962.267725,-8512.368333,-689.485948
163515.580752,-74.020594,-10658.965565,1455.581446
163515.581072,-2368.659014,-7772.162391,306.438199
163515.581391,-962.267725,-9252.574275,-383.047749
163515.581711,-1258.350101,-9474.636058,-689.485948
163515.582031,-1702.473667,-9770.718434,-459.657299
163515.582350,-1406.391290,-9474.636058,-1532.190996
163515.582670,-1776.494261,-9696.697840,-1455.581446
163515.582990,-74.020594,-11177.109724,-76.609550
163515.583310,-1184.329507,-8956.491898,-3677.258390
163515.583629,592.164754,-9474.636058,612.876398
163515.583949,1184.329507,-11251.130318,1762.019645
163515.584269,0.000000,-8364.327145,-919.314598
163515.584589,444.123565,-9252.574275,-306.438199
163515.584908,296.082377,-8956.491898,-76.609550
163515.585228,592.164754,-9252.574275,-153.219100
163515.585548,0.000000,-7772.162391,0.000000
163515.585868,1184.329507,-9030.512492,0.000000
163515.586187,0.000000,-7179.997637,0.000000
163515.586507,1184.329507,-9474.636058,842.705048
163515.586827,1998.556043,-9844.739029,-76.609550
163515.587147,1776.494261,-10288.862594,2298.286494
163515.587466,1628.453072,-9104.533087,0.000000
163515.587786,1628.453072,-9474.636058,0.000000
163515.588106,1924.535449,-9104.533087,383.047749
163515.588425,148.041188,-7772.162391,0.000000
163515.588745,1258.350101,-7179.997637,-689.485948
163515.589065,3478.967927,-8290.306550,-1302.362347
163515.589385,2368.659014,-9548.656652,919.314598
163515.589704,4663.297435,-9992.780217,1838.629195
163515.590024,5847.626942,-10658.965565,-76.609550
163515.590344,3849.070898,-9548.656652,306.438199
163515.590664,4663.297435,-9548.656652,-766.095498
163515.590983,4071.132681,-9992.780217,-1532.190996
163515.591303,3775.050304,-9400.615463,-1608.800546
163515.591623,3775.050304,-8586.388927,-1838.629195
163515.591943,4737.318029,-8956.491898,-1225.752797
163515.592262,8216.285956,-9474.636058,-689.485948
163515.592582,7105.977043,-8364.327145,-2451.505594
163515.592902,7105.977043,-10140.821405,766.095498
163515.593222,9400.615463,-13027.624579,2374.896044
163515.593541,4737.318029,-11325.150913,0.000000
163515.593861,3701.029710,-12139.377449,229.828649
163515.594181,2738.761985,-11991.336260,689.485948
163515.594501,3478.967927,-10732.986159,1838.629195
163515.594820,3552.988522,-7476.080014,612.876398
163515.595140,4737.318029,-5551.544565,1838.629195
163515.595460,3552.988522,-4811.338623,306.438199
163515.595779,5181.441594,-5699.585753,-76.609550
163515.596099,3256.906145,-4737.318029,-2834.553343
163515.596419,5551.544565,-9474.636058,-689.485948
163515.596739,3034.844362,-10214.842000,-3064.381992
163515.597058,2886.803174,-13841.851115,-1838.629195
163515.597378,1998.556043,-15766.386565,-689.485948
163515.597698,0.000000,-13693.809927,2451.505594
163515.598018,1480.411884,-12213.398043,2451.505594
163515.598337,2590.720797,-7624.121203,76.609550
163515.598657,1184.329507,-4811.338623,-1072.533697
163515.598977,1998.556043,-5033.400406,-536.266849
163515.599297,3478.967927,-5921.647536,-689.485948
163515.599616,2664.741391,-7846.182985,-153.219100
163515.599936,518.144159,-8808.450710,-919.314598
163515.600256,-2294.638420,-9770.718434,-919.314598
163515.600576,-3108.864956,-10658.965565,-1225.752797
163515.600895,-2960.823768,-9548.656652,-1762.019645
163515.601215,2368.659014,-10066.800811,842.705048
163515.601535,2294.638420,-9474.636058,-76.609550
163515.601854,2738.761985,-11843.295072,2987.772442
163515.602174,2368.659014,-9548.656652,1991.848295
163515.602494,5847.626942,-9474.636058,2987.772442
163515.602814,592.164754,-6587.832884,-1225.752797
163515.603133,-2072.576638,-6883.915261,-4596.572988
163515.603453,-2516.700203,-9474.636058,-4979.620737
163515.603773,592.164754,-12435.459826,153.219100
163515.604093,1406.391290,-12509.480420,2451.505594
163515.604412,814.226536,-11695.253884,2681.334243
163515.604732,1036.288319,-10658.965565,3294.210641
163515.605052,-74.020594,-7105.977043,-842.705048
163515.605372,1406.391290,-5551.544565,-1608.800546
163515.605691,7031.956449,-9474.636058,4519.963438
163515.606011,7105.977043,-6735.874072,5592.497135
163515.606331,4589.276840,-5995.668130,1149.143247
163515.606651,0.000000,-7254.018232,-4366.744339
163515.606970,-4145.153275,-10732.986159,-6435.202183
163515.607290,-3256.906145,-13767.830521,-5822.325785
163515.607610,-4145.153275,-14285.974681,-4903.011187
163515.607929,0.000000,-14359.995275,-2298.286494
163515.608249,2886.803174,-12435.459826,-612.876398
163515.608569,7031.956449,-8586.388927,536.266849
163515.608889,12361.439231,-7994.224174,7277.907231
163515.609208,12805.562797,-3330.926739,7660.954980
163515.609528,10288.862594,-1850.514855,4673.182538
163515.609848,6809.894666,-4145.153275,1838.629195
163515.610168,2960.823768,-7772.162391,0.000000
163515.610487,4071.132681,-11843.295072,-689.485948
163515.610807,0.000000,-12509.480420,-2451.505594
163515.611127,-1258.350101,-14582.057057,-6128.763984
163515.611447,-1776.494261,-14211.954086,-6205.373534
163515.611766,2294.638420,-14211.954086,-1915.238745
163515.612086,2368.659014,-9844.739029,-2221.676944
163515.612406,4737.318029,-8142.265362,612.876398
163515.612726,6883.915261,-7254.018232,2068.457845
163515.613045,5329.482782,-3627.009116,2451.505594
163515.613365,7105.977043,-5403.503377,4290.134789
163515.613685,5921.647536,-6291.750507,4979.620737
163515.614005,6883.915261,-8660.409521,5898.935335
163515.614324,4663.297435,-7698.141797,-76.609550
163515.614644,592.164754,-9548.656652,-1225.752797
163515.614964,-2960.823768,-11917.315666,-5822.325785
163515.615283,-2368.659014,-14508.036463,-5132.839837
163515.615603,-2516.700203,-14211.954086,-5056.230287
163515.615923,-1554.432478,-13989.892304,-4366.744339
163515.616243,1998.556043,-13027.624579,-2528.115143
163515.616562,3108.864956,-8438.347739,1225.752797
163515.616882,5551.544565,-5773.606348,3677.258390
163515.617202,7550.100608,-4959.379811,4519.963438
163515.617522,9918.759623,-6439.791695,6128.763984
163515.617841,6513.812290,-5403.503377,5439.278036
163515.618161,1776.494261,-5995.668130,1225.752797
163515.618481,-296.082377,-10732.986159,-689.485948
163515.618801,-1332.370696,-13175.665768,-1455.581446
163515.619120,-5699.585753,-10732.986159,-6741.640382
163515.619440,-2442.679609,-14211.954086,-3753.867940
163515.619760,-1184.329507,-11917.315666,-2374.896044
163515.620080,2368.659014,-10436.903782,1455.581446
163515.620399,5847.626942,-7772.162391,2987.772442
163515.620719,4737.318029,-5995.668130,3907.087040
163515.621039,4145.153275,-6291.750507,2757.943793
163515.621358,2886.803174,-6365.771101,1532.190996
163515.621678,0.000000,-5995.668130,0.000000
163515.621998,0.000000,-8956.491898,0.000000
163515.622318,-666.185348,-8290.306550,-4060.306139
163515.622637,222.061783,-9770.718434,-4673.182538
163515.622957,-222.061783,-11029.068536,-5286.058936
163515.623277,-518.144159,-11547.212695,-3830.477490
163515.623597,666.185348,-12213.398043,-3294.210641
163515.623916,3552.988522,-14211.954086,3294.210641
163515.624236,7772.162391,-10807.006753,3677.258390
163515.624556,9400.615463,-8882.471304,6052.154434
163515.624876,7624.121203,-6957.935855,4673.182538
163515.625195,5181.441594,-5995.668130,3677.258390
163515.625515,5847.626942,-6217.729913,1762.019645
163515.625835,2664.741391,-5847.626942,-1072.533697
163515.626155,-814.226536,-8734.430116,-4673.182538
163515.626474,-1332.370696,-10807.006753,-4596.572988
163515.626794,1998.556043,-12583.501014,-3447.429741
163515.627114,2664.741391,-13397.727550,-2528.115143
163515.627433,592.164754,-11325.150913,-1225.752797
163515.627753,2960.823768,-10881.027347,536.266849
163515.628073,5033.400406,-11917.315666,4903.011187
163515.628393,5625.565159,-5403.503377,1378.971896
163515.628712,8216.285956,-7105.977043,4673.182538
163515.629032,4737.318029,-4737.318029,3064.381992
163515.629352,2590.720797,-5847.626942,-612.876398
163515.629672,1480.411884,-7846.182985,-2604.724693
163515.629991,0.000000,-9622.677246,-3600.648841
163515.630311,1702.473667,-12731.542202,-3294.210641
163515.630631,0.000000,-11325.150913,-4749.792088
163515.630951,2294.638420,-12731.542202,-3753.867940
163515.631270,740.205942,-12509.480420,0.000000
163515.631590,1628.453072,-8364.327145,0.000000
163515.631910,5181.441594,-8364.327145,2834.553343
163515.632229,2960.823768,-6143.709319,1455.581446
163515.632549,2368.659014,-6735.874072,1149.143247
163515.632869,3478.967927,-7994.224174,2987.772442
163515.633188,4071.132681,-7994.224174,1762.019645
163515.633508,592.164754,-8660.409521,76.609550
163515.633827,-2442.679609,-11399.171507,-689.485948
163515.634147,-1258.350101,-13027.624579,-1915.238745
163515.634467,-2368.659014,-11621.233289,0.000000
163515.634786,-4737.318029,-9548.656652,0.000000
163515.635106,-4737.318029,-8364.327145,-1225.752797
163515.635426,-3627.009116,-8068.244768,-383.047749
163515.635745,-370.102971,-7476.080014,1378.971896
163515.636065,2294.638420,-5921.647536,842.705048
163515.636384,-74.020594,-6809.894666,2987.772442
163515.636704,-1850.514855,-7698.141797,-383.047749
163515.637024,-5477.523971,-7846.182985,-1685.410096
163515.637343,-3997.112087,-12213.398043,0.000000
163515.637663,-5181.441594,-12213.398043,-1072.533697
163515.637983,-9474.636058,-11325.150913,-4903.011187
163515.638302,-7105.977043,-11029.068536,-4060.306139
163515.638622,-3256.906145,-9696.697840,-2221.676944
163515.638941,444.123565,-9104.533087,995.924147
163515.639261,1110.308913,-5921.647536,-76.609550
163515.639581,888.247130,-9474.636058,3294.210641
163515.639900,2294.638420,-7105.977043,3600.648841
163515.640220,1332.370696,-6809.894666,1762.019645
163515.640539,-2146.597232,-6143.709319,2451.505594
163515.640859,-2960.823768,-10140.821405,2145.067394
163515.641179,-5181.441594,-10140.821405,-1608.800546
163515.641498,-3552.988522,-10955.047942,-2604.724693
163515.641818,-2664.741391,-11029.068536,-2528.115143
163515.642138,-5921.647536,-8364.327145,-4903.011187
163515.642457,-4737.318029,-10140.821405,-3370.820191
163515.642777,-2072.576638,-9178.553681,-1149.143247
163515.643096,592.164754,-9548.656652,2451.505594
163515.643416,1702.473667,-7105.977043,1762.019645
163515.643736,-74.020594,-7105.977043,2374.896044
163515.644055,1776.494261,-7920.203579,2911.162892
163515.644375,3923.091493,-7476.080014,1455.581446
163515.644695,2590.720797,-8512.368333,1455.581446
163515.645014,370.102971,-8660.409521,-1915.238745
163515.645334,-2812.782580,-11325.150913,-4290.134789
163515.645653,296.082377,-11991.336260,-1685.410096
163515.645973,1110.308913,-11991.336260,-3064.381992
163515.646293,-2368.659014,-9548.656652,-1838.629195
163515.646612,-2368.659014,-10288.862594,-3677.258390
163515.646932,2294.638420,-9474.636058,-76.609550
163515.647252,4441.235652,-7179.997637,0.000000
163515.647571,6735.874072,-6217.729913,2604.724693
163515.647891,5181.441594,-5699.585753,1302.362347
163515.648210,4071.132681,-9400.615463,4060.306139
163515.648530,3182.885551,-8660.409521,612.876398
163515.648850,5847.626942,-13027.624579,2987.772442
163515.649169,-1554.432478,-8586.388927,-689.485948
163515.649489,-2738.761985,-11843.295072,-1302.362347
163515.649809,-1850.514855,-9474.636058,-1915.238745
163515.650128,2368.659014,-9844.739029,0.000000
163515.650448,3034.844362,-8290.306550,0.000000
163515.650767,1480.411884,-7772.162391,-1455.581446
163515.651087,814.226536,-8438.347739,-612.876398
163515.651407,222.061783,-7772.162391,-3294.210641
163515.651726,1184.329507,-10288.862594,1915.238745
163515.652046,-1184.329507,-7624.121203,612.876398
163515.652365,-74.020594,-12361.439231,2374.896044
163515.652685,-370.102971,-8290.306550,-689.485948
163515.653005,0.000000,-7476.080014,0.000000
163515.653324,1110.308913,-8142.265362,-1608.800546
163515.653644,-592.164754,-9622.677246,-2221.676944
163515.653964,-1850.514855,-11547.212695,-1685.410096
163515.654283,-2442.679609,-11103.089130,-1762.019645
163515.654603,-74.020594,-14211.954086,-76.609550
163515.654922,-3997.112087,-7476.080014,-2298.286494
163515.655242,-3849.070898,-9252.574275,-842.705048
163515.655562,-1850.514855,-7624.121203,-229.828649
163515.655881,1184.329507,-7772.162391,1225.752797
163515.656201,0.000000,-7105.977043,1685.410096
163515.656521,-1998.556043,-6661.853478,-2451.505594
163515.656840,-2664.741391,-10140.821405,-612.876398
163515.657160,0.000000,-9548.656652,612.876398
163515.657479,-370.102971,-10362.883188,-76.609550
163515.657799,-4219.173869,-10362.883188,-76.609550
163515.658119,-5625.565159,-10140.821405,-766.095498
163515.658438,-4811.338623,-7105.977043,-919.314598
163515.658758,-740.205942,-7476.080014,229.828649
163515.659078,-962.267725,-5403.503377,1149.143247
163515.659397,-888.247130,-7994.224174,-766.095498
163515.659717,-1554.432478,-8438.347739,-383.047749
163515.660036,-1258.350101,-9474.636058,-1915.238745
163515.660356,-4145.153275,-10732.986159,0.000000
163515.660676,-3627.009116,-10658.965565,-2528.115143
163515.660995,-3552.988522,-12435.459826,-153.219100
163515.661315,-1776.494261,-8364.327145,-459.657299
163515.661635,2368.659014,-9030.512492,1378.971896
163515.661954,2664.741391,-6735.874072,1149.143247
163515.662274,2590.720797,-9844.739029,536.266849
163515.662593,1554.432478,-10140.821405,0.000000
163515.662913,3478.967927,-11843.295072,-76.609550
163515.663233,1998.556043,-11399.171507,842.705048
163515.663552,-814.226536,-8956.491898,0.000000
163515.663872,-74.020594,-10658.965565,-76.609550
163515.664191,666.185348,-8364.327145,383.047749
163515.664511,3849.070898,-8660.409521,1149.143247
163515.664831,2738.761985,-6069.688724,306.438199
163515.665150,3552.988522,-10066.800811,1225.752797
163515.665470,2368.659014,-9548.656652,0.000000
163515.665790,296.082377,-10732.986159,0.000000
163515.666109,1702.473667,-12731.542202,689.485948
163515.666429,-1258.350101,-11843.295072,-76.609550
163515.666748,-3552.988522,-7772.162391,-2451.505594
163515.667068,-74.020594,-8882.471304,-1302.362347
163515.667388,2442.679609,-8808.450710,612.876398
163515.667707,2738.761985,-6439.791695,0.000000
163515.668027,1924.535449,-8068.244768,-995.924147
163515.668347,592.164754,-8290.306550,153.219100
163515.668666,1110.308913,-9918.759623,-612.876398
163515.668986,0.000000,-9844.739029,0.000000
163515.669305,-2072.576638,-11769.274478,-76.609550
163515.669625,-3627.009116,-10955.047942,-2221.676944
163515.669945,-4737.318029,-7179.997637,-4290.134789
163515.670264,962.267725,-10362.883188,-919.314598
163515.670584,0.000000,-6661.853478,-1685.410096
163515.670904,444.123565,-9622.677246,-1302.362347
163515.671223,1628.453072,-9474.636058,1149.143247
163515.671543,4663.297435,-11843.295072,2374.896044
163515.671862,740.205942,-8068.244768,1455.581446
163515.672182,-3330.926739,-7476.080014,-2374.896044
163515.672502,-4145.153275,-9844.739029,1225.752797
163515.672821,-888.247130,-8660.409521,2451.505594
163515.673141,0.000000,-7179.997637,1225.752797
163515.673461,-518.144159,-5699.585753,229.828649
163515.673780,-1036.288319,-9030.512492,-612.876398
163515.674100,-2516.700203,-8734.430116,-1685.410096
163515.674419,-1258.350101,-11843.295072,-1302.362347
163515.674739,-3034.844362,-11695.253884,-1532.190996
163515.675059,-5403.503377,-12139.377449,-995.924147
163515.675378,-4811.338623,-11251.130318,-1608.800546
163515.675698,-4145.153275,-8438.347739,-689.485948
163515.676017,0.000000,-7179.997637,1225.752797
163515.676337,-518.144159,-5403.503377,0.000000
163515.676657,2294.638420,-7994.224174,536.266849
163515.676976,2072.576638,-8068.244768,995.924147
163515.677296,2294.638420,-11917.315666,1838.629195
163515.677616,-74.020594,-11843.295072,2221.676944
163515.677935,-4737.318029,-9548.656652,0.000000
163515.678255,-3108.864956,-10955.047942,-1378.971896
163515.678574,-2072.576638,-10140.821405,-1225.752797
163515.678894,1110.308913,-11547.212695,1225.752797
163515.679214,592.164754,-7179.997637,612.876398
163515.679533,1998.556043,-7846.182985,0.000000
163515.679853,1850.514855,-7550.100608,153.219100
163515.680173,2664.741391,-9326.594869,919.314598
163515.680492,-370.102971,-7846.182985,-1149.143247
163515.680812,-1258.350101,-10066.800811,76.609550
163515.681131,-2368.659014,-10140.821405,153.219100
163515.681451,1998.556043,-12435.459826,2987.772442
163515.681771,2294.638420,-7994.224174,229.828649
163515.682090,3478.967927,-7105.977043,2068.457845
163515.682410,592.164754,-8364.327145,0.000000
163515.682730,1480.411884,-8364.327145,-1302.362347
163515.683049,2146.597232,-11621.233289,-842.705048
163515.683369,-888.247130,-9474.636058,-2221.676944
163515.683688,-2442.679609,-10362.883188,-4060.306139
163515.684008,-3034.844362,-10362.883188,-76.609550
163515.684328,-666.185348,-9178.553681,-2834.553343
163515.684647,0.000000,-7772.162391,-1225.752797
163515.684967,1554.432478,-7550.100608,-3370.820191
163515.685287,4441.235652,-11103.089130,2987.772442
163515.685606,1480.411884,-8068.244768,306.438199
163515.685926,3775.050304,-9844.739029,689.485948
163515.686245,592.164754,-8364.327145,0.000000
163515.686565,444.123565,-11029.068536,0.000000
163515.686885,1110.308913,-10362.883188,-76.609550
163515.687204,1406.391290,-10658.965565,1608.800546
163515.687524,-74.020594,-8290.306550,-76.609550
163515.687843,-74.020594,-9474.636058,-689.485948
163515.688163,1036.288319,-9326.594869,-459.657299
163515.688483,0.000000,-7179.997637,0.000000
163515.688802,1110.308913,-11251.130318,1225.752797
163515.689122,-2146.597232,-8438.347739,229.828649
163515.689442,-3182.885551,-10066.800811,-612.876398
163515.689761,-3034.844362,-8882.471304,-689.485948
163515.690081,-1850.514855,-9326.594869,0.000000
163515.690400,-2220.617826,-6883.915261,1225.752797
163515.690720,-1036.288319,-6587.832884,1225.752797
163515.691040,-74.020594,-9178.553681,-76.609550
163515.691359,-3034.844362,-5995.668130,-2451.505594
163515.691679,-74.020594,-11251.130318,536.266849
163515.691999,-3330.926739,-9400.615463,-2298.286494
163515.692318,-4071.132681,-11843.295072,-1838.629195
163515.692638,-4885.359217,-11177.109724,-1991.848295
163515.692957,-1184.329507,-12805.562797,2298.286494
163515.693277,-1110.308913,-8808.450710,229.828649
163515.693597,1776.494261,-7920.203579,919.314598
163515.693916,2294.638420,-7920.203579,1685.410096
163515.694236,296.082377,-6587.832884,612.876398
163515.694556,962.267725,-8808.450710,2298.286494
163515.694875,-74.020594,-9178.553681,1762.019645
163515.695195,-2738.761985,-10732.986159,-919.314598
163515.695514,-4737.318029,-8364.327145,-1838.629195
163515.695834,-74.020594,-11843.295072,-76.609550
163515.696154,296.082377,-8512.368333,2298.286494
163515.696473,-296.082377,-7772.162391,-1455.581446
163515.696793,148.041188,-7994.224174,-1378.971896
163515.697113,222.061783,-9326.594869,-842.705048
163515.697432,740.205942,-9548.656652,919.314598
163515.697752,-2664.741391,-9252.574275,-919.314598
163515.698071,-2590.720797,-11251.130318,-995.924147
163515.698391,-4071.132681,-7179.997637,-2757.943793
163515.698711,-1480.411884,-8364.327145,0.000000
163515.699030,3182.885551,-8290.306550,-76.609550
163515.699350,592.164754,-7920.203579,0.000000
163515.699669,1702.473667,-8956.491898,-536.266849
163515.699989,2220.617826,-8364.327145,-612.876398
163515.700309,2812.782580,-10288.862594,1149.143247
163515.700628,0.000000,-9548.656652,-766.095498
163515.700948,-666.185348,-11843.295072,-2298.286494
163515.701268,-666.185348,-11843.295072,-1302.362347
163515.701587,0.000000,-11103.089130,-1149.143247
163515.701907,0.000000,-7179.997637,-2068.457845
163515.702226,4071.132681,-9474.636058,-76.609550
163515.702546,1184.329507,-7179.997637,-306.438199
163515.702866,2590.720797,-8808.450710,689.485948
163515.703185,3256.906145,-8660.409521,1455.581446
163515.703505,0.000000,-8660.409521,0.000000
163515.703825,-2368.659014,-9844.739029,-229.828649
163515.704144,-3552.988522,-9548.656652,0.000000
163515.704464,1406.391290,-12435.459826,2221.676944
163515.704783,1702.473667,-9474.636058,2604.724693
163515.705103,-1258.350101,-6661.853478,-2834.553343
163515.705423,-74.020594,-10362.883188,842.705048
163515.705742,2664.741391,-10140.821405,1072.533697
163515.706062,1258.350101,-8216.285956,689.485948
163515.706382,-2738.761985,-8364.327145,-1072.533697
163515.706701,-4737.318029,-10066.800811,-2451.505594
163515.707021,-2738.761985,-11177.109724,-1608.800546
163515.707340,-1480.411884,-10732.986159,0.000000
163515.707660,-2368.659014,-8364.327145,0.000000
163515.707980,-74.020594,-10362.883188,-383.047749
163515.708299,1110.308913,-6809.894666,-2221.676944
163515.708619,4515.256246,-9474.636058,1455.581446
163515.708939,2368.659014,-8734.430116,995.924147
163515.709258,-1184.329507,-9326.594869,0.000000
163515.709578,-1850.514855,-11843.295072,-76.609550
163515.709897,-296.082377,-11843.295072,1608.800546
163515.710217,814.226536,-10658.965565,2987.772442
163515.710537,-74.020594,-9474.636058,-76.609550
163515.710856,-1258.350101,-7846.182985,-1762.019645
163515.711176,-2368.659014,-6587.832884,-2451.505594
163515.711495,2294.638420,-8290.306550,153.219100
163515.711815,444.123565,-7550.100608,306.438199
163515.712135,-2368.659014,-8734.430116,-612.876398
163515.712454,-2886.803174,-10066.800811,-1685.410096
163515.712774,-1406.391290,-12731.542202,-76.609550
163515.713094,-962.267725,-10140.821405,0.000000
163515.713413,-3034.844362,-8882.471304,-1378.971896
163515.713733,-3627.009116,-9992.780217,-1455.581446
163515.714052,2664.741391,-6291.750507,-1378.971896
163515.714372,2368.659014,-5995.668130,1225.752797
163515.714692,1998.556043,-7105.977043,-76.609550
163515.715011,-1850.514855,-8290.306550,-1838.629195
163515.715331,-2812.782580,-10584.944971,-1915.238745
163515.715651,-2072.576638,-10955.047942,-2298.286494
163515.715970,-444.123565,-12213.398043,0.000000
163515.716290,-3552.988522,-7179.997637,-1838.629195
163515.716609,740.205942,-9770.718434,229.828649
163515.716929,1554.432478,-8364.327145,1225.752797
163515.717249,4219.173869,-10214.842000,2987.772442
163515.717568,0.000000,-3627.009116,-2451.505594
163515.717888,-222.061783,-8882.471304,-383.047749
163515.718208,-222.061783,-9696.697840,-383.047749
163515.718527,0.000000,-9844.739029,842.705048
163515.718847,1702.473667,-11251.130318,2374.896044
163515.719166,1998.556043,-7698.141797,-76.609550
163515.719486,740.205942,-8068.244768,229.828649
163515.719806,2294.638420,-8290.306550,536.266849
163515.720125,2368.659014,-8956.491898,842.705048
163515.720445,592.164754,-7179.997637,1532.190996
163515.720765,-3997.112087,-8364.327145,-4136.915689
163515.721084,-4589.276840,-10955.047942,-3370.820191
163515.721404,-3552.988522,-11843.295072,-1838.629195
163515.721723,-444.123565,-10658.965565,0.000000
163515.722043,-74.020594,-9474.636058,-689.485948
163515.722363,-1110.308913,-9844.739029,1762.019645
163515.722682,-74.020594,-8290.306550,-76.609550
163515.723002,2590.720797,-7846.182985,1378.971896
163515.723322,2072.576638,-5995.668130,0.000000
163515.723641,-666.185348,-7994.224174,-3370.820191
163515.723961,-1036.288319,-10214.842000,383.047749
163515.724280,296.082377,-11325.150913,536.266849
163515.724600,1332.370696,-10881.027347,383.047749
163515.724920,-1554.432478,-9474.636058,-1302.362347
163515.725239,-2368.659014,-9548.656652,-1608.800546
163515.725559,-2812.782580,-8956.491898,-1838.629195
163515.725878,4367.215058,-11103.089130,1762.019645
163515.726198,1702.473667,-9474.636058,1991.848295
163515.726518,-666.185348,-8586.388927,-1302.362347
163515.726837,-1258.350101,-9474.636058,-76.609550
163515.727157,148.041188,-9844.739029,919.314598
163515.727477,1480.411884,-8512.368333,1762.019645
163515.727796,-1110.308913,-7772.162391,689.485948
163515.728116,-2368.659014,-7179.997637,2451.505594
163515.728435,666.185348,-8734.430116,1915.238745
163515.728755,3182.885551,-9400.615463,2374.896044
163515.729075,-74.020594,-7698.141797,-1302.362347
163515.729394,-3849.070898,-10066.800811,-3907.087040
163515.729714,-3256.906145,-12731.542202,-1378.971896
163515.730034,-2368.659014,-11621.233289,-2068.457845
163515.730353,-1702.473667,-9770.718434,-1991.848295
163515.730673,-2960.823768,-8808.450710,-2221.676944
163515.730993,-1924.535449,-8808.450710,-2451.505594
163515.731312,-962.267725,-6291.750507,-1225.752797
163515.731632,4071.132681,-8882.471304,2145.067394
163515.731952,1702.473667,-6513.812290,1685.410096
163515.732272,592.164754,-8734.430116,76.609550
163515.732591,-74.020594,-9474.636058,-76.609550
163515.732911,814.226536,-11547.212695,1149.143247
163515.733231,0.000000,-9548.656652,153.219100
163515.733551,-1258.350101,-11473.192101,-76.609550
163515.733870,-666.185348,-11843.295072,-76.609550
163515.734190,0.000000,-9548.656652,0.000000
163515.734510,1776.494261,-9548.656652,2451.505594
163515.734830,-1480.411884,-5403.503377,-1225.752797
163515.735150,-814.226536,-9326.594869,-383.047749
163515.735469,-1258.350101,-8364.327145,-383.047749
163515.735789,2590.720797,-9918.759623,995.924147
163515.736109,1110.308913,-8290.306550,1378.971896
163515.736429,-222.061783,-9474.636058,612.876398
163515.736748,-74.020594,-11251.130318,-76.609550
163515.737068,-296.082377,-8068.244768,612.876398
163515.737388,1184.329507,-9548.656652,1838.629195
163515.737708,-2220.617826,-7846.182985,-2221.676944
163515.738027,-2294.638420,-10658.965565,-2757.943793
163515.738347,-2368.659014,-9844.739029,-1838.629195
163515.738667,1850.514855,-11029.068536,-1838.629195
163515.738987,222.061783,-7994.224174,-2221.676944
163515.739307,0.000000,-9548.656652,0.000000
163515.739626,2072.576638,-9770.718434,1685.410096
163515.739946,2886.803174,-9474.636058,2681.334243
163515.740266,4367.215058,-9474.636058,2374.896044
163515.740586,-2368.659014,-7476.080014,0.000000
163515.740905,-2590.720797,-9474.636058,-1838.629195
163515.741225,-3627.009116,-9622.677246,-2528.115143
163515.741545,1110.308913,-11843.295072,76.609550
163515.741865,370.102971,-7254.018232,-995.924147
163515.742184,2294.638420,-11843.295072,-76.609550
163515.742504,-74.020594,-7031.956449,-919.314598
163515.742824,0.000000,-8068.244768,306.438199
163515.743144,0.000000,-7179.997637,0.000000
163515.743464,-74.020594,-9474.636058,2374.896044
163515.743783,-2812.782580,-8956.491898,0.000000
163515.744103,-962.267725,-9030.512492,536.266849
163515.744423,1036.288319,-9696.697840,306.438199
163515.744743,-1554.432478,-7772.162391,-689.485948
163515.745062,-3923.091493,-9992.780217,-3677.258390
163515.745382,-5107.421000,-10955.047942,-2604.724693
163515.745702,-2146.597232,-11843.295072,-76.609550
163515.746022,-74.020594,-9474.636058,-689.485948
163515.746341,-1702.473667,-7476.080014,-612.876398
163515.746661,2294.638420,-11547.212695,2374.896044
163515.746981,0.000000,-7476.080014,0.000000
163515.747301,2886.803174,-9030.512492,1072.533697
163515.747621,0.000000,-8734.430116,-459.657299
163515.747940,-2368.659014,-9696.697840,0.000000
163515.748260,-4441.235652,-9548.656652,-2451.505594
163515.748580,592.164754,-11029.068536,0.000000
163515.748900,1184.329507,-10140.821405,1225.752797
163515.749219,-74.020594,-9178.553681,-536.266849
163515.749539,-74.020594,-9474.636058,-2528.115143
163515.749859,-370.102971,-7402.059420,-919.314598
163515.750179,1998.556043,-9474.636058,229.828649
163515.750498,-222.061783,-8512.368333,536.266849
163515.750818,222.061783,-10140.821405,229.828649
163515.751138,0.000000,-8364.327145,3064.381992
163515.751458,1184.329507,-9548.656652,76.609550
163515.751778,2220.617826,-10362.883188,2374.896044
163515.752097,-1850.514855,-9622.677246,-689.485948
163515.752417,-2368.659014,-6587.832884,-4443.353888
163515.752737,-2442.679609,-7994.224174,-3447.429741
163515.753057,1406.391290,-11029.068536,-995.924147
163515.753376,-1406.391290,-7624.121203,-1685.410096
163515.753696,-666.185348,-10436.903782,-689.485948
163515.754016,-1480.411884,-8882.471304,-383.047749
163515.754336,0.000000,-10436.903782,766.095498
163515.754655,-74.020594,-6513.812290,-229.828649
163515.754975,-1480.411884,-8364.327145,153.219100
163515.755295,1998.556043,-10436.903782,1762.019645
163515.755615,814.226536,-9252.574275,-1225.752797
163515.755934,1998.556043,-9030.512492,-536.266849
163515.756254,296.082377,-9326.594869,459.657299
163515.756574,148.041188,-10881.027347,-1455.581446
163515.756894,-2220.617826,-9918.759623,-842.705048
163515.757214,3775.050304,-13027.624579,3600.648841
163515.757533,2220.617826,-8586.388927,2221.676944
163515.757853,1702.473667,-7994.224174,-76.609550
163515.758173,-74.020594,-7698.141797,-1302.362347
163515.758493,-1776.494261,-7624.121203,-1838.629195
163515.758812,0.000000,-7179.997637,0.000000
163515.759132,-1850.514855,-8734.430116,-1915.238745
163515.759452,-2294.638420,-11251.130318,-766.095498
163515.759772,-3627.009116,-9474.636058,-1149.143247
163515.760091,444.123565,-11177.109724,2145.067394
163515.760411,1554.432478,-9474.636058,2374.896044
163515.760731,-1406.391290,-8290.306550,0.000000
163515.761051,-740.205942,-8290.306550,-383.047749
163515.761371,-518.144159,-7105.977043,-1915.238745
163515.761690,296.082377,-9178.553681,-1302.362347
163515.762010,-74.020594,-10066.800811,-1915.238745
163515.762330,-296.082377,-12509.480420,-1455.581446
163515.762650,-2368.659014,-10288.862594,-842.705048
163515.762969,740.205942,-12213.398043,153.219100
163515.763289,-74.020594,-9474.636058,1532.190996
163515.763609,-2368.659014,-9770.718434,-76.609550
163515.763929,1702.473667,-7402.059420,-76.609550
163515.764248,1184.329507,-7772.162391,919.314598
163515.764568,2960.823768,-7772.162391,2757.943793
163515.764888,1998.556043,-9474.636058,2374.896044
163515.765208,1184.329507,-9918.759623,612.876398
163515.765528,-666.185348,-9474.636058,0.000000
163515.765847,518.144159,-11621.233289,1225.752797
163515.766167,-2368.659014,-9326.594869,153.219100
163515.766487,-3997.112087,-7772.162391,-3064.381992
163515.766807,-2368.659014,-8142.265362,-1838.629195
163515.767126,1554.432478,-10658.965565,612.876398
163515.767446,3478.967927,-9474.636058,-76.609550
163515.767766,-962.267725,-8438.347739,-612.876398
163515.768086,0.000000,-9548.656652,612.876398
163515.768405,-1258.350101,-9918.759623,0.000000
163515.768725,1480.411884,-10436.903782,2374.896044
163515.769045,-666.185348,-7328.038826,536.266849
163515.769365,-444.123565,-9548.656652,-1225.752797
163515.769685,-74.020594,-8290.306550,-1608.800546
163515.770004,0.000000,-10140.821405,-919.314598
163515.770324,370.102971,-8734.430116,-1685.410096
163515.770644,-1184.329507,-10436.903782,-2374.896044
163515.770964,0.000000,-11917.315666,-1685.410096
163515.771283,-74.020594,-11843.295072,536.266849
163515.771603,0.000000,-10140.821405,1225.752797
163515.771923,-1776.494261,-8068.244768,306.438199
163515.772243,-444.123565,-10140.821405,766.095498
163515.772562,-2368.659014,-5107.421000,-3370.820191
163515.772882,4663.297435,-9474.636058,1762.019645
163515.773202,3552.988522,-7328.038826,1762.019645
163515.773522,1702.473667,-7920.203579,689.485948
163515.773842,-1036.288319,-9104.533087,-1302.362347
163515.774161,-3034.844362,-11251.130318,-76.609550
163515.774481,-1702.473667,-11917.315666,-995.924147
163515.774801,-5329.482782,-9400.615463,-2068.457845
163515.775121,-4737.318029,-9548.656652,-2451.505594
163515.775440,-2738.761985,-8586.388927,-842.705048
163515.775760,222.061783,-7105.977043,-2451.505594
163515.776080,888.247130,-6513.812290,-76.609550
163515.776400,0.000000,-7846.182985,-842.705048
163515.776719,-518.144159,-8586.388927,-919.314598
163515.777039,1258.350101,-11843.295072,2221.676944
163515.777359,4367.215058,-14211.954086,4826.401637
163515.777679,-74.020594,-11029.068536,2834.553343
163515.777999,-1258.350101,-10066.800811,-1608.800546
163515.778318,-3849.070898,-7772.162391,-3447.429741
163515.778638,0.000000,-9548.656652,-3064.381992
163515.778958,-1406.391290,-7328.038826,-2451.505594
163515.779278,740.205942,-10214.842000,-383.047749
163515.779597,1184.329507,-9918.759623,-76.609550
163515.779917,1184.329507,-10140.821405,1685.410096
163515.780237,4071.132681,-10658.965565,2374.896044
163515.780557,-888.247130,-8364.327145,1838.629195
163515.780876,-74.020594,-9474.636058,1149.143247
163515.781196,-1332.370696,-7031.956449,-76.609550
163515.781516,3478.967927,-9474.636058,-76.609550
163515.781836,2664.741391,-7920.203579,2374.896044
163515.782156,592.164754,-8364.327145,0.000000
163515.782475,370.102971,-9548.656652,-995.924147
163515.782795,-74.020594,-11991.336260,-153.219100
163515.783115,-1184.329507,-11399.171507,-1225.752797
163515.783435,-4811.338623,-11103.089130,-3064.381992
163515.783754,-4737.318029,-12435.459826,-2604.724693
163515.784074,-3182.885551,-9474.636058,-1532.190996
163515.784394,3478.967927,-9474.636058,-76.609550
163515.784714,1184.329507,-3849.070898,0.000000
163515.785033,6439.791695,-9474.636058,4826.401637
163515.785353,1998.556043,-6069.688724,153.219100
163515.785673,1406.391290,-9548.656652,1532.190996
163515.785993,518.144159,-9474.636058,-689.485948
163515.786312,-6513.812290,-10732.986159,-2451.505594
163515.786632,-5921.647536,-10140.821405,-3677.258390
163515.786952,-3923.091493,-10214.842000,-1225.752797
163515.787272,2886.803174,-13619.789333,1149.143247
163515.787592,518.144159,-7402.059420,-1302.362347
163515.787911,1110.308913,-8882.471304,-689.485948
163515.788231,1628.453072,-8290.306550,689.485948
163515.788551,1776.494261,-10436.903782,2911.162892
163515.788871,2442.679609,-8956.491898,3064.381992
163515.789190,-814.226536,-9178.553681,2757.943793
163515.789510,-4737.318029,-6291.750507,0.000000
163515.789830,-4145.153275,-6809.894666,-1302.362347
163515.790150,-1628.453072,-8364.327145,0.000000
163515.790469,-2368.659014,-7179.997637,-2298.286494
163515.790789,-2368.659014,-9548.656652,-2145.067394
163515.791109,-74.020594,-10658.965565,-2528.115143
163515.791429,-1702.473667,-12805.562797,76.609550
163515.791749,-1850.514855,-10362.883188,-689.485948
163515.792068,-3923.091493,-9252.574275,-766.095498
163515.792388,-2812.782580,-8660.409521,-76.609550
163515.792708,370.102971,-6291.750507,1149.143247
163515.793028,5847.626942,-8290.306550,1149.143247
163515.793347,2294.638420,-5181.441594,-536.266849
163515.793667,0.000000,-7179.997637,-2451.505594
163515.793987,-888.247130,-10140.821405,-3064.381992
163515.794307,4663.297435,-14211.954086,-76.609550
163515.794626,592.164754,-11325.150913,-536.266849
163515.794946,-3256.906145,-12361.439231,-995.924147
163515.795266,-2590.720797,-10140.821405,-1762.019645
163515.795586,0.000000,-8364.327145,1225.752797
163515.795906,3108.864956,-6291.750507,612.876398
163515.796225,2590.720797,-4737.318029,612.876398
163515.796545,4071.132681,-9474.636058,2374.896044
163515.796865,814.226536,-6809.894666,-459.657299
163515.797185,1406.391290,-9548.656652,153.219100
163515.797504,-370.102971,-11251.130318,-76.609550
163515.797824,-5033.400406,-11029.068536,-1455.581446
163515.798144,-4737.318029,-9770.718434,-3294.210641
163515.798464,-2590.720797,-9992.780217,-1685.410096
163515.798783,1776.494261,-9548.656652,1378.971896
163515.799103,444.123565,-7179.997637,-2298.286494
163515.799423,0.000000,-9548.656652,0.000000
163515.799743,518.144159,-8660.409521,-76.609550
163515.800063,2146.597232,-13027.624579,2374.896044
163515.800382,2294.638420,-9474.636058,2987.772442
163515.800702,-2368.659014,-10140.821405,1378.971896
163515.801022,-2442.679609,-7920.203579,-995.924147
163515.801342,-2368.659014,-9252.574275,-919.314598
163515.801661,592.164754,-7772.162391,0.000000
163515.801981,-74.020594,-7772.162391,-1838.629195
163515.802301,2294.638420,-11251.130318,-536.266849
163515.802621,74.020594,-8882.471304,-689.485948
163515.802940,0.000000,-9844.739029,0.000000
163515.803260,1184.329507,-9992.780217,3677.258390
163515.803580,-4737.318029,-9548.656652,0.000000
163515.803900,-5255.462188,-9252.574275,-1378.971896
163515.804220,-1258.350101,-8882.471304,459.657299
163515.804539,2664.741391,-8142.265362,2068.457845
163515.804859,2294.638420,-4737.318029,1149.143247
163515.805179,2072.576638,-7698.141797,1225.752797
163515.805499,0.000000,-7328.038826,-612.876398
163515.805818,1554.432478,-11547.212695,459.657299
163515.806138,-2442.679609,-9474.636058,-1149.143247
163515.806458,-5551.544565,-13175.665768,-76.609550
163515.806778,-5921.647536,-11843.295072,-1378.971896
163515.807097,-666.185348,-11843.295072,-689.485948
163515.807417,1184.329507,-6883.915261,-689.485948
163515.807737,296.082377,-6291.750507,0.000000
163515.808057,2294.638420,-6513.812290,-1302.362347
163515.808377,1776.494261,-7994.224174,459.657299
163515.808696,4811.338623,-10658.965565,1838.629195
163515.809016,-148.041188,-9252.574275,536.266849
163515.809336,-2442.679609,-12139.377449,-612.876398
163515.809656,-4811.338623,-11177.109724,-2528.115143
163515.809975,-1776.494261,-10732.986159,-459.657299
163515.810295,1554.432478,-8142.265362,-689.485948
163515.810615,-74.020594,-8142.265362,-1302.362347
163515.810935,0.000000,-6587.832884,-2451.505594
163515.811254,1702.473667,-8290.306550,-689.485948
163515.811574,3478.967927,-10732.986159,995.924147
163515.811894,-518.144159,-8438.347739,0.000000
163515.812214,-2294.638420,-11621.233289,0.000000
163515.812534,-2368.659014,-9474.636058,1149.143247
163515.812853,592.164754,-9548.656652,1302.362347
163515.813173,2368.659014,-6587.832884,0.000000
163515.813493,2886.803174,-9474.636058,1149.143247
163515.813813,1702.473667,-7994.224174,-1608.800546
163515.814132,0.000000,-7772.162391,-3677.258390
163515.814452,3034.844362,-11547.212695,-76.609550
163515.814772,-2738.761985,-10140.821405,-1608.800546
163515.815092,-4145.153275,-11325.150913,-1915.238745
163515.815411,-6143.709319,-9474.636058,-3140.991542
163515.815731,-666.185348,-11251.130318,-76.609550
163515.816051,1110.308913,-8290.306550,-76.609550
163515.816371,1998.556043,-7105.977043,-76.609550
163515.816690,1184.329507,-6143.709319,-1225.752797
163515.817010,2368.659014,-8956.491898,2451.505594
163515.817330,814.226536,-8660.409521,0.000000
163515.817650,-1998.556043,-9696.697840,-612.876398
163515.817970,-3923.091493,-12805.562797,-2374.896044
163515.818289,-5255.462188,-11399.171507,-1838.629195
163515.818609,1702.473667,-13027.624579,1149.143247
163515.818929,2960.823768,-7772.162391,3677.258390
163515.819249,4071.132681,-8734.430116,2987.772442
163515.819568,2886.803174,-6291.750507,1762.019645
163515.819888,4663.297435,-10362.883188,2374.896044
163515.820208,2368.659014,-7179.997637,2451.505594
163515.820528,-1998.556043,-8734.430116,-536.266849
163515.820847,-3552.988522,-11917.315666,-689.485948
163515.821167,-6069.688724,-10732.986159,-2451.505594
163515.821487,-2960.823768,-11917.315666,76.609550
163515.821807,-1406.391290,-7402.059420,-1149.143247
163515.822127,0.000000,-7476.080014,0.000000
163515.822446,518.144159,-7476.080014,-3064.381992
163515.822766,1184.329507,-9104.533087,2145.067394
163515.823086,2886.803174,-9474.636058,1762.019645
163515.823406,-2960.823768,-7476.080014,0.000000
163515.823725,-2590.720797,-11103.089130,-1685.410096
163515.824045,-4441.235652,-9918.759623,-612.876398
163515.824365,222.061783,-10584.944971,612.876398
163515.824685,370.102971,-5625.565159,-383.047749
163515.825004,2294.638420,-8882.471304,-689.485948
163515.825324,0.000000,-7994.224174,-1608.800546
163515.825644,0.000000,-9548.656652,0.000000
163515.825964,1776.494261,-8660.409521,-1072.533697
163515.826284,-2072.576638,-11103.089130,-76.609550
163515.826603,-4737.318029,-9548.656652,-1838.629195
163515.826923,-5181.441594,-9252.574275,-1915.238745
163515.827243,1480.411884,-9252.574275,2528.115143
163515.827563,3478.967927,-4663.297435,3294.210641
163515.827882,8216.285956,-5329.482782,4826.401637
163515.828202,6439.791695,-6809.894666,3294.210641
163515.828522,3478.967927,-11843.295072,1762.019645
163515.828842,-2812.782580,-9548.656652,-4596.572988
163515.829161,-8290.306550,-10732.986159,-4903.011187
163515.829481,-4737.318029,-15766.386565,-2528.115143
163515.829801,-5403.503377,-12139.377449,-4213.525239
163515.830121,-444.123565,-12213.398043,153.219100
163515.830441,1258.350101,-6365.771101,1455.581446
163515.830760,3478.967927,-6143.709319,0.000000
163515.831080,3775.050304,-4145.153275,-1685.410096
163515.831400,3552.988522,-8586.388927,3064.381992
163515.831720,3478.967927,-8216.285956,2298.286494
163515.832039,-74.020594,-11843.295072,-76.609550
163515.832359,-1850.514855,-11843.295072,-1302.362347
163515.832679,-4737.318029,-11325.150913,-612.876398
163515.832999,-1628.453072,-10807.006753,-1225.752797
163515.833318,-1258.350101,-8660.409521,-2298.286494
163515.833638,1110.308913,-10362.883188,-1225.752797
163515.833958,0.000000,-5995.668130,-4290.134789
163515.834278,2812.782580,-8364.327145,612.876398
163515.834597,4441.235652,-8882.471304,1149.143247
163515.834917,74.020594,-8586.388927,76.609550
163515.835237,-2368.659014,-9548.656652,0.000000
163515.835557,-1258.350101,-11843.295072,-76.609550
163515.835877,2886.803174,-12435.459826,2374.896044
163515.836196,-962.267725,-7254.018232,2374.896044
163515.836516,814.226536,-8142.265362,0.000000
163515.836836,-1184.329507,-6291.750507,-1302.362347
163515.837156,0.000000,-9548.656652,0.000000
163515.837475,0.000000,-7994.224174,-2068.457845
163515.837795,-4737.318029,-9548.656652,-2145.067394
163515.838115,-3923.091493,-11843.295072,-2451.505594
163515.838435,-4811.338623,-13027.624579,-1302.362347
163515.838754,518.144159,-14211.954086,2068.457845
163515.839074,0.000000,-7772.162391,536.266849
163515.839394,2368.659014,-8068.244768,1762.019645
163515.839714,1702.473667,-6069.688724,0.000000
163515.840033,1184.329507,-8660.409521,0.000000
163515.840353,2886.803174,-7179.997637,1532.190996
163515.840673,-74.020594,-10214.842000,842.705048
163515.840993,-5625.565159,-9622.677246,-3294.210641
163515.841313,-8290.306550,-10732.986159,-3064.381992
163515.841632,-1480.411884,-12213.398043,2681.334243
163515.841952,-3552.988522,-6587.832884,0.000000
163515.842272,0.000000,-7846.182985,-536.266849
163515.842592,-1184.329507,-6735.874072,-919.314598
163515.842911,3256.906145,-9400.615463,1532.190996
163515.843231,3478.967927,-7105.977043,-383.047749
163515.843551,0.000000,-10288.862594,306.438199
163515.843871,-2812.782580,-10658.965565,-1991.848295
163515.844190,-2812.782580,-11917.315666,-689.485948
163515.844510,0.000000,-10732.986159,1149.143247
163515.844830,-1184.329507,-9548.656652,306.438199
163515.845150,0.000000,-8956.491898,612.876398
163515.845469,1702.473667,-8290.306550,-76.609550
163515.845789,2886.803174,-8882.471304,1225.752797
163515.846109,740.205942,-5995.668130,-2145.067394
163515.846429,-74.020594,-9474.636058,-1302.362347
163515.846749,-3478.967927,-9696.697840,-2451.505594
163515.847068,-1628.453072,-11103.089130,-689.485948
163515.847388,-1258.350101,-9918.759623,-1149.143247
163515.847708,-1776.494261,-9252.574275,-919.314598
163515.848028,0.000000,-7994.224174,-2451.505594
163515.848347,0.000000,-5995.668130,-1225.752797
163515.848667,5329.482782,-10362.883188,0.000000
163515.848987,3552.988522,-9474.636058,1608.800546
163515.849307,0.000000,-9548.656652,-3064.381992
163515.849626,-666.185348,-10362.883188,-1915.238745
163515.849946,-1258.350101,-12361.439231,-612.876398
163515.850266,888.247130,-9844.739029,919.314598
163515.850586,74.020594,-8142.265362,1225.752797
163515.850905,1924.535449,-8586.388927,3217.601092
163515.851225,1480.411884,-7328.038826,1378.971896
163515.851545,4663.297435,-8882.471304,2374.896044
163515.851865,518.144159,-6143.709319,0.000000
163515.852185,-2368.659014,-9548.656652,-919.314598
163515.852504,-5995.668130,-7772.162391,-7124.688131
163515.852824,-4515.256246,-13619.789333,-1378.971896
163515.853144,-2516.700203,-9918.759623,-2068.457845
163515.853464,-3627.009116,-9770.718434,-689.485948
163515.853783,-370.102971,-10362.883188,-76.609550
163515.854103,2294.638420,-10658.965565,2374.896044
163515.854423,4737.318029,-9548.656652,3677.258390
163515.854743,4071.132681,-7105.977043,1762.019645
163515.855062,74.020594,-9474.636058,-689.485948
163515.855382,-4737.318029,-9548.656652,-2451.505594
163515.855702,-2442.679609,-11991.336260,-1532.190996
163515.856022,-2368.659014,-10658.965565,-612.876398
163515.856341,-2368.659014,-10807.006753,-459.657299
163515.856661,-1554.432478,-9474.636058,-1072.533697
163515.856981,2886.803174,-10066.800811,2681.334243
163515.857301,4367.215058,-6735.874072,2145.067394
163515.857621,1332.370696,-5107.421000,459.657299
163515.857940,0.000000,-9252.574275,-2451.505594
163515.858260,-2220.617826,-10288.862594,-919.314598
163515.858580,-4737.318029,-9548.656652,0.000000
163515.858900,-1554.432478,-9326.594869,-612.876398
163515.859219,-2516.700203,-10732.986159,0.000000
163515.859539,-1702.473667,-8660.409521,-1302.362347
163515.859859,-222.061783,-8660.409521,383.047749
163515.860179,3775.050304,-8512.368333,1149.143247
163515.860498,-1776.494261,-5995.668130,0.000000
163515.860818,-592.164754,-9548.656652,-2451.505594
163515.861138,-2368.659014,-7772.162391,-1532.190996
163515.861458,1998.556043,-12435.459826,2374.896044
163515.861777,0.000000,-6291.750507,0.000000
163515.862097,-2516.700203,-10362.883188,-689.485948
163515.862417,-2812.782580,-8882.471304,-3524.039291
163515.862737,-1554.432478,-10510.924376,-1532.190996
163515.863056,3478.967927,-10066.800811,-76.609550
163515.863376,2294.638420,-8290.306550,-76.609550
163515.863696,1110.308913,-10658.965565,-76.609550
163515.864016,-1554.432478,-7994.224174,-2528.115143
163515.864336,592.164754,-11325.150913,1225.752797
163515.864655,0.000000,-8364.327145,1991.848295
163515.864975,0.000000,-8364.327145,0.000000
163515.865295,1702.473667,-8290.306550,766.095498
163515.865615,3552.988522,-8882.471304,2604.724693
163515.865934,5255.462188,-8142.265362,2298.286494
163515.866254,2294.638420,-7105.977043,-689.485948
163515.866574,-1480.411884,-10732.986159,-2451.505594
163515.866894,-3108.864956,-11843.295072,-2528.115143
163515.867213,-1258.350101,-14211.954086,-689.485948
163515.867533,-1258.350101,-8734.430116,-2374.896044
163515.867853,-2220.617826,-11325.150913,2451.505594
163515.868173,-2072.576638,-7402.059420,-612.876398
163515.868492,1554.432478,-8364.327145,2068.457845
163515.868812,4663.297435,-5551.544565,2528.115143
163515.869132,1628.453072,-6291.750507,0.000000
163515.869452,962.267725,-8660.409521,-1915.238745
163515.869772,-4737.318029,-8364.327145,-2451.505594
163515.870091,-370.102971,-13027.624579,-76.609550
163515.870411,-1258.350101,-11843.295072,-2834.553343
163515.870731,-3775.050304,-13915.871710,-1915.238745
163515.871051,-3552.988522,-9844.739029,-1991.848295
163515.871370,-148.041188,-10955.047942,536.266849
163515.871690,3849.070898,-7698.141797,1455.581446
163515.872010,1628.453072,-6365.771101,229.828649
163515.872330,0.000000,-6587.832884,-2451.505594
163515.872649,-74.020594,-6513.812290,-383.047749
163515.872969,2368.659014,-8956.491898,1455.581446
163515.873289,0.000000,-7772.162391,1532.190996
163515.873609,814.226536,-11843.295072,1685.410096
163515.873928,-666.185348,-10658.965565,1762.019645
163515.874248,0.000000,-10140.821405,1225.752797
163515.874568,518.144159,-8364.327145,-995.924147
163515.874888,-3182.885551,-8586.388927,-1532.190996
163515.875208,-3256.906145,-9622.677246,-2757.943793
163515.875527,-4811.338623,-7476.080014,-2987.772442
163515.875847,-74.020594,-13027.624579,-76.609550
163515.876167,-3034.844362,-6957.935855,-2451.505594
163515.876487,-1776.494261,-9844.739029,153.219100
163515.876806,-74.020594,-9548.656652,2374.896044
163515.877126,0.000000,-8364.327145,2451.505594
163515.877446,1702.473667,-7624.121203,612.876398
163515.877766,222.061783,-8808.450710,-689.485948
163515.878085,-1554.432478,-9030.512492,-2757.943793
163515.878405,-1850.514855,-10658.965565,-2834.553343
163515.878725,0.000000,-12731.542202,-1838.629195
163515.879045,-4145.153275,-8956.491898,-2145.067394
163515.879364,-1406.391290,-11103.089130,-2451.505594
163515.879684,1110.308913,-10658.965565,1455.581446
163515.880004,3034.844362,-7179.997637,1225.752797
163515.880324,5847.626942,-4737.318029,2987.772442
163515.880644,1406.391290,-6883.915261,612.876398
163515.880963,74.020594,-7698.141797,-2298.286494
163515.881283,-1110.308913,-10584.944971,-1149.143247
163515.881603,2664.741391,-13619.789333,-76.609550
163515.881923,-3552.988522,-9992.780217,-2068.457845
163515.882242,-3034.844362,-12361.439231,-1762.019645
163515.882562,-3182.885551,-9622.677246,-2451.505594
163515.882882,1258.350101,-10658.965565,1225.752797
163515.883202,0.000000,-4811.338623,0.000000
163515.883521,1110.308913,-7105.977043,536.266849
163515.883841,0.000000,-5403.503377,0.000000
163515.884161,1184.329507,-7476.080014,0.000000
163515.884481,2664.741391,-8882.471304,1149.143247
163515.884800,-74.020594,-11251.130318,1149.143247
163515.885120,-2886.803174,-11917.315666,-1991.848295
163515.885440,-4145.153275,-10288.862594,-2987.772442
163515.885760,-1406.391290,-11843.295072,-1072.533697
163515.886080,-2368.659014,-7624.121203,-2068.457845
163515.886399,-1184.329507,-9252.574275,-1072.533697
163515.886719,1110.308913,-8290.306550,-1302.362347
163515.887039,666.185348,-8882.471304,-76.609550
163515.887359,1184.329507,-7772.162391,1225.752797
163515.887678,2294.638420,-9474.636058,-76.609550
163515.887998,1480.411884,-10584.944971,2145.067394
163515.888318,-74.020594,-7920.203579,689.485948
163515.888638,1702.473667,-9844.739029,1762.019645
163515.888957,-370.102971,-7624.121203,-536.266849
163515.889277,-1110.308913,-8364.327145,-842.705048
163515.889597,-1628.453072,-8660.409521,-2604.724693
163515.889917,-74.020594,-12657.521608,919.314598
163515.890236,1110.308913,-10658.965565,-1302.362347
163515.890556,-2738.761985,-9622.677246,-995.924147
163515.890876,-74.020594,-11843.295072,-76.609550
163515.891196,-2368.659014,-8734.430116,536.266849
163515.891515,370.102971,-9326.594869,2681.334243
163515.891835,-888.247130,-6291.750507,842.705048
163515.892155,-592.164754,-7772.162391,2145.067394
163515.892475,-2368.659014,-7179.997637,0.000000
163515.892795,-2368.659014,-9548.656652,0.000000
163515.893114,-74.020594,-10288.862594,-995.924147
163515.893434,-3923.091493,-11251.130318,-612.876398
163515.893754,-2146.597232,-10732.986159,-3294.210641
163515.894074,-74.020594,-10658.965565,-76.609550
163515.894393,4145.153275,-11029.068536,3294.210641
163515.894713,1406.391290,-7328.038826,229.828649
163515.895033,0.000000,-9252.574275,-766.095498
163515.895353,-4145.153275,-6587.832884,-4290.134789
163515.895672,-3182.885551,-10140.821405,-2374.896044
163515.895992,1184.329507,-7772.162391,-3370.820191
163515.896312,3182.885551,-10955.047942,2145.067394
163515.896632,4071.132681,-10658.965565,-76.609550
163515.896951,-74.020594,-6809.894666,0.000000
163515.897271,4145.153275,-11251.130318,3447.429741
163515.897591,444.123565,-6587.832884,-383.047749
163515.897911,-444.123565,-9770.718434,-689.485948
163515.898231,-1924.535449,-7179.997637,-1991.848295
163515.898550,-148.041188,-11547.212695,1455.581446
163515.898870,814.226536,-10066.800811,-1455.581446
163515.899190,-2442.679609,-10658.965565,-1915.238745
163515.899510,-3849.070898,-8956.491898,-2451.505594
163515.899829,-2368.659014,-9548.656652,0.000000
163515.900149,1702.473667,-9178.553681,-689.485948
163515.900469,0.000000,-8290.306550,459.657299
163515.900789,1998.556043,-8290.306550,383.047749
163515.901108,1184.329507,-6217.729913,-919.314598
163515.901428,4367.215058,-11251.130318,2374.896044
163515.901748,-296.082377,-10658.965565,-689.485948
163515.902068,-2368.659014,-11621.233289,0.000000
163515.902387,-1258.350101,-11843.295072,-2528.115143
163515.902707,-3404.947333,-10955.047942,-459.657299
163515.903027,0.000000,-8364.327145,0.000000
163515.903347,-74.020594,-7105.977043,229.828649
163515.903667,1776.494261,-6587.832884,229.828649
163515.903986,0.000000,-4885.359217,-1149.143247
163515.904306,1258.350101,-10140.821405,689.485948
163515.904626,2886.803174,-9178.553681,612.876398
163515.904946,0.000000,-10140.821405,1225.752797
163515.905265,1924.535449,-11251.130318,2681.334243
163515.905585,814.226536,-11251.130318,2987.772442
163515.905905,2294.638420,-7994.224174,1838.629195
163515.906225,-3552.988522,-3627.009116,0.000000
163515.906544,-1850.514855,-8882.471304,-689.485948
163515.906864,-5403.503377,-6809.894666,-3217.601092
163515.907184,-3330.926739,-10510.924376,-1762.019645
163515.907504,-3330.926739,-8290.306550,-2528.115143
163515.907823,-2368.659014,-10955.047942,-76.609550
163515.908143,-3478.967927,-8512.368333,-1455.581446
163515.908463,-2294.638420,-8660.409521,-1762.019645
163515.908783,0.000000,-10732.986159,1225.752797
163515.909103,-1184.329507,-9104.533087,1685.410096
163515.909422,-2368.659014,-7179.997637,-2451.505594
163515.909742,222.061783,-7550.100608,-689.485948
163515.910062,3108.864956,-10214.842000,919.314598
163515.910382,1850.514855,-8068.244768,229.828649
163515.910701,3478.967927,-11251.130318,-76.609550
163515.911021,-74.020594,-9474.636058,-1149.143247
163515.911341,-74.020594,-14137.933492,2374.896044
163515.911661,814.226536,-10658.965565,306.438199
163515.911980,0.000000,-7476.080014,306.438199
163515.912300,1184.329507,-7179.997637,1838.629195
163515.912620,74.020594,-4811.338623,-995.924147
163515.912940,1998.556043,-8438.347739,76.609550
163515.913259,-962.267725,-7105.977043,-1685.410096
163515.913579,-814.226536,-10584.944971,-1225.752797
163515.913899,-74.020594,-11843.295072,-1302.362347
163515.914219,-1480.411884,-13101.645173,1838.629195
163515.914538,-666.185348,-11251.130318,-383.047749
163515.914858,-3627.009116,-8586.388927,-689.485948
163515.915178,-3478.967927,-6291.750507,-3677.258390
163515.915498,-3034.844362,-5477.523971,-3907.087040
163515.915818,2886.803174,-9400.615463,229.828649
163515.916137,1628.453072,-5921.647536,459.657299
163515.916457,2516.700203,-9252.574275,1455.581446
163515.916777,1702.473667,-10658.965565,-76.609550
163515.917097,814.226536,-11843.295072,-76.609550
163515.917416,-666.185348,-9844.739029,-689.485948
163515.917736,-3404.947333,-10362.883188,-1915.238745
163515.918056,-3552.988522,-8364.327145,-3064.381992
163515.918376,-2146.597232,-8734.430116,-2987.772442
163515.918695,3108.864956,-10362.883188,536.266849
163515.919015,888.247130,-6365.771101,-766.095498
163515.919335,1924.535449,-10288.862594,919.314598
163515.919655,-296.082377,-8882.471304,0.000000
163515.919974,0.000000,-9844.739029,3677.258390
163515.920294,814.226536,-7624.121203,1149.143247
163515.920614,-1036.288319,-8660.409521,1072.533697
163515.920934,-962.267725,-7920.203579,-842.705048
163515.921254,-370.102971,-7179.997637,-1685.410096
163515.921573,4071.132681,-9474.636058,-383.047749
163515.921893,-74.020594,-9474.636058,-689.485948
163515.922213,-1554.432478,-10881.027347,-1608.800546
163515.922533,-3256.906145,-9326.594869,-2528.115143
163515.922852,-74.020594,-14211.954086,1762.019645
163515.923172,-3256.906145,-7772.162391,0.000000
163515.923492,-3330.926739,-9326.594869,-306.438199
163515.923812,-2368.659014,-6883.915261,-1302.362347
163515.924131,-814.226536,-6957.935855,153.219100
163515.924451,3478.967927,-8290.306550,1302.362347
163515.924771,1628.453072,-6587.832884,536.266849
163515.925091,3478.967927,-8882.471304,-76.609550
163515.925410,-1554.432478,-9474.636058,-1302.362347
163515.925730,-370.102971,-14211.954086,-76.609550
163515.926050,-1332.370696,-12509.480420,-76.609550
163515.926370,-4441.235652,-11325.150913,-1225.752797
163515.926690,-2590.720797,-9770.718434,-2451.505594
163515.927009,-1110.308913,-9474.636058,-459.657299
163515.927329,3552.988522,-8438.347739,1225.752797
163515.927649,2516.700203,-4219.173869,0.000000
163515.927969,2886.803174,-7476.080014,229.828649
163515.928288,0.000000,-7772.162391,1225.752797
163515.928608,3478.967927,-13027.624579,2374.896044
163515.928928,-1258.350101,-8882.471304,-76.609550
163515.929248,-2368.659014,-12805.562797,3370.820191
163515.929567,-4515.256246,-8290.306550,-2911.162892
163515.929887,-1998.556043,-8882.471304,-153.219100
163515.930207,1036.288319,-7105.977043,-1225.752797
163515.930527,-2368.659014,-6587.832884,-3064.381992
163515.930846,-1776.494261,-8364.327145,-3140.991542
163515.931166,-666.185348,-9474.636058,-2528.115143
163515.931486,0.000000,-12065.356855,0.000000
163515.931806,-1628.453072,-10140.821405,-2451.505594
163515.932126,-666.185348,-13619.789333,-76.609550
163515.932445,-2072.576638,-8364.327145,-459.657299
163515.932765,888.247130,-7698.141797,536.266849
163515.933084,3849.070898,-7179.997637,536.266849
163515.933404,1776.494261,-7179.997637,536.266849
163515.933723,296.082377,-7772.162391,-536.266849
163515.934043,-666.185348,-10362.883188,-689.485948
163515.934363,-74.020594,-13619.789333,842.705048
163515.934682,-2738.761985,-9474.636058,-689.485948
163515.935002,-4219.173869,-9696.697840,-2145.067394
163515.935321,-666.185348,-9474.636058,-76.609550
163515.935641,0.000000,-7772.162391,-1225.752797
163515.935961,2886.803174,-7698.141797,-76.609550
163515.936280,1998.556043,-8660.409521,1991.848295
163515.936600,3108.864956,-8882.471304,919.314598
163515.936919,1184.329507,-9030.512492,2451.505594
163515.937239,4663.297435,-13323.706956,4213.525239
163515.937559,518.144159,-9474.636058,2374.896044
163515.937878,-3552.988522,-7772.162391,0.000000
163515.938198,-4737.318029,-5995.668130,-3370.820191
163515.938517,-74.020594,-11843.295072,-76.609550
163515.938837,-592.164754,-7179.997637,-1915.238745
163515.939156,-1480.411884,-8364.327145,-2221.676944
163515.939476,-740.205942,-10732.986159,-2528.115143
163515.939796,-2960.823768,-9548.656652,0.000000
163515.940115,-2368.659014,-11917.315666,0.000000
163515.940435,-4145.153275,-9548.656652,0.000000
163515.940754,-2442.679609,-12731.542202,-1302.362347
163515.941074,-2738.761985,-8068.244768,-2528.115143
163515.941394,3478.967927,-9474.636058,-76.609550
163515.941713,6439.791695,-8142.265362,2834.553343
163515.942033,3701.029710,-7476.080014,2528.115143
163515.942352,3775.050304,-8364.327145,689.485948
163515.942672,1924.535449,-9400.615463,919.314598
163515.942992,592.164754,-10140.821405,306.438199
163515.943311,-2442.679609,-10066.800811,-1762.019645
163515.943631,-5329.482782,-10732.986159,-1838.629195
163515.943950,-4589.276840,-8364.327145,-4903.011187
163515.944270,-1480.411884,-10436.903782,0.000000
163515.944590,-74.020594,-5921.647536,-3140.991542
163515.944909,148.041188,-7328.038826,-459.657299
163515.945229,0.000000,-7698.141797,-919.314598
163515.945548,0.000000,-9326.594869,612.876398
163515.945868,2294.638420,-12731.542202,3447.429741
163515.946187,-2442.679609,-10436.903782,1302.362347
163515.946507,-3034.844362,-11103.089130,-995.924147
163515.946827,-4367.215058,-9474.636058,-1302.362347
163515.947146,-666.185348,-8808.450710,-1991.848295
163515.947466,0.000000,-5995.668130,-2451.505594
163515.947785,1702.473667,-9178.553681,-383.047749
163515.948105,1184.329507,-7846.182985,-1532.190996
163515.948425,888.247130,-10584.944971,76.609550
163515.948744,3182.885551,-11251.130318,229.828649
163515.949064,-1036.288319,-11325.150913,1149.143247
163515.949383,-2368.659014,-10955.047942,76.609550
163515.949703,-74.020594,-11547.212695,-76.609550
163515.950023,2886.803174,-9474.636058,1762.019645
163515.950342,1258.350101,-5107.421000,0.000000
163515.950662,0.000000,-4811.338623,0.000000
163515.950981,2590.720797,-8586.388927,-76.609550
163515.951301,2590.720797,-11325.150913,1378.971896
163515.951620,1554.432478,-11399.171507,995.924147
163515.951940,-3034.844362,-9992.780217,0.000000
163515.952260,-3256.906145,-10436.903782,-612.876398
163515.952579,-5329.482782,-6735.874072,-3677.258390
163515.952899,0.000000,-10732.986159,306.438199
163515.953218,-444.123565,-8068.244768,0.000000
163515.953538,1702.473667,-9696.697840,229.828649
163515.953858,3478.967927,-8882.471304,-1302.362347
163515.954177,1480.411884,-10140.821405,1991.848295
163515.954497,1184.329507,-9548.656652,229.828649
163515.954816,-3478.967927,-10066.800811,-383.047749
163515.955136,-3552.988522,-10732.986159,-1685.410096
163515.955456,-4441.235652,-9252.574275,-2298.286494
163515.955775,-370.102971,-11547.212695,-229.828649
163515.956095,-74.020594,-9474.636058,-76.609550
163515.956414,1110.308913,-8438.347739,-689.485948
163515.956734,3330.926739,-9474.636058,-76.609550
163515.957054,2368.659014,-9548.656652,1838.629195
163515.957373,3108.864956,-9548.656652,536.266849
163515.957693,-1480.411884,-9992.780217,536.266849
163515.958012,-2442.679609,-10732.986159,-995.924147
163515.958332,-4219.173869,-7476.080014,-3677.258390
163515.958651,1332.370696,-11325.150913,1149.143247
163515.958971,74.020594,-5921.647536,0.000000
163515.959291,1406.391290,-8216.285956,1455.581446
163515.959610,1998.556043,-7994.224174,-76.609550
163515.959930,4663.297435,-10658.965565,2068.457845
163515.960249,0.000000,-9548.656652,0.000000
163515.960569,-3627.009116,-10658.965565,-689.485948
163515.960889,-4071.132681,-11843.295072,-1302.362347
163515.961208,-5921.647536,-9548.656652,-2451.505594
163515.961528,-1258.350101,-9622.677246,-2298.286494
163515.961847,-740.205942,-7179.997637,-1455.581446
163515.962167,888.247130,-8512.368333,306.438199
163515.962487,1702.473667,-6735.874072,-1302.362347
163515.962806,4145.153275,-10362.883188,2374.896044
163515.963126,3775.050304,-9326.594869,612.876398
163515.963445,-1776.494261,-10732.986159,0.000000
163515.963765,-4145.153275,-10732.986159,0.000000
163515.964084,-2960.823768,-11399.171507,-1302.362347
163515.964404,-3256.906145,-9548.656652,0.000000
163515.964724,-74.020594,-7105.977043,-1608.800546
163515.965043,3552.988522,-8142.265362,459.657299
163515.965363,2886.803174,-6365.771101,383.047749
163515.965682,3849.070898,-8364.327145,2681.334243
163515.966002,1702.473667,-6957.935855,-383.047749
163515.966322,-3478.967927,-10288.862594,-612.876398
163515.966641,-5107.421000,-8956.491898,-4596.572988
163515.966961,-5329.482782,-11325.150913,0.000000
163515.967280,-1184.329507,-10658.965565,-76.609550
163515.967600,-2368.659014,-4811.338623,0.000000
163515.967920,2294.638420,-8290.306550,842.705048
163515.968239,2812.782580,-6661.853478,0.000000
163515.968559,4737.318029,-10140.821405,2757.943793
163515.968878,2886.803174,-7698.141797,1149.143247
163515.969198,-74.020594,-11251.130318,1225.752797
163515.969518,-1554.432478,-11251.130318,-689.485948
163515.969837,-5181.441594,-9696.697840,-2451.505594
163515.970157,-3256.906145,-9548.656652,-2604.724693
163515.970476,-2368.659014,-8364.327145,1378.971896
163515.970796,0.000000,-8364.327145,0.000000
163515.971115,-74.020594,-7105.977043,-842.705048
163515.971435,370.102971,-10807.006753,919.314598
163515.971755,-814.226536,-8364.327145,-919.314598
163515.972074,-2442.679609,-10658.965565,-2068.457845
163515.972394,-2590.720797,-11547.212695,-1608.800546
163515.972713,-3034.844362,-11843.295072,-1302.362347
163515.973033,-888.247130,-8364.327145,0.000000
163515.973353,0.000000,-5995.668130,1225.752797
163515.973672,5921.647536,-9474.636058,4213.525239
163515.973992,2960.823768,-5699.585753,459.657299
163515.974311,4515.256246,-9696.697840,2221.676944
163515.974631,370.102971,-8660.409521,459.657299
163515.974951,-1406.391290,-11695.253884,0.000000
163515.975270,-4737.318029,-9844.739029,-4903.011187
163515.975590,-3552.988522,-11917.315666,76.609550
163515.975909,-740.205942,-9252.574275,1378.971896
163515.976229,-74.020594,-7105.977043,-76.609550
163515.976549,518.144159,-7698.141797,-689.485948
163515.976868,0.000000,-7476.080014,383.047749
163515.977188,1110.308913,-9252.574275,0.000000
163515.977507,-888.247130,-7772.162391,-1455.581446
163515.977827,-2146.597232,-11991.336260,-842.705048
163515.978146,-4589.276840,-8364.327145,-4903.011187
163515.978466,-2812.782580,-10140.821405,-1225.752797
163515.978786,-2442.679609,-8068.244768,-2451.505594
163515.979105,-1776.494261,-8956.491898,0.000000
163515.979425,2590.720797,-9474.636058,0.000000
163515.979744,5847.626942,-9474.636058,-76.609550
163515.980064,5033.400406,-10288.862594,3677.258390
163515.980384,1998.556043,-7624.121203,459.657299
163515.980703,222.061783,-10510.924376,766.095498
163515.981023,-1554.432478,-9474.636058,-1838.629195
163515.981342,-1850.514855,-9548.656652,76.609550
163515.981662,1110.308913,-9474.636058,-76.609550
163515.981982,-74.020594,-7920.203579,-383.047749
163515.982301,888.247130,-6735.874072,-1915.238745
163515.982621,0.000000,-7179.997637,0.000000
163515.982940,5847.626942,-11843.295072,3600.648841
163515.983260,-1110.308913,-8068.244768,0.000000
163515.983579,-2442.679609,-11695.253884,-1225.752797
163515.983899,-4219.173869,-9844.739029,-2451.505594
163515.984219,-3552.988522,-12213.398043,612.876398
163515.984538,-1480.411884,-7772.162391,0.000000
163515.984858,-148.041188,-9400.615463,766.095498
163515.985177,2294.638420,-9474.636058,-76.609550
163515.985497,1110.308913,-6661.853478,-689.485948
163515.985817,2590.720797,-7846.182985,536.266849
163515.986136,-74.020594,-9474.636058,-76.609550
163515.986456,-3330.926739,-10955.047942,-1838.629195
163515.986775,-5699.585753,-10881.027347,-4290.134789
163515.987095,-3997.112087,-12213.398043,-612.876398
163515.987415,-3552.988522,-8364.327145,0.000000
163515.987734,-1184.329507,-8364.327145,919.314598
163515.988054,0.000000,-5995.668130,0.000000
163515.988373,1110.308913,-8068.244768,2068.457845
163515.988693,4071.132681,-9178.553681,2987.772442
163515.989013,2886.803174,-6513.812290,-76.609550
163515.989332,666.185348,-11029.068536,1455.581446
163515.989652,-2590.720797,-9104.533087,-1149.143247
163515.989971,-2146.597232,-11991.336260,536.266849
163515.990291,-1924.535449,-8142.265362,-1302.362347
163515.990610,-3552.988522,-8364.327145,0.000000
163515.990930,-74.020594,-7994.224174,-1915.238745
163515.991250,-1036.288319,-7476.080014,0.000000
163515.991569,1554.432478,-8512.368333,612.876398
163515.991889,-370.102971,-9474.636058,-76.609550
163515.992208,-74.020594,-11843.295072,1455.581446
163515.992528,-3552.988522,-7920.203579,-1915.238745
163515.992848,-592.164754,-10658.965565,612.876398
163515.993167,-370.102971,-7920.203579,-1149.143247
163515.993487,-2368.659014,-7772.162391,0.000000
163515.993806,148.041188,-7624.121203,-2145.067394
163515.994126,1628.453072,-9770.718434,-383.047749
163515.994446,4145.153275,-12361.439231,1685.410096
163515.994765,1702.473667,-10658.965565,-1302.362347
163515.995085,0.000000,-11917.315666,919.314598
163515.995404,-2960.823768,-9104.533087,-2145.067394
163515.995724,592.164754,-12213.398043,-76.609550
163515.996043,2294.638420,-9474.636058,-76.609550
163515.996363,1924.535449,-8586.388927,1072.533697
163515.996683,4071.132681,-7698.141797,-689.485948
163515.997002,2664.741391,-7772.162391,1915.238745
163515.997322,3478.967927,-7624.121203,1608.800546
163515.997641,-222.061783,-8364.327145,536.266849
163515.997961,-1258.350101,-10955.047942,-306.438199
163515.998281,-5921.647536,-11621.233289,-2528.115143
163515.998600,-4737.318029,-12509.480420,-1225.752797
163515.998920,-1850.514855,-9474.636058,-1915.238745
163515.999239,-666.185348,-11843.295072,-76.609550
163515.999559,-2960.823768,-5403.503377,-2451.505594
163515.999879,2294.638420,-8290.306550,1762.019645
163516.000198,3256.906145,-7031.956449,1302.362347
163516.000518,1850.514855,-7846.182985,1838.629195
163516.000837,370.102971,-9474.636058,153.219100
163516.001157,-3552.988522,-10732.986159,1149.143247
163516.001477,592.164754,-12361.439231,1072.533697
163516.001796,-2368.659014,-8364.327145,-919.314598
163516.002116,-3552.988522,-9548.656652,0.000000
163516.002435,-1184.329507,-8216.285956,-995.924147
163516.002755,-1554.432478,-8068.244768,-2298.286494
163516.003074,814.226536,-8734.430116,-995.924147
163516.003394,-1628.453072,-8808.450710,-1915.238745
163516.003714,-2368.659014,-9770.718434,-1532.190996
163516.004033,-3034.844362,-9992.780217,-1149.143247
163516.004353,1110.308913,-13619.789333,2374.896044
163516.004672,-666.185348,-8586.388927,2374.896044
163516.004992,-74.020594,-10658.965565,1762.019645
163516.005312,-1924.535449,-5995.668130,-1225.752797
163516.005631,1776.494261,-8586.388927,2451.505594
163516.005951,2294.638420,-6143.709319,0.000000
163516.006270,2072.576638,-8586.388927,1762.019645
163516.006590,-222.061783,-9844.739029,-1455.581446
163516.006910,-2220.617826,-10214.842000,-1302.362347
163516.007229,-74.020594,-14211.954086,-76.609550
163516.007549,-1258.350101,-10658.965565,-1838.629195
163516.007868,-2072.576638,-12139.377449,-536.266849
163516.008188,-3034.844362,-8290.306550,-3753.867940
163516.008507,-666.185348,-9474.636058,-383.047749
163516.008827,0.000000,-4811.338623,0.000000
163516.009147,-74.020594,-7402.059420,-842.705048
163516.009466,-518.144159,-8290.306550,-1685.410096
163516.009786,-1406.391290,-8956.491898,-153.219100
163516.010105,1184.329507,-10436.903782,689.485948
163516.010425,444.123565,-9252.574275,919.314598
163516.010745,0.000000,-9548.656652,0.000000
163516.011064,1110.308913,-8808.450710,-306.438199
163516.011384,4663.297435,-12731.542202,3983.696590
163516.011703,4367.215058,-8882.471304,-76.609550
163516.012023,0.000000,-7179.997637,-2145.067394
163516.012343,-518.144159,-9844.739029,-2834.553343
163516.012662,-1850.514855,-10658.965565,-1532.190996
163516.012982,0.000000,-11991.336260,0.000000
163516.013301,-222.061783,-7994.224174,-76.609550
163516.013621,-74.020594,-9474.636058,-76.609550
163516.013941,-1628.453072,-6513.812290,0.000000
163516.014260,0.000000,-7179.997637,612.876398
163516.014580,296.082377,-6587.832884,1225.752797
163516.014899,-2590.720797,-10066.800811,919.314598
163516.015219,-8734.430116,-8364.327145,-3677.258390
163516.015538,-6883.915261,-10955.047942,-1762.019645
163516.015858,-4885.359217,-11621.233289,-459.657299
163516.016178,-5403.503377,-9178.553681,-1072.533697
163516.016497,-2442.679609,-10658.965565,-689.485948
163516.016817,-3627.009116,-7698.141797,-766.095498
163516.017136,-74.020594,-11251.130318,2987.772442
163516.017456,-2368.659014,-5773.606348,0.000000
163516.017776,-3404.947333,-8364.327145,0.000000
163516.018095,-5921.647536,-9548.656652,0.000000
163516.018415,-7698.141797,-9548.656652,-2451.505594
163516.018734,-6661.853478,-12731.542202,-612.876398
163516.019054,-6883.915261,-10436.903782,-459.657299
163516.019374,-7105.977043,-10436.903782,-459.657299
163516.019693,-7476.080014,-9178.553681,-383.047749
163516.020013,-7105.977043,-7179.997637,153.219100
163516.020332,-4071.132681,-8734.430116,3294.210641
163516.020652,-74.020594,-7698.141797,5439.278036
163516.020971,-3923.091493,-6513.812290,1762.019645
163516.021291,-8290.306550,-5403.503377,2451.505594
163516.021611,-6143.709319,-8290.306550,-1302.362347
163516.021930,-5033.400406,-10140.821405,0.000000
163516.022250,-3182.885551,-10140.821405,995.924147
163516.022569,-5255.462188,-9548.656652,0.000000
163516.022889,-7179.997637,-9918.759623,-3140.991542
163516.023209,-10362.883188,-9548.656652,-5439.278036
163516.023528,-11251.130318,-10140.821405,-4903.011187
163516.023848,-3330.926739,-12435.459826,-229.828649
163516.024167,-74.020594,-11251.130318,3600.648841
163516.024487,0.000000,-6587.832884,2757.943793
163516.024807,222.061783,-4441.235652,459.657299
163516.025126,-148.041188,-6883.915261,689.485948
163516.025446,-296.082377,-7105.977043,153.219100
163516.025765,-1850.514855,-8808.450710,-1991.848295
163516.026085,-2738.761985,-11251.130318,1149.143247
163516.026405,-3034.844362,-11843.295072,-1915.238745
163516.026724,-6513.812290,-10732.986159,-2451.505594
163516.027044,-4589.276840,-9844.739029,-3983.696590
163516.027363,-4737.318029,-7772.162391,-2451.505594
163516.027683,-740.205942,-8512.368333,-1302.362347
163516.028002,1110.308913,-7328.038826,612.876398
163516.028322,1184.329507,-7550.100608,1149.143247
163516.028642,1110.308913,-6513.812290,-76.609550
163516.028961,444.123565,-9474.636058,-2298.286494
163516.029281,-2368.659014,-9548.656652,-1225.752797
163516.029600,-74.020594,-12435.459826,-76.609550
163516.029920,-74.020594,-14211.954086,2374.896044
163516.030240,-2146.597232,-11103.089130,306.438199
163516.030559,-666.185348,-9474.636058,-689.485948
163516.030879,-3997.112087,-8364.327145,-2221.676944
163516.031198,-3997.112087,-7624.121203,-2298.286494
163516.031518,-3034.844362,-8290.306550,-1685.410096
163516.031838,-888.247130,-9474.636058,2298.286494
163516.032157,-1406.391290,-7994.224174,612.876398
163516.032477,-1406.391290,-8142.265362,766.095498
163516.032796,-2886.803174,-5995.668130,-2451.505594
163516.033116,-3552.988522,-7772.162391,-1225.752797
163516.033436,-2442.679609,-11843.295072,-2528.115143
163516.033755,-5625.565159,-11325.150913,-3064.381992
163516.034075,-4737.318029,-12583.501014,-229.828649
163516.034394,-3997.112087,-12065.356855,842.705048
163516.034714,-3256.906145,-10436.903782,3600.648841
163516.035034,-4737.318029,-5995.668130,1532.190996
163516.035353,-518.144159,-5329.482782,2451.505594
163516.035673,-1702.473667,-4145.153275,689.485948
163516.035992,-4145.153275,-6883.915261,-919.314598
163516.036312,-3627.009116,-9178.553681,-383.047749
163516.036632,-3627.009116,-10362.883188,-383.047749
163516.036951,-6513.812290,-10732.986159,0.000000
163516.037271,-5699.585753,-12435.459826,-1302.362347
163516.037590,-5699.585753,-11251.130318,-76.609550
163516.037910,-3552.988522,-10732.986159,3753.867940
163516.038230,-5921.647536,-7179.997637,1225.752797
163516.038549,-4811.338623,-6439.791695,153.219100
163516.038869,-4811.338623,-6291.750507,-1302.362347
163516.039188,-3627.009116,-9030.512492,-842.705048
163516.039508,-3627.009116,-9548.656652,0.000000
163516.039828,-5995.668130,-10214.842000,76.609550
163516.040147,-7105.977043,-10436.903782,-3677.258390
163516.040467,-4811.338623,-13027.624579,-1915.238745
163516.040786,-3627.009116,-12435.459826,-919.314598
163516.041106,-1776.494261,-11325.150913,2604.724693
163516.041426,-1480.411884,-7105.977043,689.485948
163516.041745,-2146.597232,-5699.585753,-995.924147
163516.042065,-2738.761985,-7105.977043,-2298.286494
163516.042384,-3701.029710,-9622.677246,-1838.629195
163516.042704,-4737.318029,-9548.656652,0.000000
163516.043024,-4441.235652,-11251.130318,1762.019645
163516.043343,-6513.812290,-8364.327145,1225.752797
163516.043663,-3923.091493,-8364.327145,229.828649
163516.043982,-1554.432478,-9474.636058,-76.609550
163516.044302,1184.329507,-8734.430116,2604.724693
163516.044622,1332.370696,-8290.306550,2757.943793
163516.044941,-370.102971,-7846.182985,1608.800546
163516.045261,-3108.864956,-7254.018232,-766.095498
163516.045580,-5551.544565,-5995.668130,-4903.011187
163516.045900,-3627.009116,-9474.636058,-4979.620737
163516.046220,-2738.761985,-10658.965565,-5286.058936
163516.046539,-3849.070898,-11029.068536,-3830.477490
163516.046859,-4219.173869,-12287.418637,-2451.505594
163516.047178,-1258.350101,-15988.448347,3600.648841
163516.047498,-3256.906145,-11325.150913,2528.115143
163516.047818,-1628.453072,-7920.203579,1991.848295
163516.048137,-370.102971,-4219.173869,612.876398
163516.048457,518.144159,-4219.173869,1302.362347
163516.048776,1110.308913,-5329.482782,1608.800546
163516.049096,962.267725,-7550.100608,919.314598
163516.049416,-2442.679609,-9622.677246,-1225.752797
163516.049735,-4811.338623,-11251.130318,-4673.182538
163516.050055,-8290.306550,-12509.480420,-4596.572988
163516.050374,-5995.668130,-12435.459826,-4979.620737
163516.050694,-5995.668130,-11399.171507,-3447.429741
163516.051014,-2886.803174,-9030.512492,-1838.629195
163516.051333,222.061783,-7476.080014,0.000000
163516.051653,1332.370696,-6661.853478,2298.286494
163516.051972,148.041188,-8290.306550,4519.963438
163516.052292,-1258.350101,-9474.636058,2681.334243
163516.052612,-3034.844362,-11251.130318,3600.648841
163516.052931,-4737.318029,-9548.656652,3140.991542
163516.053251,-1702.473667,-10140.821405,4903.011187
163516.053570,-2442.679609,-7105.977043,1455.581446
163516.053890,-4071.132681,-7031.956449,-459.657299
163516.054210,-6069.688724,-6365.771101,-4213.525239
163516.054529,-9030.512492,-7698.141797,-6741.640382
163516.054849,-8956.491898,-11843.295072,-5592.497135
163516.055168,-9252.574275,-12435.459826,-4979.620737
163516.055488,-8290.306550,-11325.150913,-3064.381992
163516.055808,-1850.514855,-13027.624579,-76.609550
163516.056127,-1184.329507,-8956.491898,2374.896044
163516.056447,0.000000,-7179.997637,2451.505594
163516.056766,2294.638420,-8290.306550,4519.963438
163516.057086,740.205942,-8216.285956,4213.525239
163516.057406,-1036.288319,-8364.327145,2681.334243
163516.057725,-2812.782580,-9622.677246,459.657299
163516.058045,-3997.112087,-11325.150913,-76.609550
163516.058364,-8882.471304,-8660.409521,-4596.572988
163516.058684,-8290.306550,-9696.697840,-4290.134789
163516.059004,-5773.606348,-10362.883188,-3064.381992
163516.059323,-1850.514855,-11547.212695,-76.609550
163516.059643,-4441.235652,-5403.503377,0.000000
163516.059962,814.226536,-7994.224174,2987.772442
163516.060282,222.061783,-8216.285956,4060.306139
163516.060602,1110.308913,-8290.306550,4136.915689
163516.060921,222.061783,-8290.306550,3600.648841
163516.061241,-1628.453072,-8438.347739,3294.210641
163516.061560,-2442.679609,-8734.430116,842.705048
163516.061880,-1184.329507,-9548.656652,0.000000
163516.062200,0.000000,-10140.821405,612.876398
163516.062519,2368.659014,-11843.295072,2451.505594
163516.062839,0.000000,-9548.656652,0.000000
163516.063158,2664.741391,-10288.862594,1149.143247
163516.063478,2220.617826,-9696.697840,2068.457845
163516.063798,2442.679609,-9252.574275,2528.115143
163516.064117,4367.215058,-8882.471304,4826.401637
163516.064437,4367.215058,-9474.636058,5975.544884
163516.064756,3330.926739,-8882.471304,6052.154434
163516.065076,592.164754,-8364.327145,6128.763984
163516.065395,1554.432478,-10362.883188,6052.154434
163516.065715,-1184.329507,-9548.656652,4903.011187
163516.066035,-2368.659014,-8956.491898,2451.505594
163516.066354,-1628.453072,-10584.944971,3217.601092
163516.066674,-666.185348,-10510.924376,4290.134789
163516.066993,518.144159,-10214.842000,6281.983084
163516.067313,4663.297435,-9474.636058,9116.536426
163516.067633,2368.659014,-5995.668130,8580.269578
163516.067952,4071.132681,-6513.812290,7277.907231
163516.068272,962.267725,-5255.462188,4290.134789
163516.068591,-1258.350101,-5699.585753,2451.505594
163516.068911,-2146.597232,-8142.265362,2451.505594
163516.069231,-1258.350101,-12805.562797,4673.182538
163516.069550,-1850.514855,-15026.180623,6358.592633
163516.069870,-2368.659014,-14878.139434,7354.516781
163516.070189,-1258.350101,-14211.954086,9729.412825
163516.070509,-2442.679609,-8586.388927,7890.783629
163516.070829,-1998.556043,-3552.988522,6052.154434
163516.071148,-2072.576638,-740.205942,2834.553343
163516.071468,0.000000,-3627.009116,4903.011187
163516.071787,-74.020594,-7698.141797,3600.648841
163516.072107,814.226536,-11029.068536,6052.154434
163516.072427,-1480.411884,-11399.171507,4903.011187
163516.072746,-3182.885551,-12287.418637,4903.011187
163516.073066,-4293.194464,-12065.356855,3447.429741
163516.073385,-4737.318029,-9548.656652,3677.258390
163516.073705,-2146.597232,-9622.677246,3217.601092
163516.074025,592.164754,-9622.677246,5209.449386
163516.074344,1554.432478,-9992.780217,6052.154434
163516.074664,1332.370696,-8364.327145,4903.011187
163516.074983,-74.020594,-7698.141797,3600.648841
163516.075303,-74.020594,-9474.636058,2987.772442
163516.075623,-3775.050304,-6883.915261,0.000000
163516.075942,-1776.494261,-6291.750507,76.609550
163516.076262,2294.638420,-10362.883188,4826.401637
163516.076581,0.000000,-7772.162391,2757.943793
163516.076901,666.185348,-9844.739029,766.095498
163516.077221,-1628.453072,-10658.965565,-153.219100
163516.077540,-3627.009116,-11843.295072,-995.924147
163516.077860,-3034.844362,-12435.459826,-919.314598
163516.078179,-1628.453072,-12065.356855,1149.143247
163516.078499,-74.020594,-10436.903782,1149.143247
163516.078819,2294.638420,-11251.130318,2987.772442
163516.079138,1702.473667,-7402.059420,1149.143247
163516.079458,2368.659014,-7624.121203,3524.039291
163516.079777,296.082377,-5107.421000,-1838.629195
163516.080097,1406.391290,-7920.203579,-1838.629195
163516.080417,3404.947333,-12287.418637,0.000000
163516.080736,4737.318029,-10436.903782,2451.505594
163516.081056,3997.112087,-9770.718434,3370.820191
163516.081375,-296.082377,-8956.491898,-1302.362347
163516.081695,-5107.421000,-11251.130318,-4979.620737
163516.082015,-4811.338623,-13027.624579,-3447.429741
163516.082334,-2220.617826,-12435.459826,153.219100
163516.082654,0.000000,-9326.594869,1378.971896
163516.082973,444.123565,-7772.162391,2374.896044
163516.083293,1554.432478,-6143.709319,842.705048
163516.083613,4071.132681,-6513.812290,1762.019645
163516.083932,1480.411884,-6143.709319,919.314598
163516.084252,814.226536,-7772.162391,-1838.629195
163516.084571,296.082377,-10732.986159,612.876398
163516.084891,-2072.576638,-9844.739029,0.000000
163516.085211,-3552.988522,-11473.192101,0.000000
163516.085530,-1258.350101,-15396.283594,3600.648841
163516.085850,-2294.638420,-10732.986159,1685.410096
163516.086169,-2368.659014,-7920.203579,612.876398
163516.086489,-1332.370696,-10288.862594,1532.190996
163516.086809,-1998.556043,-9178.553681,612.876398
163516.087128,1332.370696,-7772.162391,1991.848295
163516.087448,3997.112087,-8438.347739,5439.278036
163516.087767,2072.576638,-7105.977043,4519.963438
163516.088087,2294.638420,-9474.636058,2374.896044
163516.088407,0.000000,-8660.409521,1225.752797
163516.088726,0.000000,-11769.274478,2145.067394
163516.089046,-1184.329507,-15396.283594,4826.401637
163516.089365,-3923.091493,-10732.986159,2374.896044
163516.089685,-2516.700203,-9326.594869,2145.067394
163516.090005,-444.123565,-7550.100608,2298.286494
163516.090324,0.000000,-7179.997637,3677.258390
163516.090644,-2368.659014,-5403.503377,4903.011187
163516.090963,-1406.391290,-5107.421000,2681.334243
163516.091283,0.000000,-6587.832884,4903.011187
163516.091603,2590.720797,-8808.450710,4903.011187
163516.091922,3478.967927,-8882.471304,6052.154434
163516.092242,2590.720797,-11103.089130,6818.249932
163516.092561,-1554.432478,-12065.356855,3524.039291
163516.092881,-3182.885551,-12435.459826,2757.943793
163516.093201,-4071.132681,-11547.212695,2451.505594
163516.093520,-5921.647536,-9548.656652,612.876398
163516.093840,-3627.009116,-9474.636058,-76.609550
163516.094159,-3552.988522,-7772.162391,1302.362347
163516.094479,0.000000,-7179.997637,3064.381992
163516.094799,1776.494261,-6587.832884,5822.325785
163516.095118,3478.967927,-7105.977043,6052.154434
163516.095438,3034.844362,-7328.038826,6128.763984
163516.095757,4515.256246,-6883.915261,4903.011187
163516.096077,2368.659014,-9548.656652,6281.983084
163516.096397,1998.556043,-12435.459826,8503.660028
163516.096716,1554.432478,-12805.562797,6511.811733
163516.097036,-518.144159,-13323.706956,5745.716235
163516.097355,-1258.350101,-12435.459826,4826.401637
163516.097675,-3034.844362,-9474.636058,1762.019645
163516.097995,-3701.029710,-5995.668130,0.000000
163516.098314,-74.020594,-6513.812290,2374.896044
163516.098634,444.123565,-5551.544565,2911.162892
163516.098953,1702.473667,-7254.018232,3064.381992
163516.099273,2146.597232,-9918.759623,4673.182538
163516.099593,1184.329507,-11325.150913,6128.763984
163516.099912,0.000000,-11917.315666,6281.983084
163516.100232,0.000000,-13101.645173,7967.393179
163516.100551,-74.020594,-10658.965565,4826.401637
163516.100871,-3034.844362,-9252.574275,4366.744339
163516.101191,-3627.009116,-5847.626942,76.609550
163516.101510,-814.226536,-6809.894666,-76.609550
163516.101830,-2146.597232,-8216.285956,153.219100
163516.102149,-814.226536,-7698.141797,-1149.143247
163516.102469,-1554.432478,-10658.965565,0.000000
163516.102789,0.000000,-10732.986159,2451.505594
163516.103108,518.144159,-10658.965565,2221.676944
163516.103428,888.247130,-11325.150913,4903.011187
163516.103747,1702.473667,-9104.533087,2451.505594
163516.104067,2886.803174,-11843.295072,7277.907231
163516.104387,-222.061783,-6661.853478,1991.848295
163516.104706,740.205942,-7105.977043,3677.258390
163516.105026,-518.144159,-5403.503377,153.219100
163516.105345,-1776.494261,-5625.565159,-1991.848295
163516.105665,-962.267725,-10362.883188,-689.485948
163516.105985,0.000000,-12435.459826,-76.609550
163516.106304,1998.556043,-12731.542202,842.705048
163516.106624,-3849.070898,-11251.130318,-76.609550
163516.106943,-5329.482782,-7772.162391,-1838.629195
163516.107263,-2368.659014,-5995.668130,0.000000
163516.107583,1702.473667,-7031.956449,-995.924147
163516.107902,3552.988522,-7105.977043,0.000000
163516.108222,1258.350101,-9548.656652,-306.438199
163516.108541,0.000000,-10955.047942,-1532.190996
163516.108861,-1258.350101,-13619.789333,-1302.362347
163516.109181,-3108.864956,-12361.439231,-3294.210641
163516.109500,-4145.153275,-11621.233289,-5209.449386
163516.109820,-666.185348,-11843.295072,-3753.867940
163516.110139,-666.185348,-7698.141797,-3753.867940
163516.110459,0.000000,-4811.338623,-3677.258390
163516.110779,1998.556043,-6957.935855,-4519.963438
163516.111098,74.020594,-8216.285956,-5439.278036
163516.111418,518.144159,-11843.295072,-4673.182538
163516.111737,1924.535449,-10881.027347,-2068.457845
163516.112057,3849.070898,-12879.583391,-306.438199
163516.112377,-3552.988522,-7772.162391,-3677.258390
163516.112696,-592.164754,-9770.718434,-2528.115143
163516.113016,-74.020594,-8216.285956,-3370.820191
163516.113335,2590.720797,-8808.450710,-3064.381992
163516.113655,-74.020594,-7105.977043,-6818.249932
163516.113975,-1184.329507,-11029.068536,-4979.620737
163516.114294,592.164754,-11177.109724,-4979.620737
163516.114614,296.082377,-12065.356855,-2374.896044
163516.114933,2368.659014,-11769.274478,-76.609550
163516.115253,-1554.432478,-8290.306550,-2528.115143
163516.115573,-814.226536,-7698.141797,-3140.991542
163516.115892,-740.205942,-4441.235652,-2528.115143
163516.116212,296.082377,-6587.832884,0.000000
163516.116531,2738.761985,-8882.471304,-1608.800546
163516.116851,-1036.288319,-11473.192101,-1378.971896
163516.117171,-2146.597232,-12435.459826,-2528.115143
163516.117490,-2146.597232,-11991.336260,-1915.238745
163516.117810,-1998.556043,-9622.677246,-3294.210641
163516.118129,-5921.647536,-5403.503377,-4903.011187
163516.118449,-962.267725,-9474.636058,-2528.115143
163516.118769,814.226536,-7920.203579,-306.438199
163516.119088,4663.297435,-9030.512492,1532.190996
163516.119408,1184.329507,-7698.141797,536.266849
163516.119727,-74.020594,-13027.624579,0.000000
163516.120047,-74.020594,-11769.274478,2681.334243
163516.120367,1702.473667,-11251.130318,2681.334243
163516.120686,962.267725,-8586.388927,2987.772442
163516.121006,-1184.329507,-7476.080014,3064.381992
163516.121325,-2960.823768,-5995.668130,1225.752797
163516.121645,-1258.350101,-6291.750507,1302.362347
163516.121965,592.164754,-8142.265362,1455.581446
163516.122284,-1332.370696,-6809.894666,-612.876398
163516.122604,-74.020594,-10362.883188,995.924147
163516.122923,-74.020594,-10807.006753,1762.019645
163516.123243,1036.288319,-12583.501014,5209.449386
163516.123563,1702.473667,-13027.624579,4826.401637
163516.123882,-3849.070898,-8068.244768,919.314598
163516.124202,-3552.988522,-9548.656652,2451.505594
163516.124521,-2368.659014,-6661.853478,1225.752797
163516.124841,666.185348,-8956.491898,3294.210641
163516.125161,74.020594,-6735.874072,1149.143247
163516.125480,74.020594,-10214.842000,1762.019645
163516.125800,-74.020594,-9918.759623,536.266849
163516.126119,-1184.329507,-11103.089130,1915.238745
163516.126439,-3256.906145,-9548.656652,0.000000
163516.126759,-2812.782580,-10658.965565,1685.410096
163516.127078,-962.267725,-10066.800811,2068.457845
163516.127398,0.000000,-7179.997637,3677.258390
163516.127717,3108.864956,-9178.553681,3217.601092
163516.128037,592.164754,-7105.977043,1608.800546
163516.128357,-222.061783,-9770.718434,2528.115143
163516.128676,-1554.432478,-9400.615463,1149.143247
163516.128996,-74.020594,-10658.965565,4213.525239
163516.129315,1702.473667,-8290.306550,1762.019645
163516.129635,-4145.153275,-5107.421000,612.876398
163516.129955,-1332.370696,-7920.203579,0.000000
163516.130274,1554.432478,-9326.594869,4136.915689
163516.130594,296.082377,-9548.656652,1225.752797
163516.130913,-1480.411884,-8290.306550,459.657299
163516.131233,-2664.741391,-8882.471304,0.000000
163516.131553,-2072.576638,-7772.162391,-995.924147
163516.131872,2886.803174,-9474.636058,-76.609550
163516.132192,2812.782580,-8882.471304,842.705048
163516.132511,-74.020594,-10658.965565,536.266849
163516.132831,0.000000,-9548.656652,0.000000
163516.133151,-3552.988522,-7179.997637,0.000000
163516.133470,-370.102971,-10066.800811,1378.971896
163516.133790,-3330.926739,-5625.565159,-5515.887586
163516.134110,222.061783,-10066.800811,-3294.210641
163516.134429,2368.659014,-10140.821405,-1991.848295
163516.134749,3404.947333,-12583.501014,0.000000
163516.135069,-814.226536,-11103.089130,-3677.258390
163516.135388,-4441.235652,-10436.903782,-2757.943793
163516.135708,-666.185348,-12435.459826,-76.609550
163516.136028,-74.020594,-8290.306550,-2528.115143
163516.136347,4663.297435,-9474.636058,-689.485948
163516.136667,2294.638420,-7994.224174,-459.657299
163516.136987,2368.659014,-10140.821405,1072.533697
163516.137306,222.061783,-9178.553681,-383.047749
163516.137626,-814.226536,-11325.150913,-1838.629195
163516.137946,-4737.318029,-8364.327145,-4290.134789
163516.138266,-5921.647536,-9548.656652,-4903.011187
163516.138585,-4145.153275,-7772.162391,-4290.134789
163516.138905,0.000000,-9252.574275,-919.314598
163516.139225,1998.556043,-9474.636058,-1225.752797
163516.139544,-1850.514855,-8290.306550,-5592.497135
163516.139864,-74.020594,-10362.883188,-2528.115143
163516.140184,-962.267725,-8216.285956,-2911.162892
163516.140503,2220.617826,-11399.171507,229.828649
163516.140823,222.061783,-8882.471304,-1225.752797
163516.141143,-3552.988522,-8364.327145,0.000000
163516.141462,-666.185348,-7105.977043,-1455.581446
163516.141782,-1776.494261,-5995.668130,-1762.019645
163516.142102,0.000000,-6217.729913,-4903.011187
163516.142422,-1184.329507,-7772.162391,-2911.162892
163516.142741,2886.803174,-9474.636058,-3140.991542
163516.143061,2886.803174,-9992.780217,1225.752797
163516.143381,3552.988522,-11843.295072,1608.800546
163516.143700,-814.226536,-9326.594869,-1149.143247
163516.144020,-666.185348,-12361.439231,-76.609550
163516.144340,-1480.411884,-9474.636058,536.266849
163516.144659,1702.473667,-10066.800811,1762.019645
163516.144979,1480.411884,-7994.224174,-76.609550
163516.145299,-2368.659014,-5995.668130,0.000000
163516.145618,-2368.659014,-8364.327145,0.000000
163516.145938,-74.020594,-8290.306550,-1608.800546
163516.146258,0.000000,-10288.862594,-1378.971896
163516.146578,-3330.926739,-10510.924376,-2221.676944
163516.146897,-3108.864956,-12509.480420,-612.876398
163516.147217,-1036.288319,-13027.624579,2987.772442
163516.147537,0.000000,-10140.821405,1838.629195
163516.147856,296.082377,-8364.327145,1685.410096
163516.148176,-74.020594,-8290.306550,-76.609550
163516.148496,370.102971,-8364.327145,612.876398
163516.148815,0.000000,-6291.750507,0.000000
163516.149135,2294.638420,-11547.212695,2681.334243
163516.149455,-2368.659014,-8660.409521,-689.485948
163516.149774,-2220.617826,-10140.821405,612.876398
163516.150094,-2146.597232,-7772.162391,76.609550
163516.150414,666.185348,-9844.739029,2451.505594
163516.150734,0.000000,-6291.750507,306.438199
163516.151053,296.082377,-8660.409521,3064.381992
163516.151373,2294.638420,-8512.368333,4596.572988
163516.151693,2294.638420,-7994.224174,1149.143247
163516.152012,4071.132681,-9474.636058,-76.609550
163516.152332,-1628.453072,-7105.977043,0.000000
163516.152652,-666.185348,-10955.047942,1915.238745
163516.152971,-1110.308913,-9770.718434,2451.505594
163516.153291,-1036.288319,-10732.986159,2451.505594
163516.153611,-1850.514855,-9400.615463,1378.971896
163516.153930,-814.226536,-7698.141797,-995.924147
163516.154250,222.061783,-7698.141797,-689.485948
163516.154570,0.000000,-8364.327145,766.095498
163516.154890,4663.297435,-13619.789333,2374.896044
163516.155209,-2368.659014,-10584.944971,-766.095498
163516.155529,-1480.411884,-12953.603985,612.876398
163516.155849,-2516.700203,-10436.903782,0.000000
163516.156168,-2368.659014,-9548.656652,383.047749
163516.156488,-2590.720797,-4811.338623,-4749.792088
163516.156808,888.247130,-8882.471304,-76.609550
163516.157127,2886.803174,-8586.388927,459.657299
163516.157447,1406.391290,-8586.388927,766.095498
163516.157767,222.061783,-11547.212695,-76.609550
163516.158086,-1554.432478,-11843.295072,-3753.867940
163516.158406,-2220.617826,-13101.645173,1072.533697
163516.158726,-74.020594,-9178.553681,-76.609550
163516.159046,814.226536,-7698.141797,1762.019645
163516.159365,0.000000,-5995.668130,0.000000
163516.159685,666.185348,-5995.668130,-1072.533697
163516.160005,2442.679609,-9104.533087,536.266849
163516.160324,444.123565,-9844.739029,995.924147
163516.160644,-592.164754,-10807.006753,-306.438199
163516.160964,-2442.679609,-9992.780217,-1149.143247
163516.161283,-2072.576638,-9992.780217,153.219100
163516.161603,-1184.329507,-7179.997637,536.266849
163516.161923,1110.308913,-9252.574275,2834.553343
163516.162242,-74.020594,-5773.606348,-1915.238745
163516.162562,-2368.659014,-7179.997637,0.000000
163516.162882,74.020594,-8290.306550,-2068.457845
163516.163202,-444.123565,-10362.883188,-1532.190996
163516.163521,0.000000,-11843.295072,-1762.019645
163516.163841,-1628.453072,-10510.924376,-2451.505594
163516.164161,1110.308913,-11843.295072,-2528.115143
163516.164480,-1406.391290,-8660.409521,-1915.238745
163516.164800,-2368.659014,-9548.656652,-2451.505594
163516.165120,-296.082377,-9474.636058,-1455.581446
163516.165439,-74.020594,-10510.924376,-689.485948
163516.165759,0.000000,-6587.832884,-2451.505594
163516.166079,814.226536,-9326.594869,-1302.362347
163516.166398,1332.370696,-9474.636058,-1991.848295
163516.166718,-1258.350101,-10658.965565,-1762.019645
163516.167038,-370.102971,-11251.130318,-1915.238745
163516.167358,-1850.514855,-9326.594869,-76.609550
163516.167677,-1258.350101,-9178.553681,-1915.238745
163516.167997,-4145.153275,-5995.668130,-3524.039291
163516.168317,-518.144159,-10140.821405,-2451.505594
163516.168636,3108.864956,-10436.903782,2374.896044
163516.168956,0.000000,-8660.409521,612.876398
163516.169276,148.041188,-8956.491898,229.828649
163516.169595,-3849.070898,-8512.368333,-2374.896044
163516.169915,-2146.597232,-9844.739029,-1149.143247
163516.170235,-666.185348,-7105.977043,-1915.238745
163516.170554,1184.329507,-8586.388927,1685.410096
163516.170874,814.226536,-7105.977043,-383.047749
163516.171194,1998.556043,-11843.295072,2374.896044
163516.171514,1110.308913,-9178.553681,229.828649
163516.171833,2072.576638,-10436.903782,3294.210641
163516.172153,-444.123565,-7402.059420,-1225.752797
163516.172473,-296.082377,-7254.018232,-1378.971896
163516.172792,2368.659014,-9844.739029,-76.609550
163516.173112,1628.453072,-9030.512492,612.876398
163516.173432,1184.329507,-10362.883188,0.000000
163516.173751,-1554.432478,-8660.409521,1225.752797
163516.174071,-74.020594,-12435.459826,1762.019645
163516.174391,-74.020594,-9178.553681,-229.828649
163516.174710,1258.350101,-8882.471304,1762.019645
163516.175030,2960.823768,-9252.574275,2298.286494
163516.175350,962.267725,-10214.842000,919.314598
163516.175670,1184.329507,-10732.986159,1378.971896
163516.175989,-2294.638420,-9918.759623,536.266849
163516.176309,-4145.153275,-8956.491898,-3064.381992
163516.176629,-4589.276840,-9548.656652,-2374.896044
163516.176948,-4737.318029,-9548.656652,0.000000
163516.177268,-592.164754,-9844.739029,2374.896044
163516.177588,518.144159,-8882.471304,2068.457845
163516.177907,1406.391290,-9178.553681,-76.609550
163516.178227,-2368.659014,-8660.409521,-612.876398
163516.178547,-2590.720797,-9326.594869,-1762.019645
163516.178866,-3404.947333,-9326.594869,-536.266849
163516.179186,-1702.473667,-10362.883188,153.219100
163516.179506,-2886.803174,-7254.018232,-1302.362347
163516.179826,1628.453072,-11843.295072,1149.143247
163516.180145,370.102971,-8290.306550,536.266849
163516.180465,518.144159,-9474.636058,1762.019645
163516.180785,-1924.535449,-5551.544565,-2604.724693
163516.181104,-74.020594,-11843.295072,-76.609550
163516.181424,0.000000,-9548.656652,0.000000
163516.181744,296.082377,-8586.388927,1149.143247
163516.182063,1332.370696,-8808.450710,1302.362347
163516.182383,0.000000,-5995.668130,612.876398
163516.182703,1184.329507,-7179.997637,612.876398
163516.183022,2294.638420,-8290.306550,2221.676944
163516.183342,3404.947333,-9548.656652,3064.381992
163516.183662,2294.638420,-9178.553681,-689.485948
163516.183982,-74.020594,-9474.636058,-2528.115143
163516.184301,1332.370696,-12731.542202,-76.609550
163516.184621,-592.164754,-10881.027347,-689.485948
163516.184941,-296.082377,-11399.171507,-689.485948
163516.185260,-2368.659014,-9622.677246,-1608.800546
163516.185580,-2368.659014,-9548.656652,0.000000
163516.185900,0.000000,-5995.668130,0.000000
163516.186219,2368.659014,-9548.656652,1532.190996
163516.186539,2294.638420,-7994.224174,-1915.238745
163516.186859,-1554.432478,-9992.780217,-1838.629195
163516.187178,-74.020594,-10658.965565,-2528.115143
163516.187498,-1406.391290,-11325.150913,-1532.190996
163516.187818,-1184.329507,-11473.192101,-2374.896044
163516.188138,-3404.947333,-9622.677246,-2834.553343
163516.188457,-888.247130,-10732.986159,-76.609550
163516.188777,-2368.659014,-6291.750507,0.000000
163516.189097,1998.556043,-8290.306550,-689.485948
163516.189416,-2368.659014,-5995.668130,-1838.629195
163516.189736,-444.123565,-9474.636058,1378.971896
163516.190056,-74.020594,-11843.295072,2374.896044
163516.190375,1184.329507,-10140.821405,3830.477490
163516.190695,0.000000,-8068.244768,0.000000
163516.191015,-2516.700203,-7254.018232,-995.924147
163516.191334,-814.226536,-9326.594869,-612.876398
163516.191654,-2960.823768,-5995.668130,0.000000
163516.191974,0.000000,-9696.697840,0.000000
163516.192294,-2072.576638,-8660.409521,-995.924147
163516.192613,-370.102971,-12435.459826,-76.609550
163516.192933,-74.020594,-9474.636058,-689.485948
163516.193253,0.000000,-8364.327145,1838.629195
163516.193572,-1184.329507,-7179.997637,0.000000
163516.193892,-1184.329507,-8956.491898,-842.705048
163516.194212,592.164754,-9104.533087,153.219100
163516.194531,592.164754,-7476.080014,383.047749
163516.194851,3182.885551,-8290.306550,-689.485948
163516.195171,-962.267725,-8660.409521,-3217.601092
163516.195490,0.000000,-12731.542202,-1991.848295
163516.195810,-518.144159,-12213.398043,-1532.190996
163516.196130,-444.123565,-12213.398043,0.000000
163516.196450,-2960.823768,-8956.491898,-2987.772442
163516.196769,-3552.988522,-9548.656652,-3064.381992
163516.197089,3182.885551,-10658.965565,-76.609550
163516.197409,3330.926739,-9474.636058,3600.648841
163516.197728,2664.741391,-7920.203579,1225.752797
163516.198048,2294.638420,-8290.306550,-76.609550
163516.198368,0.000000,-9844.739029,383.047749
163516.198687,-888.247130,-7402.059420,-689.485948
163516.199007,-814.226536,-9252.574275,-1455.581446
163516.199327,-2368.659014,-8364.327145,-2221.676944
163516.199646,-2294.638420,-9548.656652,-2298.286494
163516.199966,-1110.308913,-10881.027347,153.219100
163516.200286,-2812.782580,-8364.327145,0.000000
163516.200606,-1184.329507,-9548.656652,0.000000
163516.200925,-4811.338623,-6069.688724,-4826.401637
163516.201245,-1406.391290,-9178.553681,-76.609550
163516.201565,-518.144159,-6291.750507,0.000000
163516.201884,1924.535449,-7846.182985,2068.457845
163516.202204,518.144159,-6661.853478,153.219100
163516.202524,-74.020594,-9474.636058,995.924147
163516.202843,740.205942,-9992.780217,-76.609550
163516.203163,-370.102971,-8290.306550,-1302.362347
163516.203483,0.000000,-9844.739029,-1225.752797
163516.203802,-2960.823768,-8956.491898,-2451.505594
163516.204122,-74.020594,-10658.965565,-1915.238745
163516.204442,518.144159,-9918.759623,383.047749
163516.204762,1998.556043,-10362.883188,1991.848295
163516.205081,-962.267725,-7476.080014,-842.705048
163516.205401,-74.020594,-11251.130318,1149.143247
163516.205721,2294.638420,-11325.150913,306.438199
163516.206040,2368.659014,-10140.821405,4443.353888
163516.206360,3478.967927,-9474.636058,3600.648841
163516.206680,-2812.782580,-6365.771101,-76.609550
163516.206999,-2960.823768,-7179.997637,0.000000
163516.207319,-666.185348,-8290.306550,-1915.238745
163516.207639,0.000000,-10732.986159,-842.705048
163516.207958,-2886.803174,-11325.150913,-2068.457845
163516.208278,-3627.009116,-13101.645173,-1378.971896
163516.208598,-2368.659014,-11473.192101,995.924147
163516.208918,-2220.617826,-8364.327145,766.095498
163516.209237,0.000000,-7476.080014,0.000000
163516.209557,-3552.988522,-4811.338623,0.000000
163516.209877,2220.617826,-8734.430116,1685.410096
163516.210196,0.000000,-4219.173869,0.000000
163516.210516,2442.679609,-9992.780217,842.705048
163516.210836,-1184.329507,-9548.656652,-2221.676944
163516.211155,-2220.617826,-11917.315666,-1762.019645
163516.211475,-1480.411884,-10362.883188,-689.485948
163516.211795,-74.020594,-11547.212695,-76.609550
163516.212114,-74.020594,-9770.718434,-76.609550
163516.212434,-666.185348,-8586.388927,-689.485948
163516.212754,74.020594,-7179.997637,612.876398
163516.213074,1184.329507,-5403.503377,1532.190996
163516.213393,0.000000,-5995.668130,0.000000
163516.213713,-370.102971,-8290.306550,-1302.362347
163516.214033,0.000000,-10362.883188,153.219100
163516.214352,0.000000,-11325.150913,1302.362347
163516.214672,2294.638420,-11251.130318,2374.896044
163516.214992,-74.020594,-9474.636058,-229.828649
163516.215311,-1258.350101,-9474.636058,-995.924147
163516.215631,1110.308913,-9474.636058,-1915.238745
163516.215951,74.020594,-9474.636058,-76.609550
163516.216270,0.000000,-10732.986159,612.876398
163516.216590,-3404.947333,-8956.491898,-2987.772442
163516.216910,-2294.638420,-11251.130318,-995.924147
163516.217230,-666.185348,-8438.347739,-383.047749
163516.217549,518.144159,-8956.491898,1225.752797
163516.217869,2294.638420,-8586.388927,689.485948
163516.218189,0.000000,-6587.832884,0.000000
163516.218508,3182.885551,-9474.636058,995.924147
163516.218828,1110.308913,-8290.306550,-689.485948
163516.219148,-370.102971,-9326.594869,-2528.115143
163516.219467,-4737.318029,-9844.739029,-3064.381992
163516.219787,-1554.432478,-12657.521608,-2451.505594
163516.220107,-666.185348,-10955.047942,0.000000
163516.220426,1258.350101,-11177.109724,2604.724693
163516.220746,-666.185348,-6883.915261,-689.485948
163516.221066,-666.185348,-6661.853478,1149.143247
163516.221386,296.082377,-5699.585753,0.000000
163516.221705,0.000000,-4219.173869,0.000000
163516.222025,2294.638420,-9474.636058,-76.609550
163516.222345,-962.267725,-9474.636058,-76.609550
163516.222664,-2368.659014,-11325.150913,0.000000
163516.222984,-1110.308913,-11251.130318,0.000000
163516.223304,-1036.288319,-11251.130318,612.876398
163516.223623,-2960.823768,-8290.306550,-1072.533697
163516.223943,-2442.679609,-7105.977043,-2528.115143
163516.224263,-222.061783,-7920.203579,-76.609550
163516.224582,1702.473667,-8290.306550,-229.828649
163516.224902,740.205942,-8364.327145,0.000000
163516.225222,-1998.556043,-8660.409521,-1225.752797
163516.225541,-2368.659014,-8364.327145,-2451.505594
163516.225861,-666.185348,-9474.636058,-1762.019645
163516.226181,1406.391290,-11695.253884,0.000000
163516.226501,518.144159,-10214.842000,-612.876398
163516.226820,296.082377,-9770.718434,1149.143247
163516.227140,1184.329507,-9400.615463,76.609550
163516.227460,0.000000,-6587.832884,-1838.629195
163516.227779,1110.308913,-10955.047942,-1915.238745
163516.228099,-666.185348,-11843.295072,-1302.362347
163516.228419,0.000000,-9548.656652,0.000000
163516.228738,2294.638420,-11251.130318,1762.019645
163516.229058,1480.411884,-9696.697840,1915.238745
163516.229378,-1628.453072,-6809.894666,0.000000
163516.229697,-1480.411884,-7254.018232,-306.438199
163516.230017,1184.329507,-7772.162391,2374.896044
163516.230337,1406.391290,-7698.141797,153.219100
163516.230657,814.226536,-9474.636058,-689.485948
163516.230976,-4737.318029,-7772.162391,-3677.258390
163516.231296,0.000000,-11917.315666,0.000000
163516.231616,-74.020594,-11843.295072,-76.609550
163516.231935,-1184.329507,-10288.862594,919.314598
163516.232255,-3330.926739,-7105.977043,-1838.629195
163516.232575,-1628.453072,-8734.430116,-306.438199
163516.232894,370.102971,-7698.141797,0.000000
163516.233214,0.000000,-5403.503377,0.000000
163516.233534,1258.350101,-9252.574275,-689.485948
163516.233853,-1480.411884,-9622.677246,-1838.629195
163516.234173,-296.082377,-11325.150913,-1302.362347
163516.234493,-74.020594,-9474.636058,-1302.362347
163516.234813,518.144159,-10658.965565,-383.047749
163516.235132,-74.020594,-9474.636058,-76.609550
163516.235452,0.000000,-8734.430116,536.266849
163516.235772,0.000000,-5995.668130,0.000000
163516.236091,0.000000,-8364.327145,1378.971896
163516.236411,-1702.473667,-7476.080014,-2145.067394
163516.236731,-666.185348,-10881.027347,-842.705048
163516.237050,814.226536,-11843.295072,1225.752797
163516.237370,-518.144159,-10658.965565,2068.457845
163516.237690,-74.020594,-10066.800811,1149.143247
163516.238009,-2442.679609,-6143.709319,-536.266849
163516.238329,-370.102971,-6957.935855,306.438199
163516.238649,-1184.329507,-3923.091493,0.000000
163516.238968,2886.803174,-9474.636058,-76.609550
163516.239288,0.000000,-9844.739029,612.876398
163516.239608,-3552.988522,-10732.986159,0.000000
163516.239927,-2220.617826,-12879.583391,689.485948
163516.240247,-4441.235652,-9474.636058,-1685.410096
163516.240566,-2368.659014,-8068.244768,-4596.572988
163516.240886,-1258.350101,-6587.832884,-4979.620737
163516.241206,1184.329507,-9474.636058,-76.609550
163516.241525,296.082377,-7772.162391,766.095498
163516.241845,592.164754,-9178.553681,995.924147
163516.242165,-666.185348,-9474.636058,-1915.238745
163516.242484,-3552.988522,-8364.327145,-4290.134789
163516.242804,222.061783,-10362.883188,-2451.505594
163516.243124,2368.659014,-10288.862594,536.266849
163516.243443,3182.885551,-11695.253884,2068.457845
163516.243763,-74.020594,-8290.306550,-76.609550
163516.244083,-74.020594,-11695.253884,2374.896044
163516.244402,-1554.432478,-5625.565159,-1608.800546
163516.244722,0.000000,-7179.997637,0.000000
163516.245042,0.000000,-4811.338623,-3983.696590
163516.245361,2294.638420,-11843.295072,2374.896044
163516.245681,1184.329507,-9548.656652,1225.752797
163516.246001,592.164754,-8068.244768,1378.971896
163516.246320,-962.267725,-9918.759623,153.219100
163516.246640,-3478.967927,-7994.224174,-2221.676944
163516.246960,-962.267725,-9992.780217,-2374.896044
163516.247279,0.000000,-8808.450710,1225.752797
163516.247599,2294.638420,-9474.636058,1838.629195
163516.247919,-74.020594,-8882.471304,-1302.362347
163516.248238,-1554.432478,-9474.636058,-1838.629195
163516.248558,-592.164754,-11917.315666,919.314598
163516.248878,-1406.391290,-10066.800811,-766.095498
163516.249197,-444.123565,-11029.068536,229.828649
163516.249517,-2146.597232,-8734.430116,0.000000
163516.249836,0.000000,-6291.750507,0.000000
163516.250156,-1776.494261,-5107.421000,0.000000
163516.250476,1776.494261,-7772.162391,-2451.505594
163516.250795,0.000000,-7476.080014,-2451.505594
163516.251115,-444.123565,-11843.295072,-919.314598
163516.251435,-74.020594,-13027.624579,-689.485948
163516.251754,0.000000,-13989.892304,1532.190996
163516.252074,0.000000,-12213.398043,1072.533697
163516.252394,-2516.700203,-8956.491898,383.047749
163516.252713,-962.267725,-9030.512492,1378.971896
163516.253033,-2886.803174,-3034.844362,0.000000
163516.253353,1110.308913,-8882.471304,-76.609550
163516.253672,518.144159,-6365.771101,-1915.238745
163516.253992,0.000000,-9548.656652,-1225.752797
163516.254312,2294.638420,-14211.954086,2221.676944
163516.254631,-74.020594,-13027.624579,-76.609550
163516.254951,-3849.070898,-11029.068536,-1915.238745
163516.255271,-5625.565159,-9770.718434,-2604.724693
163516.255590,-1850.514855,-9252.574275,-842.705048
163516.255910,0.000000,-6365.771101,1072.533697
163516.256230,4071.132681,-6809.894666,2221.676944
163516.256549,1998.556043,-7105.977043,-995.924147
163516.256869,518.144159,-9474.636058,-76.609550
163516.257189,-74.020594,-9178.553681,-2528.115143
163516.257508,0.000000,-9548.656652,-1149.143247
163516.257828,3478.967927,-14211.954086,-76.609550
163516.258148,-1776.494261,-10288.862594,306.438199
163516.258467,222.061783,-9844.739029,1685.410096
163516.258787,74.020594,-5921.647536,842.705048
163516.259107,592.164754,-5995.668130,0.000000
163516.259426,0.000000,-5995.668130,-3064.381992
163516.259746,1628.453072,-10436.903782,-2451.505594
163516.260065,2368.659014,-12139.377449,1991.848295
163516.260385,2294.638420,-12731.542202,2374.896044
163516.260705,-74.020594,-9474.636058,-689.485948
163516.261024,-2886.803174,-9474.636058,689.485948
163516.261344,-1554.432478,-7698.141797,0.000000
163516.261664,0.000000,-6957.935855,383.047749
163516.261983,2294.638420,-8290.306550,306.438199
163516.262303,-3552.988522,-7179.997637,0.000000
163516.262623,-1702.473667,-10881.027347,-2528.115143
163516.262942,-4145.153275,-10140.821405,-2451.505594
163516.263262,-1258.350101,-12879.583391,-689.485948
163516.263582,-2442.679609,-9474.636058,-1302.362347
163516.263901,-2368.659014,-10214.842000,-76.609550
163516.264221,74.020594,-8290.306550,919.314598
163516.264541,2072.576638,-7550.100608,2451.505594
163516.264860,2812.782580,-7846.182985,1685.410096
163516.265180,-2220.617826,-6291.750507,-2451.505594
163516.265500,-74.020594,-11029.068536,-1532.190996
163516.265819,-74.020594,-11251.130318,-766.095498
163516.266139,0.000000,-11325.150913,0.000000
163516.266459,-3552.988522,-8364.327145,-2145.067394
163516.266778,-1480.411884,-9548.656652,1608.800546
163516.267098,-2368.659014,-7179.997637,0.000000
163516.267418,0.000000,-7402.059420,383.047749
163516.267737,1776.494261,-7476.080014,-536.266849
163516.268057,-740.205942,-7994.224174,-842.705048
163516.268377,2294.638420,-11251.130318,-689.485948
163516.268696,888.247130,-11029.068536,1149.143247
163516.269016,814.226536,-11325.150913,1455.581446
163516.269335,-2146.597232,-9696.697840,-1302.362347
163516.269655,-2886.803174,-9474.636058,-76.609550
163516.269975,-1776.494261,-8364.327145,383.047749
163516.270294,0.000000,-7179.997637,0.000000
163516.270614,2294.638420,-9030.512492,-76.609550
163516.270934,-1702.473667,-7402.059420,-1302.362347
163516.271253,-740.205942,-9844.739029,-3064.381992
163516.271573,-74.020594,-9474.636058,-1302.362347
163516.271893,888.247130,-11917.315666,0.000000
163516.272212,-888.247130,-9696.697840,-689.485948
163516.272532,-1406.391290,-10436.903782,153.219100
163516.272852,592.164754,-8364.327145,1532.190996
163516.273171,2294.638420,-8290.306550,2068.457845
163516.273491,0.000000,-5551.544565,0.000000
163516.273811,-1184.329507,-5107.421000,-4903.011187
163516.274130,296.082377,-10140.821405,0.000000
163516.274450,148.041188,-8364.327145,-2451.505594
163516.274770,2294.638420,-13027.624579,1149.143247
163516.275089,-1924.535449,-10881.027347,-842.705048
163516.275409,-2442.679609,-10362.883188,0.000000
163516.275729,-1554.432478,-8512.368333,919.314598
163516.276048,814.226536,-7994.224174,3600.648841
163516.276368,888.247130,-6439.791695,383.047749
163516.276688,-1480.411884,-6217.729913,-689.485948
163516.277007,0.000000,-7476.080014,0.000000
163516.277327,0.000000,-9104.533087,689.485948
163516.277647,-74.020594,-9844.739029,-2451.505594
163516.277966,-2738.761985,-11177.109724,-1608.800546
163516.278286,-4219.173869,-12435.459826,-612.876398
163516.278606,-2738.761985,-9548.656652,0.000000
163516.278925,-962.267725,-9474.636058,-76.609550
163516.279245,1554.432478,-9474.636058,-76.609550
163516.279564,-74.020594,-8882.471304,-76.609550
163516.279884,2294.638420,-7994.224174,-995.924147
163516.280204,222.061783,-8364.327145,-1225.752797
163516.280523,592.164754,-11917.315666,0.000000
163516.280843,-1258.350101,-11695.253884,-2757.943793
163516.281163,-1554.432478,-13915.871710,2298.286494
163516.281482,-2368.659014,-9030.512492,1225.752797
163516.281802,-296.082377,-6809.894666,612.876398
163516.282122,2294.638420,-7105.977043,-995.924147
163516.282441,0.000000,-4811.338623,-2451.505594
163516.282761,2664.741391,-10140.821405,1225.752797
163516.283081,2590.720797,-10658.965565,2451.505594
163516.283400,1702.473667,-14211.954086,-76.609550
163516.283720,-8290.306550,-7772.162391,-4903.011187
163516.284040,-4367.215058,-10584.944971,-2528.115143
163516.284359,-1554.432478,-7328.038826,0.000000
163516.284679,2220.617826,-6735.874072,2068.457845
163516.284999,2220.617826,-7476.080014,1378.971896
163516.285318,444.123565,-7994.224174,842.705048
163516.285638,0.000000,-7920.203579,-1225.752797
163516.285958,-1628.453072,-9844.739029,0.000000
163516.286277,1702.473667,-12435.459826,-689.485948
163516.286597,-3627.009116,-9326.594869,-2528.115143
163516.286917,-4145.153275,-7772.162391,0.000000
163516.287236,518.144159,-8290.306550,536.266849
163516.287556,1332.370696,-9104.533087,1302.362347
163516.287876,-74.020594,-7476.080014,-1608.800546
163516.288195,-666.185348,-7698.141797,-2834.553343
163516.288515,2294.638420,-10658.965565,-2528.115143
163516.288834,2294.638420,-13027.624579,-76.609550
163516.289154,1998.556043,-13027.624579,-689.485948
163516.289474,-1924.535449,-10732.986159,-612.876398
163516.289793,-1036.288319,-11325.150913,1225.752797
163516.290113,-2886.803174,-6143.709319,-2145.067394
163516.290433,370.102971,-7994.224174,229.828649
163516.290752,-370.102971,-6661.853478,-919.314598
163516.291072,1184.329507,-9252.574275,919.314598
163516.291392,4663.297435,-9474.636058,2374.896044
163516.291711,1776.494261,-9844.739029,2451.505594
163516.292031,-74.020594,-11251.130318,-1302.362347
163516.292351,-4737.318029,-8956.491898,-2757.943793
163516.292670,-4737.318029,-9548.656652,0.000000
163516.292990,-2368.659014,-8956.491898,2757.943793
163516.293310,-74.020594,-8290.306550,1915.238745
163516.293629,-1184.329507,-6587.832884,76.609550
163516.293949,0.000000,-6809.894666,306.438199
163516.294269,518.144159,-6587.832884,-1838.629195
163516.294588,592.164754,-8364.327145,-1915.238745
163516.294908,-2072.576638,-10140.821405,-1838.629195
163516.295228,-3108.864956,-11325.150913,-612.876398
163516.295547,-74.020594,-13027.624579,-689.485948
163516.295867,-1258.350101,-9474.636058,1762.019645
163516.296187,0.000000,-9548.656652,1838.629195
163516.296506,-444.123565,-6883.915261,-1072.533697
163516.296826,444.123565,-8734.430116,-536.266849
163516.297146,1480.411884,-8068.244768,-536.266849
163516.297465,148.041188,-7920.203579,-3064.381992
163516.297785,444.123565,-11547.212695,-1915.238745
163516.298104,-1776.494261,-11917.315666,-3064.381992
163516.298424,0.000000,-12509.480420,2451.505594
163516.298744,-1332.370696,-9474.636058,842.705048
163516.299063,-74.020594,-11251.130318,2374.896044
163516.299383,-1776.494261,-4811.338623,-1532.190996
163516.299703,2072.576638,-7402.059420,-76.609550
163516.300022,2812.782580,-8512.368333,1838.629195
163516.300342,1924.535449,-8660.409521,842.705048
163516.300662,-1258.350101,-8364.327145,-2528.115143
163516.300981,-3182.885551,-13027.624579,-689.485948
163516.301301,-2442.679609,-12139.377449,-1991.848295
163516.301621,-2960.823768,-10140.821405,919.314598
163516.301940,0.000000,-5995.668130,1225.752797
163516.302260,-1776.494261,-2442.679609,0.000000
163516.302580,1628.453072,-6735.874072,0.000000
163516.302899,1998.556043,-7105.977043,-689.485948
163516.303219,2294.638420,-9622.677246,1072.533697
163516.303539,814.226536,-8882.471304,-1302.362347
163516.303858,-3552.988522,-10732.986159,-2068.457845
163516.304178,-3552.988522,-11325.150913,0.000000
163516.304498,-1702.473667,-8882.471304,306.438199
163516.304817,2812.782580,-10658.965565,2374.896044
163516.305137,-1036.288319,-4811.338623,-2451.505594
163516.305457,2738.761985,-10066.800811,1455.581446
163516.305776,888.247130,-8068.244768,612.876398
163516.306096,222.061783,-9400.615463,-229.828649
163516.306416,-1554.432478,-10436.903782,-1991.848295
163516.306735,-1184.329507,-12435.459826,-76.609550
163516.307055,-1554.432478,-11325.150913,0.000000
163516.307375,-1332.370696,-8290.306550,1532.190996
163516.307694,0.000000,-8586.388927,1072.533697
163516.308014,-1924.535449,-6883.915261,0.000000
163516.308333,-2368.659014,-7179.997637,-1838.629195
163516.308653,-1258.350101,-7402.059420,-2221.676944
163516.308973,-1776.494261,-9844.739029,-1225.752797
163516.309292,-740.205942,-10732.986159,-2451.505594
163516.309612,-2442.679609,-11843.295072,-383.047749
163516.309932,-296.082377,-11843.295072,842.705048
163516.310251,-3108.864956,-8068.244768,-1762.019645
163516.310571,-296.082377,-8364.327145,-1455.581446
163516.310891,-74.020594,-7328.038826,-1685.410096
163516.311210,1258.350101,-8660.409521,1149.143247
163516.311530,0.000000,-7920.203579,0.000000
163516.311850,2294.638420,-10510.924376,-76.609550
163516.312169,-1184.329507,-7179.997637,-5209.449386
163516.312489,-2072.576638,-10732.986159,0.000000
163516.312809,-74.020594,-11251.130318,-76.609550
163516.313128,0.000000,-9548.656652,1378.971896
163516.313448,888.247130,-8808.450710,766.095498
163516.313768,370.102971,-6143.709319,0.000000
163516.314087,2146.597232,-8660.409521,689.485948
