#time,accel_x,accel_y,accel_z
59521.173422,0.000000,-9548.656652,2451.505594
59521.173732,-74.020594,-9474.636058,-76.609550
59521.174042,-2368.659014,-7179.997637,0.000000
59521.174352,-1406.391290,-8216.285956,0.000000
59521.174662,0.000000,-9030.512492,459.657299
59521.174971,-296.082377,-9030.512492,919.314598
59521.175281,-370.102971,-9104.533087,995.924147
59521.175591,1554.432478,-11251.130318,3294.210641
59521.175901,1998.556043,-10658.965565,1149.143247
59521.176211,-74.020594,-9474.636058,1149.143247
59521.176521,0.000000,-10140.821405,2757.943793
59521.176831,-666.185348,-8290.306550,-76.609550
59521.177141,-2368.659014,-7772.162391,0.000000
59521.177450,-74.020594,-8882.471304,536.266849
59521.177760,-592.164754,-8956.491898,459.657299
59521.178070,-148.041188,-8956.491898,689.485948
59521.178380,-148.041188,-9030.512492,1072.533697
59521.178690,0.000000,-9548.656652,2757.943793
59521.179000,1110.308913,-10658.965565,2374.896044
59521.179310,-74.020594,-9474.636058,842.705048
59521.179620,-4145.153275,-5995.668130,0.000000
59521.179930,2294.638420,-10658.965565,2068.457845
59521.180239,-1554.432478,-6661.853478,-995.924147
59521.180549,-74.020594,-9474.636058,1455.581446
59521.180859,-370.102971,-8808.450710,536.266849
59521.181169,-444.123565,-9178.553681,459.657299
59521.181479,-222.061783,-9178.553681,842.705048
59521.181789,-1776.494261,-7772.162391,1225.752797
59521.182099,0.000000,-9548.656652,2145.067394
59521.182409,-74.020594,-10066.800811,2068.457845
59521.182718,-3552.988522,-5995.668130,0.000000
59521.183028,1702.473667,-11251.130318,2374.896044
59521.183338,-74.020594,-7698.141797,-689.485948
59521.183648,1110.308913,-10362.883188,2298.286494
59521.183958,-74.020594,-9400.615463,1072.533697
59521.184268,-518.144159,-9030.512492,459.657299
59521.184578,-148.041188,-9326.594869,995.924147
59521.184888,-2368.659014,-7179.997637,0.000000
59521.185197,0.000000,-8364.327145,919.314598
59521.185507,148.041188,-9400.615463,2374.896044
59521.185817,-666.185348,-7402.059420,-689.485948
59521.186127,0.000000,-8956.491898,1225.752797
59521.186437,2294.638420,-11843.295072,-76.609550
59521.186747,148.041188,-9844.739029,1532.190996
59521.187057,-74.020594,-9474.636058,536.266849
59521.187367,-444.123565,-8808.450710,612.876398
59521.187676,-296.082377,-9178.553681,766.095498
59521.187986,-1998.556043,-6735.874072,-2145.067394
59521.188296,-2368.659014,-7772.162391,0.000000
59521.188606,0.000000,-9548.656652,2451.505594
59521.188916,-1258.350101,-7402.059420,-1149.143247
59521.189226,444.123565,-9992.780217,1838.629195
59521.189536,-74.020594,-10658.965565,2374.896044
59521.189846,0.000000,-8808.450710,1225.752797
59521.190156,-370.102971,-9030.512492,842.705048
59521.190465,-370.102971,-8808.450710,536.266849
59521.190775,-148.041188,-9252.574275,1072.533697
59521.191085,-74.020594,-8290.306550,-1302.362347
59521.191395,-1850.514855,-7179.997637,0.000000
59521.191705,-1184.329507,-8364.327145,1225.752797
59521.192015,-74.020594,-9474.636058,-76.609550
59521.192325,-2368.659014,-7772.162391,0.000000
59521.192635,1480.411884,-11103.089130,3600.648841
59521.192944,-1776.494261,-8364.327145,0.000000
59521.193254,-296.082377,-9474.636058,842.705048
59521.193564,-148.041188,-9252.574275,842.705048
59521.193874,0.000000,-9326.594869,919.314598
59521.194184,-74.020594,-9474.636058,-76.609550
59521.194494,-666.185348,-8290.306550,76.609550
59521.194804,-962.267725,-8068.244768,0.000000
59521.195114,1924.535449,-11251.130318,2987.772442
59521.195423,-1110.308913,-7920.203579,0.000000
59521.195733,0.000000,-9548.656652,3064.381992
59521.196043,-1480.411884,-8364.327145,0.000000
59521.196353,-444.123565,-8808.450710,766.095498
59521.196663,-370.102971,-9474.636058,919.314598
59521.196973,-592.164754,-8882.471304,842.705048
59521.197283,-74.020594,-9474.636058,995.924147
59521.197593,-74.020594,-8882.471304,-76.609550
59521.197902,-1776.494261,-7698.141797,-76.609550
59521.198212,-2368.659014,-7179.997637,0.000000
59521.198522,1998.556043,-10362.883188,2374.896044
59521.198832,1110.308913,-9474.636058,2374.896044
59521.199142,3478.967927,-11843.295072,4213.525239
59521.199452,814.226536,-8142.265362,536.266849
59521.199762,1110.308913,-8956.491898,689.485948
59521.200072,1480.411884,-8882.471304,842.705048
59521.200382,0.000000,-7179.997637,0.000000
59521.200691,0.000000,-8660.409521,0.000000
59521.201001,1776.494261,-9326.594869,2604.724693
59521.201311,3478.967927,-8290.306550,-383.047749
59521.201621,2960.823768,-8956.491898,2451.505594
59521.201931,5847.626942,-11843.295072,2374.896044
59521.202241,2960.823768,-9252.574275,1225.752797
59521.202551,2886.803174,-9474.636058,459.657299
59521.202861,3627.009116,-9104.533087,766.095498
59521.203170,4515.256246,-9104.533087,1225.752797
59521.203480,4367.215058,-7179.997637,0.000000
59521.203790,3552.988522,-7179.997637,612.876398
59521.204100,4737.318029,-8068.244768,2451.505594
59521.204410,4959.379811,-6957.935855,0.000000
59521.204720,6217.729913,-9326.594869,1838.629195
59521.205030,7031.956449,-10362.883188,1455.581446
59521.205340,5329.482782,-8956.491898,0.000000
59521.205649,6439.791695,-9474.636058,0.000000
59521.205959,5921.647536,-9992.780217,-383.047749
59521.206269,5477.523971,-10732.986159,0.000000
59521.206579,5847.626942,-11251.130318,-1302.362347
59521.206889,2516.700203,-11029.068536,-1302.362347
59521.207199,1776.494261,-11029.068536,0.000000
59521.207509,4663.297435,-11843.295072,-76.609550
59521.207819,592.164754,-7772.162391,0.000000
59521.208128,4367.215058,-7476.080014,3370.820191
59521.208438,2960.823768,-4219.173869,1225.752797
59521.208748,5773.606348,-4515.256246,2374.896044
59521.209058,7328.038826,-4737.318029,2987.772442
59521.209368,10140.821405,-5625.565159,2834.553343
59521.209678,10584.944971,-8882.471304,2987.772442
59521.209988,4663.297435,-11843.295072,-76.609550
59521.210298,0.000000,-14285.974681,-4903.011187
59521.210608,-2368.659014,-18431.127956,-1838.629195
59521.210917,-3034.844362,-17764.942608,-3217.601092
59521.211227,-5921.647536,-11917.315666,0.000000
59521.211537,-3330.926739,-7328.038826,-2221.676944
59521.211847,0.000000,-5477.523971,995.924147
59521.212157,3849.070898,-4663.297435,3064.381992
59521.212467,5329.482782,-4959.379811,5362.668486
59521.212777,6439.791695,-6513.812290,7277.907231
59521.213087,4071.132681,-5921.647536,4826.401637
59521.213396,2294.638420,-4737.318029,2374.896044
59521.213706,2368.659014,-3627.009116,3064.381992
59521.214016,3478.967927,-4737.318029,1149.143247
59521.214326,0.000000,-5995.668130,0.000000
59521.214636,-962.267725,-13619.789333,-2528.115143
59521.214946,-4737.318029,-18209.066173,-3370.820191
59521.215256,-5625.565159,-18949.272115,-3830.477490
59521.215566,-5477.523971,-15840.407159,-3677.258390
59521.215875,-2368.659014,-10140.821405,-919.314598
59521.216185,2294.638420,-7550.100608,1455.581446
59521.216495,4071.132681,-3849.070898,1762.019645
59521.216805,4737.318029,-4811.338623,5515.887586
59521.217115,5551.544565,-5255.462188,5132.839837
59521.217425,6217.729913,-2738.761985,3677.258390
59521.217735,10584.944971,-4441.235652,6052.154434
59521.218045,8068.244768,-4145.153275,5362.668486
59521.218355,4589.276840,-7031.956449,2604.724693
59521.218664,74.020594,-12435.459826,76.609550
59521.218974,-1776.494261,-16654.633695,-2451.505594
59521.219284,-1776.494261,-17394.839637,-4290.134789
59521.219594,-2442.679609,-18949.272115,-2528.115143
59521.219904,-6291.750507,-13915.871710,-6511.811733
59521.220214,-4589.276840,-11917.315666,-3370.820191
59521.220524,3478.967927,-6513.812290,-1302.362347
59521.220834,9992.780217,-3182.885551,4366.744339
59521.221143,13249.686362,-296.082377,7048.078582
59521.221453,13915.871710,-1628.453072,7890.783629
59521.221763,11843.295072,-5477.523971,7048.078582
59521.222073,7698.141797,-5403.503377,4903.011187
59521.222383,4737.318029,-8956.491898,1838.629195
59521.222693,2294.638420,-13989.892304,-76.609550
59521.223003,-3627.009116,-12435.459826,-5898.935335
59521.223313,-3552.988522,-15470.304188,-4903.011187
59521.223622,2294.638420,-15396.283594,-3140.991542
59521.223932,3627.009116,-10881.027347,-1225.752797
59521.224242,1554.432478,-11695.253884,-76.609550
59521.224552,1184.329507,-8438.347739,-1149.143247
59521.224862,4589.276840,-7994.224174,2221.676944
59521.225172,5921.647536,-1258.350101,3217.601092
59521.225482,4737.318029,-2442.679609,2604.724693
59521.225792,3552.988522,-4811.338623,2451.505594
59521.226101,7031.956449,-7698.141797,2374.896044
59521.226411,5921.647536,-7179.997637,2451.505594
59521.226721,7031.956449,-13027.624579,4213.525239
59521.227031,-2368.659014,-11917.315666,-1225.752797
59521.227341,-3256.906145,-13767.830521,-3907.087040
59521.227651,-2886.803174,-13989.892304,-2834.553343
59521.227961,-1628.453072,-9992.780217,-1838.629195
59521.228271,-74.020594,-9326.594869,-1455.581446
59521.228581,4959.379811,-5181.441594,1608.800546
59521.228890,7105.977043,-4811.338623,3677.258390
59521.229200,9104.533087,-7105.977043,4826.401637
59521.229510,2368.659014,-5403.503377,2451.505594
59521.229820,3775.050304,-7994.224174,4136.915689
59521.230130,1776.494261,-7772.162391,459.657299
59521.230440,1406.391290,-10214.842000,689.485948
59521.230750,592.164754,-11991.336260,612.876398
59521.231060,74.020594,-11473.192101,-1378.971896
59521.231369,-370.102971,-13027.624579,-4366.744339
59521.231679,-3034.844362,-13989.892304,-2068.457845
59521.231989,-4589.276840,-7772.162391,-2451.505594
59521.232299,2368.659014,-8956.491898,2451.505594
59521.232609,4663.297435,-5625.565159,2374.896044
59521.232919,4145.153275,-5403.503377,2757.943793
59521.233229,7920.203579,-5921.647536,4826.401637
59521.233539,4811.338623,-6365.771101,3370.820191
59521.233848,2664.741391,-7105.977043,2145.067394
59521.234158,4071.132681,-6883.915261,919.314598
59521.234468,2368.659014,-9548.656652,2757.943793
59521.234778,740.205942,-10288.862594,612.876398
59521.235088,-74.020594,-11843.295072,-2528.115143
59521.235398,-3997.112087,-10140.821405,-4136.915689
59521.235708,-592.164754,-11917.315666,-76.609550
59521.236018,3330.926739,-10510.924376,1762.019645
59521.236327,4367.215058,-7254.018232,919.314598
59521.236637,5033.400406,-8216.285956,3140.991542
59521.236947,5107.421000,-6661.853478,2298.286494
59521.237257,3849.070898,-8660.409521,1838.629195
59521.237567,3775.050304,-7402.059420,1149.143247
59521.237877,4367.215058,-8882.471304,1762.019645
59521.238187,3552.988522,-7476.080014,1225.752797
59521.238497,4071.132681,-11547.212695,1762.019645
59521.238807,-1702.473667,-8660.409521,-2834.553343
59521.239116,-2960.823768,-9548.656652,-2298.286494
59521.239426,2442.679609,-10140.821405,-76.609550
59521.239736,2886.803174,-7920.203579,306.438199
59521.240046,2220.617826,-8734.430116,1072.533697
59521.240356,2590.720797,-6883.915261,0.000000
59521.240666,4145.153275,-9548.656652,306.438199
59521.240976,5921.647536,-9548.656652,3677.258390
59521.241286,4663.297435,-7698.141797,-76.609550
59521.241595,2368.659014,-8364.327145,306.438199
59521.241905,2886.803174,-11843.295072,-76.609550
59521.242215,2886.803174,-11843.295072,-76.609550
59521.242525,3256.906145,-10436.903782,612.876398
59521.242835,2368.659014,-9326.594869,612.876398
59521.243145,1998.556043,-10436.903782,-76.609550
59521.243455,74.020594,-8882.471304,0.000000
59521.243764,1110.308913,-9770.718434,536.266849
59521.244074,5847.626942,-5921.647536,1455.581446
59521.244384,7105.977043,-7624.121203,5209.449386
59521.244694,4663.297435,-6957.935855,1762.019645
59521.245003,0.000000,-6661.853478,0.000000
59521.245313,1998.556043,-10140.821405,1685.410096
59521.245623,4663.297435,-9474.636058,842.705048
59521.245933,592.164754,-9548.656652,1532.190996
59521.246243,1702.473667,-10066.800811,-1302.362347
59521.246552,0.000000,-11917.315666,-1608.800546
59521.246862,5625.565159,-9474.636058,1532.190996
59521.247172,5847.626942,-13027.624579,3600.648841
59521.247482,0.000000,-5699.585753,0.000000
59521.247792,1480.411884,-10066.800811,-76.609550
59521.248101,1406.391290,-6587.832884,0.000000
59521.248411,4737.318029,-6143.709319,1072.533697
59521.248721,3256.906145,-8068.244768,2834.553343
59521.249031,2368.659014,-7179.997637,919.314598
59521.249340,1850.514855,-11843.295072,1762.019645
59521.249650,4663.297435,-10658.965565,4060.306139
59521.249960,-1924.535449,-11029.068536,1762.019645
59521.250270,-6513.812290,-7476.080014,-2451.505594
59521.250580,-5625.565159,-13323.706956,-612.876398
59521.250889,-2738.761985,-7772.162391,-3064.381992
59521.251199,-888.247130,-11547.212695,3600.648841
59521.251509,-74.020594,-7105.977043,3524.039291
59521.251819,-2442.679609,-6809.894666,229.828649
59521.252129,148.041188,-7254.018232,1991.848295
59521.252438,-222.061783,-6291.750507,919.314598
59521.252748,-5329.482782,-7772.162391,0.000000
59521.253058,-3627.009116,-8956.491898,0.000000
59521.253368,-2442.679609,-13027.624579,-76.609550
59521.253678,-2960.823768,-8956.491898,-1532.190996
59521.253987,-4737.318029,-10140.821405,2451.505594
59521.254297,-2368.659014,-9844.739029,2451.505594
59521.254607,-3997.112087,-10140.821405,0.000000
59521.254917,0.000000,-8364.327145,1991.848295
59521.255226,-2072.576638,-9252.574275,2451.505594
59521.255536,-3923.091493,-6439.791695,1149.143247
59521.255846,-3923.091493,-9474.636058,-76.609550
59521.256156,-3182.885551,-6365.771101,-459.657299
59521.256466,-2368.659014,-5995.668130,0.000000
59521.256775,-1258.350101,-8290.306550,2374.896044
59521.257085,-5921.647536,-4811.338623,0.000000
59521.257395,1110.308913,-12287.418637,1762.019645
59521.257705,2294.638420,-11843.295072,2374.896044
59521.258015,-2886.803174,-11399.171507,1302.362347
59521.258324,-5477.523971,-9622.677246,-1302.362347
59521.258634,-3701.029710,-11251.130318,-995.924147
59521.258944,0.000000,-4811.338623,0.000000
59521.259254,2368.659014,-10362.883188,4213.525239
59521.259564,3478.967927,-5625.565159,2374.896044
59521.259873,0.000000,-6587.832884,0.000000
59521.260183,6735.874072,-9474.636058,4826.401637
59521.260493,2294.638420,-8216.285956,3064.381992
59521.260803,-2368.659014,-7476.080014,919.314598
59521.261112,-1998.556043,-9178.553681,-1608.800546
59521.261422,-1258.350101,-11991.336260,-919.314598
59521.261732,1406.391290,-10658.965565,-1149.143247
59521.262042,2886.803174,-13027.624579,2374.896044
59521.262352,592.164754,-7179.997637,306.438199
59521.262661,2368.659014,-11621.233289,2451.505594
59521.262971,6439.791695,-9474.636058,2374.896044
59521.263281,3552.988522,-9844.739029,4903.011187
59521.263591,1702.473667,-5625.565159,229.828649
59521.263901,-74.020594,-9178.553681,-76.609550
59521.264210,370.102971,-7994.224174,-383.047749
59521.264520,1850.514855,-7550.100608,306.438199
59521.264830,1628.453072,-8586.388927,1685.410096
59521.265140,0.000000,-6587.832884,1225.752797
59521.265450,2294.638420,-12435.459826,1915.238745
59521.265759,2886.803174,-10362.883188,-76.609550
59521.266069,592.164754,-12805.562797,4290.134789
59521.266379,-2442.679609,-8586.388927,-1302.362347
59521.266689,-2368.659014,-11621.233289,1225.752797
59521.266998,-1184.329507,-7772.162391,-919.314598
59521.267308,962.267725,-8438.347739,995.924147
59521.267618,370.102971,-6291.750507,1685.410096
59521.267928,0.000000,-8142.265362,919.314598
59521.268238,4663.297435,-7105.977043,-76.609550
59521.268547,2072.576638,-8364.327145,1838.629195
59521.268857,-962.267725,-10288.862594,1532.190996
59521.269167,-5329.482782,-9178.553681,-2298.286494
59521.269477,-5773.606348,-11547.212695,-3064.381992
59521.269787,-2368.659014,-11769.274478,-766.095498
59521.270096,-2146.597232,-11251.130318,1072.533697
59521.270406,-4145.153275,-5995.668130,0.000000
59521.270716,2220.617826,-11547.212695,4213.525239
59521.271026,4663.297435,-7105.977043,2987.772442
59521.271335,3478.967927,-9178.553681,4826.401637
59521.271645,-3256.906145,-4811.338623,919.314598
59521.271955,-6809.894666,-8956.491898,1072.533697
59521.272265,-2442.679609,-7105.977043,-1608.800546
59521.272575,-3552.988522,-7772.162391,0.000000
59521.272884,-2146.597232,-7402.059420,306.438199
59521.273194,-814.226536,-8734.430116,536.266849
59521.273504,296.082377,-9548.656652,1378.971896
59521.273814,2812.782580,-8808.450710,2221.676944
59521.274124,-444.123565,-10510.924376,2911.162892
59521.274433,-4737.318029,-8512.368333,0.000000
59521.274743,-4811.338623,-11843.295072,-1532.190996
59521.275053,-1332.370696,-8364.327145,-1532.190996
59521.275363,-814.226536,-9622.677246,1532.190996
59521.275673,592.164754,-6217.729913,1838.629195
59521.275982,518.144159,-8216.285956,0.000000
59521.276292,4145.153275,-6883.915261,1225.752797
59521.276602,7031.956449,-11843.295072,5745.716235
59521.276912,-1480.411884,-7179.997637,1838.629195
59521.277221,-2812.782580,-10214.842000,-229.828649
59521.277531,-4737.318029,-10732.986159,-2145.067394
59521.277841,-740.205942,-11103.089130,-1302.362347
59521.278151,-370.102971,-10436.903782,1149.143247
59521.278461,444.123565,-8364.327145,1608.800546
59521.278770,1406.391290,-10140.821405,1608.800546
59521.279080,4663.297435,-7698.141797,2374.896044
59521.279390,888.247130,-7772.162391,1225.752797
59521.279700,-296.082377,-8882.471304,2987.772442
59521.280010,-4219.173869,-7698.141797,-1915.238745
59521.280319,-2072.576638,-8364.327145,0.000000
59521.280629,444.123565,-7179.997637,0.000000
59521.280939,1332.370696,-9178.553681,2374.896044
59521.281249,1036.288319,-8068.244768,153.219100
59521.281559,2146.597232,-9992.780217,1378.971896
59521.281868,4589.276840,-8734.430116,1838.629195
59521.282178,2294.638420,-11547.212695,3294.210641
59521.282488,-2442.679609,-8882.471304,-1302.362347
59521.282798,-6809.894666,-9548.656652,-3677.258390
59521.283107,1480.411884,-9474.636058,-229.828649
59521.283417,888.247130,-9252.574275,536.266849
59521.283727,0.000000,-4811.338623,153.219100
59521.284037,148.041188,-9104.533087,612.876398
59521.284347,3478.967927,-8142.265362,1608.800546
59521.284656,3923.091493,-9622.677246,2834.553343
59521.284966,1184.329507,-8586.388927,2374.896044
59521.285276,-1258.350101,-10362.883188,-76.609550
59521.285586,-2886.803174,-9030.512492,-3753.867940
59521.285896,0.000000,-11621.233289,-459.657299
59521.286205,-666.185348,-10658.965565,-76.609550
59521.286515,-3256.906145,-8660.409521,0.000000
59521.286825,-370.102971,-10658.965565,0.000000
59521.287135,5181.441594,-7920.203579,3064.381992
59521.287444,3997.112087,-8882.471304,4749.792088
59521.287754,-296.082377,-6069.688724,2068.457845
59521.288064,-4811.338623,-8808.450710,-689.485948
59521.288374,-1998.556043,-10362.883188,-383.047749
59521.288684,-1776.494261,-11103.089130,-689.485948
59521.288993,-1184.329507,-8364.327145,2451.505594
59521.289303,-74.020594,-10066.800811,-76.609550
59521.289613,1184.329507,-8364.327145,1838.629195
59521.289923,4071.132681,-9474.636058,459.657299
59521.290233,0.000000,-9844.739029,3064.381992
59521.290542,-3775.050304,-9178.553681,76.609550
59521.290852,-5107.421000,-10658.965565,-459.657299
59521.291162,-2294.638420,-9252.574275,-76.609550
59521.291472,-1184.329507,-11103.089130,3064.381992
59521.291782,-666.185348,-5921.647536,-76.609550
59521.292091,-7105.977043,-7179.997637,0.000000
59521.292401,4663.297435,-8882.471304,2374.896044
59521.292711,3478.967927,-6883.915261,3140.991542
59521.293021,2294.638420,-9030.512492,3294.210641
59521.293330,-4589.276840,-8364.327145,-612.876398
59521.293640,-6439.791695,-12065.356855,-1455.581446
59521.293950,-1036.288319,-9696.697840,-1455.581446
59521.294260,-2516.700203,-10732.986159,2221.676944
59521.294570,-2960.823768,-7772.162391,459.657299
59521.294879,-74.020594,-13619.789333,2374.896044
59521.295189,2368.659014,-5107.421000,1225.752797
59521.295499,4367.215058,-11843.295072,5898.935335
59521.295809,-2368.659014,-5995.668130,1455.581446
59521.296119,-2516.700203,-9400.615463,-76.609550
59521.296428,-666.185348,-7105.977043,-995.924147
59521.296738,296.082377,-8364.327145,919.314598
59521.297048,-444.123565,-8512.368333,1915.238745
59521.297358,-1406.391290,-9326.594869,0.000000
59521.297668,148.041188,-9548.656652,0.000000
59521.297977,3552.988522,-9548.656652,3064.381992
59521.298287,4663.297435,-11251.130318,4213.525239
59521.298597,-3108.864956,-6587.832884,-1149.143247
59521.298907,-3552.988522,-11325.150913,919.314598
59521.299216,-666.185348,-9252.574275,-2757.943793
59521.299526,-1184.329507,-9844.739029,612.876398
59521.299836,-148.041188,-7846.182985,383.047749
59521.300146,1036.288319,-8364.327145,766.095498
59521.300456,4959.379811,-6587.832884,3294.210641
59521.300765,5033.400406,-10732.986159,3983.696590
59521.301075,4663.297435,-10658.965565,5439.278036
59521.301385,-1850.514855,-9474.636058,-1608.800546
59521.301695,-2368.659014,-10140.821405,-2451.505594
59521.302005,-222.061783,-11843.295072,-1302.362347
59521.302314,-74.020594,-9474.636058,-76.609550
59521.302624,-2960.823768,-9548.656652,0.000000
59521.302934,370.102971,-9400.615463,383.047749
59521.303244,3775.050304,-9252.574275,1991.848295
59521.303554,3478.967927,-8660.409521,4596.572988
59521.303863,1184.329507,-7698.141797,3983.696590
59521.304173,-666.185348,-11251.130318,2374.896044
59521.304483,-1554.432478,-6809.894666,-2528.115143
59521.304793,-1776.494261,-9696.697840,612.876398
59521.305102,-74.020594,-9474.636058,1149.143247
59521.305412,-74.020594,-10658.965565,-1302.362347
59521.305722,1036.288319,-9548.656652,459.657299
59521.306032,3404.947333,-10584.944971,2451.505594
59521.306342,592.164754,-9770.718434,3370.820191
59521.306651,-3478.967927,-7698.141797,-76.609550
59521.306961,-4441.235652,-9548.656652,0.000000
59521.307271,-1258.350101,-11251.130318,-76.609550
59521.307581,-4663.297435,-7179.997637,0.000000
59521.307891,-1776.494261,-8586.388927,2221.676944
59521.308200,-1554.432478,-8290.306550,1149.143247
59521.308510,3775.050304,-6809.894666,2374.896044
59521.308820,1776.494261,-8364.327145,4290.134789
59521.309130,-518.144159,-6735.874072,2528.115143
59521.309439,-4145.153275,-9622.677246,0.000000
59521.309749,-2812.782580,-8882.471304,-1225.752797
59521.310059,-4145.153275,-10140.821405,-1225.752797
59521.310369,-2812.782580,-11695.253884,1838.629195
59521.310679,-2442.679609,-10658.965565,-1302.362347
59521.310988,0.000000,-9548.656652,919.314598
59521.311298,5107.421000,-8882.471304,3140.991542
59521.311608,4219.173869,-9918.759623,5439.278036
59521.311918,-370.102971,-5995.668130,2068.457845
59521.312228,-3182.885551,-9400.615463,612.876398
59521.312537,-222.061783,-7772.162391,-919.314598
59521.312847,-444.123565,-10288.862594,306.438199
59521.313157,-2368.659014,-6587.832884,0.000000
59521.313467,-2368.659014,-9548.656652,612.876398
59521.313777,2886.803174,-9474.636058,-76.609550
59521.314086,2368.659014,-8956.491898,1225.752797
59521.314396,2146.597232,-9918.759623,3830.477490
59521.314706,-1480.411884,-11251.130318,-76.609550
59521.315016,-2220.617826,-10510.924376,-766.095498
59521.315325,-370.102971,-8956.491898,-1532.190996
59521.315635,-1258.350101,-10140.821405,612.876398
59521.315945,-666.185348,-6069.688724,0.000000
59521.316255,0.000000,-5995.668130,0.000000
59521.316565,2368.659014,-5995.668130,612.876398
59521.316874,5181.441594,-11769.274478,4826.401637
59521.317184,1406.391290,-7402.059420,1455.581446
59521.317494,-1776.494261,-9844.739029,0.000000
59521.317804,0.000000,-10436.903782,-153.219100
59521.318114,-1258.350101,-10955.047942,-1302.362347
59521.318423,-3182.885551,-10140.821405,-1455.581446
59521.318733,-2812.782580,-11325.150913,-1378.971896
59521.319043,296.082377,-10732.986159,0.000000
59521.319353,2738.761985,-7402.059420,1149.143247
59521.319663,1406.391290,-6513.812290,2374.896044
59521.319972,0.000000,-5403.503377,2451.505594
59521.320282,1110.308913,-9474.636058,2374.896044
59521.320592,0.000000,-5625.565159,-76.609550
59521.320902,-3552.988522,-10140.821405,612.876398
59521.321211,-3330.926739,-8808.450710,-459.657299
59521.321521,-3256.906145,-10807.006753,-306.438199
59521.321831,1184.329507,-9696.697840,1378.971896
59521.322141,1924.535449,-9992.780217,1455.581446
59521.322451,-74.020594,-7698.141797,1149.143247
59521.322760,-3627.009116,-7698.141797,-689.485948
59521.323070,-2368.659014,-7772.162391,0.000000
59521.323380,-74.020594,-10658.965565,1149.143247
59521.323690,-3034.844362,-9918.759623,1149.143247
59521.324000,-3552.988522,-6587.832884,0.000000
59521.324309,-2294.638420,-10658.965565,229.828649
59521.324619,4589.276840,-7402.059420,2298.286494
59521.324929,3849.070898,-8216.285956,4673.182538
59521.325239,1850.514855,-6513.812290,4213.525239
59521.325548,-666.185348,-9474.636058,-76.609550
59521.325858,-1850.514855,-8438.347739,-1608.800546
59521.326168,-2960.823768,-9548.656652,0.000000
59521.326478,-3034.844362,-11843.295072,-76.609550
59521.326788,-5551.544565,-8660.409521,-1455.581446
59521.327097,-2960.823768,-9548.656652,0.000000
59521.327407,2664.741391,-8882.471304,1455.581446
59521.327717,2072.576638,-9548.656652,3753.867940
59521.328027,740.205942,-5921.647536,2298.286494
59521.328337,370.102971,-9474.636058,3294.210641
59521.328646,4367.215058,-7994.224174,2374.896044
59521.328956,-370.102971,-7698.141797,-689.485948
59521.329266,-2368.659014,-9104.533087,1532.190996
59521.329576,-3330.926739,-9918.759623,-1915.238745
59521.329886,0.000000,-10214.842000,0.000000
59521.330195,1184.329507,-8660.409521,0.000000
59521.330505,1628.453072,-9622.677246,2987.772442
59521.330815,-740.205942,-8882.471304,1302.362347
59521.331125,-1184.329507,-8216.285956,0.000000
59521.331434,-666.185348,-9474.636058,1762.019645
59521.331744,-666.185348,-9474.636058,0.000000
59521.332054,-666.185348,-9474.636058,-76.609550
59521.332364,-2368.659014,-7772.162391,0.000000
59521.332674,3775.050304,-8882.471304,2374.896044
59521.332983,1776.494261,-8586.388927,1225.752797
59521.333293,666.185348,-6143.709319,0.000000
59521.333603,-1480.411884,-10140.821405,766.095498
59521.333913,0.000000,-9548.656652,-536.266849
59521.334223,-1554.432478,-11103.089130,-612.876398
59521.334532,-1554.432478,-11251.130318,1455.581446
59521.334842,-3108.864956,-12435.459826,0.000000
59521.335152,2294.638420,-11843.295072,2374.896044
59521.335462,888.247130,-6291.750507,0.000000
59521.335772,3034.844362,-8438.347739,4826.401637
59521.336081,-370.102971,-6587.832884,0.000000
59521.336391,-666.185348,-9474.636058,-76.609550
59521.336701,296.082377,-7476.080014,-536.266849
59521.337011,-888.247130,-10066.800811,1149.143247
59521.337320,-2146.597232,-8512.368333,-153.219100
59521.337630,-2368.659014,-11621.233289,0.000000
59521.337940,1184.329507,-9548.656652,0.000000
59521.338250,4515.256246,-13027.624579,4519.963438
59521.338560,0.000000,-6587.832884,1225.752797
59521.338869,-1776.494261,-9548.656652,1225.752797
59521.339179,-74.020594,-8068.244768,-229.828649
59521.339489,2294.638420,-9474.636058,-76.609550
59521.339799,-1184.329507,-8512.368333,1072.533697
59521.340109,-2368.659014,-8290.306550,-689.485948
59521.340418,-1998.556043,-10066.800811,-919.314598
59521.340728,1184.329507,-7772.162391,0.000000
59521.341038,0.000000,-8364.327145,612.876398
59521.341348,592.164754,-8956.491898,3064.381992
59521.341658,-74.020594,-11251.130318,1149.143247
59521.341967,592.164754,-6291.750507,0.000000
59521.342277,666.185348,-10066.800811,2068.457845
59521.342586,-74.020594,-9178.553681,1762.019645
59521.342896,-2738.761985,-9918.759623,-383.047749
59521.343206,444.123565,-9622.677246,612.876398
59521.343515,2664.741391,-9104.533087,2374.896044
59521.343825,0.000000,-5403.503377,2451.505594
59521.344134,-2368.659014,-4811.338623,76.609550
59521.344444,-2368.659014,-8956.491898,612.876398
59521.344754,-666.185348,-9178.553681,-1915.238745
59521.345063,-2960.823768,-10140.821405,612.876398
59521.345373,-1850.514855,-9474.636058,-76.609550
59521.345682,-3256.906145,-11103.089130,-76.609550
59521.345992,0.000000,-7254.018232,0.000000
59521.346302,2516.700203,-10288.862594,3140.991542
59521.346611,2812.782580,-6661.853478,3140.991542
59521.346921,-1110.308913,-9178.553681,1225.752797
59521.347230,0.000000,-5403.503377,0.000000
59521.347540,1184.329507,-9844.739029,2451.505594
59521.347849,-74.020594,-8882.471304,1149.143247
59521.348159,-4145.153275,-8364.327145,0.000000
59521.348469,-2146.597232,-10362.883188,-689.485948
59521.348778,1480.411884,-10658.965565,1455.581446
59521.349088,370.102971,-11103.089130,1915.238745
59521.349397,-1702.473667,-8068.244768,612.876398
59521.349707,-3701.029710,-10510.924376,0.000000
59521.350017,0.000000,-6957.935855,0.000000
59521.350326,0.000000,-8364.327145,306.438199
59521.350636,0.000000,-5995.668130,1225.752797
59521.350945,-370.102971,-11843.295072,-76.609550
59521.351255,0.000000,-6883.915261,0.000000
59521.351565,2516.700203,-9770.718434,2987.772442
59521.351874,592.164754,-9400.615463,4213.525239
59521.352184,-2146.597232,-7994.224174,-76.609550
59521.352493,-1850.514855,-9104.533087,-842.705048
59521.352803,1480.411884,-8734.430116,-612.876398
59521.353112,0.000000,-9548.656652,0.000000
59521.353422,-3182.885551,-6365.771101,-1915.238745
59521.353732,-4219.173869,-9770.718434,-2834.553343
59521.354041,0.000000,-9548.656652,0.000000
59521.354351,3182.885551,-13619.789333,2987.772442
59521.354660,0.000000,-7476.080014,2834.553343
59521.354970,-1924.535449,-8364.327145,1838.629195
59521.355280,2590.720797,-7402.059420,1455.581446
59521.355589,3478.967927,-7105.977043,1838.629195
59521.355899,962.267725,-7476.080014,2757.943793
59521.356208,-2442.679609,-7772.162391,-689.485948
59521.356518,-1850.514855,-11177.109724,-1608.800546
59521.356828,0.000000,-7772.162391,-2451.505594
59521.357137,1628.453072,-12805.562797,3830.477490
59521.357447,-1258.350101,-7698.141797,-536.266849
59521.357756,-4145.153275,-9548.656652,1149.143247
59521.358066,592.164754,-7772.162391,0.000000
59521.358376,1036.288319,-11325.150913,2604.724693
59521.358685,-1110.308913,-7624.121203,1762.019645
59521.358995,-3701.029710,-11029.068536,612.876398
59521.359304,-296.082377,-7698.141797,-76.609550
59521.359614,-74.020594,-10658.965565,2374.896044
59521.359923,0.000000,-5403.503377,1225.752797
59521.360233,1776.494261,-5107.421000,3830.477490
59521.360543,-962.267725,-7994.224174,1685.410096
59521.360852,1332.370696,-4811.338623,0.000000
59521.361162,-1776.494261,-10140.821405,2451.505594
59521.361471,-1702.473667,-7254.018232,-1149.143247
59521.361781,-6365.771101,-13989.892304,-1455.581446
59521.362091,-2442.679609,-10955.047942,-3294.210641
59521.362400,-2220.617826,-13915.871710,1455.581446
59521.362710,-74.020594,-8290.306550,2987.772442
59521.363019,-1258.350101,-8882.471304,-76.609550
59521.363329,0.000000,-5403.503377,1225.752797
59521.363639,5181.441594,-8882.471304,4213.525239
59521.363948,2294.638420,-7920.203579,4290.134789
59521.364258,-2368.659014,-5995.668130,0.000000
59521.364567,-2072.576638,-9548.656652,766.095498
59521.364877,-962.267725,-9992.780217,-689.485948
59521.365186,-1110.308913,-10288.862594,995.924147
59521.365496,-1258.350101,-9474.636058,1608.800546
59521.365806,-1258.350101,-11251.130318,1762.019645
59521.366115,2294.638420,-9474.636058,-1302.362347
59521.366425,0.000000,-9548.656652,0.000000
59521.366734,296.082377,-8586.388927,2451.505594
59521.367044,-2442.679609,-11251.130318,0.000000
59521.367354,0.000000,-8068.244768,-2221.676944
59521.367663,2072.576638,-10436.903782,2451.505594
59521.367973,2516.700203,-6809.894666,2681.334243
59521.368282,148.041188,-7698.141797,1302.362347
59521.368592,3478.967927,-7698.141797,2298.286494
59521.368902,3034.844362,-8660.409521,383.047749
59521.369211,2294.638420,-11251.130318,2068.457845
59521.369521,-4293.194464,-8364.327145,-2911.162892
59521.369830,-4737.318029,-13249.686362,0.000000
59521.370140,-74.020594,-11621.233289,-2451.505594
59521.370449,-1258.350101,-11547.212695,536.266849
59521.370759,-2072.576638,-7179.997637,306.438199
59521.371069,-1036.288319,-8956.491898,1455.581446
59521.371378,4367.215058,-6291.750507,2604.724693
59521.371688,5921.647536,-6883.915261,5515.887586
59521.371997,3108.864956,-6291.750507,4213.525239
59521.372307,592.164754,-8956.491898,2451.505594
59521.372617,-74.020594,-11251.130318,-76.609550
59521.372926,-1184.329507,-9548.656652,0.000000
59521.373236,-1924.535449,-10732.986159,-1608.800546
59521.373545,-2738.761985,-10658.965565,-1302.362347
59521.373855,-2960.823768,-10584.944971,-1532.190996
59521.374165,1554.432478,-9326.594869,76.609550
59521.374474,370.102971,-10436.903782,2068.457845
59521.374784,-1776.494261,-7179.997637,1225.752797
59521.375093,-3552.988522,-8364.327145,0.000000
59521.375403,592.164754,-8364.327145,2451.505594
59521.375712,2146.597232,-8882.471304,2374.896044
59521.376022,-2368.659014,-5107.421000,0.000000
59521.376332,-1850.514855,-7698.141797,1149.143247
59521.376641,2294.638420,-9474.636058,1762.019645
59521.376951,1110.308913,-7920.203579,842.705048
59521.377260,-1036.288319,-9030.512492,1762.019645
59521.377570,-1998.556043,-9030.512492,0.000000
59521.377880,-3552.988522,-10732.986159,0.000000
59521.378189,0.000000,-9770.718434,536.266849
59521.378499,-4737.318029,-9548.656652,0.000000
59521.378808,-2960.823768,-8660.409521,153.219100
59521.379118,-1850.514855,-10362.883188,-76.609550
59521.379428,1036.288319,-7105.977043,1149.143247
59521.379737,2146.597232,-9474.636058,2987.772442
59521.380047,-666.185348,-6513.812290,2298.286494
59521.380356,-370.102971,-8734.430116,1072.533697
59521.380666,1258.350101,-8956.491898,1685.410096
59521.380975,0.000000,-7772.162391,229.828649
59521.381285,-2368.659014,-9474.636058,2068.457845
59521.381595,-4737.318029,-7179.997637,0.000000
59521.381904,-370.102971,-12435.459826,-76.609550
59521.382214,0.000000,-7772.162391,-2451.505594
59521.382523,1332.370696,-11103.089130,3294.210641
59521.382833,1480.411884,-8068.244768,2451.505594
59521.383143,-518.144159,-10584.944971,842.705048
59521.383452,1184.329507,-8882.471304,383.047749
59521.383762,-592.164754,-10140.821405,1532.190996
59521.384071,-3034.844362,-7179.997637,229.828649
59521.384381,-3330.926739,-10066.800811,-76.609550
59521.384691,-1480.411884,-6587.832884,-1532.190996
59521.385000,2368.659014,-8660.409521,2451.505594
59521.385310,2294.638420,-7179.997637,536.266849
59521.385619,962.267725,-9474.636058,2374.896044
59521.385929,0.000000,-10732.986159,1225.752797
59521.386239,2516.700203,-9326.594869,766.095498
59521.386548,0.000000,-10881.027347,1762.019645
59521.386858,-1776.494261,-8216.285956,-459.657299
59521.387167,-3034.844362,-10362.883188,-689.485948
59521.387477,-74.020594,-9474.636058,-76.609550
59521.387786,-1110.308913,-7698.141797,0.000000
59521.388096,0.000000,-7476.080014,2451.505594
59521.388406,-74.020594,-9474.636058,-76.609550
59521.388715,1184.329507,-8956.491898,1838.629195
59521.389025,592.164754,-8660.409521,306.438199
59521.389334,-888.247130,-9474.636058,2604.724693
59521.389644,-2072.576638,-8660.409521,-383.047749
59521.389954,-1332.370696,-9918.759623,-383.047749
59521.390263,2294.638420,-8882.471304,-76.609550
59521.390573,888.247130,-9548.656652,2451.505594
59521.390882,-1258.350101,-6587.832884,459.657299
59521.391192,-592.164754,-10140.821405,1532.190996
59521.391502,2294.638420,-8882.471304,-76.609550
59521.391811,0.000000,-9548.656652,2451.505594
59521.392121,-3552.988522,-7179.997637,0.000000
59521.392430,-3701.029710,-9622.677246,-842.705048
59521.392740,-1184.329507,-8808.450710,-1225.752797
59521.393049,0.000000,-8882.471304,229.828649
59521.393359,1702.473667,-10658.965565,2834.553343
59521.393669,-1406.391290,-7772.162391,0.000000
59521.393978,1110.308913,-11251.130318,1149.143247
59521.394288,1184.329507,-9548.656652,1225.752797
59521.394597,1110.308913,-14211.954086,4826.401637
59521.394907,-4441.235652,-7179.997637,0.000000
59521.395217,-4515.256246,-8660.409521,-1685.410096
59521.395526,740.205942,-7179.997637,536.266849
59521.395836,1702.473667,-8808.450710,2987.772442
59521.396145,1184.329507,-6513.812290,2298.286494
59521.396455,-74.020594,-9992.780217,2068.457845
59521.396765,1776.494261,-9548.656652,1838.629195
59521.397074,2886.803174,-10658.965565,1762.019645
59521.397384,-3256.906145,-7772.162391,306.438199
59521.397693,-1850.514855,-13027.624579,-76.609550
59521.398003,-4737.318029,-8956.491898,-3677.258390
59521.398312,-74.020594,-8734.430116,-536.266849
59521.398622,-592.164754,-9918.759623,2068.457845
59521.398932,-740.205942,-7179.997637,842.705048
59521.399241,-1184.329507,-10214.842000,1532.190996
59521.399551,2960.823768,-7772.162391,2451.505594
59521.399860,0.000000,-8660.409521,2757.943793
59521.400170,592.164754,-7698.141797,2987.772442
59521.400480,-3256.906145,-7328.038826,-1302.362347
59521.400789,0.000000,-7179.997637,306.438199
59521.401099,-592.164754,-8364.327145,-1608.800546
59521.401408,-74.020594,-9474.636058,-76.609550
59521.401718,-1332.370696,-9252.574275,-689.485948
59521.402028,-296.082377,-11843.295072,153.219100
59521.402337,2072.576638,-9622.677246,1072.533697
59521.402647,-1776.494261,-10732.986159,1532.190996
59521.402956,-1702.473667,-7994.224174,-229.828649
59521.403266,-3256.906145,-10732.986159,0.000000
59521.403575,1110.308913,-8290.306550,-76.609550
59521.403885,-3552.988522,-7179.997637,0.000000
59521.404195,1554.432478,-5033.400406,842.705048
59521.404504,2294.638420,-9474.636058,2068.457845
59521.404814,3182.885551,-7846.182985,1149.143247
59521.405123,1776.494261,-9474.636058,1532.190996
59521.405433,-1998.556043,-10214.842000,766.095498
59521.405743,-6513.812290,-9548.656652,-3370.820191
59521.406052,-3627.009116,-11547.212695,-1302.362347
59521.406362,-1184.329507,-9548.656652,0.000000
59521.406671,1110.308913,-11251.130318,2374.896044
59521.406981,-1776.494261,-4811.338623,0.000000
59521.407291,1702.473667,-10066.800811,2374.896044
59521.407600,5551.544565,-8290.306550,3294.210641
59521.407910,2368.659014,-10140.821405,3370.820191
59521.408219,-1406.391290,-5699.585753,153.219100
59521.408529,-6069.688724,-11103.089130,-459.657299
59521.408839,-1998.556043,-7179.997637,-2068.457845
59521.409148,-74.020594,-10288.862594,-229.828649
59521.409458,-1776.494261,-7772.162391,612.876398
59521.409767,-1258.350101,-9178.553681,-689.485948
59521.410077,0.000000,-9548.656652,0.000000
59521.410386,5847.626942,-11251.130318,2374.896044
59521.410696,-74.020594,-13249.686362,4136.915689
59521.411006,-1924.535449,-6809.894666,0.000000
59521.411315,-4071.132681,-10288.862594,153.219100
59521.411625,1554.432478,-6735.874072,76.609550
59521.411934,222.061783,-7698.141797,2681.334243
59521.412244,1406.391290,-5921.647536,2911.162892
59521.412554,-1480.411884,-8660.409521,0.000000
59521.412863,2664.741391,-8660.409521,3064.381992
59521.413173,3478.967927,-11843.295072,2374.896044
59521.413482,-666.185348,-11843.295072,2374.896044
59521.413792,-3849.070898,-9400.615463,-2145.067394
59521.414102,-4367.215058,-11547.212695,-2068.457845
59521.414411,-1850.514855,-10066.800811,-1455.581446
59521.414721,-1406.391290,-10955.047942,1608.800546
59521.415030,-74.020594,-7698.141797,1149.143247
59521.415340,1184.329507,-8956.491898,2911.162892
59521.415649,3478.967927,-5773.606348,2221.676944
59521.415959,1480.411884,-7476.080014,6205.373534
59521.416269,-74.020594,-5921.647536,-76.609550
59521.416578,-1998.556043,-10510.924376,-76.609550
59521.416888,-2960.823768,-8956.491898,-1225.752797
59521.417197,-1628.453072,-10732.986159,-459.657299
59521.417507,-1554.432478,-9474.636058,-229.828649
59521.417817,-2220.617826,-9918.759623,0.000000
59521.418126,1110.308913,-11843.295072,536.266849
59521.418436,4367.215058,-11547.212695,2374.896044
59521.418745,518.144159,-9178.553681,2221.676944
59521.419055,-2368.659014,-5995.668130,0.000000
59521.419365,-962.267725,-11843.295072,2374.896044
59521.419674,592.164754,-8956.491898,1378.971896
59521.419984,0.000000,-8364.327145,1685.410096
59521.420293,740.205942,-6883.915261,1608.800546
59521.420603,-888.247130,-8438.347739,1072.533697
59521.420912,2960.823768,-8142.265362,2068.457845
59521.421222,4071.132681,-11251.130318,3064.381992
59521.421532,-1480.411884,-9326.594869,689.485948
59521.421841,-4811.338623,-10658.965565,-1915.238745
59521.422151,-6143.709319,-10140.821405,-6128.763984
59521.422460,-74.020594,-12509.480420,-76.609550
59521.422770,-1184.329507,-10140.821405,1225.752797
59521.423080,-1554.432478,-6587.832884,0.000000
59521.423389,1628.453072,-8660.409521,2451.505594
59521.423699,6365.771101,-6883.915261,3524.039291
59521.424008,4515.256246,-8734.430116,4979.620737
59521.424318,1036.288319,-8216.285956,2451.505594
59521.424628,-4145.153275,-8660.409521,-689.485948
59521.424937,-666.185348,-11103.089130,-1302.362347
59521.425247,-2368.659014,-8956.491898,0.000000
59521.425556,-74.020594,-12731.542202,-76.609550
59521.425866,-4737.318029,-8364.327145,0.000000
59521.426175,666.185348,-8438.347739,229.828649
59521.426485,3701.029710,-9548.656652,2911.162892
59521.426795,814.226536,-9474.636058,3294.210641
59521.427104,-3034.844362,-7624.121203,153.219100
59521.427414,-3849.070898,-9548.656652,-459.657299
59521.427723,-1776.494261,-7772.162391,0.000000
59521.428033,-74.020594,-11251.130318,2681.334243
59521.428343,-1110.308913,-4811.338623,0.000000
59521.428652,2590.720797,-10658.965565,3600.648841
59521.428962,1480.411884,-6291.750507,153.219100
59521.429271,2294.638420,-9770.718434,2068.457845
59521.429581,-1184.329507,-9474.636058,766.095498
59521.429891,-4737.318029,-10066.800811,-2221.676944
59521.430200,-4589.276840,-11843.295072,-2604.724693
59521.430510,-2960.823768,-10732.986159,-1302.362347
59521.430819,-2368.659014,-9548.656652,1225.752797
59521.431129,1702.473667,-8882.471304,2374.896044
59521.431438,1702.473667,-6143.709319,383.047749
59521.431748,4737.318029,-5107.421000,4903.011187
59521.432058,3997.112087,-7772.162391,3064.381992
59521.432367,1702.473667,-7105.977043,1455.581446
59521.432677,-3849.070898,-9844.739029,-536.266849
59521.432986,-2886.803174,-9696.697840,-1762.019645
59521.433296,-2294.638420,-10807.006753,-1455.581446
59521.433606,-3552.988522,-8438.347739,-1072.533697
59521.433915,-2442.679609,-10288.862594,-1608.800546
59521.434225,1554.432478,-11843.295072,1915.238745
59521.434534,3923.091493,-7772.162391,0.000000
59521.434844,2960.823768,-9844.739029,5515.887586
59521.435154,-74.020594,-5921.647536,-766.095498
59521.435463,-1554.432478,-10288.862594,842.705048
59521.435773,0.000000,-7179.997637,-306.438199
59521.436082,-814.226536,-9178.553681,1378.971896
59521.436392,-518.144159,-6587.832884,766.095498
59521.436702,-1184.329507,-9252.574275,1302.362347
59521.437011,4663.297435,-7698.141797,2374.896044
59521.437321,1480.411884,-11029.068536,3677.258390
59521.437630,3478.967927,-12731.542202,4826.401637
59521.437940,-2738.761985,-7994.224174,-1915.238745
59521.438249,-2442.679609,-11843.295072,-1608.800546
59521.438559,-2664.741391,-10955.047942,-1532.190996
59521.438869,-4811.338623,-10955.047942,-383.047749
59521.439178,-740.205942,-6809.894666,229.828649
59521.439488,814.226536,-9918.759623,2911.162892
59521.439797,4663.297435,-5033.400406,3600.648841
59521.440107,1702.473667,-7402.059420,3600.648841
59521.440417,0.000000,-4811.338623,1225.752797
59521.440726,-1258.350101,-11251.130318,-76.609550
59521.441036,-4737.318029,-7179.997637,-2451.505594
59521.441345,-666.185348,-13027.624579,-1302.362347
59521.441655,-2960.823768,-10658.965565,-612.876398
59521.441965,-2590.720797,-10807.006753,-1072.533697
59521.442274,1406.391290,-10658.965565,1149.143247
59521.442584,3034.844362,-9326.594869,2298.286494
59521.442893,2294.638420,-9696.697840,3600.648841
59521.443203,-74.020594,-7105.977043,1149.143247
59521.443512,-2960.823768,-7920.203579,0.000000
59521.443822,0.000000,-5995.668130,1225.752797
59521.444132,-74.020594,-11547.212695,2681.334243
59521.444441,2886.803174,-7105.977043,-76.609550
59521.444751,-1184.329507,-10140.821405,1225.752797
59521.445061,3330.926739,-7846.182985,1608.800546
59521.445371,1406.391290,-11177.109724,2451.505594
59521.445680,-370.102971,-8882.471304,536.266849
59521.445990,-3478.967927,-10658.965565,459.657299
59521.446300,-2442.679609,-11103.089130,-1302.362347
59521.446609,-3923.091493,-9548.656652,-1991.848295
59521.446919,-3552.988522,-7179.997637,-1838.629195
59521.447229,592.164754,-8956.491898,1532.190996
59521.447539,4071.132681,-11843.295072,4213.525239
59521.447848,7624.121203,-9400.615463,6358.592633
59521.448158,4663.297435,-10658.965565,4826.401637
59521.448468,592.164754,-7105.977043,1149.143247
59521.448777,-2294.638420,-10214.842000,0.000000
59521.449087,-370.102971,-9474.636058,-689.485948
59521.449397,-2146.597232,-11251.130318,383.047749
59521.449707,-3627.009116,-7772.162391,-1225.752797
59521.450016,-2368.659014,-11029.068536,2451.505594
59521.450326,4071.132681,-9474.636058,2374.896044
59521.450636,4663.297435,-10510.924376,4213.525239
59521.450945,1480.411884,-8364.327145,3677.258390
59521.451255,-666.185348,-7105.977043,229.828649
59521.451565,-2072.576638,-9252.574275,0.000000
59521.451875,-740.205942,-7846.182985,-766.095498
59521.452184,-1480.411884,-9992.780217,1225.752797
59521.452494,-1628.453072,-7920.203579,0.000000
59521.452804,-370.102971,-10955.047942,383.047749
59521.453114,4145.153275,-10140.821405,4290.134789
59521.453423,3478.967927,-11843.295072,3600.648841
59521.453733,1998.556043,-9474.636058,3600.648841
59521.454043,-3256.906145,-9844.739029,612.876398
59521.454352,-1258.350101,-9400.615463,76.609550
59521.454662,-2442.679609,-10214.842000,-76.609550
59521.454972,-3330.926739,-9178.553681,229.828649
59521.455282,-2664.741391,-7994.224174,0.000000
59521.455591,-592.164754,-7994.224174,1915.238745
59521.455901,4071.132681,-6365.771101,2374.896044
59521.456211,592.164754,-7772.162391,4903.011187
59521.456520,-74.020594,-9178.553681,1762.019645
59521.456830,-2960.823768,-13101.645173,1225.752797
59521.457140,-1480.411884,-8660.409521,-1838.629195
59521.457450,-2590.720797,-12139.377449,0.000000
59521.457759,-2886.803174,-9178.553681,-1072.533697
59521.458069,-3330.926739,-10288.862594,-1378.971896
59521.458379,666.185348,-9252.574275,306.438199
59521.458688,3108.864956,-8660.409521,2911.162892
59521.458998,3923.091493,-8290.306550,4213.525239
59521.459308,0.000000,-4811.338623,0.000000
59521.459618,2294.638420,-10658.965565,2068.457845
59521.459927,0.000000,-7179.997637,0.000000
59521.460237,-2960.823768,-9548.656652,0.000000
59521.460547,-2960.823768,-8586.388927,-1455.581446
59521.460856,-2072.576638,-11325.150913,-459.657299
59521.461166,2368.659014,-9178.553681,1455.581446
59521.461476,2072.576638,-9696.697840,1838.629195
59521.461786,592.164754,-7328.038826,1838.629195
59521.462095,-222.061783,-10881.027347,3600.648841
59521.462405,-74.020594,-9474.636058,-76.609550
59521.462715,-3552.988522,-7772.162391,0.000000
59521.463025,-3552.988522,-7179.997637,612.876398
59521.463334,-1850.514855,-7476.080014,-689.485948
59521.463644,592.164754,-7994.224174,919.314598
59521.463954,2590.720797,-8142.265362,1532.190996
59521.464263,962.267725,-8660.409521,2298.286494
59521.464573,-666.185348,-7550.100608,76.609550
59521.464883,-1184.329507,-10732.986159,1225.752797
59521.465193,1110.308913,-8882.471304,-76.609550
59521.465502,-2368.659014,-9548.656652,1225.752797
59521.465812,-74.020594,-9474.636058,-76.609550
59521.466122,-4145.153275,-9548.656652,0.000000
59521.466431,2590.720797,-8290.306550,1149.143247
59521.466741,2664.741391,-9104.533087,3370.820191
59521.467051,1850.514855,-7105.977043,2681.334243
59521.467361,-962.267725,-8512.368333,842.705048
59521.467670,-518.144159,-8660.409521,842.705048
59521.467980,-962.267725,-9178.553681,-306.438199
59521.468290,-3552.988522,-10732.986159,1225.752797
59521.468599,-3627.009116,-8290.306550,-2528.115143
59521.468909,-4737.318029,-9548.656652,0.000000
59521.469219,1184.329507,-7179.997637,0.000000
59521.469529,2886.803174,-10510.924376,3600.648841
59521.469838,518.144159,-7179.997637,1608.800546
59521.470148,-1332.370696,-9696.697840,612.876398
59521.470458,592.164754,-7476.080014,536.266849
59521.470768,-592.164754,-9178.553681,1149.143247
59521.471077,-2368.659014,-7920.203579,-383.047749
59521.471387,-4737.318029,-9548.656652,-1225.752797
59521.471697,-74.020594,-13027.624579,-76.609550
59521.472006,0.000000,-5477.523971,0.000000
59521.472316,-1702.473667,-9770.718434,919.314598
59521.472626,2294.638420,-7994.224174,1455.581446
59521.472936,370.102971,-9622.677246,1072.533697
59521.473245,1998.556043,-7624.121203,1378.971896
59521.473555,-1406.391290,-9474.636058,1149.143247
59521.473865,-1258.350101,-9474.636058,-76.609550
59521.474174,-2442.679609,-8660.409521,-1838.629195
59521.474484,0.000000,-9548.656652,1838.629195
59521.474794,1702.473667,-7698.141797,-76.609550
59521.475104,0.000000,-7772.162391,2451.505594
59521.475413,-74.020594,-7698.141797,-689.485948
59521.475723,0.000000,-9918.759623,1225.752797
59521.476033,518.144159,-7476.080014,689.485948
59521.476342,-592.164754,-10066.800811,1378.971896
59521.476652,-1110.308913,-8068.244768,0.000000
59521.476962,-74.020594,-11843.295072,1149.143247
59521.477272,1258.350101,-9474.636058,842.705048
59521.477581,296.082377,-8660.409521,1225.752797
59521.477891,4071.132681,-9474.636058,2987.772442
59521.478201,-2368.659014,-7772.162391,0.000000
59521.478510,3478.967927,-8882.471304,1149.143247
59521.478820,1332.370696,-9548.656652,2298.286494
59521.479130,-666.185348,-7920.203579,612.876398
59521.479440,-3552.988522,-9326.594869,-1072.533697
59521.479749,-2146.597232,-10288.862594,-1149.143247
59521.480059,1998.556043,-9696.697840,1608.800546
59521.480369,1110.308913,-10658.965565,1149.143247
59521.480679,-2368.659014,-7179.997637,0.000000
59521.480988,-74.020594,-14211.954086,2374.896044
59521.481298,1480.411884,-5699.585753,0.000000
59521.481608,2294.638420,-11547.212695,4519.963438
59521.481917,-1184.329507,-6143.709319,306.438199
59521.482227,-3182.885551,-11103.089130,-76.609550
59521.482537,1184.329507,-8586.388927,229.828649
59521.482847,1406.391290,-11029.068536,2221.676944
59521.483156,0.000000,-8068.244768,1838.629195
59521.483466,-2738.761985,-8882.471304,-153.219100
59521.483776,-370.102971,-6883.915261,-2221.676944
59521.484085,0.000000,-8364.327145,612.876398
59521.484395,-74.020594,-11251.130318,2374.896044
59521.484705,-1850.514855,-9474.636058,-76.609550
59521.485015,-2368.659014,-10436.903782,0.000000
59521.485324,2368.659014,-8438.347739,1532.190996
59521.485634,1184.329507,-10436.903782,3753.867940
59521.485944,370.102971,-6217.729913,1225.752797
59521.486253,-2368.659014,-9548.656652,612.876398
59521.486563,1776.494261,-6735.874072,612.876398
59521.486873,1406.391290,-9474.636058,1149.143247
59521.487183,-2368.659014,-5995.668130,0.000000
59521.487492,-1258.350101,-11695.253884,-76.609550
59521.487802,-888.247130,-10807.006753,842.705048
59521.488112,74.020594,-10214.842000,536.266849
59521.488422,-1110.308913,-9548.656652,2068.457845
59521.488731,-2294.638420,-7698.141797,-536.266849
59521.489041,-1480.411884,-9474.636058,459.657299
59521.489351,740.205942,-6291.750507,0.000000
59521.489660,518.144159,-9178.553681,2681.334243
59521.489970,-74.020594,-7105.977043,-76.609550
59521.490280,-4737.318029,-10732.986159,0.000000
59521.490590,3478.967927,-9474.636058,2068.457845
59521.490899,1480.411884,-10732.986159,4290.134789
59521.491209,1406.391290,-6661.853478,1762.019645
59521.491519,-1258.350101,-9104.533087,-76.609550
59521.491828,1036.288319,-8956.491898,459.657299
59521.492138,1332.370696,-10510.924376,1455.581446
59521.492448,-2368.659014,-8364.327145,0.000000
59521.492758,-4145.153275,-8956.491898,-1225.752797
59521.493067,-2442.679609,-14211.954086,-76.609550
59521.493377,0.000000,-7179.997637,0.000000
59521.493687,592.164754,-10436.903782,4903.011187
59521.493996,-2072.576638,-4959.379811,1225.752797
59521.494306,-1554.432478,-9474.636058,1149.143247
59521.494616,2960.823768,-6143.709319,1378.971896
59521.494926,2368.659014,-9030.512492,2681.334243
59521.495235,-666.185348,-7476.080014,612.876398
59521.495545,-5403.503377,-9696.697840,-2528.115143
59521.495855,-2960.823768,-10436.903782,-1838.629195
59521.496164,2294.638420,-14211.954086,3140.991542
59521.496474,-666.185348,-9178.553681,-76.609550
59521.496784,-3552.988522,-7179.997637,0.000000
59521.497094,0.000000,-9548.656652,153.219100
59521.497403,3923.091493,-8586.388927,1915.238745
59521.497713,962.267725,-9474.636058,3370.820191
59521.498023,-1406.391290,-6365.771101,229.828649
59521.498333,-2590.720797,-10214.842000,0.000000
59521.498642,2294.638420,-7105.977043,-76.609550
59521.498952,0.000000,-8956.491898,1838.629195
59521.499262,-74.020594,-9474.636058,3600.648841
59521.499571,-3330.926739,-7846.182985,-2221.676944
59521.499881,592.164754,-7772.162391,306.438199
59521.500191,592.164754,-8956.491898,919.314598
59521.500501,-74.020594,-8290.306550,2298.286494
59521.500810,-3404.947333,-9696.697840,-766.095498
59521.501120,-1110.308913,-11177.109724,-383.047749
59521.501430,1184.329507,-9326.594869,995.924147
59521.501739,2294.638420,-9474.636058,4213.525239
59521.502049,222.061783,-4811.338623,153.219100
59521.502359,-1776.494261,-9548.656652,2451.505594
59521.502669,2294.638420,-8290.306550,-76.609550
59521.502978,-4441.235652,-9548.656652,306.438199
59521.503288,-666.185348,-7402.059420,0.000000
59521.503598,-592.164754,-9326.594869,612.876398
59521.503907,1776.494261,-10807.006753,1608.800546
59521.504217,1184.329507,-9030.512492,1608.800546
59521.504527,-1998.556043,-10066.800811,2374.896044
59521.504837,-74.020594,-9178.553681,1762.019645
59521.505146,-1258.350101,-9474.636058,459.657299
59521.505456,1184.329507,-5995.668130,2451.505594
59521.505766,1702.473667,-9474.636058,2374.896044
59521.506076,0.000000,-6291.750507,612.876398
59521.506385,-370.102971,-11843.295072,-2068.457845
59521.506695,-1110.308913,-8364.327145,-612.876398
59521.507005,-2368.659014,-11177.109724,0.000000
59521.507314,-2294.638420,-9474.636058,-306.438199
59521.507624,-2294.638420,-10362.883188,-76.609550
59521.507934,3478.967927,-11547.212695,3907.087040
59521.508244,3478.967927,-9474.636058,2987.772442
59521.508553,0.000000,-5403.503377,612.876398
59521.508863,1998.556043,-9474.636058,2374.896044
59521.509173,-962.267725,-8808.450710,0.000000
59521.509482,1998.556043,-9178.553681,-383.047749
59521.509792,-1776.494261,-10584.944971,1532.190996
59521.510102,-2294.638420,-7772.162391,-612.876398
59521.510412,-2072.576638,-10807.006753,153.219100
59521.510721,1184.329507,-7179.997637,1378.971896
59521.511031,0.000000,-10732.986159,3370.820191
59521.511341,-74.020594,-8290.306550,2987.772442
59521.511650,-3034.844362,-9770.718434,-1149.143247
59521.511960,0.000000,-8660.409521,1225.752797
59521.512270,-74.020594,-11843.295072,2681.334243
59521.512580,1110.308913,-8216.285956,-76.609550
59521.512889,-2072.576638,-8364.327145,-842.705048
59521.513199,-666.185348,-8512.368333,306.438199
59521.513509,74.020594,-7698.141797,153.219100
59521.513818,-592.164754,-9030.512492,2451.505594
59521.514128,0.000000,-7179.997637,1225.752797
59521.514438,-74.020594,-11547.212695,3294.210641
59521.514748,2294.638420,-9474.636058,-76.609550
59521.515057,-4145.153275,-10732.986159,0.000000
59521.515367,-962.267725,-8882.471304,-76.609550
59521.515677,-2442.679609,-12139.377449,-76.609550
59521.515987,962.267725,-7846.182985,383.047749
59521.516296,2442.679609,-8586.388927,2681.334243
59521.516606,2886.803174,-6217.729913,2834.553343
59521.516916,962.267725,-7994.224174,612.876398
59521.517225,592.164754,-7772.162391,2451.505594
59521.517535,2220.617826,-9992.780217,3140.991542
59521.517845,-2442.679609,-9474.636058,-689.485948
59521.518155,-4145.153275,-8956.491898,-1225.752797
59521.518464,-1258.350101,-11547.212695,-689.485948
59521.518774,1480.411884,-9474.636058,2068.457845
59521.519084,-74.020594,-10510.924376,2374.896044
59521.519393,0.000000,-6809.894666,383.047749
59521.519703,-592.164754,-10436.903782,995.924147
59521.520013,2738.761985,-7402.059420,1225.752797
59521.520323,0.000000,-7772.162391,1225.752797
59521.520632,-1776.494261,-8364.327145,612.876398
59521.520942,-74.020594,-13027.624579,-76.609550
59521.521252,0.000000,-7179.997637,0.000000
59521.521561,2072.576638,-9178.553681,2374.896044
59521.521871,296.082377,-10066.800811,3140.991542
59521.522181,814.226536,-8512.368333,689.485948
59521.522491,0.000000,-11917.315666,1532.190996
59521.522800,1406.391290,-9326.594869,1072.533697
59521.523110,-2590.720797,-10732.986159,0.000000
59521.523420,-4441.235652,-5477.523971,-3677.258390
59521.523730,-4663.297435,-10436.903782,0.000000
59521.524039,3478.967927,-9474.636058,-76.609550
59521.524349,0.000000,-6587.832884,306.438199
59521.524659,1554.432478,-7402.059420,3294.210641
59521.524968,1184.329507,-9548.656652,2604.724693
59521.525278,2442.679609,-9400.615463,2604.724693
59521.525588,1036.288319,-9844.739029,1915.238745
59521.525898,-2368.659014,-10140.821405,1149.143247
59521.526207,-4219.173869,-7698.141797,-2528.115143
59521.526517,-3034.844362,-9474.636058,-3140.991542
59521.526827,0.000000,-7179.997637,0.000000
59521.527136,3182.885551,-11251.130318,4826.401637
59521.527446,1406.391290,-5403.503377,842.705048
59521.527756,888.247130,-9548.656652,3983.696590
59521.528066,2960.823768,-7179.997637,2451.505594
59521.528375,-222.061783,-10658.965565,2451.505594
59521.528685,-2146.597232,-8586.388927,-383.047749
59521.528995,-4737.318029,-10362.883188,-1991.848295
59521.529304,-1850.514855,-9474.636058,-76.609550
59521.529614,1702.473667,-9474.636058,-76.609550
59521.529924,0.000000,-6587.832884,0.000000
59521.530234,1776.494261,-8364.327145,3064.381992
59521.530543,2886.803174,-10658.965565,2374.896044
59521.530853,1184.329507,-6587.832884,2451.505594
59521.531163,0.000000,-9548.656652,1532.190996
59521.531472,-888.247130,-6883.915261,0.000000
59521.531782,-3256.906145,-11251.130318,-995.924147
59521.532092,74.020594,-7994.224174,-842.705048
59521.532402,-592.164754,-11547.212695,-76.609550
59521.532711,-666.185348,-9474.636058,-76.609550
59521.533021,-3182.885551,-9548.656652,-3677.258390
59521.533331,1184.329507,-9548.656652,2451.505594
59521.533641,2294.638420,-10658.965565,2374.896044
59521.533950,-2368.659014,-7179.997637,612.876398
59521.534260,-4515.256246,-6587.832884,-2757.943793
59521.534570,-1776.494261,-10140.821405,153.219100
59521.534879,814.226536,-7698.141797,766.095498
59521.535189,666.185348,-8956.491898,3064.381992
59521.535499,2294.638420,-7105.977043,3600.648841
59521.535809,4071.132681,-11843.295072,4826.401637
59521.536118,4367.215058,-7105.977043,-76.609550
59521.536428,0.000000,-10732.986159,2451.505594
59521.536738,-2442.679609,-10658.965565,-1302.362347
59521.537047,-7624.121203,-11103.089130,-4903.011187
59521.537357,-4219.173869,-9104.533087,-3140.991542
59521.537667,-2072.576638,-10214.842000,0.000000
59521.537977,592.164754,-7846.182985,2068.457845
59521.538286,1924.535449,-6883.915261,2145.067394
59521.538596,4663.297435,-9400.615463,5515.887586
59521.538906,5625.565159,-8290.306550,6052.154434
59521.539215,2294.638420,-13027.624579,6052.154434
59521.539525,-4737.318029,-4811.338623,-2451.505594
59521.539835,-3627.009116,-12879.583391,-76.609550
59521.540145,-1998.556043,-7772.162391,-3600.648841
59521.540454,-1258.350101,-10362.883188,-76.609550
59521.540764,0.000000,-7624.121203,459.657299
59521.541074,0.000000,-9844.739029,459.657299
59521.541384,2812.782580,-9104.533087,1762.019645
59521.541693,2368.659014,-10140.821405,3677.258390
59521.542003,-1184.329507,-10140.821405,3983.696590
59521.542313,-2442.679609,-11695.253884,-76.609550
59521.542622,-1554.432478,-9474.636058,-1302.362347
59521.542932,3108.864956,-8364.327145,2298.286494
59521.543242,1850.514855,-7179.997637,1762.019645
59521.543552,2294.638420,-6809.894666,2374.896044
59521.543861,0.000000,-9474.636058,995.924147
59521.544171,2960.823768,-8142.265362,2145.067394
59521.544481,1110.308913,-11547.212695,2451.505594
59521.544790,-2368.659014,-7179.997637,0.000000
59521.545100,-7105.977043,-10140.821405,-1838.629195
59521.545410,-962.267725,-12139.377449,-76.609550
59521.545720,-1850.514855,-9918.759623,-1608.800546
59521.546029,0.000000,-9548.656652,2451.505594
59521.546339,2294.638420,-8290.306550,1762.019645
59521.546649,5847.626942,-9474.636058,4826.401637
59521.546958,5107.421000,-6883.915261,3600.648841
59521.547268,2886.803174,-10436.903782,3600.648841
59521.547578,-2960.823768,-6587.832884,-842.705048
59521.547888,-6513.812290,-10140.821405,-3677.258390
59521.548197,-3552.988522,-7179.997637,-2451.505594
59521.548507,-1258.350101,-14211.954086,2374.896044
59521.548817,-2960.823768,-5995.668130,-1838.629195
59521.549127,-296.082377,-11547.212695,1072.533697
59521.549436,2590.720797,-9474.636058,1762.019645
59521.549746,3108.864956,-11029.068536,4519.963438
59521.550056,296.082377,-7994.224174,2374.896044
59521.550365,-3478.967927,-7328.038826,-995.924147
59521.550675,-3404.947333,-10288.862594,-1225.752797
59521.550985,-1776.494261,-7179.997637,-2451.505594
59521.551295,-3552.988522,-9548.656652,306.438199
59521.551604,0.000000,-4811.338623,0.000000
59521.551914,3182.885551,-12731.542202,4060.306139
59521.552224,5847.626942,-5921.647536,2374.896044
59521.552533,1480.411884,-11843.295072,5132.839837
59521.552843,-1628.453072,-8364.327145,1532.190996
59521.553153,-5403.503377,-11843.295072,-2221.676944
59521.553463,-2590.720797,-9622.677246,-2145.067394
59521.553772,-1776.494261,-10732.986159,-383.047749
59521.554082,-1702.473667,-5625.565159,0.000000
59521.554392,-3182.885551,-5403.503377,-1225.752797
59521.554702,0.000000,-5995.668130,0.000000
59521.555011,6217.729913,-7772.162391,4903.011187
59521.555321,1554.432478,-9474.636058,3600.648841
59521.555631,-1258.350101,-7772.162391,1532.190996
59521.555940,-4145.153275,-11325.150913,0.000000
59521.556250,1110.308913,-8956.491898,-459.657299
59521.556560,-1406.391290,-11547.212695,536.266849
59521.556870,-296.082377,-7328.038826,153.219100
59521.557179,-74.020594,-10658.965565,-383.047749
59521.557489,3182.885551,-6957.935855,1149.143247
59521.557799,1110.308913,-8364.327145,229.828649
59521.558108,0.000000,-7476.080014,2451.505594
59521.558418,-1850.514855,-9474.636058,-76.609550
59521.558728,-1628.453072,-10140.821405,0.000000
59521.559038,-2072.576638,-7772.162391,0.000000
59521.559347,-1702.473667,-10658.965565,2068.457845
59521.559657,592.164754,-6513.812290,766.095498
59521.559967,2072.576638,-10214.842000,2757.943793
59521.560277,7624.121203,-7105.977043,3600.648841
59521.560586,3478.967927,-11251.130318,6052.154434
59521.560896,-74.020594,-5921.647536,-76.609550
59521.561206,-6513.812290,-9844.739029,-2451.505594
59521.561515,-2442.679609,-10362.883188,-2528.115143
59521.561825,-5921.647536,-10732.986159,-2451.505594
59521.562135,-6365.771101,-8364.327145,-2298.286494
59521.562445,-2960.823768,-9844.739029,-1072.533697
59521.562754,2442.679609,-9030.512492,2221.676944
59521.563064,5625.565159,-6883.915261,4136.915689
59521.563374,4663.297435,-10658.965565,6665.030833
59521.563683,-74.020594,-6513.812290,3600.648841
59521.563993,-4811.338623,-9326.594869,-2374.896044
59521.564303,-2368.659014,-8956.491898,0.000000
59521.564613,-2442.679609,-12435.459826,-76.609550
59521.564922,-4737.318029,-5403.503377,0.000000
59521.565232,-2516.700203,-9548.656652,76.609550
59521.565542,3923.091493,-6957.935855,2451.505594
59521.565851,2516.700203,-9474.636058,3447.429741
59521.566161,-1036.288319,-7550.100608,1838.629195
59521.566471,-3256.906145,-11251.130318,-76.609550
59521.566781,-1258.350101,-11843.295072,-153.219100
59521.567090,-74.020594,-11843.295072,-76.609550
59521.567400,-2886.803174,-8364.327145,0.000000
59521.567710,148.041188,-7179.997637,1225.752797
59521.568020,1702.473667,-9252.574275,1225.752797
59521.568329,5847.626942,-5921.647536,2681.334243
59521.568639,2442.679609,-9918.759623,4060.306139
59521.568949,148.041188,-7328.038826,1685.410096
59521.569258,-3552.988522,-11843.295072,-1378.971896
59521.569568,-962.267725,-11029.068536,306.438199
59521.569878,-888.247130,-12731.542202,0.000000
59521.570188,-74.020594,-10658.965565,2374.896044
59521.570497,-1998.556043,-7476.080014,0.000000
59521.570807,4367.215058,-9252.574275,4826.401637
59521.571117,2590.720797,-5995.668130,1455.581446
59521.571426,814.226536,-8882.471304,3600.648841
59521.571736,-2812.782580,-6439.791695,-383.047749
59521.572046,-2442.679609,-9252.574275,-919.314598
59521.572356,74.020594,-7624.121203,-1532.190996
59521.572665,-3552.988522,-10140.821405,0.000000
59521.572975,-2368.659014,-8364.327145,-2451.505594
59521.573285,-1480.411884,-12805.562797,1225.752797
59521.573595,4663.297435,-9474.636058,2068.457845
59521.573904,2368.659014,-9548.656652,2451.505594
59521.574214,2294.638420,-6513.812290,2068.457845
59521.574524,-74.020594,-9474.636058,1149.143247
59521.574833,-1110.308913,-8660.409521,-1072.533697
59521.575143,-2072.576638,-10214.842000,-689.485948
59521.575453,-2738.761985,-10436.903782,842.705048
59521.575763,-2960.823768,-5995.668130,0.000000
59521.576072,0.000000,-9548.656652,0.000000
59521.576382,6217.729913,-7772.162391,4749.792088
59521.576692,2294.638420,-9474.636058,3600.648841
59521.577001,0.000000,-5107.421000,0.000000
59521.577311,-2442.679609,-13027.624579,-383.047749
59521.577621,-666.185348,-10955.047942,-1302.362347
59521.577931,-3997.112087,-13471.748144,-995.924147
59521.578240,-2590.720797,-8438.347739,-766.095498
59521.578550,-2368.659014,-10436.903782,153.219100
59521.578860,0.000000,-5995.668130,612.876398
59521.579170,2368.659014,-4811.338623,1532.190996
59521.579479,1184.329507,-7179.997637,4903.011187
59521.579789,-74.020594,-7105.977043,1762.019645
59521.580099,-4071.132681,-9548.656652,0.000000
59521.580408,-74.020594,-9474.636058,-76.609550
59521.580718,-3478.967927,-12805.562797,1685.410096
59521.581028,-2442.679609,-7179.997637,-919.314598
59521.581338,-1850.514855,-11177.109724,0.000000
59521.581647,4145.153275,-6809.894666,1915.238745
59521.581957,666.185348,-7772.162391,1762.019645
59521.582267,0.000000,-5921.647536,1149.143247
59521.582576,-4441.235652,-9548.656652,0.000000
59521.582886,0.000000,-10436.903782,842.705048
59521.583196,-962.267725,-8512.368333,-3140.991542
59521.583506,-2442.679609,-11843.295072,1762.019645
59521.583815,-2960.823768,-8808.450710,153.219100
59521.584125,1332.370696,-10362.883188,2757.943793
59521.584435,4589.276840,-6365.771101,3294.210641
59521.584745,1036.288319,-9918.759623,4213.525239
59521.585054,-370.102971,-4441.235652,-76.609550
59521.585364,-3330.926739,-10066.800811,-76.609550
59521.585674,-2368.659014,-5403.503377,-3370.820191
59521.585983,-2960.823768,-13397.727550,612.876398
59521.586293,-3034.844362,-7179.997637,-4290.134789
59521.586603,-1998.556043,-13545.768739,1685.410096
59521.586913,1776.494261,-8956.491898,1532.190996
59521.587222,3923.091493,-9178.553681,3600.648841
59521.587532,1702.473667,-7698.141797,3677.258390
59521.587842,0.000000,-5995.668130,-306.438199
59521.588151,-74.020594,-11251.130318,-76.609550
59521.588461,-74.020594,-9474.636058,-76.609550
59521.588771,-5921.647536,-10140.821405,0.000000
59521.589081,-1776.494261,-9252.574275,0.000000
59521.589390,-666.185348,-14211.954086,-76.609550
59521.589700,2368.659014,-7476.080014,2604.724693
59521.590010,0.000000,-8956.491898,2451.505594
59521.590320,296.082377,-5847.626942,1762.019645
59521.590629,-1554.432478,-9030.512492,-153.219100
59521.590939,888.247130,-8586.388927,536.266849
59521.591249,-74.020594,-11251.130318,1762.019645
59521.591558,-666.185348,-13027.624579,-76.609550
59521.591868,-3034.844362,-8290.306550,-2221.676944
59521.592178,370.102971,-11325.150913,2451.505594
59521.592488,4663.297435,-5329.482782,536.266849
59521.592797,1184.329507,-7179.997637,3677.258390
59521.593107,1036.288319,-3923.091493,612.876398
59521.593417,-1480.411884,-10584.944971,0.000000
59521.593726,-1850.514855,-9178.553681,-1685.410096
59521.594036,-4959.379811,-11769.274478,-1532.190996
59521.594346,-1850.514855,-11547.212695,-306.438199
59521.594656,-74.020594,-14211.954086,2374.896044
59521.594965,2294.638420,-6513.812290,842.705048
59521.595275,2960.823768,-8364.327145,4903.011187
59521.595585,3478.967927,-7105.977043,4213.525239
59521.595894,-3552.988522,-4811.338623,0.000000
59521.596204,-370.102971,-9474.636058,383.047749
59521.596514,-592.164754,-8512.368333,0.000000
59521.596824,-3256.906145,-11103.089130,229.828649
59521.597133,-3478.967927,-9104.533087,-1685.410096
59521.597443,-1184.329507,-12657.521608,153.219100
59521.597753,4145.153275,-8364.327145,2604.724693
59521.598063,3478.967927,-11251.130318,3447.429741
59521.598372,888.247130,-4959.379811,919.314598
59521.598682,0.000000,-10732.986159,2757.943793
59521.598992,1110.308913,-9326.594869,-766.095498
59521.599301,-2664.741391,-10881.027347,0.000000
59521.599611,-2960.823768,-10584.944971,459.657299
59521.599921,-2886.803174,-9326.594869,-1225.752797
59521.600231,-666.185348,-10140.821405,1302.362347
59521.600540,2368.659014,-7772.162391,3983.696590
59521.600850,-2368.659014,-8364.327145,3677.258390
59521.601160,-74.020594,-8290.306550,2374.896044
59521.601469,-4959.379811,-9696.697840,0.000000
59521.601779,-3552.988522,-7179.997637,612.876398
59521.602089,-7179.997637,-9844.739029,-2145.067394
59521.602399,-5995.668130,-8290.306550,-1302.362347
59521.602708,-9548.656652,-10510.924376,-2451.505594
59521.603018,-4515.256246,-10140.821405,0.000000
59521.603328,-1332.370696,-8808.450710,2528.115143
59521.603638,-2960.823768,-7179.997637,4903.011187
59521.603947,-2368.659014,-5995.668130,3677.258390
59521.604257,-2442.679609,-11843.295072,2374.896044
59521.604567,-3108.864956,-5181.441594,-995.924147
59521.604876,-5329.482782,-12805.562797,3064.381992
59521.605186,-9474.636058,-6587.832884,-4290.134789
59521.605496,-10881.027347,-13027.624579,-2528.115143
59521.605806,-8068.244768,-11103.089130,-995.924147
59521.606115,-3701.029710,-9622.677246,1838.629195
59521.606425,-4441.235652,-8216.285956,3294.210641
59521.606735,-5329.482782,-5995.668130,1225.752797
59521.607044,-4145.153275,-9548.656652,4596.572988
59521.607354,-2442.679609,-7105.977043,1762.019645
59521.607664,-4737.318029,-6587.832884,2451.505594
59521.607974,-3034.844362,-8882.471304,2374.896044
59521.608283,-8290.306550,-5995.668130,0.000000
59521.608593,-6587.832884,-10362.883188,-689.485948
59521.608903,-7328.038826,-10362.883188,-1072.533697
59521.609213,-4959.379811,-10881.027347,459.657299
59521.609522,-3404.947333,-8364.327145,76.609550
59521.609832,-2886.803174,-11325.150913,2451.505594
59521.610142,-4737.318029,-8364.327145,1225.752797
59521.610451,-1850.514855,-11251.130318,2987.772442
59521.610761,-1554.432478,-8290.306550,2068.457845
59521.611071,0.000000,-5995.668130,3677.258390
59521.611381,-1924.535449,-6365.771101,612.876398
59521.611690,-1850.514855,-8290.306550,1149.143247
59521.612000,-4367.215058,-9474.636058,306.438199
59521.612310,-3701.029710,-10807.006753,536.266849
59521.612619,-1998.556043,-9474.636058,536.266849
59521.612929,-1184.329507,-7476.080014,1225.752797
59521.613239,-3552.988522,-6587.832884,612.876398
59521.613549,-2368.659014,-9844.739029,1225.752797
59521.613858,-2442.679609,-11251.130318,-689.485948
59521.614168,-7105.977043,-9548.656652,0.000000
59521.614478,-1850.514855,-8364.327145,-1915.238745
59521.614788,1110.308913,-9474.636058,1149.143247
59521.615097,-1332.370696,-9400.615463,1302.362347
59521.615407,-2664.741391,-8660.409521,612.876398
59521.615717,-2812.782580,-10436.903782,1378.971896
59521.616026,-3552.988522,-6587.832884,0.000000
59521.616336,-4145.153275,-5107.421000,0.000000
59521.616646,1480.411884,-8438.347739,3294.210641
59521.616956,-74.020594,-7105.977043,1149.143247
59521.617265,-592.164754,-9548.656652,3677.258390
59521.617575,-1258.350101,-11251.130318,-383.047749
59521.617885,-4811.338623,-11547.212695,-1302.362347
59521.618194,-6587.832884,-9252.574275,-2834.553343
59521.618504,-4441.235652,-9844.739029,-1072.533697
59521.618814,-1628.453072,-9104.533087,383.047749
59521.619124,-4737.318029,-7179.997637,0.000000
59521.619433,-7105.977043,-7476.080014,-1838.629195
59521.619743,-5329.482782,-11621.233289,1225.752797
59521.620053,-3627.009116,-10658.965565,1762.019645
59521.620363,-3256.906145,-8364.327145,4903.011187
59521.620672,-74.020594,-7105.977043,3600.648841
59521.620982,-74.020594,-6439.791695,3524.039291
59521.621292,1332.370696,-6587.832884,3217.601092
59521.621601,-1554.432478,-8142.265362,1532.190996
59521.621911,-6587.832884,-11029.068536,-1225.752797
59521.622221,-8660.409521,-9844.739029,-4366.744339
59521.622531,-7772.162391,-9548.656652,-4826.401637
59521.622840,-9474.636058,-9548.656652,-2451.505594
59521.623150,-5995.668130,-11251.130318,-229.828649
59521.623460,-3923.091493,-6809.894666,-995.924147
59521.623769,1702.473667,-9474.636058,4213.525239
59521.624079,-3256.906145,-11177.109724,3830.477490
59521.624389,-5255.462188,-9622.677246,2911.162892
59521.624699,-2886.803174,-7920.203579,2834.553343
59521.625008,-1702.473667,-6513.812290,3370.820191
59521.625318,-4811.338623,-6513.812290,2374.896044
59521.625628,-6587.832884,-7994.224174,-76.609550
59521.625937,-4737.318029,-5995.668130,0.000000
59521.626247,1110.308913,-7994.224174,3600.648841
59521.626557,-3330.926739,-4811.338623,-1455.581446
59521.626867,-4737.318029,-11547.212695,1762.019645
59521.627176,-7402.059420,-11769.274478,-2145.067394
59521.627486,-5107.421000,-12139.377449,-1991.848295
59521.627796,-4737.318029,-11843.295072,-1302.362347
59521.628106,-5181.441594,-11103.089130,0.000000
59521.628415,-2442.679609,-10658.965565,2068.457845
59521.628725,-74.020594,-10658.965565,2374.896044
59521.629035,1554.432478,-6143.709319,4060.306139
59521.629344,4737.318029,-4219.173869,7354.516781
59521.629654,4663.297435,-4737.318029,4826.401637
59521.629964,-2960.823768,-9326.594869,3064.381992
59521.630274,-7698.141797,-11325.150913,-1838.629195
59521.630583,-6069.688724,-12361.439231,-1455.581446
59521.630893,-5773.606348,-10658.965565,-1378.971896
59521.631203,-6735.874072,-8068.244768,-2834.553343
59521.631512,-5403.503377,-11843.295072,-1302.362347
59521.631822,-3627.009116,-13027.624579,-76.609550
59521.632132,-2442.679609,-10066.800811,842.705048
59521.632442,-2960.823768,-5403.503377,0.000000
59521.632751,3256.906145,-5921.647536,5132.839837
59521.633061,4145.153275,-4219.173869,7354.516781
59521.633371,4145.153275,-4811.338623,3677.258390
59521.633681,444.123565,-9548.656652,2145.067394
59521.633990,-5181.441594,-13397.727550,-1608.800546
59521.634300,-7328.038826,-14137.933492,-3677.258390
59521.634610,-5403.503377,-14211.954086,-2528.115143
59521.634919,-3627.009116,-11843.295072,-689.485948
59521.635229,-5403.503377,-9474.636058,-1915.238745
59521.635539,-6513.812290,-9548.656652,-3677.258390
59521.635849,-2960.823768,-11917.315666,3677.258390
59521.636158,-3552.988522,-9548.656652,4903.011187
59521.636468,-2220.617826,-5477.523971,4673.182538
59521.636778,888.247130,-2072.576638,5362.668486
59521.637087,4071.132681,-1036.288319,6128.763984
59521.637397,4441.235652,-1480.411884,5132.839837
59521.637707,3330.926739,-5477.523971,3064.381992
59521.638017,-740.205942,-9844.739029,0.000000
59521.638326,-7179.997637,-15396.283594,-5592.497135
59521.638636,-15396.283594,-19023.292709,-9806.022374
59521.638946,-14804.118840,-23094.425390,-6205.373534
59521.639256,-16284.530724,-16654.633695,-7354.516781
59521.639565,-11325.150913,-12213.398043,-4213.525239
59521.639875,-4441.235652,-7624.121203,1225.752797
59521.640185,740.205942,-4515.256246,5209.449386
59521.640494,4737.318029,-740.205942,9346.365076
59521.640804,10066.800811,1702.473667,11338.213370
59521.641114,8290.306550,-74.020594,11031.775171
59521.641424,6735.874072,-2960.823768,8197.221829
59521.641733,-666.185348,-4811.338623,0.000000
59521.642043,-7105.977043,-11325.150913,0.000000
59521.642353,-13915.871710,-13693.809927,-7354.516781
59521.642662,-16654.633695,-18949.272115,-8963.317327
59521.642972,-17616.901420,-19097.313304,-9193.145976
59521.643282,-14359.995275,-15396.283594,-7124.688131
59521.643592,-8364.327145,-12213.398043,-1838.629195
59521.643901,-2368.659014,-2738.761985,1838.629195
59521.644211,1776.494261,-1258.350101,6128.763984
59521.644521,8290.306550,370.102971,9499.584175
59521.644831,9400.615463,592.164754,8503.660028
59521.645140,2960.823768,-74.020594,7354.516781
59521.645450,2886.803174,-2960.823768,4903.011187
59521.645760,1554.432478,-8290.306550,2911.162892
59521.646069,-5699.585753,-9918.759623,-2451.505594
59521.646379,-8734.430116,-11547.212695,-6894.859482
59521.646688,-12805.562797,-19023.292709,-7737.564530
59521.646998,-14211.954086,-19023.292709,-8580.269578
59521.647308,-11843.295072,-21984.116477,-4903.011187
59521.647617,-5033.400406,-18949.272115,766.095498
59521.647927,-1258.350101,-9474.636058,2374.896044
59521.648237,1406.391290,-4885.359217,4826.401637
59521.648546,4367.215058,1702.473667,5822.325785
59521.648856,5403.503377,1480.411884,9116.536426
59521.649166,2368.659014,1998.556043,7354.516781
59521.649475,3478.967927,-2220.617826,6511.811733
59521.649785,-666.185348,-7328.038826,3600.648841
59521.650094,-6143.709319,-8142.265362,995.924147
59521.650404,-8438.347739,-11991.336260,-3830.477490
59521.650714,-9474.636058,-16950.716072,-4749.792088
59521.651023,-7772.162391,-17764.942608,-4979.620737
59521.651333,-9474.636058,-17838.963202,-3677.258390
59521.651643,-2442.679609,-16580.613101,-229.828649
59521.651952,1480.411884,-10436.903782,3830.477490
59521.652262,5921.647536,-7179.997637,6971.469032
59521.652572,9178.553681,-2368.659014,9576.193725
59521.652881,9326.594869,-370.102971,10955.165621
59521.653191,7031.956449,-592.164754,10955.165621
59521.653500,5847.626942,-2072.576638,7737.564530
59521.653810,2368.659014,-7476.080014,5515.887586
59521.654120,-74.020594,-11843.295072,2374.896044
59521.654429,-7031.956449,-9844.739029,-2528.115143
59521.654739,-4811.338623,-15396.283594,-1302.362347
59521.655049,-6217.729913,-17024.736666,0.000000
59521.655358,-3108.864956,-17468.860231,1608.800546
59521.655668,-2812.782580,-14804.118840,3217.601092
59521.655978,296.082377,-10140.821405,5286.058936
59521.656287,4071.132681,-8290.306550,9729.412825
59521.656597,6439.791695,-4145.153275,9729.412825
59521.656906,4737.318029,-1258.350101,10112.460574
59521.657216,8216.285956,-2368.659014,12180.918418
59521.657526,2368.659014,-74.020594,7967.393179
59521.657835,4663.297435,-6217.729913,9116.536426
59521.658145,-962.267725,-7624.121203,4979.620737
59521.658455,-2516.700203,-10881.027347,3677.258390
59521.658764,-4737.318029,-16580.613101,2911.162892
59521.659074,-5995.668130,-17098.757260,1455.581446
59521.659384,-9548.656652,-22206.178260,4213.525239
59521.659693,-7772.162391,-16580.613101,4213.525239
59521.660003,-4737.318029,-8512.368333,4903.011187
59521.660312,3552.988522,-3627.009116,13483.280765
59521.660622,9400.615463,2368.659014,13406.671215
59521.660932,8290.306550,0.000000,16164.615008
59521.661241,5033.400406,-74.020594,12870.404366
59521.661551,3256.906145,-4589.276840,11184.994271
59521.661861,-888.247130,-7254.018232,8503.660028
59521.662170,-4811.338623,-8734.430116,4673.182538
59521.662480,-4515.256246,-11103.089130,4443.353888
59521.662789,-1258.350101,-12731.542202,4826.401637
59521.663099,-3923.091493,-14211.954086,2528.115143
59521.663409,-7105.977043,-11917.315666,0.000000
59521.663718,-5995.668130,-20725.766376,4366.744339
59521.664028,-4737.318029,-16284.530724,4290.134789
59521.664338,-1258.350101,-9770.718434,5132.839837
59521.664647,2442.679609,-4515.256246,8350.440928
59521.664957,4589.276840,0.000000,9499.584175
59521.665267,5551.544565,-222.061783,9193.145976
59521.665576,5625.565159,-74.020594,8580.269578
59521.665886,4737.318029,-4515.256246,7277.907231
59521.666195,1998.556043,-8586.388927,4060.306139
59521.666505,-4737.318029,-10732.986159,0.000000
59521.666815,-5329.482782,-17098.757260,306.438199
59521.667124,-9474.636058,-19319.375086,-2451.505594
59521.667434,-10140.821405,-19689.478057,-3447.429741
59521.667744,-6365.771101,-14878.139434,-2911.162892
59521.668053,-2590.720797,-11843.295072,-306.438199
59521.668363,1406.391290,-5403.503377,1991.848295
59521.668673,3552.988522,-3034.844362,2451.505594
59521.668982,7105.977043,-2738.761985,6128.763984
59521.669292,9030.512492,-2812.782580,6665.030833
59521.669601,4737.318029,-4811.338623,5515.887586
59521.669911,4663.297435,-11251.130318,4826.401637
59521.670221,0.000000,-10140.821405,1225.752797
59521.670530,-666.185348,-11547.212695,-766.095498
59521.670840,-2442.679609,-9400.615463,-2604.724693
59521.671150,-5107.421000,-10658.965565,-2987.772442
59521.671459,-4293.194464,-11843.295072,-4136.915689
59521.671769,-2960.823768,-12065.356855,-3677.258390
59521.672079,0.000000,-13101.645173,0.000000
59521.672388,740.205942,-13397.727550,3600.648841
59521.672698,0.000000,-8068.244768,153.219100
59521.673007,4737.318029,-6291.750507,4290.134789
59521.673317,4219.173869,-2442.679609,3830.477490
59521.673627,5329.482782,-2368.659014,5439.278036
59521.673936,3182.885551,-3034.844362,3677.258390
59521.674246,2442.679609,-5699.585753,2068.457845
59521.674556,888.247130,-6883.915261,1149.143247
59521.674865,-3849.070898,-10288.862594,-1149.143247
59521.675175,-8290.306550,-14878.139434,0.000000
59521.675484,-4737.318029,-16580.613101,-76.609550
59521.675794,-2442.679609,-13027.624579,-2528.115143
59521.676104,-4145.153275,-10140.821405,1225.752797
59521.676413,962.267725,-6069.688724,3370.820191
59521.676723,4293.194464,-5921.647536,5515.887586
59521.677033,3404.947333,-5033.400406,4826.401637
59521.677342,444.123565,-8956.491898,5515.887586
59521.677652,222.061783,-10214.842000,6971.469032
59521.677962,444.123565,-9178.553681,6052.154434
59521.678271,-2294.638420,-6439.791695,3370.820191
59521.678581,-2368.659014,-7476.080014,4903.011187
59521.678890,3478.967927,-9474.636058,6052.154434
59521.679200,0.000000,-6587.832884,3677.258390
59521.679510,-1850.514855,-9326.594869,612.876398
59521.679819,-5033.400406,-11917.315666,1838.629195
59521.680129,-3627.009116,-12953.603985,3524.039291
59521.680439,370.102971,-9696.697840,5132.839837
59521.680748,370.102971,-7624.121203,6665.030833
59521.681058,-1258.350101,-8290.306550,6665.030833
59521.681368,-74.020594,-7105.977043,6052.154434
59521.681677,592.164754,-7476.080014,8580.269578
59521.681987,-74.020594,-7105.977043,6052.154434
59521.682296,-4737.318029,-5995.668130,5515.887586
59521.682606,-74.020594,-7846.182985,5439.278036
59521.682916,-888.247130,-8364.327145,6818.249932
59521.683225,-1480.411884,-8586.388927,6128.763984
59521.683535,-1554.432478,-7105.977043,3830.477490
59521.683845,-1184.329507,-9474.636058,6052.154434
59521.684154,3478.967927,-9474.636058,7277.907231
59521.684464,2294.638420,-7105.977043,4826.401637
59521.684774,-1924.535449,-7179.997637,1225.752797
59521.685083,-74.020594,-13619.789333,7277.907231
59521.685393,-74.020594,-10066.800811,4213.525239
59521.685702,-74.020594,-11843.295072,4826.401637
59521.686012,-2220.617826,-8956.491898,5439.278036
59521.686322,-148.041188,-7476.080014,6435.202183
59521.686631,222.061783,-8882.471304,5592.497135
59521.686941,-1036.288319,-7105.977043,5209.449386
59521.687251,-74.020594,-9992.780217,5745.716235
59521.687560,2294.638420,-7105.977043,4826.401637
59521.687870,0.000000,-4811.338623,2451.505594
59521.688179,3478.967927,-9474.636058,4826.401637
59521.688489,-2960.823768,-7179.997637,919.314598
59521.688799,-74.020594,-10584.944971,3600.648841
59521.689108,-444.123565,-11325.150913,3370.820191
59521.689418,-1036.288319,-10732.986159,3524.039291
59521.689728,-1036.288319,-10807.006753,3140.991542
59521.690037,-444.123565,-10510.924376,4903.011187
59521.690347,1924.535449,-9548.656652,5822.325785
59521.690657,2294.638420,-9474.636058,5745.716235
59521.690966,-444.123565,-5995.668130,1762.019645
59521.691276,1184.329507,-7476.080014,5515.887586
59521.691585,1702.473667,-4737.318029,3294.210641
59521.691895,592.164754,-7105.977043,6052.154434
59521.692205,592.164754,-5181.441594,2145.067394
59521.692514,-1554.432478,-9918.759623,1915.238745
59521.692824,-2442.679609,-12287.418637,1455.581446
59521.693134,-2516.700203,-11473.192101,0.000000
59521.693443,-2368.659014,-10732.986159,1225.752797
59521.693753,-74.020594,-9178.553681,2834.553343
59521.694063,-74.020594,-9474.636058,4826.401637
59521.694372,222.061783,-7402.059420,1762.019645
59521.694682,0.000000,-11029.068536,3983.696590
59521.694991,296.082377,-11843.295072,5286.058936
59521.695301,-666.185348,-12139.377449,3830.477490
59521.695611,-740.205942,-8660.409521,3524.039291
59521.695920,148.041188,-5995.668130,2451.505594
59521.696230,1406.391290,-3034.844362,1225.752797
59521.696540,0.000000,-2442.679609,0.000000
59521.696849,-592.164754,-9252.574275,2451.505594
59521.697159,2886.803174,-11843.295072,3600.648841
59521.697469,-2738.761985,-12583.501014,536.266849
59521.697778,-1184.329507,-11917.315666,2451.505594
59521.698088,-3256.906145,-15470.304188,3677.258390
59521.698397,-666.185348,-9992.780217,1762.019645
59521.698707,-1406.391290,-8512.368333,842.705048
59521.699017,0.000000,-4515.256246,1378.971896
59521.699326,444.123565,-3034.844362,229.828649
59521.699636,0.000000,-4811.338623,0.000000
59521.699946,0.000000,-7179.997637,0.000000
59521.700255,-74.020594,-15396.283594,3600.648841
59521.700565,-3552.988522,-10732.986159,0.000000
59521.700874,-2442.679609,-14211.954086,2374.896044
59521.701184,-3256.906145,-5403.503377,-1225.752797
59521.701494,-814.226536,-7031.956449,-76.609550
59521.701803,2220.617826,-4145.153275,153.219100
59521.702113,1332.370696,-7476.080014,612.876398
59521.702423,1554.432478,-9770.718434,-76.609550
59521.702732,222.061783,-11991.336260,-1915.238745
59521.703042,0.000000,-11325.150913,383.047749
59521.703352,0.000000,-13101.645173,3064.381992
59521.703661,-1702.473667,-8068.244768,-612.876398
59521.703971,-74.020594,-7698.141797,-76.609550
59521.704280,-296.082377,-5403.503377,-1838.629195
59521.704590,444.123565,-5551.544565,-1302.362347
59521.704900,-962.267725,-9474.636058,-995.924147
59521.705209,0.000000,-8586.388927,-2451.505594
59521.705519,-1036.288319,-14211.954086,-689.485948
59521.705829,-1258.350101,-11843.295072,-2528.115143
59521.706138,-4441.235652,-13693.809927,-1838.629195
59521.706448,814.226536,-10732.986159,995.924147
59521.706758,-74.020594,-7105.977043,-2834.553343
59521.707067,0.000000,-4811.338623,0.000000
59521.707377,0.000000,-5107.421000,0.000000
59521.707686,888.247130,-8660.409521,0.000000
59521.707996,518.144159,-10140.821405,-1302.362347
59521.708306,-518.144159,-12731.542202,153.219100
59521.708615,-74.020594,-11251.130318,-76.609550
59521.708925,-74.020594,-11251.130318,-76.609550
59521.709235,0.000000,-3478.967927,-2451.505594
59521.709544,592.164754,-9548.656652,1838.629195
59521.709854,3478.967927,-7105.977043,-689.485948
59521.710164,-1184.329507,-10732.986159,0.000000
59521.710473,74.020594,-8956.491898,0.000000
59521.710783,0.000000,-12287.418637,1302.362347
59521.711092,2146.597232,-8216.285956,2834.553343
59521.711402,592.164754,-7698.141797,1915.238745
59521.711712,1110.308913,-7624.121203,2374.896044
59521.712021,2146.597232,-9474.636058,-76.609550
59521.712331,-962.267725,-7698.141797,-689.485948
59521.712641,-2368.659014,-7179.997637,0.000000
59521.712950,-666.185348,-11843.295072,-76.609550
59521.713260,-2368.659014,-6735.874072,-2451.505594
59521.713570,-1850.514855,-11695.253884,536.266849
59521.713879,0.000000,-8956.491898,1532.190996
59521.714189,-1998.556043,-12213.398043,1838.629195
59521.714498,-1332.370696,-7920.203579,842.705048
59521.714808,-1332.370696,-9844.739029,1225.752797
59521.715118,1702.473667,-8882.471304,3600.648841
59521.715427,-74.020594,-8290.306550,1762.019645
59521.715737,-4145.153275,-5995.668130,0.000000
59521.716047,2886.803174,-11843.295072,2987.772442
59521.716356,0.000000,-9844.739029,842.705048
59521.716666,-74.020594,-9474.636058,2987.772442
59521.716975,-3478.967927,-10288.862594,2604.724693
59521.717285,-1702.473667,-6439.791695,689.485948
59521.717595,-1924.535449,-8586.388927,1455.581446
59521.717904,0.000000,-5107.421000,2451.505594
59521.718214,-1110.308913,-11325.150913,3983.696590
59521.718524,-74.020594,-9178.553681,2987.772442
59521.718833,-2146.597232,-9622.677246,1225.752797
59521.719143,1184.329507,-9844.739029,4443.353888
59521.719453,-74.020594,-9474.636058,3600.648841
59521.719762,-74.020594,-7698.141797,3600.648841
59521.720072,-1776.494261,-4589.276840,995.924147
59521.720381,-666.185348,-5625.565159,1991.848295
59521.720691,518.144159,-5329.482782,1762.019645
59521.721001,-1184.329507,-9548.656652,2451.505594
59521.721310,1776.494261,-8364.327145,2757.943793
59521.721620,1850.514855,-14211.954086,4903.011187
59521.721930,3478.967927,-9474.636058,3600.648841
59521.722239,0.000000,-11325.150913,4903.011187
59521.722549,2886.803174,-8290.306550,3600.648841
59521.722859,-74.020594,-10066.800811,2374.896044
59521.723168,814.226536,-6069.688724,1225.752797
59521.723478,296.082377,-8808.450710,2451.505594
59521.723787,1332.370696,-7624.121203,2374.896044
59521.724097,0.000000,-7772.162391,0.000000
59521.724407,0.000000,-9548.656652,2451.505594
59521.724716,2886.803174,-11103.089130,4826.401637
59521.725026,-3330.926739,-9548.656652,0.000000
59521.725336,-1776.494261,-10140.821405,153.219100
59521.725645,-3034.844362,-11843.295072,-1302.362347
59521.725955,-1036.288319,-9474.636058,153.219100
59521.726265,-2146.597232,-10881.027347,536.266849
59521.726574,-518.144159,-7476.080014,0.000000
59521.726884,-962.267725,-10288.862594,459.657299
59521.727193,0.000000,-7179.997637,0.000000
59521.727503,0.000000,-9548.656652,0.000000
59521.727813,-1776.494261,-9548.656652,3217.601092
59521.728122,-4367.215058,-6365.771101,-3294.210641
59521.728432,-962.267725,-8882.471304,-76.609550
59521.728742,-1554.432478,-7698.141797,-689.485948
59521.729051,-1776.494261,-9548.656652,612.876398
59521.729361,222.061783,-8586.388927,-1302.362347
59521.729670,518.144159,-13989.892304,1149.143247
59521.729980,2220.617826,-10732.986159,1455.581446
59521.730290,-666.185348,-11103.089130,536.266849
59521.730599,-3404.947333,-3034.844362,-2451.505594
59521.730909,-2368.659014,-5995.668130,0.000000
59521.731219,3478.967927,-7105.977043,-76.609550
59521.731528,-1776.494261,-8512.368333,0.000000
59521.731838,2294.638420,-11251.130318,2374.896044
59521.732148,0.000000,-10436.903782,0.000000
59521.732457,2590.720797,-9770.718434,842.705048
59521.732767,2516.700203,-7698.141797,536.266849
59521.733076,-444.123565,-9844.739029,766.095498
59521.733386,-74.020594,-6513.812290,-2834.553343
59521.733696,-3182.885551,-8438.347739,-4213.525239
59521.734005,0.000000,-7179.997637,-3677.258390
59521.734315,-74.020594,-13027.624579,-76.609550
59521.734625,1702.473667,-7105.977043,-2221.676944
59521.734934,740.205942,-12509.480420,612.876398
59521.735244,1184.329507,-10140.821405,306.438199
59521.735554,1036.288319,-15026.180623,2374.896044
59521.735863,222.061783,-10288.862594,1072.533697
59521.736173,-1776.494261,-7994.224174,-1378.971896
59521.736482,-74.020594,-6513.812290,-1302.362347
59521.736792,-666.185348,-5329.482782,-1455.581446
59521.737102,-1776.494261,-7772.162391,0.000000
59521.737411,1184.329507,-11621.233289,1991.848295
59521.737721,1702.473667,-15396.283594,2374.896044
59521.738031,0.000000,-9548.656652,3064.381992
59521.738340,-1184.329507,-10140.821405,2528.115143
59521.738650,-518.144159,-4959.379811,1302.362347
59521.738960,-2812.782580,-5995.668130,-383.047749
59521.739269,-1554.432478,-6291.750507,0.000000
59521.739579,-74.020594,-11843.295072,2987.772442
59521.739888,-74.020594,-9474.636058,-76.609550
59521.740198,-2738.761985,-8142.265362,-1608.800546
59521.740508,0.000000,-7772.162391,2451.505594
59521.740817,3478.967927,-10658.965565,4826.401637
59521.741127,0.000000,-5995.668130,2451.505594
59521.741437,-2220.617826,-5995.668130,0.000000
59521.741746,-3182.885551,-9400.615463,919.314598
59521.742056,-962.267725,-9400.615463,689.485948
59521.742365,-1924.535449,-11547.212695,2068.457845
59521.742675,-74.020594,-8882.471304,3600.648841
59521.742985,2886.803174,-9474.636058,2374.896044
59521.743294,4663.297435,-7105.977043,4213.525239
59521.743604,0.000000,-8364.327145,4903.011187
59521.743914,2294.638420,-9474.636058,4826.401637
59521.744223,-4367.215058,-8068.244768,-1838.629195
59521.744533,-2516.700203,-8660.409521,-306.438199
59521.744843,-1998.556043,-10362.883188,229.828649
59521.745152,-1702.473667,-10436.903782,1302.362347
59521.745462,-518.144159,-8290.306550,-76.609550
59521.745771,2072.576638,-11621.233289,4290.134789
59521.746081,4663.297435,-11547.212695,4826.401637
59521.746391,1110.308913,-11843.295072,4213.525239
59521.746700,-4145.153275,-4811.338623,0.000000
59521.747010,-1258.350101,-11547.212695,1762.019645
59521.747320,-2368.659014,-4811.338623,-2451.505594
59521.747629,-1554.432478,-9474.636058,536.266849
59521.747939,-2072.576638,-6439.791695,306.438199
59521.748248,-444.123565,-9400.615463,919.314598
59521.748558,2664.741391,-8586.388927,2987.772442
59521.748868,2368.659014,-8364.327145,4903.011187
59521.749177,1480.411884,-10658.965565,5975.544884
59521.749487,-74.020594,-9474.636058,2374.896044
59521.749797,-1850.514855,-8290.306550,-995.924147
59521.750106,0.000000,-8956.491898,919.314598
59521.750416,-3034.844362,-9178.553681,-1302.362347
59521.750726,-74.020594,-8882.471304,-383.047749
59521.751035,666.185348,-10732.986159,1225.752797
59521.751345,4293.194464,-7772.162391,2911.162892
59521.751654,1406.391290,-11029.068536,3140.991542
59521.751964,0.000000,-5995.668130,1838.629195
59521.752274,-1184.329507,-8956.491898,612.876398
59521.752583,-74.020594,-9474.636058,-76.609550
59521.752893,-4737.318029,-7179.997637,-3064.381992
59521.753203,-666.185348,-10658.965565,-76.609550
59521.753512,-962.267725,-8882.471304,-2528.115143
59521.753822,2146.597232,-12435.459826,1762.019645
59521.754131,2072.576638,-9178.553681,1302.362347
59521.754441,-370.102971,-10436.903782,1532.190996
59521.754751,-666.185348,-6513.812290,-1455.581446
59521.755060,-4737.318029,-7772.162391,0.000000
59521.755370,-2368.659014,-7772.162391,-1838.629195
59521.755680,-2960.823768,-13693.809927,1225.752797
59521.755989,-74.020594,-8882.471304,-2528.115143
59521.756299,-1776.494261,-9548.656652,0.000000
59521.756608,4663.297435,-8290.306550,-76.609550
59521.756918,3478.967927,-10066.800811,3600.648841
59521.757228,1702.473667,-9030.512492,2221.676944
59521.757537,0.000000,-8660.409521,-306.438199
59521.757847,-1184.329507,-10510.924376,306.438199
59521.758157,-3552.988522,-5995.668130,-2451.505594
59521.758466,-5921.647536,-9548.656652,0.000000
59521.758776,-74.020594,-9326.594869,1762.019645
59521.759086,-74.020594,-9474.636058,-76.609550
59521.759395,1184.329507,-4811.338623,306.438199
59521.759705,2294.638420,-14211.954086,4826.401637
59521.760014,740.205942,-6587.832884,459.657299
59521.760324,-2220.617826,-10288.862594,-919.314598
59521.760634,-1702.473667,-7772.162391,-1302.362347
59521.760943,-3552.988522,-10436.903782,-1762.019645
59521.761253,-2738.761985,-7846.182985,-2987.772442
59521.761563,-2368.659014,-7772.162391,-1838.629195
59521.761872,2960.823768,-9548.656652,4903.011187
59521.762182,5847.626942,-8290.306550,3600.648841
59521.762491,2664.741391,-8068.244768,4290.134789
59521.762801,5847.626942,-8882.471304,4213.525239
59521.763111,0.000000,-11029.068536,1532.190996
59521.763420,444.123565,-10214.842000,536.266849
59521.763730,-3478.967927,-13915.871710,-76.609550
59521.764040,-2368.659014,-9474.636058,-1838.629195
59521.764349,-1258.350101,-10658.965565,-383.047749
59521.764659,1110.308913,-4515.256246,995.924147
59521.764968,0.000000,-5995.668130,1225.752797
59521.765278,1184.329507,-7772.162391,3983.696590
59521.765588,1110.308913,-11843.295072,2987.772442
59521.765897,-1036.288319,-12065.356855,3600.648841
59521.766207,-4145.153275,-8660.409521,0.000000
59521.766517,-4885.359217,-9178.553681,459.657299
59521.766826,-2146.597232,-5181.441594,-842.705048
59521.767136,-148.041188,-7772.162391,2298.286494
59521.767445,4367.215058,-7105.977043,2987.772442
59521.767755,518.144159,-10362.883188,3294.210641
59521.768065,-3256.906145,-5995.668130,0.000000
59521.768374,-2072.576638,-13101.645173,2145.067394
59521.768684,-1258.350101,-9474.636058,995.924147
59521.768994,-6513.812290,-9548.656652,612.876398
59521.769303,-4737.318029,-7179.997637,0.000000
59521.769613,-814.226536,-8068.244768,383.047749
59521.769923,2738.761985,-6957.935855,3677.258390
59521.770232,3552.988522,-5773.606348,4136.915689
59521.770542,4367.215058,-9474.636058,6052.154434
59521.770851,2294.638420,-7698.141797,2374.896044
59521.771161,-2886.803174,-7920.203579,0.000000
59521.771471,-1184.329507,-9548.656652,1225.752797
59521.771780,-3627.009116,-11547.212695,-76.609550
59521.772090,-4145.153275,-5995.668130,0.000000
59521.772400,-2368.659014,-9844.739029,-1225.752797
59521.772709,1480.411884,-7031.956449,842.705048
59521.773019,1036.288319,-9844.739029,2298.286494
59521.773328,1776.494261,-8068.244768,2374.896044
59521.773638,3330.926739,-11843.295072,3600.648841
59521.773948,2294.638420,-10658.965565,3600.648841
59521.774257,-1258.350101,-7402.059420,-1302.362347
59521.774567,-2368.659014,-9548.656652,612.876398
59521.774877,814.226536,-7105.977043,-1302.362347
59521.775186,0.000000,-5995.668130,0.000000
59521.775496,3775.050304,-6513.812290,536.266849
59521.775805,1332.370696,-11399.171507,1991.848295
59521.776115,1184.329507,-9696.697840,-919.314598
59521.776425,-2220.617826,-14952.160028,-689.485948
59521.776734,-1036.288319,-12657.521608,-76.609550
59521.777044,-1850.514855,-13619.789333,-76.609550
59521.777354,-74.020594,-9474.636058,-76.609550
59521.777663,0.000000,-5995.668130,0.000000
59521.777973,3775.050304,-7698.141797,4826.401637
59521.778283,740.205942,-5181.441594,153.219100
59521.778592,1702.473667,-9474.636058,3294.210641
59521.778902,444.123565,-8142.265362,459.657299
59521.779211,-1702.473667,-10140.821405,919.314598
59521.779521,-2812.782580,-7698.141797,-1608.800546
59521.779831,-5625.565159,-12213.398043,-919.314598
59521.780140,-2738.761985,-9104.533087,-2451.505594
59521.780450,-1258.350101,-13027.624579,-689.485948
59521.780760,-1406.391290,-6365.771101,-1302.362347
59521.781069,0.000000,-10140.821405,2451.505594
59521.781379,1110.308913,-5921.647536,-689.485948
59521.781688,-74.020594,-9474.636058,1149.143247
59521.781998,148.041188,-7624.121203,459.657299
59521.782308,-1258.350101,-10140.821405,689.485948
59521.782617,-962.267725,-9770.718434,842.705048
59521.782927,0.000000,-7179.997637,0.000000
59521.783237,592.164754,-9548.656652,2451.505594
59521.783546,4663.297435,-8290.306550,2374.896044
59521.783856,518.144159,-8956.491898,1302.362347
59521.784165,2368.659014,-8068.244768,1225.752797
59521.784475,-666.185348,-11843.295072,-76.609550
59521.784785,-74.020594,-10066.800811,842.705048
59521.785094,-3330.926739,-11843.295072,153.219100
59521.785404,-1628.453072,-7179.997637,-1072.533697
59521.785714,-1332.370696,-8956.491898,-459.657299
59521.786023,296.082377,-4811.338623,0.000000
59521.786333,1184.329507,-7476.080014,1225.752797
59521.786643,4663.297435,-11251.130318,5439.278036
59521.786952,740.205942,-6883.915261,0.000000
59521.787262,296.082377,-11547.212695,2987.772442
59521.787571,-74.020594,-9474.636058,-76.609550
59521.787881,-2960.823768,-13027.624579,383.047749
59521.788191,-2146.597232,-9252.574275,-1532.190996
59521.788500,-2516.700203,-11103.089130,-383.047749
59521.788810,1258.350101,-6587.832884,995.924147
59521.789120,0.000000,-7772.162391,0.000000
59521.789429,0.000000,-2738.761985,0.000000
59521.789739,1776.494261,-10732.986159,3677.258390
59521.790048,2294.638420,-9474.636058,2374.896044
59521.790358,0.000000,-11325.150913,2451.505594
59521.790668,-74.020594,-13027.624579,2374.896044
59521.790977,-1480.411884,-7920.203579,-689.485948
59521.791287,-666.185348,-7698.141797,536.266849
59521.791597,1776.494261,-5699.585753,1532.190996
59521.791906,1110.308913,-10584.944971,2911.162892
59521.792216,0.000000,-7920.203579,0.000000
59521.792525,-3552.988522,-12139.377449,-76.609550
59521.792835,-3552.988522,-8364.327145,0.000000
59521.793145,-1332.370696,-11843.295072,1991.848295
59521.793454,-3552.988522,-3034.844362,0.000000
59521.793764,-74.020594,-8290.306550,-76.609550
59521.794074,0.000000,-6883.915261,1225.752797
59521.794383,1480.411884,-10807.006753,2911.162892
59521.794693,1036.288319,-11325.150913,3294.210641
59521.795003,-296.082377,-8290.306550,1072.533697
59521.795312,-666.185348,-6587.832884,-76.609550
59521.795622,-666.185348,-4737.318029,-76.609550
59521.795931,-4737.318029,-7772.162391,0.000000
59521.796241,-74.020594,-11251.130318,-689.485948
59521.796551,-4737.318029,-13397.727550,0.000000
59521.796860,1332.370696,-13471.748144,3217.601092
59521.797170,-1480.411884,-11917.315666,2145.067394
59521.797480,1258.350101,-5329.482782,1532.190996
59521.797789,370.102971,-7698.141797,1532.190996
59521.798099,2146.597232,-5773.606348,2145.067394
59521.798408,1998.556043,-9474.636058,1762.019645
59521.798718,-666.185348,-9474.636058,-76.609550
59521.799028,-3997.112087,-6587.832884,-2987.772442
59521.799337,-1184.329507,-10140.821405,1532.190996
59521.799647,814.226536,-6069.688724,-1608.800546
59521.799957,0.000000,-11917.315666,4290.134789
59521.800266,0.000000,-6587.832884,0.000000
59521.800576,-592.164754,-10881.027347,919.314598
59521.800885,888.247130,-7772.162391,383.047749
59521.801195,-1850.514855,-12065.356855,842.705048
59521.801505,-74.020594,-9474.636058,-76.609550
59521.801814,-74.020594,-13619.789333,-76.609550
59521.802124,0.000000,-5699.585753,0.000000
59521.802434,2664.741391,-11177.109724,3677.258390
59521.802743,2590.720797,-7994.224174,2987.772442
59521.803053,0.000000,-6587.832884,2451.505594
59521.803362,222.061783,-7179.997637,459.657299
59521.803672,148.041188,-7550.100608,612.876398
59521.803982,-1332.370696,-10288.862594,919.314598
59521.804291,-1554.432478,-8512.368333,-995.924147
59521.804601,-74.020594,-14211.954086,1608.800546
59521.804911,3478.967927,-12435.459826,3600.648841
59521.805220,-74.020594,-12139.377449,1762.019645
59521.805530,0.000000,-5403.503377,0.000000
59521.805840,-74.020594,-9474.636058,-76.609550
59521.806149,0.000000,-3034.844362,0.000000
59521.806459,-222.061783,-8586.388927,842.705048
59521.806768,-1184.329507,-8660.409521,229.828649
59521.807078,-3552.988522,-10140.821405,-1838.629195
59521.807388,-3108.864956,-11769.274478,-689.485948
59521.807697,-74.020594,-13101.645173,2145.067394
59521.808007,888.247130,-12509.480420,4290.134789
59521.808317,-74.020594,-5329.482782,-995.924147
59521.808626,-2368.659014,-6587.832884,0.000000
59521.808936,2294.638420,-8290.306550,2374.896044
59521.809245,-3404.947333,-7772.162391,0.000000
59521.809555,-370.102971,-7846.182985,-842.705048
59521.809865,-2960.823768,-12805.562797,306.438199
59521.810174,-74.020594,-10807.006753,766.095498
59521.810484,-518.144159,-11843.295072,1378.971896
59521.810794,888.247130,-6587.832884,1838.629195
59521.811103,592.164754,-4811.338623,1838.629195
59521.811413,4071.132681,-6513.812290,2374.896044
59521.811722,370.102971,-5699.585753,0.000000
59521.812032,-592.164754,-14878.139434,3064.381992
59521.812342,-3627.009116,-11251.130318,-3064.381992
59521.812651,-2146.597232,-14508.036463,-76.609550
59521.812961,222.061783,-8364.327145,612.876398
59521.813271,-814.226536,-7920.203579,1302.362347
59521.813580,1702.473667,-2960.823768,153.219100
59521.813890,592.164754,-7179.997637,1838.629195
59521.814200,1184.329507,-4811.338623,1225.752797
59521.814509,2294.638420,-13027.624579,2374.896044
59521.814819,-2220.617826,-8660.409521,-1225.752797
59521.815128,-814.226536,-13027.624579,-76.609550
59521.815438,-74.020594,-9178.553681,-1532.190996
59521.815748,1702.473667,-10658.965565,1762.019645
59521.816057,814.226536,-9696.697840,1455.581446
59521.816367,1406.391290,-8290.306550,229.828649
59521.816677,592.164754,-11251.130318,1455.581446
59521.816986,0.000000,-7179.997637,0.000000
59521.817296,-4737.318029,-9548.656652,0.000000
59521.817605,-74.020594,-8882.471304,1149.143247
59521.817915,-2664.741391,-9548.656652,0.000000
59521.818225,1998.556043,-8882.471304,2374.896044
59521.818534,-74.020594,-10066.800811,229.828649
59521.818844,-1628.453072,-6587.832884,0.000000
59521.819154,-1924.535449,-8290.306550,459.657299
59521.819463,0.000000,-8290.306550,1072.533697
59521.819773,0.000000,-8660.409521,1302.362347
59521.820082,-3552.988522,-8364.327145,0.000000
59521.820392,-4737.318029,-7179.997637,-3370.820191
59521.820702,-1184.329507,-13101.645173,1685.410096
59521.821011,-962.267725,-9178.553681,-76.609550
59521.821321,-666.185348,-12953.603985,3524.039291
59521.821631,-74.020594,-7105.977043,-76.609550
59521.821940,-1184.329507,-8660.409521,995.924147
59521.822250,1406.391290,-6217.729913,766.095498
59521.822560,-1036.288319,-9844.739029,1991.848295
59521.822869,-518.144159,-7994.224174,383.047749
59521.823179,-2368.659014,-9030.512492,-1149.143247
59521.823488,-74.020594,-7698.141797,-76.609550
59521.823798,0.000000,-9548.656652,2451.505594
59521.824108,-74.020594,-8882.471304,1762.019645
59521.824417,0.000000,-7772.162391,2451.505594
59521.824727,3182.885551,-11251.130318,2374.896044
59521.825037,0.000000,-6735.874072,0.000000
59521.825346,-1258.350101,-10658.965565,1302.362347
59521.825656,444.123565,-7328.038826,-306.438199
59521.825965,-1184.329507,-11769.274478,383.047749
59521.826275,1110.308913,-8734.430116,-76.609550
59521.826585,-74.020594,-11843.295072,-76.609550
59521.826894,0.000000,-7179.997637,0.000000
59521.827204,-74.020594,-10881.027347,3600.648841
59521.827514,518.144159,-6069.688724,76.609550
59521.827823,2664.741391,-9178.553681,2987.772442
59521.828133,592.164754,-7179.997637,1225.752797
59521.828442,592.164754,-7476.080014,306.438199
59521.828752,-592.164754,-11029.068536,1455.581446
59521.829062,0.000000,-11029.068536,842.705048
59521.829371,-1258.350101,-14211.954086,2374.896044
59521.829681,-74.020594,-8882.471304,-1302.362347
59521.829991,-3552.988522,-7772.162391,0.000000
59521.830300,2294.638420,-4737.318029,2374.896044
59521.830610,-2294.638420,-4219.173869,-1608.800546
59521.830920,1184.329507,-7920.203579,2145.067394
59521.831229,-296.082377,-10584.944971,-76.609550
59521.831539,444.123565,-12361.439231,1378.971896
59521.831848,-1184.329507,-13323.706956,1225.752797
59521.832158,-2146.597232,-10807.006753,536.266849
59521.832468,-74.020594,-8290.306550,-76.609550
59521.832777,-74.020594,-8290.306550,-76.609550
59521.833087,0.000000,-1850.514855,-1225.752797
59521.833397,-888.247130,-8956.491898,1378.971896
59521.833706,2294.638420,-8290.306550,-689.485948
59521.834016,-1776.494261,-13693.809927,2451.505594
59521.834325,-74.020594,-10436.903782,766.095498
59521.834635,-2368.659014,-11843.295072,919.314598
59521.834945,-740.205942,-6439.791695,0.000000
59521.835254,-296.082377,-8660.409521,0.000000
59521.835564,2294.638420,-8142.265362,1532.190996
59521.835874,2294.638420,-11843.295072,2374.896044
59521.836183,-666.185348,-8290.306550,-842.705048
59521.836493,0.000000,-9548.656652,0.000000
59521.836802,-74.020594,-13027.624579,-76.609550
59521.837112,-2368.659014,-9548.656652,612.876398
59521.837422,-2146.597232,-11769.274478,995.924147
59521.837731,-1406.391290,-7698.141797,-1149.143247
59521.838041,-1702.473667,-9400.615463,383.047749
59521.838351,74.020594,-4959.379811,0.000000
59521.838660,-592.164754,-10140.821405,1838.629195
59521.838970,2368.659014,-7772.162391,2604.724693
59521.839280,1702.473667,-11843.295072,2374.896044
59521.839589,592.164754,-9844.739029,3983.696590
59521.839899,-1258.350101,-9770.718434,536.266849
59521.840208,-2368.659014,-7476.080014,1378.971896
59521.840518,-296.082377,-8586.388927,842.705048
59521.840828,-74.020594,-7105.977043,842.705048
59521.841137,74.020594,-6513.812290,536.266849
59521.841447,-370.102971,-8882.471304,1378.971896
59521.841757,0.000000,-7772.162391,0.000000
59521.842066,0.000000,-12509.480420,2451.505594
59521.842376,2294.638420,-10658.965565,2068.457845
59521.842685,-2960.823768,-11917.315666,1225.752797
59521.842995,-74.020594,-9474.636058,-76.609550
59521.843305,-1776.494261,-7772.162391,1072.533697
59521.843614,2220.617826,-5329.482782,1991.848295
59521.843924,592.164754,-6069.688724,1302.362347
59521.844234,888.247130,-6661.853478,919.314598
59521.844543,444.123565,-9326.594869,153.219100
59521.844853,0.000000,-11917.315666,1225.752797
59521.845162,-2368.659014,-11325.150913,1225.752797
59521.845472,-1258.350101,-14211.954086,1762.019645
59521.845782,-2368.659014,-6587.832884,0.000000
59521.846091,-74.020594,-10658.965565,-76.609550
59521.846401,222.061783,-2442.679609,-919.314598
59521.846711,-296.082377,-9104.533087,1455.581446
59521.847021,1776.494261,-7105.977043,689.485948
59521.847330,666.185348,-12435.459826,1608.800546
59521.847640,592.164754,-11473.192101,2374.896044
59521.847950,-2960.823768,-10732.986159,1072.533697
59521.848260,-4145.153275,-7179.997637,0.000000
59521.848569,-4145.153275,-6587.832884,-1838.629195
59521.848879,-222.061783,-7994.224174,-76.609550
59521.849189,-3552.988522,-3627.009116,0.000000
59521.849498,-1184.329507,-8364.327145,1225.752797
59521.849808,74.020594,-8808.450710,-2451.505594
59521.850118,0.000000,-15026.180623,3064.381992
59521.850428,222.061783,-11103.089130,1455.581446
59521.850737,-1850.514855,-11251.130318,1762.019645
59521.851047,0.000000,-3627.009116,0.000000
59521.851357,-2368.659014,-5995.668130,0.000000
59521.851666,2294.638420,-6513.812290,-76.609550
59521.851976,-1554.432478,-8660.409521,-3064.381992
59521.852286,1332.370696,-12583.501014,2298.286494
59521.852596,-814.226536,-10807.006753,-1072.533697
59521.852905,74.020594,-11769.274478,1915.238745
59521.853215,296.082377,-9178.553681,1225.752797
59521.853525,-888.247130,-7550.100608,766.095498
59521.853834,0.000000,-3997.112087,-1378.971896
59521.854144,-2368.659014,-5403.503377,-1838.629195
59521.854454,-2368.659014,-4811.338623,0.000000
59521.854764,-74.020594,-15248.242405,2374.896044
59521.855073,1110.308913,-9548.656652,-1762.019645
59521.855383,0.000000,-12509.480420,2451.505594
59521.855693,2294.638420,-8290.306550,1225.752797
59521.856002,962.267725,-8068.244768,2451.505594
59521.856312,1184.329507,-5329.482782,995.924147
59521.856622,-814.226536,-5995.668130,-1149.143247
59521.856932,-1554.432478,-8586.388927,-76.609550
59521.857241,-2590.720797,-10658.965565,-689.485948
59521.857551,-3552.988522,-10732.986159,0.000000
59521.857861,1702.473667,-11251.130318,1149.143247
59521.858170,-888.247130,-9548.656652,0.000000
59521.858480,4219.173869,-7698.141797,4213.525239
59521.858790,2294.638420,-8290.306550,2374.896044
59521.859100,0.000000,-6217.729913,919.314598
59521.859409,-2220.617826,-10732.986159,459.657299
59521.859719,-1110.308913,-9474.636058,459.657299
59521.860029,-1628.453072,-11917.315666,3294.210641
59521.860338,-666.185348,-8734.430116,1149.143247
59521.860648,-370.102971,-7105.977043,76.609550
59521.860958,1776.494261,-7476.080014,3064.381992
59521.861268,3478.967927,-11843.295072,4826.401637
59521.861577,-2368.659014,-7476.080014,0.000000
59521.861887,-1258.350101,-9178.553681,-995.924147
59521.862197,-4293.194464,-10658.965565,-1225.752797
59521.862506,-2368.659014,-8586.388927,-766.095498
59521.862816,-3108.864956,-11621.233289,995.924147
59521.863126,-666.185348,-7772.162391,919.314598
59521.863436,1110.308913,-10066.800811,2374.896044
59521.863745,2886.803174,-6513.812290,2068.457845
59521.864055,0.000000,-8364.327145,2451.505594
59521.864365,-74.020594,-9474.636058,2374.896044
59521.864674,-5921.647536,-7179.997637,-2451.505594
59521.864984,-1924.535449,-10140.821405,-76.609550
59521.865294,-3701.029710,-10510.924376,-1225.752797
59521.865604,-2072.576638,-10658.965565,306.438199
59521.865913,-222.061783,-6957.935855,-842.705048
59521.866223,814.226536,-8586.388927,612.876398
59521.866533,4663.297435,-7994.224174,3600.648841
59521.866842,3478.967927,-11843.295072,2987.772442
59521.867152,-1184.329507,-7476.080014,0.000000
59521.867462,-1258.350101,-14730.098246,2221.676944
59521.867772,-3182.885551,-7772.162391,-1915.238745
59521.868081,-1184.329507,-11251.130318,2374.896044
59521.868391,518.144159,-5921.647536,0.000000
59521.868701,1258.350101,-6217.729913,612.876398
59521.869011,3775.050304,-6291.750507,2374.896044
59521.869320,4219.173869,-8956.491898,2451.505594
59521.869630,2812.782580,-12287.418637,4290.134789
59521.869940,-74.020594,-12435.459826,-76.609550
59521.870249,-3330.926739,-12139.377449,-1915.238745
59521.870559,-2368.659014,-7772.162391,0.000000
59521.870869,-74.020594,-11251.130318,-76.609550
59521.871179,1184.329507,-7105.977043,1149.143247
59521.871488,1406.391290,-8586.388927,842.705048
59521.871798,4145.153275,-7254.018232,2451.505594
59521.872108,1480.411884,-12065.356855,2681.334243
59521.872417,-814.226536,-10140.821405,0.000000
59521.872727,-2960.823768,-11621.233289,0.000000
59521.873037,-1258.350101,-10362.883188,919.314598
59521.873347,-2442.679609,-6513.812290,-842.705048
59521.873656,-1184.329507,-6587.832884,1838.629195
59521.873966,2294.638420,-4737.318029,-76.609550
59521.874276,1184.329507,-9474.636058,2604.724693
59521.874585,2812.782580,-10362.883188,2374.896044
59521.874895,-1036.288319,-15026.180623,2374.896044
59521.875205,-2960.823768,-10658.965565,-689.485948
59521.875515,-4737.318029,-10732.986159,-2911.162892
59521.875824,-2368.659014,-6587.832884,-2451.505594
59521.876134,-2960.823768,-9548.656652,1608.800546
59521.876444,-74.020594,-5329.482782,-383.047749
59521.876753,0.000000,-7179.997637,612.876398
59521.877063,4663.297435,-10658.965565,4826.401637
59521.877373,888.247130,-11325.150913,4136.915689
59521.877683,-148.041188,-10214.842000,2681.334243
59521.877992,-2294.638420,-9474.636058,-229.828649
59521.878302,-3034.844362,-9770.718434,0.000000
59521.878612,-1998.556043,-6735.874072,-689.485948
59521.878921,-3552.988522,-7772.162391,0.000000
59521.879231,0.000000,-5995.668130,0.000000
59521.879541,2294.638420,-10658.965565,2374.896044
59521.879851,0.000000,-5403.503377,306.438199
59521.880160,2072.576638,-14063.912898,7048.078582
59521.880470,518.144159,-8660.409521,1225.752797
59521.880780,-2442.679609,-10955.047942,766.095498
59521.881089,-1184.329507,-6883.915261,0.000000
59521.881399,-888.247130,-7254.018232,459.657299
59521.881709,74.020594,-6513.812290,1149.143247
59521.882019,0.000000,-5403.503377,-1149.143247
59521.882328,0.000000,-9548.656652,2451.505594
59521.882638,4071.132681,-10658.965565,3600.648841
59521.882948,0.000000,-10140.821405,2451.505594
59521.883257,-74.020594,-9474.636058,-76.609550
59521.883567,-3552.988522,-9548.656652,-1532.190996
59521.883877,-1036.288319,-7920.203579,-459.657299
59521.884187,-2368.659014,-9474.636058,306.438199
59521.884496,0.000000,-5551.544565,-459.657299
59521.884806,518.144159,-9474.636058,1762.019645
59521.885116,2664.741391,-7402.059420,2374.896044
59521.885425,296.082377,-11325.150913,3677.258390
59521.885735,1702.473667,-11843.295072,2374.896044
59521.886045,-2368.659014,-10140.821405,1225.752797
59521.886355,-74.020594,-9474.636058,1149.143247
59521.886664,-2368.659014,-4811.338623,-2298.286494
59521.886974,-2960.823768,-9030.512492,0.000000
59521.887284,-962.267725,-7105.977043,-919.314598
59521.887593,-296.082377,-11843.295072,1072.533697
59521.887903,2886.803174,-11843.295072,4213.525239
59521.888213,222.061783,-13027.624579,4213.525239
59521.888523,-1184.329507,-6661.853478,76.609550
59521.888832,-1332.370696,-9992.780217,2068.457845
59521.889142,-4737.318029,-3034.844362,-2451.505594
59521.889452,-1480.411884,-9474.636058,0.000000
59521.889762,-2146.597232,-5477.523971,-1915.238745
59521.890071,-814.226536,-7476.080014,0.000000
59521.890381,1554.432478,-10362.883188,2374.896044
59521.890691,1998.556043,-10658.965565,2757.943793
59521.891000,1628.453072,-13027.624579,4826.401637
59521.891310,-74.020594,-9474.636058,-76.609550
59521.891620,-2442.679609,-9474.636058,-1302.362347
59521.891930,-2960.823768,-6587.832884,0.000000
59521.892239,-74.020594,-11843.295072,-76.609550
59521.892549,-1850.514855,-5995.668130,-4290.134789
59521.892859,-1628.453072,-10140.821405,0.000000
59521.893168,2072.576638,-7624.121203,2145.067394
59521.893478,2220.617826,-10140.821405,3907.087040
59521.893788,2590.720797,-5921.647536,2221.676944
59521.894098,1110.308913,-8882.471304,-76.609550
59521.894407,-74.020594,-9474.636058,-76.609550
59521.894717,-2442.679609,-9178.553681,-2528.115143
59521.895027,-4145.153275,-11917.315666,-1838.629195
59521.895336,-1258.350101,-10658.965565,-3140.991542
59521.895646,-2220.617826,-11325.150913,0.000000
59521.895956,1776.494261,-8068.244768,153.219100
59521.896266,2072.576638,-11621.233289,3677.258390
59521.896575,2442.679609,-6809.894666,1225.752797
59521.896885,-74.020594,-8660.409521,1608.800546
59521.897195,222.061783,-7105.977043,-76.609550
59521.897504,-2664.741391,-8882.471304,-76.609550
59521.897814,-2738.761985,-6587.832884,-2757.943793
59521.898124,-592.164754,-11325.150913,1608.800546
59521.898434,518.144159,-9104.533087,229.828649
59521.898743,1184.329507,-10732.986159,2451.505594
59521.899053,2294.638420,-10066.800811,3600.648841
59521.899363,0.000000,-5995.668130,0.000000
59521.899672,-1184.329507,-9326.594869,766.095498
59521.899982,-1480.411884,-8142.265362,-229.828649
59521.900292,-3627.009116,-12435.459826,0.000000
59521.900602,-74.020594,-10362.883188,-76.609550
59521.900911,-74.020594,-13027.624579,2987.772442
59521.901221,1332.370696,-4959.379811,1915.238745
59521.901531,3478.967927,-10658.965565,6971.469032
59521.901840,2294.638420,-3849.070898,1762.019645
59521.902150,370.102971,-9178.553681,4213.525239
59521.902460,-888.247130,-9178.553681,1149.143247
59521.902770,-4071.132681,-11399.171507,-306.438199
59521.903079,-5403.503377,-12509.480420,-1149.143247
59521.903389,-3627.009116,-10214.842000,-2451.505594
59521.903699,-74.020594,-11547.212695,3600.648841
59521.904008,3478.967927,-7105.977043,3600.648841
59521.904318,0.000000,-7179.997637,3064.381992
59521.904628,3775.050304,-8290.306550,4826.401637
59521.904938,-2146.597232,-8660.409521,383.047749
59521.905247,-740.205942,-9474.636058,2374.896044
59521.905557,-4293.194464,-10732.986159,-306.438199
59521.905867,-3404.947333,-8216.285956,-1378.971896
59521.906176,-2220.617826,-9548.656652,0.000000
59521.906486,1184.329507,-7772.162391,1225.752797
59521.906796,2886.803174,-9474.636058,4213.525239
59521.907106,2294.638420,-9474.636058,2374.896044
59521.907415,0.000000,-7179.997637,0.000000
59521.907725,1702.473667,-13619.789333,4826.401637
59521.908035,-2442.679609,-7550.100608,-536.266849
59521.908344,-2442.679609,-11695.253884,2374.896044
59521.908654,-888.247130,-6735.874072,-612.876398
59521.908964,444.123565,-7994.224174,1072.533697
59521.909274,3404.947333,-5033.400406,1915.238745
59521.909583,2294.638420,-8216.285956,2451.505594
59521.909893,4367.215058,-9474.636058,3294.210641
59521.910203,2294.638420,-13619.789333,-76.609550
59521.910513,-2960.823768,-10732.986159,0.000000
59521.910822,-2442.679609,-11843.295072,-76.609550
59521.911132,-4441.235652,-7772.162391,-1838.629195
59521.911442,74.020594,-7994.224174,-76.609550
59521.911751,1406.391290,-8142.265362,1149.143247
59521.912061,3256.906145,-7254.018232,1762.019645
59521.912371,2072.576638,-11177.109724,3294.210641
59521.912681,2146.597232,-8364.327145,612.876398
59521.912990,-74.020594,-11843.295072,2451.505594
59521.913300,-74.020594,-9474.636058,-76.609550
59521.913610,-4737.318029,-7772.162391,-2145.067394
59521.913919,-1258.350101,-8290.306550,-689.485948
59521.914229,-4737.318029,-7179.997637,-3064.381992
59521.914539,592.164754,-9474.636058,2068.457845
59521.914849,1258.350101,-10732.986159,1685.410096
59521.915158,814.226536,-10584.944971,1532.190996
59521.915468,-444.123565,-10066.800811,153.219100
59521.915778,-962.267725,-9548.656652,-1838.629195
59521.916087,-1184.329507,-8438.347739,0.000000
59521.916397,-2368.659014,-10140.821405,612.876398
59521.916707,-1850.514855,-6809.894666,-2528.115143
59521.917017,-1776.494261,-10732.986159,2451.505594
59521.917326,2886.803174,-8882.471304,1762.019645
59521.917636,-1036.288319,-11473.192101,3677.258390
59521.917946,1110.308913,-7402.059420,1455.581446
