#time,accel_x,accel_y,accel_z
59523.957224,-370.102971,-9104.533087,995.924147
59523.957534,-370.102971,-9178.553681,842.705048
59523.957844,0.000000,-8734.430116,1225.752797
59523.958153,0.000000,-9548.656652,1149.143247
59523.958463,-74.020594,-9326.594869,-76.609550
59523.958773,0.000000,-9548.656652,2451.505594
59523.959083,-74.020594,-10658.965565,2374.896044
59523.959392,0.000000,-9548.656652,1225.752797
59523.959702,-74.020594,-9178.553681,842.705048
59523.960012,-666.185348,-8882.471304,766.095498
59523.960322,-148.041188,-9252.574275,1149.143247
59523.960631,-148.041188,-9474.636058,1225.752797
59523.960941,-1184.329507,-8364.327145,0.000000
59523.961251,-1184.329507,-8956.491898,612.876398
59523.961561,-74.020594,-9474.636058,2068.457845
59523.961870,0.000000,-7772.162391,0.000000
59523.962180,-74.020594,-10658.965565,1762.019645
59523.962490,-2368.659014,-7476.080014,306.438199
59523.962800,-74.020594,-9474.636058,1149.143247
59523.963110,-296.082377,-8734.430116,689.485948
59523.963419,-370.102971,-8956.491898,842.705048
59523.963729,-444.123565,-9104.533087,842.705048
59523.964039,0.000000,-8068.244768,0.000000
59523.964349,-2368.659014,-7772.162391,0.000000
59523.964658,592.164754,-10066.800811,2068.457845
59523.964968,-3256.906145,-5995.668130,0.000000
59523.965278,1702.473667,-10658.965565,2221.676944
59523.965588,-888.247130,-7476.080014,1149.143247
59523.965897,148.041188,-9400.615463,1378.971896
59523.966207,-222.061783,-9474.636058,536.266849
59523.966517,-222.061783,-8956.491898,995.924147
59523.966827,-222.061783,-9104.533087,1149.143247
59523.967136,-888.247130,-8290.306550,536.266849
59523.967446,-2368.659014,-7179.997637,0.000000
59523.967756,740.205942,-10140.821405,3600.648841
59523.968066,-2072.576638,-6883.915261,-1149.143247
59523.968375,592.164754,-10140.821405,2145.067394
59523.968685,-370.102971,-8586.388927,0.000000
59523.968995,-148.041188,-9252.574275,1072.533697
59523.969305,-222.061783,-9474.636058,919.314598
59523.969614,-592.164754,-8734.430116,842.705048
59523.969924,-444.123565,-8956.491898,1072.533697
59523.970234,-222.061783,-9474.636058,2221.676944
59523.970544,-962.267725,-7846.182985,0.000000
59523.970853,0.000000,-9548.656652,2451.505594
59523.971163,-74.020594,-8290.306550,-76.609550
59523.971473,-2072.576638,-8364.327145,1225.752797
59523.971783,-74.020594,-9474.636058,0.000000
59523.972092,-740.205942,-8956.491898,766.095498
59523.972402,-518.144159,-9030.512492,689.485948
59523.972712,-370.102971,-8956.491898,842.705048
59523.973022,-74.020594,-9178.553681,1762.019645
59523.973331,-74.020594,-10658.965565,2068.457845
59523.973641,-74.020594,-9178.553681,-76.609550
59523.973951,-1184.329507,-8364.327145,0.000000
59523.974261,-74.020594,-9474.636058,-76.609550
59523.974570,-2368.659014,-8364.327145,612.876398
59523.974880,-74.020594,-9474.636058,-76.609550
59523.975190,-814.226536,-8660.409521,766.095498
59523.975500,-370.102971,-9178.553681,689.485948
59523.975809,-296.082377,-8956.491898,612.876398
59523.976119,-296.082377,-9104.533087,2068.457845
59523.976429,1110.308913,-10066.800811,2374.896044
59523.976739,1110.308913,-10066.800811,1762.019645
59523.977049,-1258.350101,-7179.997637,-2451.505594
59523.977358,1480.411884,-10955.047942,2834.553343
59523.977668,-666.185348,-8290.306550,153.219100
59523.977978,740.205942,-9178.553681,1762.019645
59523.978288,-592.164754,-8660.409521,689.485948
59523.978597,-666.185348,-8956.491898,689.485948
59523.978907,-370.102971,-8882.471304,383.047749
59523.979217,-444.123565,-8956.491898,612.876398
59523.979527,592.164754,-8956.491898,1532.190996
59523.979836,0.000000,-9252.574275,1225.752797
59523.980146,-74.020594,-7698.141797,-1302.362347
59523.980456,0.000000,-9548.656652,2451.505594
59523.980766,1110.308913,-9178.553681,-76.609550
59523.981075,1184.329507,-9474.636058,2374.896044
59523.981385,814.226536,-8142.265362,689.485948
59523.981695,1110.308913,-8956.491898,1149.143247
59523.982005,1332.370696,-8808.450710,919.314598
59523.982314,1702.473667,-8512.368333,0.000000
59523.982624,0.000000,-7772.162391,1225.752797
59523.982934,1776.494261,-8956.491898,1225.752797
59523.983244,4367.215058,-11843.295072,3600.648841
59523.983553,592.164754,-7179.997637,0.000000
59523.983863,4367.215058,-10658.965565,2911.162892
59523.984173,2368.659014,-10288.862594,995.924147
59523.984483,3256.906145,-9474.636058,689.485948
59523.984792,3775.050304,-9178.553681,689.485948
59523.985102,4219.173869,-9030.512492,995.924147
59523.985412,5033.400406,-7476.080014,0.000000
59523.985722,4145.153275,-7179.997637,0.000000
59523.986031,4737.318029,-7772.162391,766.095498
59523.986341,7031.956449,-9474.636058,2374.896044
59523.986651,3552.988522,-7179.997637,0.000000
59523.986961,7031.956449,-10362.883188,2374.896044
59523.987270,5329.482782,-8364.327145,612.876398
59523.987580,6809.894666,-9474.636058,459.657299
59523.987890,6143.709319,-9474.636058,0.000000
59523.988200,5773.606348,-10066.800811,0.000000
59523.988509,4885.359217,-10955.047942,-76.609550
59523.988819,3182.885551,-10955.047942,-2528.115143
59523.989129,1184.329507,-11029.068536,-1225.752797
59523.989439,3182.885551,-14211.954086,-76.609550
59523.989748,0.000000,-8364.327145,0.000000
59523.990058,4071.132681,-8882.471304,2374.896044
59523.990368,2960.823768,-3627.009116,306.438199
59523.990678,5921.647536,-4145.153275,2221.676944
59523.990987,7624.121203,-4145.153275,2451.505594
59523.991297,8808.450710,-4737.318029,2528.115143
59523.991607,7920.203579,-7105.977043,2987.772442
59523.991917,8216.285956,-11843.295072,2374.896044
59523.992227,2294.638420,-13619.789333,-1302.362347
59523.992536,-2368.659014,-16654.633695,0.000000
59523.992846,-1258.350101,-18949.272115,-2528.115143
59523.993156,-4737.318029,-12805.562797,-4903.011187
59523.993466,-3775.050304,-9548.656652,-2834.553343
59523.993775,-1332.370696,-7550.100608,306.438199
59523.994085,2368.659014,-6513.812290,2451.505594
59523.994395,4367.215058,-5921.647536,4826.401637
59523.994705,5847.626942,-7550.100608,6665.030833
59523.995014,4071.132681,-8290.306550,6971.469032
59523.995324,2886.803174,-5329.482782,3600.648841
59523.995634,0.000000,-1258.350101,0.000000
59523.995944,7031.956449,-4737.318029,4213.525239
59523.996253,2368.659014,-4811.338623,0.000000
59523.996563,2294.638420,-11843.295072,-76.609550
59523.996873,-3256.906145,-16210.510130,-2298.286494
59523.997183,-7476.080014,-19763.498651,-4290.134789
59523.997492,-7402.059420,-18061.024985,-4443.353888
59523.997802,-3552.988522,-12805.562797,-2145.067394
59523.998112,-74.020594,-9844.739029,1838.629195
59523.998422,3182.885551,-5921.647536,3140.991542
59523.998731,1702.473667,-3034.844362,1532.190996
59523.999041,5625.565159,-5255.462188,5975.544884
59523.999351,5847.626942,-3701.029710,4213.525239
59523.999661,7624.121203,-4737.318029,6665.030833
59523.999970,7846.182985,-3404.947333,5515.887586
59524.000280,6291.750507,-5255.462188,4366.744339
59524.000590,2146.597232,-10510.924376,1072.533697
59524.000900,-74.020594,-15618.345376,-76.609550
59524.001209,-74.020594,-17764.942608,-1915.238745
59524.001519,-1258.350101,-15840.407159,-2528.115143
59524.001829,-3034.844362,-14211.954086,-4979.620737
59524.002139,-7105.977043,-11917.315666,-4749.792088
59524.002448,-74.020594,-10955.047942,-1608.800546
59524.002758,4367.215058,-3701.029710,1302.362347
59524.003068,11547.212695,-1480.411884,6128.763984
59524.003378,13545.768739,-1184.329507,7890.783629
59524.003687,11843.295072,-3775.050304,7507.735880
59524.003997,11769.274478,-8882.471304,7124.688131
59524.004307,8216.285956,-10658.965565,4826.401637
59524.004617,4367.215058,-8882.471304,-689.485948
59524.004926,-5625.565159,-9844.739029,-4903.011187
59524.005236,-1184.329507,-14878.139434,-3064.381992
59524.005546,1702.473667,-13915.871710,-4673.182538
59524.005856,2294.638420,-8734.430116,-3140.991542
59524.006165,2960.823768,-8956.491898,-612.876398
59524.006475,1110.308913,-10214.842000,-612.876398
59524.006785,2368.659014,-8660.409521,76.609550
59524.007095,8734.430116,-7698.141797,5286.058936
59524.007405,9400.615463,-7105.977043,7124.688131
59524.007714,4663.297435,-5699.585753,3600.648841
59524.008024,4663.297435,-5921.647536,-383.047749
59524.008334,7105.977043,-8364.327145,3064.381992
59524.008644,8216.285956,-10658.965565,2374.896044
59524.008953,1702.473667,-11843.295072,229.828649
59524.009263,-2516.700203,-13249.686362,-3294.210641
59524.009573,-2738.761985,-14285.974681,-3677.258390
59524.009883,-2442.679609,-12361.439231,-2604.724693
59524.010192,-1258.350101,-11917.315666,-1838.629195
59524.010502,2368.659014,-8364.327145,1225.752797
59524.010812,7698.141797,-7179.997637,2757.943793
59524.011122,8808.450710,-9474.636058,7277.907231
59524.011431,1184.329507,-4811.338623,2451.505594
59524.011741,4071.132681,-8734.430116,4213.525239
59524.012051,2368.659014,-8290.306550,2068.457845
59524.012361,2294.638420,-9474.636058,536.266849
59524.012670,1998.556043,-11473.192101,1532.190996
59524.012980,592.164754,-11399.171507,0.000000
59524.013290,-1036.288319,-10732.986159,-4290.134789
59524.013600,-4145.153275,-10732.986159,-4596.572988
59524.013909,-3849.070898,-9622.677246,-1838.629195
59524.014219,2516.700203,-10658.965565,3294.210641
59524.014529,2738.761985,-4811.338623,1149.143247
59524.014839,5921.647536,-6587.832884,5439.278036
59524.015148,3849.070898,-6587.832884,4903.011187
59524.015458,4367.215058,-5921.647536,2681.334243
59524.015768,2738.761985,-6661.853478,1762.019645
59524.016078,3701.029710,-7846.182985,2068.457845
59524.016387,3182.885551,-8660.409521,1149.143247
59524.016697,0.000000,-9548.656652,0.000000
59524.017007,-2960.823768,-9548.656652,-2451.505594
59524.017317,-74.020594,-15396.283594,-76.609550
59524.017626,-1258.350101,-10658.965565,-3140.991542
59524.017936,0.000000,-9548.656652,1225.752797
59524.018246,3552.988522,-5995.668130,1225.752797
59524.018556,5699.585753,-8882.471304,2604.724693
59524.018865,4737.318029,-7179.997637,3064.381992
59524.019175,4663.297435,-8438.347739,2451.505594
59524.019485,3182.885551,-9474.636058,2374.896044
59524.019795,4071.132681,-8734.430116,-76.609550
59524.020104,2960.823768,-9548.656652,612.876398
59524.020414,2368.659014,-9548.656652,1225.752797
59524.020724,-74.020594,-11695.253884,-76.609550
59524.021034,0.000000,-10436.903782,0.000000
59524.021344,0.000000,-9548.656652,0.000000
59524.021653,4145.153275,-7920.203579,1532.190996
59524.021963,3182.885551,-9844.739029,1532.190996
59524.022273,2886.803174,-7105.977043,0.000000
59524.022583,4367.215058,-11251.130318,2374.896044
59524.022892,7031.956449,-10658.965565,2374.896044
59524.023202,3775.050304,-7179.997637,-689.485948
59524.023512,2590.720797,-13027.624579,2374.896044
59524.023822,0.000000,-9548.656652,-2451.505594
59524.024131,1924.535449,-14063.912898,306.438199
59524.024441,1998.556043,-10436.903782,0.000000
59524.024751,1776.494261,-9326.594869,383.047749
59524.025061,2590.720797,-8734.430116,766.095498
59524.025371,2886.803174,-7031.956449,229.828649
59524.025681,3182.885551,-8882.471304,2834.553343
59524.025991,7031.956449,-9474.636058,4826.401637
59524.026300,6439.791695,-5033.400406,2681.334243
59524.026610,4737.318029,-7179.997637,3677.258390
59524.026920,2960.823768,-9474.636058,1838.629195
59524.027230,-74.020594,-10066.800811,-1838.629195
59524.027540,1850.514855,-9474.636058,-1149.143247
59524.027850,2294.638420,-11843.295072,-76.609550
59524.028160,0.000000,-9548.656652,-1225.752797
59524.028470,1184.329507,-12805.562797,0.000000
59524.028780,4071.132681,-10658.965565,1762.019645
59524.029090,4663.297435,-9474.636058,2374.896044
59524.029400,2294.638420,-7994.224174,1149.143247
59524.029709,2368.659014,-5995.668130,1225.752797
59524.030019,3478.967927,-9326.594869,2221.676944
59524.030329,4737.318029,-3627.009116,0.000000
59524.030639,3478.967927,-9030.512492,1149.143247
59524.030949,3330.926739,-7031.956449,1378.971896
59524.031259,1776.494261,-11251.130318,766.095498
59524.031569,1850.514855,-10510.924376,689.485948
59524.031879,1480.411884,-12731.542202,2374.896044
59524.032189,-1554.432478,-14211.954086,2374.896044
59524.032499,-4219.173869,-13027.624579,-1455.581446
59524.032808,-4737.318029,-9548.656652,0.000000
59524.033118,-370.102971,-7105.977043,-76.609550
59524.033428,0.000000,-5995.668130,1225.752797
59524.033738,-74.020594,-5329.482782,1762.019645
59524.034048,-1036.288319,-7994.224174,2068.457845
59524.034358,666.185348,-6217.729913,1302.362347
59524.034668,-2516.700203,-8586.388927,1378.971896
59524.034978,-4441.235652,-7846.182985,0.000000
59524.035288,-5033.400406,-11843.295072,-76.609550
59524.035598,-2442.679609,-10658.965565,-689.485948
59524.035908,-6365.771101,-9548.656652,-2451.505594
59524.036217,-1998.556043,-12287.418637,2221.676944
59524.036527,-3775.050304,-9770.718434,-689.485948
59524.036837,-74.020594,-9474.636058,2987.772442
59524.037147,0.000000,-8068.244768,3140.991542
59524.037457,-1924.535449,-6587.832884,3217.601092
59524.037767,-4959.379811,-7031.956449,383.047749
59524.038077,-4145.153275,-5403.503377,0.000000
59524.038387,-888.247130,-5995.668130,2451.505594
59524.038697,-370.102971,-8586.388927,4213.525239
59524.039007,-4737.318029,-4811.338623,0.000000
59524.039317,-666.185348,-12435.459826,1762.019645
59524.039626,-666.185348,-8882.471304,-689.485948
59524.039936,-1258.350101,-13915.871710,1149.143247
59524.040246,-4441.235652,-10140.821405,-612.876398
59524.040556,-4293.194464,-11843.295072,-153.219100
59524.040866,296.082377,-7402.059420,153.219100
59524.041176,0.000000,-7476.080014,306.438199
59524.041486,0.000000,-4811.338623,2451.505594
59524.041796,2516.700203,-8512.368333,4826.401637
59524.042106,3478.967927,-5625.565159,536.266849
59524.042416,0.000000,-8364.327145,1225.752797
59524.042725,-1258.350101,-11251.130318,-76.609550
59524.043035,-2738.761985,-10658.965565,-689.485948
59524.043345,-1406.391290,-10807.006753,-1608.800546
59524.043655,1406.391290,-10881.027347,-153.219100
59524.043965,2146.597232,-10955.047942,1608.800546
59524.044275,2368.659014,-8068.244768,766.095498
59524.044585,2368.659014,-9548.656652,2451.505594
59524.044895,5921.647536,-8956.491898,3677.258390
59524.045205,4663.297435,-11843.295072,2987.772442
59524.045515,0.000000,-7476.080014,1225.752797
59524.045825,-370.102971,-11843.295072,-76.609550
59524.046134,592.164754,-7179.997637,306.438199
59524.046444,3108.864956,-7772.162391,919.314598
59524.046754,2590.720797,-7179.997637,919.314598
59524.047064,888.247130,-9400.615463,-229.828649
59524.047374,370.102971,-9770.718434,-1915.238745
59524.047684,0.000000,-9548.656652,-2374.896044
59524.047994,-1776.494261,-10732.986159,0.000000
59524.048304,-74.020594,-13027.624579,-76.609550
59524.048614,-3552.988522,-7772.162391,-2451.505594
59524.048924,4663.297435,-10362.883188,3600.648841
59524.049233,2960.823768,-6291.750507,3370.820191
59524.049543,1998.556043,-5773.606348,2298.286494
59524.049853,666.185348,-8438.347739,1532.190996
59524.050163,3108.864956,-7402.059420,1455.581446
59524.050473,1110.308913,-9474.636058,-76.609550
59524.050783,-4219.173869,-6883.915261,-2681.334243
59524.051093,-7105.977043,-9548.656652,-3677.258390
59524.051403,-74.020594,-11843.295072,-1302.362347
59524.051713,-3256.906145,-9992.780217,-2221.676944
59524.052023,740.205942,-10732.986159,2451.505594
59524.052333,-2072.576638,-9548.656652,612.876398
59524.052642,1776.494261,-9104.533087,2451.505594
59524.052952,2072.576638,-9252.574275,2604.724693
59524.053262,-1258.350101,-8438.347739,2451.505594
59524.053572,-3627.009116,-9474.636058,-76.609550
59524.053882,-4811.338623,-8290.306550,-1915.238745
59524.054192,-2368.659014,-4811.338623,-3217.601092
59524.054502,-74.020594,-9696.697840,3677.258390
59524.054812,-74.020594,-7105.977043,1149.143247
59524.055122,-2368.659014,-7772.162391,2451.505594
59524.055432,0.000000,-7179.997637,689.485948
59524.055741,-296.082377,-11029.068536,2298.286494
59524.056051,-2368.659014,-9474.636058,842.705048
59524.056361,-4589.276840,-11029.068536,-306.438199
59524.056671,-74.020594,-10658.965565,-76.609550
59524.056981,2294.638420,-9474.636058,-76.609550
59524.057291,-74.020594,-5477.523971,-383.047749
59524.057601,-2368.659014,-8364.327145,1532.190996
59524.057911,3478.967927,-8882.471304,2221.676944
59524.058221,592.164754,-7179.997637,0.000000
59524.058531,74.020594,-8216.285956,2068.457845
59524.058841,-3552.988522,-9548.656652,0.000000
59524.059150,-4441.235652,-9844.739029,-1149.143247
59524.059460,-74.020594,-9252.574275,-842.705048
59524.059770,1702.473667,-13027.624579,3907.087040
59524.060080,3478.967927,-9474.636058,3600.648841
59524.060390,370.102971,-10066.800811,-76.609550
59524.060700,3552.988522,-9548.656652,3064.381992
59524.061010,2294.638420,-9474.636058,2987.772442
59524.061320,-4145.153275,-4811.338623,0.000000
59524.061630,-4367.215058,-8586.388927,-1302.362347
59524.061940,-2220.617826,-7476.080014,-1991.848295
59524.062249,296.082377,-8882.471304,-229.828649
59524.062559,1036.288319,-8290.306550,1072.533697
59524.062869,888.247130,-9548.656652,1532.190996
59524.063179,4071.132681,-11843.295072,2681.334243
59524.063489,5551.544565,-13027.624579,3600.648841
59524.063799,0.000000,-9548.656652,919.314598
59524.064109,-148.041188,-10362.883188,1915.238745
59524.064419,-4367.215058,-7920.203579,-2834.553343
59524.064729,1702.473667,-8290.306550,-1302.362347
59524.065039,1480.411884,-9030.512492,1455.581446
59524.065349,1850.514855,-6217.729913,2145.067394
59524.065658,370.102971,-8142.265362,842.705048
59524.065968,2664.741391,-5995.668130,1225.752797
59524.066278,3552.988522,-10140.821405,3677.258390
59524.066588,1702.473667,-11843.295072,4213.525239
59524.066898,-5847.626942,-7772.162391,-3524.039291
59524.067208,-2960.823768,-11029.068536,-1685.410096
59524.067518,-74.020594,-11251.130318,-1915.238745
59524.067828,-74.020594,-11251.130318,1455.581446
59524.068138,-74.020594,-9326.594869,1072.533697
59524.068448,962.267725,-9474.636058,1455.581446
59524.068758,3849.070898,-8068.244768,2451.505594
59524.069067,0.000000,-7179.997637,2451.505594
59524.069377,-1184.329507,-7179.997637,2451.505594
59524.069687,-2442.679609,-11029.068536,1991.848295
59524.069997,-2738.761985,-7994.224174,-2528.115143
59524.070307,-2960.823768,-8068.244768,0.000000
59524.070617,-2442.679609,-11843.295072,-76.609550
59524.070927,1110.308913,-8882.471304,1685.410096
59524.071237,2886.803174,-9474.636058,2528.115143
59524.071547,3330.926739,-9326.594869,3294.210641
59524.071857,-1406.391290,-9770.718434,2145.067394
59524.072166,-6513.812290,-8364.327145,0.000000
59524.072476,-4737.318029,-8364.327145,-2451.505594
59524.072786,-1258.350101,-12953.603985,2374.896044
59524.073096,-3701.029710,-6143.709319,-1225.752797
59524.073406,-1036.288319,-9400.615463,2681.334243
59524.073716,2294.638420,-9474.636058,3600.648841
59524.074026,3108.864956,-8290.306550,3370.820191
59524.074336,1702.473667,-8068.244768,3447.429741
59524.074646,-888.247130,-8068.244768,1532.190996
59524.074956,-4663.297435,-9696.697840,-153.219100
59524.075266,-3627.009116,-7476.080014,-4673.182538
59524.075575,-5329.482782,-9548.656652,-2145.067394
59524.075885,-2368.659014,-7179.997637,0.000000
59524.076195,-370.102971,-11843.295072,-76.609550
59524.076505,1776.494261,-7772.162391,1838.629195
59524.076815,7031.956449,-11843.295072,7277.907231
59524.077125,1776.494261,-7179.997637,4443.353888
59524.077435,-2442.679609,-8142.265362,229.828649
59524.077745,-3775.050304,-8956.491898,-536.266849
59524.078055,-1554.432478,-9030.512492,-1378.971896
59524.078365,-370.102971,-8586.388927,-995.924147
59524.078674,-2812.782580,-5551.544565,-1762.019645
59524.078984,-3552.988522,-7772.162391,0.000000
59524.079294,8216.285956,-9474.636058,4060.306139
59524.079604,3182.885551,-9622.677246,2374.896044
59524.079914,1776.494261,-9474.636058,4443.353888
59524.080224,-4737.318029,-10732.986159,-1225.752797
59524.080534,-888.247130,-9696.697840,-1915.238745
59524.080844,-592.164754,-10584.944971,-842.705048
59524.081154,74.020594,-8512.368333,612.876398
59524.081464,1110.308913,-8882.471304,-383.047749
59524.081774,4071.132681,-7105.977043,1149.143247
59524.082083,3552.988522,-5995.668130,306.438199
59524.082393,4145.153275,-9696.697840,5515.887586
59524.082703,-74.020594,-9474.636058,-76.609550
59524.083013,-3552.988522,-9548.656652,0.000000
59524.083323,-1184.329507,-8364.327145,-2145.067394
59524.083633,-518.144159,-10436.903782,383.047749
59524.083943,-444.123565,-8734.430116,306.438199
59524.084253,222.061783,-10140.821405,459.657299
59524.084563,5847.626942,-10658.965565,2374.896044
59524.084873,4663.297435,-10658.965565,3600.648841
59524.085182,222.061783,-5773.606348,229.828649
59524.085492,-3552.988522,-9548.656652,612.876398
59524.085802,-1258.350101,-9474.636058,-689.485948
59524.086112,-3552.988522,-8364.327145,0.000000
59524.086422,-1998.556043,-6735.874072,0.000000
59524.086732,-1258.350101,-9104.533087,766.095498
59524.087042,1554.432478,-9252.574275,1532.190996
59524.087352,3997.112087,-9548.656652,2604.724693
59524.087662,3849.070898,-11843.295072,6052.154434
59524.087972,-370.102971,-10658.965565,2374.896044
59524.088282,-3034.844362,-9474.636058,-1302.362347
59524.088591,-3552.988522,-8364.327145,0.000000
59524.088901,-2442.679609,-10362.883188,-76.609550
59524.089211,-5921.647536,-4811.338623,0.000000
59524.089521,-3034.844362,-9030.512492,229.828649
59524.089831,1258.350101,-7698.141797,1838.629195
59524.090141,2072.576638,-9104.533087,4136.915689
59524.090451,-222.061783,-6291.750507,2757.943793
59524.090761,-2442.679609,-11103.089130,1991.848295
59524.091071,-74.020594,-9178.553681,1149.143247
59524.091381,-1258.350101,-9474.636058,-1302.362347
59524.091690,-4737.318029,-7772.162391,0.000000
59524.092000,-2738.761985,-11251.130318,-76.609550
59524.092310,-3330.926739,-6069.688724,0.000000
59524.092620,3330.926739,-8882.471304,2068.457845
59524.092930,2368.659014,-9400.615463,3370.820191
59524.093240,296.082377,-7476.080014,2298.286494
59524.093550,-2516.700203,-9696.697840,153.219100
59524.093860,-1776.494261,-10140.821405,0.000000
59524.094170,-888.247130,-11621.233289,919.314598
59524.094480,-74.020594,-9474.636058,-76.609550
59524.094790,-2368.659014,-9548.656652,612.876398
59524.095099,5255.462188,-8290.306550,2374.896044
59524.095409,2590.720797,-7328.038826,383.047749
59524.095719,2886.803174,-8290.306550,4060.306139
59524.096029,-1258.350101,-10288.862594,1072.533697
59524.096339,-740.205942,-9548.656652,0.000000
59524.096649,-666.185348,-9770.718434,-1455.581446
59524.096959,-2368.659014,-8364.327145,0.000000
59524.097269,-2368.659014,-9548.656652,0.000000
59524.097579,2294.638420,-10658.965565,-76.609550
59524.097889,2368.659014,-7179.997637,612.876398
59524.098198,3701.029710,-9770.718434,4826.401637
59524.098508,-74.020594,-7105.977043,536.266849
59524.098818,-962.267725,-10362.883188,1149.143247
59524.099128,-740.205942,-8068.244768,-919.314598
59524.099438,-2220.617826,-11769.274478,153.219100
59524.099748,-888.247130,-7179.997637,153.219100
59524.100058,-2072.576638,-8364.327145,0.000000
59524.100368,2368.659014,-5995.668130,0.000000
59524.100678,2664.741391,-11325.150913,3983.696590
59524.100988,2294.638420,-8290.306550,2374.896044
59524.101298,-3256.906145,-8364.327145,1225.752797
59524.101607,-74.020594,-9474.636058,-76.609550
59524.101917,-1554.432478,-10658.965565,-1225.752797
59524.102227,-2442.679609,-10436.903782,229.828649
59524.102537,-1332.370696,-9178.553681,-153.219100
59524.102847,-74.020594,-9178.553681,1532.190996
59524.103157,592.164754,-5995.668130,0.000000
59524.103467,592.164754,-7179.997637,459.657299
59524.103777,0.000000,-7772.162391,3064.381992
59524.104087,-1258.350101,-10658.965565,-76.609550
59524.104397,-2368.659014,-8364.327145,0.000000
59524.104707,-74.020594,-11843.295072,-76.609550
59524.105016,-3108.864956,-8956.491898,0.000000
59524.105326,-3034.844362,-10066.800811,-383.047749
59524.105636,1184.329507,-7550.100608,995.924147
59524.105946,3034.844362,-8438.347739,3064.381992
59524.106256,1406.391290,-6069.688724,1762.019645
59524.106566,-2220.617826,-6883.915261,-76.609550
59524.106876,-3552.988522,-8364.327145,0.000000
59524.107186,-74.020594,-11103.089130,-76.609550
59524.107496,-4145.153275,-9548.656652,0.000000
59524.107806,-1554.432478,-11843.295072,-76.609550
59524.108115,-4737.318029,-10436.903782,0.000000
59524.108425,2294.638420,-9030.512492,1685.410096
59524.108735,3256.906145,-9918.759623,3677.258390
59524.109045,2220.617826,-6513.812290,2987.772442
59524.109355,-666.185348,-8290.306550,-76.609550
59524.109665,-1258.350101,-7105.977043,-1302.362347
59524.109975,-4145.153275,-9548.656652,0.000000
59524.110285,-74.020594,-10658.965565,1608.800546
59524.110595,-4071.132681,-8364.327145,-3294.210641
59524.110905,740.205942,-11029.068536,3064.381992
59524.111215,2442.679609,-8956.491898,1838.629195
59524.111524,2664.741391,-8882.471304,3677.258390
59524.111834,-444.123565,-8364.327145,2068.457845
59524.112144,-1258.350101,-8364.327145,689.485948
59524.112454,-74.020594,-9474.636058,-76.609550
59524.112764,-666.185348,-11843.295072,-76.609550
59524.113074,-4737.318029,-7179.997637,-2145.067394
59524.113384,-1924.535449,-10881.027347,612.876398
59524.113694,2886.803174,-7698.141797,-689.485948
59524.114004,1184.329507,-8364.327145,3064.381992
59524.114314,370.102971,-6587.832884,1225.752797
59524.114623,-2368.659014,-9992.780217,459.657299
59524.114933,-1036.288319,-9252.574275,-612.876398
59524.115243,-814.226536,-10807.006753,0.000000
59524.115553,-74.020594,-10658.965565,1762.019645
59524.115863,-74.020594,-12435.459826,2374.896044
59524.116173,-2220.617826,-6587.832884,-1838.629195
59524.116483,2960.823768,-9548.656652,2757.943793
59524.116793,3182.885551,-7698.141797,3600.648841
59524.117103,0.000000,-5995.668130,1838.629195
59524.117413,-1850.514855,-8290.306550,229.828649
59524.117723,-370.102971,-8068.244768,-536.266849
59524.118032,-1776.494261,-9696.697840,0.000000
59524.118342,-2886.803174,-8882.471304,-842.705048
59524.118652,-1258.350101,-13027.624579,766.095498
59524.118962,7031.956449,-13027.624579,-76.609550
59524.119272,2294.638420,-9770.718434,536.266849
59524.119582,0.000000,-7476.080014,2451.505594
59524.119892,-1258.350101,-9474.636058,-76.609550
59524.120202,-2368.659014,-5995.668130,0.000000
59524.120512,1702.473667,-9474.636058,842.705048
59524.120822,-592.164754,-8586.388927,1302.362347
59524.121131,-2738.761985,-9178.553681,0.000000
59524.121441,-518.144159,-8956.491898,612.876398
59524.121751,3552.988522,-9252.574275,2451.505594
59524.122061,3552.988522,-11325.150913,6128.763984
59524.122371,-74.020594,-7105.977043,-76.609550
59524.122681,-3552.988522,-9548.656652,0.000000
59524.122991,1998.556043,-9474.636058,-76.609550
59524.123301,-2368.659014,-7179.997637,0.000000
59524.123611,-1554.432478,-9178.553681,-229.828649
59524.123920,-2960.823768,-10214.842000,-459.657299
59524.124230,1110.308913,-9326.594869,153.219100
59524.124540,1924.535449,-10436.903782,2374.896044
59524.124850,1184.329507,-7179.997637,3983.696590
59524.125159,-1776.494261,-7179.997637,2451.505594
59524.125469,2294.638420,-9474.636058,1762.019645
59524.125779,0.000000,-7179.997637,0.000000
59524.126089,-74.020594,-9474.636058,-76.609550
59524.126398,-3627.009116,-8142.265362,-2221.676944
59524.126708,-1924.535449,-10066.800811,0.000000
59524.127018,518.144159,-9474.636058,153.219100
59524.127328,222.061783,-9548.656652,1532.190996
59524.127637,-1258.350101,-8290.306550,1149.143247
59524.127947,-4145.153275,-7476.080014,0.000000
59524.128257,1184.329507,-8956.491898,153.219100
59524.128567,1110.308913,-9474.636058,-76.609550
59524.128876,-2368.659014,-8364.327145,1532.190996
59524.129186,-3034.844362,-10066.800811,-76.609550
59524.129496,2294.638420,-8882.471304,1149.143247
59524.129806,1332.370696,-9548.656652,2451.505594
59524.130115,1110.308913,-7994.224174,2911.162892
59524.130425,-2368.659014,-8142.265362,1149.143247
59524.130735,-1184.329507,-7254.018232,0.000000
59524.131045,0.000000,-7550.100608,-1685.410096
59524.131354,-3627.009116,-6069.688724,-1838.629195
59524.131664,-2812.782580,-10732.986159,306.438199
59524.131974,-2738.761985,-10955.047942,-1302.362347
59524.132284,1480.411884,-11325.150913,1838.629195
59524.132593,3182.885551,-13027.624579,2374.896044
59524.132903,-2960.823768,-5995.668130,0.000000
59524.133213,-4441.235652,-11029.068536,383.047749
59524.133523,3256.906145,-6069.688724,383.047749
59524.133832,2812.782580,-9252.574275,2681.334243
59524.134142,1702.473667,-6809.894666,2374.896044
59524.134452,-2442.679609,-8290.306550,-1302.362347
59524.134762,0.000000,-9548.656652,0.000000
59524.135071,2886.803174,-10362.883188,1149.143247
59524.135381,-3330.926739,-8068.244768,76.609550
59524.135691,-592.164754,-9326.594869,1762.019645
59524.136000,-1924.535449,-8734.430116,0.000000
59524.136310,2886.803174,-7772.162391,-76.609550
59524.136620,740.205942,-10584.944971,2068.457845
59524.136930,-1850.514855,-8142.265362,0.000000
59524.137239,-1258.350101,-12731.542202,-76.609550
59524.137549,3478.967927,-9474.636058,-76.609550
59524.137859,0.000000,-9548.656652,1225.752797
59524.138169,962.267725,-7698.141797,3600.648841
59524.138478,-4737.318029,-4811.338623,0.000000
59524.138788,2516.700203,-8734.430116,2298.286494
59524.139098,2220.617826,-9474.636058,1915.238745
59524.139408,148.041188,-8660.409521,2451.505594
59524.139717,-2960.823768,-9844.739029,0.000000
59524.140027,-2220.617826,-10288.862594,-995.924147
59524.140337,2294.638420,-11843.295072,1991.848295
59524.140647,3478.967927,-11251.130318,3600.648841
59524.140956,-2960.823768,-6291.750507,0.000000
59524.141266,-1184.329507,-7476.080014,1225.752797
59524.141576,2294.638420,-8290.306550,-76.609550
59524.141886,592.164754,-9548.656652,2451.505594
59524.142195,-666.185348,-8290.306550,1302.362347
59524.142505,-3330.926739,-9992.780217,0.000000
59524.142815,-814.226536,-9400.615463,-995.924147
59524.143125,-814.226536,-11029.068536,612.876398
59524.143434,-666.185348,-9474.636058,1838.629195
59524.143744,-666.185348,-11843.295072,2374.896044
59524.144054,-1776.494261,-5699.585753,-1378.971896
59524.144364,1628.453072,-10732.986159,3677.258390
59524.144673,2294.638420,-7698.141797,1149.143247
59524.144983,-3552.988522,-9548.656652,0.000000
59524.145293,-666.185348,-8068.244768,459.657299
59524.145603,-1110.308913,-10955.047942,306.438199
59524.145912,296.082377,-7698.141797,1991.848295
59524.146222,-1850.514855,-8956.491898,766.095498
59524.146532,0.000000,-8956.491898,1532.190996
59524.146842,2368.659014,-8956.491898,1991.848295
59524.147151,2294.638420,-10658.965565,2374.896044
59524.147461,-1776.494261,-7179.997637,0.000000
59524.147771,-1258.350101,-13915.871710,2374.896044
59524.148081,0.000000,-8364.327145,-1991.848295
59524.148390,-74.020594,-12953.603985,1762.019645
59524.148700,0.000000,-7476.080014,459.657299
59524.149010,-2812.782580,-10140.821405,76.609550
59524.149320,518.144159,-6513.812290,-229.828649
59524.149629,1480.411884,-8364.327145,612.876398
59524.149939,592.164754,-6587.832884,2451.505594
59524.150249,-74.020594,-11251.130318,1149.143247
59524.150558,-1776.494261,-8364.327145,0.000000
59524.150868,1998.556043,-10362.883188,-689.485948
59524.151178,-2368.659014,-7772.162391,0.000000
59524.151488,-1924.535449,-8290.306550,612.876398
59524.151797,-1702.473667,-9326.594869,383.047749
59524.152107,3182.885551,-7105.977043,689.485948
59524.152417,2072.576638,-9770.718434,2374.896044
59524.152727,0.000000,-5995.668130,76.609550
59524.153036,-4737.318029,-9548.656652,0.000000
59524.153346,1702.473667,-10658.965565,-76.609550
59524.153656,-1110.308913,-10140.821405,0.000000
59524.153966,-74.020594,-9474.636058,2374.896044
59524.154275,-3034.844362,-9474.636058,-1685.410096
59524.154585,740.205942,-7476.080014,919.314598
59524.154895,3182.885551,-8364.327145,2298.286494
59524.155205,1924.535449,-7328.038826,3140.991542
59524.155514,-1480.411884,-9326.594869,1762.019645
59524.155824,-2960.823768,-9104.533087,76.609550
59524.156134,0.000000,-8364.327145,0.000000
59524.156444,0.000000,-11103.089130,3064.381992
59524.156753,-2442.679609,-7179.997637,-2451.505594
59524.157063,-1776.494261,-10288.862594,1685.410096
59524.157373,1998.556043,-8290.306550,-1378.971896
59524.157683,0.000000,-10288.862594,1685.410096
59524.157992,-1258.350101,-7994.224174,1149.143247
59524.158302,-1850.514855,-10288.862594,1072.533697
59524.158612,1702.473667,-8364.327145,2374.896044
59524.158922,222.061783,-10362.883188,1762.019645
59524.159231,-2886.803174,-5995.668130,0.000000
59524.159541,-3256.906145,-10732.986159,0.000000
59524.159851,-74.020594,-7846.182985,-1608.800546
59524.160161,2072.576638,-10288.862594,3064.381992
59524.160470,1110.308913,-9474.636058,1149.143247
59524.160780,-1480.411884,-8956.491898,842.705048
59524.161090,-888.247130,-9770.718434,842.705048
59524.161400,444.123565,-9770.718434,-76.609550
59524.161709,-1628.453072,-9326.594869,2145.067394
59524.162019,-2442.679609,-7105.977043,-76.609550
59524.162329,-1850.514855,-9474.636058,-383.047749
59524.162639,0.000000,-7179.997637,0.000000
59524.162948,2886.803174,-9474.636058,3600.648841
59524.163258,0.000000,-4219.173869,306.438199
59524.163568,888.247130,-10436.903782,2374.896044
59524.163877,1184.329507,-7772.162391,842.705048
59524.164187,0.000000,-10658.965565,1072.533697
59524.164497,-1480.411884,-8734.430116,536.266849
59524.164807,-3923.091493,-10288.862594,0.000000
59524.165116,-74.020594,-10658.965565,1149.143247
59524.165426,2294.638420,-9474.636058,-76.609550
59524.165736,0.000000,-7179.997637,306.438199
59524.166046,1110.308913,-9474.636058,3600.648841
59524.166355,-3552.988522,-8364.327145,0.000000
59524.166665,888.247130,-10066.800811,2068.457845
59524.166975,-1332.370696,-10066.800811,995.924147
59524.167285,-1776.494261,-7846.182985,0.000000
59524.167594,-1554.432478,-9992.780217,229.828649
59524.167904,2072.576638,-7698.141797,0.000000
59524.168214,4071.132681,-9326.594869,3370.820191
59524.168524,3478.967927,-9178.553681,3600.648841
59524.168833,-2368.659014,-8364.327145,153.219100
59524.169143,2294.638420,-12435.459826,3600.648841
59524.169453,-2294.638420,-7624.121203,-1225.752797
59524.169763,-2960.823768,-10510.924376,2298.286494
59524.170072,-3923.091493,-9474.636058,-1302.362347
59524.170382,-2886.803174,-9400.615463,-1762.019645
59524.170692,888.247130,-8660.409521,-306.438199
59524.171002,888.247130,-8660.409521,612.876398
59524.171311,1184.329507,-7772.162391,1225.752797
59524.171621,2146.597232,-12139.377449,3600.648841
59524.171931,2886.803174,-9030.512492,1149.143247
59524.172241,2072.576638,-12213.398043,4903.011187
59524.172550,-1258.350101,-7698.141797,-76.609550
59524.172860,-3552.988522,-9844.739029,1225.752797
59524.173170,740.205942,-7328.038826,-229.828649
59524.173480,518.144159,-8956.491898,1225.752797
59524.173789,222.061783,-7179.997637,1608.800546
59524.174099,-444.123565,-7476.080014,0.000000
59524.174409,592.164754,-8660.409521,0.000000
59524.174719,1184.329507,-10732.986159,1532.190996
59524.175028,-1258.350101,-10658.965565,-76.609550
59524.175338,-4737.318029,-9548.656652,0.000000
59524.175648,-74.020594,-10658.965565,-76.609550
59524.175958,74.020594,-8364.327145,0.000000
59524.176267,2072.576638,-9252.574275,2221.676944
59524.176577,1480.411884,-7550.100608,2221.676944
59524.176887,370.102971,-10584.944971,2068.457845
59524.177197,2146.597232,-8290.306550,1149.143247
59524.177506,-1776.494261,-9548.656652,0.000000
59524.177816,-3552.988522,-7772.162391,306.438199
59524.178126,-2442.679609,-9474.636058,-76.609550
59524.178435,-2368.659014,-5995.668130,0.000000
59524.178745,2294.638420,-10658.965565,3600.648841
59524.179055,-740.205942,-6587.832884,1225.752797
59524.179365,-1184.329507,-9548.656652,919.314598
59524.179674,296.082377,-9770.718434,1149.143247
59524.179984,1480.411884,-9548.656652,1455.581446
59524.180294,-370.102971,-10658.965565,2374.896044
59524.180604,-3404.947333,-7179.997637,-1302.362347
59524.180913,-4737.318029,-8364.327145,0.000000
59524.181223,2072.576638,-8290.306550,1149.143247
59524.181533,0.000000,-6587.832884,0.000000
59524.181843,2664.741391,-9178.553681,3370.820191
59524.182152,-2368.659014,-9548.656652,0.000000
59524.182462,592.164754,-9844.739029,536.266849
59524.182772,-518.144159,-11399.171507,842.705048
59524.183082,-2294.638420,-8364.327145,459.657299
59524.183391,-3627.009116,-10658.965565,-76.609550
59524.183701,-1850.514855,-7698.141797,-689.485948
59524.184011,-1332.370696,-7772.162391,0.000000
59524.184321,888.247130,-8956.491898,4903.011187
59524.184630,-74.020594,-6513.812290,229.828649
59524.184940,1776.494261,-9844.739029,2451.505594
59524.185250,-666.185348,-6143.709319,-1302.362347
59524.185560,-1628.453072,-12361.439231,2145.067394
59524.185869,-148.041188,-5921.647536,76.609550
59524.186179,-3701.029710,-12065.356855,536.266849
59524.186489,-74.020594,-7698.141797,-76.609550
59524.186799,-962.267725,-13027.624579,2374.896044
59524.187108,1110.308913,-5403.503377,76.609550
59524.187418,-1184.329507,-10436.903782,2451.505594
59524.187728,2294.638420,-9474.636058,-76.609550
59524.188038,0.000000,-9548.656652,0.000000
59524.188347,-74.020594,-9178.553681,1762.019645
59524.188657,-1998.556043,-8068.244768,-536.266849
59524.188967,-2368.659014,-8808.450710,0.000000
59524.189277,518.144159,-7179.997637,-459.657299
59524.189586,1628.453072,-11029.068536,3064.381992
59524.189896,1110.308913,-9178.553681,1762.019645
59524.190206,-370.102971,-10658.965565,536.266849
59524.190516,3552.988522,-7772.162391,2451.505594
59524.190825,3478.967927,-10658.965565,2374.896044
59524.191135,-2368.659014,-7179.997637,0.000000
59524.191445,-3034.844362,-10658.965565,-689.485948
59524.191754,-1850.514855,-8808.450710,-1532.190996
59524.192064,-1036.288319,-11029.068536,0.000000
59524.192374,-444.123565,-8364.327145,995.924147
59524.192684,-1184.329507,-9548.656652,1225.752797
59524.192993,4663.297435,-10658.965565,4826.401637
59524.193303,6439.791695,-9474.636058,3600.648841
59524.193613,0.000000,-6587.832884,2451.505594
59524.193923,-2442.679609,-8882.471304,-76.609550
59524.194232,-6809.894666,-6587.832884,-3600.648841
59524.194542,-74.020594,-9474.636058,-76.609550
59524.194852,-740.205942,-10807.006753,842.705048
59524.195162,-1480.411884,-8438.347739,-612.876398
59524.195471,-1406.391290,-11399.171507,229.828649
59524.195781,2368.659014,-7179.997637,612.876398
59524.196091,4293.194464,-10881.027347,4979.620737
59524.196401,-74.020594,-8882.471304,1762.019645
59524.196710,-5329.482782,-9548.656652,0.000000
59524.197020,-74.020594,-11843.295072,-76.609550
59524.197330,-2368.659014,-8956.491898,536.266849
59524.197640,962.267725,-8290.306550,2834.553343
59524.197949,-1554.432478,-7105.977043,229.828649
59524.198259,2516.700203,-7254.018232,2757.943793
59524.198569,4737.318029,-7846.182985,3064.381992
59524.198879,0.000000,-7179.997637,1225.752797
59524.199188,-4737.318029,-7772.162391,0.000000
59524.199498,-4219.173869,-12139.377449,-1302.362347
59524.199808,-1258.350101,-9770.718434,-3140.991542
59524.200118,-2368.659014,-11325.150913,1225.752797
59524.200427,-74.020594,-9474.636058,-76.609550
59524.200737,-888.247130,-11325.150913,1685.410096
59524.201047,3701.029710,-8808.450710,2068.457845
59524.201357,2738.761985,-10436.903782,3753.867940
59524.201666,-370.102971,-7476.080014,1762.019645
59524.201976,-5255.462188,-7031.956449,-1762.019645
59524.202286,-4145.153275,-6587.832884,-2451.505594
59524.202596,0.000000,-9992.780217,1225.752797
59524.202905,-74.020594,-6291.750507,-995.924147
59524.203215,0.000000,-8956.491898,1838.629195
59524.203525,4663.297435,-10658.965565,4826.401637
59524.203835,4737.318029,-9548.656652,3064.381992
59524.204144,1702.473667,-10658.965565,3294.210641
59524.204454,-4367.215058,-9548.656652,-689.485948
59524.204764,-5329.482782,-11177.109724,-1838.629195
59524.205074,-1406.391290,-8290.306550,-1608.800546
59524.205383,-3404.947333,-8364.327145,0.000000
59524.205693,-1776.494261,-5995.668130,306.438199
59524.206003,2886.803174,-11843.295072,4826.401637
59524.206312,4663.297435,-5033.400406,1455.581446
59524.206622,4737.318029,-9548.656652,6128.763984
59524.206932,0.000000,-6291.750507,1225.752797
59524.207242,-4071.132681,-9844.739029,-689.485948
59524.207551,-3256.906145,-9548.656652,-2451.505594
59524.207861,-2442.679609,-11621.233289,-1302.362347
59524.208171,-1258.350101,-9474.636058,-76.609550
59524.208481,-2738.761985,-7328.038826,-1762.019645
59524.208790,592.164754,-8364.327145,1532.190996
59524.209100,5625.565159,-10140.821405,5669.106685
59524.209410,1110.308913,-8734.430116,1762.019645
59524.209720,-3552.988522,-7179.997637,1225.752797
59524.210029,-5181.441594,-9548.656652,-2068.457845
59524.210339,-592.164754,-8734.430116,-1225.752797
59524.210649,-814.226536,-10362.883188,383.047749
59524.210959,-370.102971,-6957.935855,766.095498
59524.211268,1702.473667,-10658.965565,3294.210641
59524.211578,5847.626942,-7105.977043,2068.457845
59524.211888,2368.659014,-8660.409521,2451.505594
59524.212198,888.247130,-10881.027347,4749.792088
59524.212507,-3627.009116,-10362.883188,-1608.800546
59524.212817,-5921.647536,-7772.162391,-2451.505594
59524.213127,-2664.741391,-9548.656652,-1532.190996
59524.213437,-1332.370696,-8364.327145,995.924147
59524.213746,-2220.617826,-6957.935855,-459.657299
59524.214056,1110.308913,-10214.842000,3140.991542
59524.214366,8512.368333,-8142.265362,6281.983084
59524.214676,5847.626942,-10658.965565,6052.154434
59524.214985,0.000000,-4811.338623,76.609550
59524.215295,-4737.318029,-9548.656652,0.000000
59524.215605,-74.020594,-9474.636058,-1915.238745
59524.215915,-5921.647536,-9548.656652,-2451.505594
59524.216224,-3627.009116,-8142.265362,-1608.800546
59524.216534,-2960.823768,-10807.006753,-842.705048
59524.216844,3034.844362,-8438.347739,2374.896044
59524.217154,3552.988522,-9844.739029,3447.429741
59524.217463,592.164754,-8512.368333,4826.401637
59524.217773,-1258.350101,-7994.224174,1608.800546
59524.218083,-1258.350101,-8882.471304,-689.485948
59524.218393,-3552.988522,-5995.668130,-2451.505594
59524.218702,-74.020594,-12435.459826,2374.896044
59524.219012,-5921.647536,-4811.338623,-3677.258390
59524.219322,2294.638420,-10066.800811,1762.019645
59524.219631,5107.421000,-7328.038826,2068.457845
59524.219941,1702.473667,-10807.006753,2987.772442
59524.220251,-1110.308913,-8660.409521,383.047749
59524.220561,-4737.318029,-11325.150913,0.000000
59524.220870,-74.020594,-11251.130318,-76.609550
59524.221180,-1554.432478,-11843.295072,-76.609550
59524.221490,-2368.659014,-7179.997637,1838.629195
59524.221800,-74.020594,-9474.636058,-76.609550
59524.222109,666.185348,-5107.421000,229.828649
59524.222419,5255.462188,-8290.306550,3600.648841
59524.222729,1036.288319,-7846.182985,3677.258390
59524.223039,-888.247130,-8290.306550,766.095498
59524.223348,-1702.473667,-10066.800811,-612.876398
59524.223658,-3552.988522,-9548.656652,0.000000
59524.223968,-3256.906145,-11029.068536,0.000000
59524.224278,-2146.597232,-9474.636058,-76.609550
59524.224587,-3478.967927,-8364.327145,-2451.505594
59524.224897,4737.318029,-10436.903782,2834.553343
59524.225207,3478.967927,-9474.636058,3600.648841
59524.225517,2220.617826,-9178.553681,2987.772442
59524.225826,-1258.350101,-9326.594869,842.705048
59524.226136,0.000000,-7476.080014,-306.438199
59524.226446,-1036.288319,-9030.512492,306.438199
59524.226755,-4589.276840,-4811.338623,0.000000
59524.227065,-2368.659014,-9548.656652,306.438199
59524.227375,3627.009116,-9474.636058,3600.648841
59524.227684,2294.638420,-7179.997637,383.047749
59524.227994,296.082377,-7476.080014,1838.629195
59524.228304,-74.020594,-11251.130318,1762.019645
59524.228613,-74.020594,-11843.295072,-76.609550
59524.228923,-2368.659014,-9548.656652,0.000000
59524.229233,-1258.350101,-10658.965565,1149.143247
59524.229542,-1628.453072,-7402.059420,-76.609550
59524.229852,0.000000,-8364.327145,612.876398
59524.230162,4737.318029,-7476.080014,3677.258390
59524.230471,4367.215058,-9474.636058,4826.401637
59524.230781,296.082377,-6587.832884,3677.258390
59524.231091,-1850.514855,-8290.306550,-76.609550
59524.231400,-1332.370696,-8586.388927,-689.485948
59524.231710,-1998.556043,-11251.130318,-76.609550
59524.232020,-3701.029710,-9992.780217,-689.485948
59524.232329,-3034.844362,-10584.944971,-766.095498
59524.232639,518.144159,-10066.800811,842.705048
59524.232949,0.000000,-7179.997637,0.000000
59524.233258,592.164754,-7476.080014,2757.943793
59524.233568,1702.473667,-8142.265362,4519.963438
59524.233878,-74.020594,-8290.306550,229.828649
59524.234187,296.082377,-8364.327145,1225.752797
59524.234497,-3034.844362,-11843.295072,-76.609550
59524.234807,-2664.741391,-8364.327145,153.219100
59524.235116,-1406.391290,-9770.718434,612.876398
59524.235426,1998.556043,-7920.203579,1762.019645
59524.235736,1036.288319,-9622.677246,2374.896044
59524.236045,-1554.432478,-6587.832884,0.000000
59524.236355,-4145.153275,-9548.656652,0.000000
59524.236665,-888.247130,-11547.212695,2221.676944
59524.236974,-4145.153275,-8068.244768,-2451.505594
59524.237284,-370.102971,-10658.965565,1762.019645
59524.237594,-74.020594,-9474.636058,-76.609550
59524.237903,1776.494261,-8364.327145,2451.505594
59524.238213,4071.132681,-7328.038826,2911.162892
59524.238523,3330.926739,-8586.388927,3524.039291
59524.238832,1332.370696,-7920.203579,2221.676944
59524.239142,-370.102971,-9770.718434,-1302.362347
59524.239452,-2664.741391,-7179.997637,-2451.505594
59524.239761,-3849.070898,-10732.986159,612.876398
59524.240071,-4219.173869,-7994.224174,-3753.867940
59524.240381,-4737.318029,-11029.068536,0.000000
59524.240690,4515.256246,-11843.295072,4213.525239
59524.241000,2368.659014,-8660.409521,2451.505594
59524.241310,2294.638420,-7105.977043,3447.429741
59524.241619,-444.123565,-8438.347739,1455.581446
59524.241929,370.102971,-7772.162391,1072.533697
59524.242239,1110.308913,-8290.306550,-76.609550
59524.242548,-1332.370696,-7179.997637,-383.047749
59524.242858,-2368.659014,-7476.080014,0.000000
59524.243168,3478.967927,-11843.295072,2374.896044
59524.243477,1184.329507,-7179.997637,919.314598
59524.243787,1776.494261,-10436.903782,5209.449386
59524.244097,-2294.638420,-7550.100608,0.000000
59524.244406,-2442.679609,-11399.171507,-306.438199
59524.244716,-814.226536,-8956.491898,-1072.533697
59524.245026,-2960.823768,-10732.986159,-229.828649
59524.245335,-666.185348,-9474.636058,-76.609550
59524.245645,-2442.679609,-10658.965565,-689.485948
59524.245955,1184.329507,-7179.997637,0.000000
59524.246264,6439.791695,-11843.295072,6052.154434
59524.246574,1480.411884,-5773.606348,2451.505594
59524.246884,0.000000,-5995.668130,2451.505594
59524.247193,-3108.864956,-9622.677246,0.000000
59524.247503,814.226536,-8956.491898,0.000000
59524.247813,-2294.638420,-10955.047942,536.266849
59524.248122,-3256.906145,-9474.636058,-842.705048
59524.248432,-1406.391290,-12435.459826,-76.609550
59524.248742,2294.638420,-10510.924376,1149.143247
59524.249051,1998.556043,-5995.668130,76.609550
59524.249361,592.164754,-8364.327145,3677.258390
59524.249671,-370.102971,-8882.471304,-229.828649
59524.249980,-3552.988522,-5995.668130,0.000000
59524.250290,-1554.432478,-9622.677246,-536.266849
59524.250600,-3256.906145,-8808.450710,-1149.143247
59524.250909,-4145.153275,-9252.574275,-919.314598
59524.251219,1110.308913,-9252.574275,0.000000
59524.251529,4441.235652,-11547.212695,4519.963438
59524.251838,4663.297435,-9474.636058,4519.963438
59524.252148,370.102971,-5995.668130,0.000000
59524.252458,0.000000,-8660.409521,1225.752797
59524.252767,-74.020594,-9474.636058,-76.609550
59524.253077,-4737.318029,-5995.668130,0.000000
59524.253387,-2442.679609,-7698.141797,-995.924147
59524.253696,-2368.659014,-9696.697840,-459.657299
59524.254006,2220.617826,-7994.224174,689.485948
59524.254316,2220.617826,-10807.006753,3064.381992
59524.254625,1184.329507,-8956.491898,3677.258390
59524.254935,-74.020594,-11547.212695,1608.800546
59524.255245,814.226536,-9474.636058,-1302.362347
59524.255554,-2368.659014,-9548.656652,612.876398
59524.255864,-74.020594,-8290.306550,-76.609550
59524.256174,-3701.029710,-7179.997637,-3370.820191
59524.256483,2294.638420,-9474.636058,1149.143247
59524.256793,2072.576638,-8808.450710,1685.410096
59524.257103,962.267725,-9992.780217,2834.553343
59524.257412,148.041188,-7476.080014,1455.581446
59524.257722,0.000000,-8364.327145,2451.505594
59524.258032,2368.659014,-8068.244768,1838.629195
59524.258341,-74.020594,-11251.130318,-76.609550
59524.258651,-4737.318029,-6291.750507,0.000000
59524.258961,-666.185348,-13619.789333,-76.609550
59524.259270,1110.308913,-7994.224174,-689.485948
59524.259580,1702.473667,-11843.295072,3294.210641
59524.259890,222.061783,-6809.894666,1149.143247
59524.260199,-1110.308913,-9178.553681,383.047749
59524.260509,1258.350101,-8068.244768,689.485948
59524.260819,-2368.659014,-8364.327145,0.000000
59524.261128,-2960.823768,-8364.327145,306.438199
59524.261438,-1258.350101,-12731.542202,1762.019645
59524.261748,-1258.350101,-8438.347739,-995.924147
59524.262057,3404.947333,-10362.883188,3294.210641
59524.262367,2294.638420,-9474.636058,3294.210641
59524.262677,296.082377,-8216.285956,1685.410096
59524.262986,-370.102971,-9918.759623,1302.362347
59524.263296,1702.473667,-8512.368333,1225.752797
59524.263606,-1110.308913,-10214.842000,1378.971896
59524.263915,-5329.482782,-5995.668130,-2451.505594
59524.264225,-4737.318029,-10732.986159,-1838.629195
59524.264535,4071.132681,-11843.295072,3600.648841
59524.264844,518.144159,-8364.327145,995.924147
59524.265154,592.164754,-6587.832884,2451.505594
59524.265464,-74.020594,-10658.965565,2374.896044
59524.265773,148.041188,-8364.327145,612.876398
59524.266083,-74.020594,-10584.944971,766.095498
59524.266393,-2072.576638,-8660.409521,459.657299
59524.266702,-3034.844362,-9548.656652,-766.095498
59524.267012,-1258.350101,-8660.409521,-1685.410096
59524.267322,592.164754,-7772.162391,612.876398
59524.267631,1184.329507,-10436.903782,5515.887586
59524.267941,-74.020594,-7105.977043,-76.609550
59524.268251,-1776.494261,-7772.162391,612.876398
59524.268560,4367.215058,-9474.636058,3600.648841
59524.268870,-1480.411884,-8956.491898,1838.629195
59524.269180,-1554.432478,-7698.141797,-76.609550
59524.269489,-2220.617826,-10066.800811,-459.657299
59524.269799,888.247130,-9474.636058,306.438199
59524.270109,-74.020594,-9474.636058,76.609550
59524.270418,-1554.432478,-7179.997637,306.438199
59524.270728,1184.329507,-10584.944971,3830.477490
59524.271038,4071.132681,-8290.306550,1149.143247
59524.271347,2368.659014,-8956.491898,2451.505594
59524.271657,-2146.597232,-8068.244768,229.828649
59524.271967,-3627.009116,-10362.883188,-1608.800546
59524.272276,-2368.659014,-10732.986159,-766.095498
59524.272586,592.164754,-9252.574275,919.314598
59524.272896,518.144159,-9104.533087,2298.286494
59524.273205,592.164754,-8290.306550,2911.162892
59524.273515,-74.020594,-10066.800811,1762.019645
59524.273825,0.000000,-4811.338623,0.000000
59524.274134,2294.638420,-11695.253884,4213.525239
59524.274444,-1554.432478,-6365.771101,-1072.533697
59524.274754,-1258.350101,-12879.583391,-76.609550
59524.275063,-888.247130,-9252.574275,-612.876398
59524.275373,0.000000,-10955.047942,1455.581446
59524.275683,0.000000,-8068.244768,1149.143247
59524.275992,-2294.638420,-8808.450710,-689.485948
59524.276302,-962.267725,-8660.409521,-1378.971896
59524.276612,1184.329507,-9548.656652,0.000000
59524.276921,2886.803174,-11843.295072,4826.401637
59524.277231,-2812.782580,-5995.668130,0.000000
59524.277541,-2590.720797,-10955.047942,1762.019645
59524.277850,0.000000,-8364.327145,842.705048
59524.278160,1998.556043,-8586.388927,3600.648841
59524.278470,-1628.453072,-6587.832884,1225.752797
59524.278779,-3478.967927,-8142.265362,-919.314598
59524.279089,-518.144159,-8882.471304,76.609550
59524.279399,3182.885551,-9474.636058,3140.991542
59524.279708,-74.020594,-9474.636058,2374.896044
59524.280018,-5329.482782,-7179.997637,-2451.505594
59524.280328,592.164754,-10955.047942,766.095498
59524.280637,1110.308913,-9770.718434,-76.609550
59524.280947,518.144159,-9030.512492,0.000000
59524.281257,-3256.906145,-8364.327145,0.000000
59524.281566,222.061783,-9696.697840,383.047749
59524.281876,3701.029710,-8364.327145,1762.019645
59524.282186,1776.494261,-7920.203579,4213.525239
59524.282495,-1776.494261,-6735.874072,459.657299
59524.282805,-2368.659014,-7772.162391,0.000000
59524.283115,3478.967927,-11251.130318,2068.457845
59524.283424,-1776.494261,-9844.739029,1225.752797
59524.283734,-666.185348,-9474.636058,-76.609550
59524.284044,-3552.988522,-10362.883188,1455.581446
59524.284353,1924.535449,-7994.224174,536.266849
59524.284663,1110.308913,-9400.615463,2221.676944
59524.284973,-518.144159,-7476.080014,1302.362347
59524.285282,-1924.535449,-9548.656652,-1532.190996
59524.285592,1110.308913,-10658.965565,-76.609550
59524.285902,2294.638420,-12731.542202,-76.609550
59524.286211,-3552.988522,-7179.997637,0.000000
59524.286521,-1850.514855,-9474.636058,1149.143247
59524.286831,-1258.350101,-7550.100608,-1532.190996
59524.287140,592.164754,-5403.503377,0.000000
59524.287450,1480.411884,-9844.739029,2528.115143
59524.287760,740.205942,-7031.956449,1532.190996
59524.288069,-888.247130,-11473.192101,842.705048
59524.288379,2294.638420,-10362.883188,1762.019645
59524.288689,-2220.617826,-11917.315666,229.828649
59524.288998,-3552.988522,-8364.327145,0.000000
59524.289308,-1554.432478,-12435.459826,-76.609550
59524.289618,0.000000,-6587.832884,0.000000
59524.289927,2886.803174,-11843.295072,3600.648841
59524.290237,1702.473667,-8882.471304,3294.210641
59524.290547,-962.267725,-9548.656652,612.876398
59524.290856,1480.411884,-8364.327145,1838.629195
59524.291166,1332.370696,-8734.430116,1072.533697
59524.291476,-3404.947333,-7772.162391,0.000000
59524.291785,-1850.514855,-9178.553681,-76.609550
59524.292095,-1258.350101,-9474.636058,-689.485948
59524.292405,0.000000,-7179.997637,0.000000
59524.292714,296.082377,-11103.089130,3600.648841
59524.293024,-1702.473667,-7179.997637,1072.533697
59524.293334,-2368.659014,-10140.821405,919.314598
59524.293643,1480.411884,-8290.306550,842.705048
59524.293953,-1628.453072,-10807.006753,1302.362347
59524.294263,-2368.659014,-6883.915261,-306.438199
59524.294572,-1258.350101,-10066.800811,-76.609550
59524.294882,296.082377,-6291.750507,1225.752797
59524.295192,3478.967927,-9474.636058,2987.772442
59524.295501,74.020594,-5995.668130,919.314598
59524.295811,1850.514855,-11843.295072,3600.648841
59524.296121,0.000000,-7179.997637,0.000000
59524.296430,-74.020594,-9104.533087,-229.828649
59524.296740,-2664.741391,-11473.192101,0.000000
59524.297050,-2442.679609,-9770.718434,-1149.143247
59524.297359,-1406.391290,-11695.253884,229.828649
59524.297669,3923.091493,-9474.636058,2987.772442
59524.297979,962.267725,-8438.347739,1762.019645
59524.298288,0.000000,-5403.503377,1225.752797
59524.298598,1554.432478,-10658.965565,2374.896044
59524.298908,0.000000,-7179.997637,1838.629195
59524.299217,-74.020594,-10658.965565,-76.609550
59524.299527,-1850.514855,-6587.832884,-995.924147
59524.299837,-2220.617826,-10510.924376,-76.609550
59524.300146,-370.102971,-8512.368333,76.609550
59524.300456,222.061783,-9178.553681,689.485948
59524.300766,296.082377,-7772.162391,2757.943793
59524.301075,-74.020594,-10066.800811,-76.609550
59524.301385,0.000000,-9178.553681,76.609550
59524.301695,2590.720797,-10288.862594,4213.525239
59524.302004,-3404.947333,-7772.162391,0.000000
59524.302314,-74.020594,-11843.295072,-76.609550
59524.302623,-3849.070898,-9548.656652,-842.705048
59524.302933,592.164754,-7698.141797,-383.047749
59524.303243,-222.061783,-10288.862594,2145.067394
59524.303552,1110.308913,-6957.935855,1608.800546
59524.303862,1110.308913,-10066.800811,0.000000
59524.304172,2368.659014,-7179.997637,1838.629195
59524.304481,1702.473667,-11843.295072,3294.210641
59524.304791,-2146.597232,-8364.327145,0.000000
59524.305101,-74.020594,-11843.295072,-76.609550
59524.305410,-4737.318029,-5403.503377,0.000000
59524.305720,1110.308913,-8290.306550,1149.143247
59524.306030,148.041188,-7994.224174,2145.067394
59524.306339,888.247130,-7105.977043,612.876398
59524.306649,0.000000,-10362.883188,1072.533697
59524.306959,0.000000,-9474.636058,1685.410096
59524.307268,-3034.844362,-12435.459826,-76.609550
59524.307578,-4737.318029,-7772.162391,-2987.772442
59524.307888,-4589.276840,-11325.150913,-153.219100
59524.308197,-1850.514855,-8882.471304,-1302.362347
59524.308507,4737.318029,-7105.977043,4213.525239
59524.308817,3552.988522,-6587.832884,5439.278036
59524.309126,2294.638420,-8290.306550,3140.991542
59524.309436,592.164754,-9178.553681,2451.505594
59524.309746,1258.350101,-9622.677246,2068.457845
59524.310055,-2294.638420,-6143.709319,0.000000
59524.310365,-5625.565159,-9696.697840,-1225.752797
59524.310675,-2442.679609,-10362.883188,-1915.238745
59524.310984,-2368.659014,-7772.162391,0.000000
59524.311294,4071.132681,-11843.295072,3294.210641
59524.311604,-1702.473667,-7328.038826,1302.362347
59524.311913,-1850.514855,-9400.615463,0.000000
59524.312223,2072.576638,-9918.759623,919.314598
59524.312533,222.061783,-10881.027347,2681.334243
59524.312842,-2072.576638,-7550.100608,766.095498
59524.313152,-666.185348,-11843.295072,-76.609550
59524.313462,740.205942,-6291.750507,0.000000
59524.313771,666.185348,-9844.739029,1991.848295
59524.314081,370.102971,-6883.915261,1685.410096
59524.314391,-444.123565,-9918.759623,1225.752797
59524.314700,1184.329507,-7772.162391,1225.752797
59524.315010,592.164754,-10214.842000,1838.629195
59524.315320,-666.185348,-9474.636058,-76.609550
59524.315629,-5921.647536,-7179.997637,-2451.505594
59524.315939,-1776.494261,-11843.295072,-383.047749
59524.316249,1628.453072,-10362.883188,-76.609550
59524.316558,-74.020594,-10510.924376,2068.457845
59524.316868,74.020594,-5699.585753,1225.752797
59524.317178,4071.132681,-11843.295072,3600.648841
59524.317487,2960.823768,-5995.668130,2451.505594
59524.317797,3478.967927,-11103.089130,4213.525239
59524.318107,-1332.370696,-6883.915261,383.047749
59524.318416,-4811.338623,-9918.759623,-1915.238745
59524.318726,-3034.844362,-9252.574275,-2068.457845
59524.319036,-666.185348,-11843.295072,-76.609550
59524.319345,-1924.535449,-7179.997637,0.000000
59524.319655,-74.020594,-9474.636058,842.705048
59524.319965,1480.411884,-9622.677246,1915.238745
59524.320274,3330.926739,-8438.347739,2451.505594
59524.320584,518.144159,-9548.656652,2757.943793
59524.320894,-1258.350101,-7105.977043,-76.609550
59524.321203,-3997.112087,-8364.327145,-2068.457845
59524.321513,0.000000,-6291.750507,0.000000
59524.321823,-74.020594,-11843.295072,2374.896044
59524.322132,0.000000,-5403.503377,306.438199
59524.322442,296.082377,-8364.327145,1225.752797
59524.322752,4589.276840,-7698.141797,3217.601092
59524.323061,740.205942,-10955.047942,1915.238745
59524.323371,-2664.741391,-8734.430116,0.000000
59524.323681,-5477.523971,-11547.212695,-1915.238745
59524.323990,-666.185348,-10658.965565,-76.609550
59524.324300,-1850.514855,-8216.285956,-2221.676944
59524.324610,740.205942,-8956.491898,3370.820191
59524.324919,-74.020594,-7105.977043,995.924147
59524.325229,2368.659014,-8364.327145,3677.258390
59524.325539,4219.173869,-7105.977043,1225.752797
59524.325848,0.000000,-9252.574275,2757.943793
59524.326158,-2738.761985,-7031.956449,-383.047749
59524.326467,-4811.338623,-11103.089130,-1378.971896
59524.326777,-1258.350101,-8512.368333,-1532.190996
59524.327086,-1258.350101,-12731.542202,2374.896044
59524.327396,-666.185348,-7105.977043,-1302.362347
59524.327706,0.000000,-11917.315666,1838.629195
59524.328015,2294.638420,-8290.306550,383.047749
59524.328325,0.000000,-10732.986159,1532.190996
59524.328634,-74.020594,-7698.141797,0.000000
59524.328944,-3108.864956,-9400.615463,-3677.258390
59524.329253,-1406.391290,-7402.059420,-383.047749
59524.329563,-666.185348,-9474.636058,229.828649
59524.329873,222.061783,-8290.306550,2374.896044
59524.330182,444.123565,-9252.574275,3217.601092
59524.330492,3478.967927,-9474.636058,3600.648841
59524.330801,1480.411884,-5403.503377,1225.752797
59524.331111,2368.659014,-11547.212695,4749.792088
59524.331420,-1258.350101,-8142.265362,-689.485948
59524.331730,-4811.338623,-12583.501014,-3753.867940
59524.332039,-2368.659014,-9252.574275,-3370.820191
59524.332349,-3108.864956,-12509.480420,-383.047749
59524.332659,-1628.453072,-7624.121203,0.000000
59524.332968,-592.164754,-10658.965565,3294.210641
59524.333278,5033.400406,-6883.915261,4290.134789
59524.333587,7031.956449,-11843.295072,7277.907231
59524.333897,444.123565,-4811.338623,2145.067394
59524.334206,-2516.700203,-9252.574275,612.876398
59524.334516,-1850.514855,-9992.780217,-1302.362347
59524.334826,1480.411884,-8882.471304,-76.609550
59524.335135,0.000000,-8956.491898,1302.362347
59524.335445,148.041188,-7179.997637,459.657299
59524.335754,962.267725,-10658.965565,1378.971896
59524.336064,4145.153275,-8882.471304,2451.505594
59524.336373,0.000000,-11029.068536,3064.381992
59524.336683,-3256.906145,-8364.327145,612.876398
59524.336993,-3627.009116,-11843.295072,-1915.238745
59524.337302,-4145.153275,-8364.327145,-2451.505594
59524.337612,-888.247130,-11621.233289,1225.752797
59524.337921,1554.432478,-7031.956449,3600.648841
59524.338231,74.020594,-8586.388927,2068.457845
59524.338540,5847.626942,-5847.626942,3983.696590
59524.338850,5699.585753,-7698.141797,4826.401637
59524.339160,1110.308913,-7031.956449,3064.381992
59524.339469,-5329.482782,-7772.162391,-2145.067394
59524.339779,-5921.647536,-9548.656652,-2451.505594
59524.340088,-1258.350101,-13027.624579,-1302.362347
59524.340398,-5921.647536,-9548.656652,-2145.067394
59524.340707,-2590.720797,-9474.636058,-459.657299
59524.341017,148.041188,-11547.212695,2374.896044
59524.341326,3478.967927,-8290.306550,2145.067394
59524.341636,1480.411884,-10436.903782,4060.306139
59524.341946,-814.226536,-6069.688724,1608.800546
59524.342255,-2960.823768,-9622.677246,0.000000
59524.342565,0.000000,-5403.503377,-2145.067394
59524.342874,-4737.318029,-9548.656652,0.000000
59524.343184,-74.020594,-9474.636058,1762.019645
59524.343493,-3182.885551,-8068.244768,-1378.971896
59524.343803,2664.741391,-9548.656652,2987.772442
59524.344113,3108.864956,-11251.130318,4366.744339
59524.344422,518.144159,-9696.697840,2604.724693
59524.344732,-3923.091493,-8364.327145,-612.876398
59524.345041,-3923.091493,-10807.006753,-1455.581446
59524.345351,-1554.432478,-8956.491898,-2451.505594
59524.345660,-2886.803174,-9622.677246,-1838.629195
59524.345970,-2368.659014,-4811.338623,0.000000
59524.346280,2294.638420,-11843.295072,3600.648841
59524.346589,5255.462188,-6291.750507,2987.772442
59524.346899,3552.988522,-8956.491898,4903.011187
59524.347208,1184.329507,-5847.626942,3064.381992
59524.347518,-3034.844362,-10066.800811,-766.095498
59524.347827,-2220.617826,-8660.409521,-1685.410096
59524.348137,-2738.761985,-11399.171507,-1762.019645
59524.348447,-3034.844362,-8956.491898,-1915.238745
59524.348756,-1258.350101,-10066.800811,-689.485948
59524.349066,2886.803174,-9474.636058,842.705048
59524.349375,4737.318029,-7179.997637,3677.258390
59524.349685,4663.297435,-9178.553681,6665.030833
59524.349994,-74.020594,-6069.688724,2374.896044
59524.350304,-2664.741391,-8956.491898,612.876398
59524.350613,-370.102971,-8808.450710,-995.924147
59524.350923,-3034.844362,-11547.212695,0.000000
59524.351233,-2812.782580,-8438.347739,-766.095498
59524.351542,-1554.432478,-11251.130318,-76.609550
59524.351852,4663.297435,-7994.224174,2374.896044
59524.352161,370.102971,-7846.182985,1149.143247
59524.352471,0.000000,-5403.503377,2451.505594
59524.352780,-74.020594,-11251.130318,3600.648841
59524.353090,-74.020594,-8882.471304,-76.609550
59524.353400,-3256.906145,-9548.656652,0.000000
59524.353709,-3182.885551,-9474.636058,-153.219100
59524.354019,-2072.576638,-8808.450710,-306.438199
59524.354328,2146.597232,-8956.491898,1532.190996
59524.354638,4663.297435,-8290.306550,3600.648841
59524.354947,3478.967927,-9474.636058,3600.648841
59524.355257,-74.020594,-6809.894666,-689.485948
59524.355567,-4737.318029,-10140.821405,0.000000
59524.355876,-666.185348,-10658.965565,-689.485948
59524.356186,-5403.503377,-11547.212695,-919.314598
59524.356495,-4145.153275,-5403.503377,-1838.629195
59524.356805,-888.247130,-11103.089130,1532.190996
59524.357114,4663.297435,-6513.812290,3140.991542
59524.357424,4145.153275,-8882.471304,4903.011187
59524.357734,2294.638420,-7105.977043,4826.401637
59524.358043,-370.102971,-10658.965565,2374.896044
59524.358353,-3034.844362,-8586.388927,-2528.115143
59524.358662,-5921.647536,-10140.821405,-1838.629195
59524.358972,-962.267725,-10510.924376,-76.609550
59524.359281,-2368.659014,-8660.409521,0.000000
59524.359591,0.000000,-8364.327145,0.000000
59524.359900,2368.659014,-8068.244768,1532.190996
59524.360210,2294.638420,-9474.636058,3370.820191
59524.360520,888.247130,-6365.771101,1838.629195
59524.360829,-1554.432478,-11843.295072,1608.800546
59524.361139,-444.123565,-9104.533087,-2451.505594
59524.361448,-1702.473667,-13915.871710,1149.143247
59524.361758,-1258.350101,-7105.977043,-1302.362347
59524.362067,-1776.494261,-11029.068536,1991.848295
59524.362377,2294.638420,-5921.647536,919.314598
59524.362687,2294.638420,-8142.265362,2374.896044
59524.362996,1776.494261,-7179.997637,3983.696590
59524.363306,-814.226536,-8808.450710,612.876398
59524.363615,-1998.556043,-10066.800811,-76.609550
59524.363925,-888.247130,-10140.821405,-1072.533697
59524.364234,-3256.906145,-12805.562797,0.000000
59524.364544,-74.020594,-9474.636058,-76.609550
59524.364854,-2368.659014,-10140.821405,612.876398
59524.365163,6439.791695,-7698.141797,4213.525239
59524.365473,3330.926739,-8660.409521,2681.334243
59524.365782,1702.473667,-4737.318029,2068.457845
59524.366092,-2590.720797,-10288.862594,0.000000
59524.366401,-1258.350101,-8068.244768,-1225.752797
59524.366711,-3923.091493,-12509.480420,-1149.143247
59524.367021,-2664.741391,-10140.821405,0.000000
59524.367330,-2368.659014,-10732.986159,0.000000
59524.367640,4145.153275,-10066.800811,3600.648841
59524.367949,2294.638420,-7402.059420,1762.019645
59524.368259,888.247130,-7179.997637,3677.258390
59524.368568,-74.020594,-7550.100608,1149.143247
59524.368878,-74.020594,-9178.553681,1455.581446
59524.369187,-1850.514855,-8364.327145,-766.095498
59524.369497,-3330.926739,-9992.780217,0.000000
59524.369807,-2664.741391,-7920.203579,-995.924147
59524.370116,-1776.494261,-10140.821405,0.000000
59524.370426,2664.741391,-5107.421000,306.438199
59524.370735,2368.659014,-9548.656652,4290.134789
59524.371045,3478.967927,-7105.977043,2374.896044
59524.371354,-3034.844362,-9548.656652,-2451.505594
59524.371664,-888.247130,-9030.512492,-842.705048
59524.371974,-1406.391290,-13619.789333,-229.828649
59524.372283,-3627.009116,-10214.842000,-1302.362347
59524.372593,-3552.988522,-10658.965565,-689.485948
59524.372902,1480.411884,-8438.347739,1991.848295
59524.373212,3552.988522,-5403.503377,2604.724693
59524.373521,3552.988522,-3627.009116,3600.648841
59524.373831,1776.494261,-5477.523971,3677.258390
59524.374141,-74.020594,-10658.965565,-76.609550
59524.374450,-1776.494261,-7772.162391,-3677.258390
59524.374760,-3182.885551,-14211.954086,-76.609550
59524.375069,-3701.029710,-10658.965565,-766.095498
59524.375379,-3330.926739,-13323.706956,-842.705048
59524.375688,3701.029710,-7550.100608,1762.019645
59524.375998,3849.070898,-9622.677246,3677.258390
59524.376308,444.123565,-4811.338623,766.095498
59524.376617,-2442.679609,-10436.903782,1149.143247
59524.376927,-1480.411884,-6587.832884,-2374.896044
59524.377236,-1776.494261,-11325.150913,306.438199
59524.377546,-2442.679609,-11251.130318,-76.609550
59524.377855,-5107.421000,-10658.965565,-842.705048
59524.378165,-1776.494261,-10140.821405,1838.629195
59524.378474,1332.370696,-8586.388927,2528.115143
59524.378784,-1480.411884,-9104.533087,3677.258390
59524.379094,-3923.091493,-6735.874072,1149.143247
59524.379403,-5403.503377,-10362.883188,842.705048
59524.379713,-3627.009116,-8882.471304,-76.609550
59524.380022,-8216.285956,-9548.656652,0.000000
59524.380332,-7698.141797,-5995.668130,0.000000
59524.380641,-5995.668130,-11843.295072,-76.609550
59524.380951,-1850.514855,-7476.080014,1532.190996
59524.381261,-2960.823768,-8956.491898,2451.505594
59524.381570,-2886.803174,-7846.182985,2604.724693
59524.381880,-6661.853478,-8364.327145,0.000000
59524.382189,-6883.915261,-10510.924376,-536.266849
59524.382499,-4811.338623,-8882.471304,-689.485948
59524.382808,-7772.162391,-11325.150913,1225.752797
59524.383118,-7476.080014,-7698.141797,-1608.800546
59524.383428,-9474.636058,-11621.233289,1225.752797
59524.383737,-1554.432478,-11843.295072,4826.401637
59524.384047,-518.144159,-7920.203579,6128.763984
59524.384356,-2368.659014,-3923.091493,3983.696590
59524.384666,-3256.906145,-5477.523971,1915.238745
59524.384975,-5773.606348,-7105.977043,383.047749
59524.385285,-4737.318029,-8364.327145,-612.876398
59524.385595,-4811.338623,-10658.965565,-76.609550
59524.385904,-7550.100608,-9548.656652,-2145.067394
59524.386214,-7179.997637,-12435.459826,-3140.991542
59524.386523,-9474.636058,-11917.315666,-2451.505594
59524.386833,-3627.009116,-14211.954086,2374.896044
59524.387142,-2960.823768,-9548.656652,3370.820191
59524.387452,-2368.659014,-6291.750507,2451.505594
59524.387761,0.000000,-7920.203579,4290.134789
59524.388071,-666.185348,-7031.956449,3600.648841
59524.388381,-2146.597232,-6735.874072,2528.115143
59524.388690,-74.020594,-9178.553681,3600.648841
59524.389000,2294.638420,-6439.791695,3064.381992
59524.389309,-1258.350101,-9474.636058,-76.609550
59524.389619,-7698.141797,-7772.162391,-3677.258390
59524.389928,-7179.997637,-16580.613101,-1302.362347
59524.390238,-8290.306550,-11917.315666,-3677.258390
59524.390548,-3923.091493,-10288.862594,-1762.019645
59524.390857,-370.102971,-9400.615463,1838.629195
59524.391167,1110.308913,-7698.141797,2911.162892
59524.391476,1628.453072,-7772.162391,3677.258390
59524.391786,2886.803174,-9178.553681,4826.401637
59524.392095,592.164754,-8660.409521,3677.258390
59524.392405,-74.020594,-8290.306550,2374.896044
59524.392715,-2368.659014,-7179.997637,0.000000
59524.393024,-666.185348,-11991.336260,2528.115143
59524.393334,-6513.812290,-9548.656652,-4596.572988
59524.393643,-6069.688724,-11621.233289,-1991.848295
59524.393953,-5625.565159,-10732.986159,-1225.752797
59524.394262,-2960.823768,-10288.862594,536.266849
59524.394572,-518.144159,-8216.285956,1608.800546
59524.394882,296.082377,-7328.038826,3677.258390
59524.395191,0.000000,-7179.997637,3677.258390
59524.395501,1110.308913,-10214.842000,2987.772442
59524.395810,-2442.679609,-7105.977043,-383.047749
59524.396120,-4145.153275,-7772.162391,1225.752797
59524.396429,-3034.844362,-7179.997637,-1762.019645
59524.396739,-370.102971,-7994.224174,-689.485948
59524.397049,-3775.050304,-9548.656652,-689.485948
59524.397358,-7105.977043,-12065.356855,-2221.676944
59524.397668,-8438.347739,-13989.892304,-2145.067394
59524.397977,-7994.224174,-13101.645173,-2145.067394
59524.398287,-8290.306550,-9548.656652,0.000000
59524.398596,-4145.153275,-8660.409521,3064.381992
59524.398906,1110.308913,-7105.977043,6052.154434
59524.399215,0.000000,-1258.350101,3677.258390
59524.399525,0.000000,-3997.112087,3600.648841
59524.399835,-2442.679609,-7698.141797,2987.772442
59524.400144,-4441.235652,-6809.894666,0.000000
59524.400454,-5847.626942,-7846.182985,-612.876398
59524.400763,-8808.450710,-8882.471304,-2681.334243
59524.401073,-10658.965565,-9548.656652,-4749.792088
59524.401382,-7698.141797,-9548.656652,-4290.134789
59524.401692,-1850.514855,-13545.768739,1149.143247
59524.402002,-6587.832884,-13915.871710,-383.047749
59524.402311,-9474.636058,-9548.656652,0.000000
59524.402621,-1258.350101,-8882.471304,1762.019645
59524.402930,1110.308913,-8290.306550,4826.401637
59524.403240,-2886.803174,-6587.832884,3907.087040
59524.403549,-3997.112087,-5995.668130,3064.381992
59524.403859,74.020594,-5699.585753,3524.039291
59524.404169,1776.494261,-3034.844362,2221.676944
59524.404478,-2960.823768,-2590.720797,0.000000
59524.404788,-7105.977043,-9548.656652,919.314598
59524.405097,-6587.832884,-12435.459826,-2528.115143
59524.405407,-9474.636058,-10140.821405,-5898.935335
59524.405716,-6587.832884,-14211.954086,-1302.362347
59524.406026,-7402.059420,-13175.665768,-689.485948
59524.406336,-7920.203579,-12879.583391,-842.705048
59524.406645,-1924.535449,-9918.759623,1225.752797
59524.406955,3701.029710,-6883.915261,5439.278036
59524.407264,4663.297435,-3256.906145,7277.907231
59524.407574,4515.256246,-3552.988522,5745.716235
59524.407883,-2368.659014,-5403.503377,1225.752797
59524.408193,-4219.173869,-11843.295072,995.924147
59524.408502,-7476.080014,-9548.656652,-3370.820191
59524.408812,-3923.091493,-11843.295072,-383.047749
59524.409122,-6809.894666,-11251.130318,-2298.286494
59524.409431,-7994.224174,-11621.233289,-3064.381992
59524.409741,-6069.688724,-13989.892304,0.000000
59524.410050,-2072.576638,-10288.862594,2298.286494
59524.410360,222.061783,-5921.647536,3600.648841
59524.410669,3478.967927,-5329.482782,4826.401637
59524.410979,4145.153275,-1258.350101,4749.792088
59524.411289,3552.988522,-4811.338623,4903.011187
59524.411598,3478.967927,-11843.295072,4826.401637
59524.411908,-4811.338623,-14211.954086,-76.609550
59524.412217,-8290.306550,-12509.480420,-4290.134789
59524.412527,-6809.894666,-12361.439231,-3753.867940
59524.412836,-6587.832884,-8956.491898,-3983.696590
59524.413146,-6365.771101,-10510.924376,-3294.210641
59524.413456,-4811.338623,-13027.624579,-2221.676944
59524.413765,-3034.844362,-14804.118840,-76.609550
59524.414075,-3775.050304,-11251.130318,1762.019645
59524.414384,-2960.823768,-5995.668130,2451.505594
59524.414694,4071.132681,-6809.894666,8503.660028
59524.415003,6439.791695,-1554.432478,9729.412825
59524.415313,3552.988522,-74.020594,5515.887586
59524.415623,2886.803174,-3552.988522,4060.306139
59524.415932,-962.267725,-9918.759623,1378.971896
59524.416242,-7476.080014,-14211.954086,-4443.353888
59524.416551,-12509.480420,-18949.272115,-7201.297681
59524.416861,-14285.974681,-21317.931130,-6205.373534
59524.417170,-13693.809927,-16580.613101,-6818.249932
59524.417480,-9474.636058,-11325.150913,-7354.516781
59524.417789,-2960.823768,-9178.553681,2374.896044
59524.418099,888.247130,-5995.668130,7354.516781
59524.418409,3256.906145,-1406.391290,7660.954980
59524.418718,6661.853478,-962.267725,9422.974625
59524.419028,5329.482782,-2738.761985,9193.145976
59524.419337,2590.720797,-3034.844362,6052.154434
59524.419647,-74.020594,-8882.471304,3677.258390
59524.419956,-5773.606348,-12435.459826,1072.533697
59524.420266,-10732.986159,-13323.706956,-4979.620737
59524.420576,-14804.118840,-16654.633695,-6128.763984
59524.420885,-11325.150913,-18949.272115,-4979.620737
59524.421195,-13619.789333,-13101.645173,-4903.011187
59524.421504,-8734.430116,-9548.656652,-2451.505594
59524.421814,-2738.761985,-5403.503377,1378.971896
59524.422123,2442.679609,-2664.741391,5132.839837
59524.422433,6661.853478,-740.205942,6818.249932
59524.422743,7031.956449,-1850.514855,8580.269578
59524.423052,4515.256246,-2590.720797,6511.811733
59524.423362,4071.132681,-6809.894666,4826.401637
59524.423671,-1850.514855,-7179.997637,0.000000
59524.423981,-4737.318029,-12509.480420,-612.876398
59524.424290,-11251.130318,-13101.645173,-7354.516781
59524.424600,-11325.150913,-16728.654289,-8120.612279
59524.424910,-11547.212695,-19763.498651,-6052.154434
59524.425219,-7920.203579,-19171.333898,-2834.553343
59524.425529,-4367.215058,-14434.015869,0.000000
59524.425838,0.000000,-7328.038826,2834.553343
59524.426148,3256.906145,-3701.029710,5669.106685
59524.426457,6217.729913,-2886.803174,9652.803275
59524.426767,5107.421000,888.247130,7277.907231
59524.427076,2368.659014,-74.020594,7354.516781
59524.427386,592.164754,-2442.679609,3677.258390
59524.427696,-370.102971,-7105.977043,2834.553343
59524.428005,-4145.153275,-9548.656652,306.438199
59524.428315,-6365.771101,-12509.480420,-2221.676944
59524.428625,-8216.285956,-16654.633695,-3677.258390
59524.428934,-9400.615463,-16950.716072,-3064.381992
59524.429244,-8290.306550,-15766.386565,-3677.258390
59524.429554,-4145.153275,-14434.015869,1225.752797
59524.429863,1184.329507,-9548.656652,5515.887586
59524.430173,8216.285956,-7105.977043,6665.030833
59524.430483,5847.626942,-74.020594,6128.763984
59524.430792,8438.347739,0.000000,9729.412825
59524.431102,6587.832884,-74.020594,8273.831378
59524.431412,5699.585753,-3182.885551,6741.640382
59524.431721,1850.514855,-8290.306550,6052.154434
59524.432031,-1480.411884,-10140.821405,3524.039291
59524.432341,-5625.565159,-12139.377449,-459.657299
59524.432650,-5403.503377,-16358.551318,536.266849
59524.432960,-3923.091493,-14285.974681,-2374.896044
59524.433270,-3552.988522,-15174.221811,2451.505594
59524.433579,-4737.318029,-12509.480420,2451.505594
59524.433889,-74.020594,-8882.471304,5439.278036
59524.434199,3182.885551,-6883.915261,8197.221829
59524.434508,5551.544565,-5107.421000,10112.460574
59524.434818,5773.606348,-2220.617826,10955.165621
59524.435128,4737.318029,-1258.350101,10878.556072
59524.435437,4367.215058,-1184.329507,9039.926876
59524.435747,2960.823768,-6735.874072,9116.536426
59524.436057,-296.082377,-7476.080014,3064.381992
59524.436366,-2368.659014,-12509.480420,6128.763984
59524.436676,-4219.173869,-15174.221811,1838.629195
59524.436986,-6291.750507,-18949.272115,2987.772442
59524.437295,-10140.821405,-17987.004391,2757.943793
59524.437605,-8586.388927,-13841.851115,3983.696590
59524.437915,-2664.741391,-7179.997637,6741.640382
59524.438224,2664.741391,-1628.453072,11644.651570
59524.438534,6513.812290,3182.885551,12257.527968
59524.438844,6513.812290,1702.473667,13636.499864
59524.439153,5847.626942,-3552.988522,13406.671215
59524.439463,0.000000,-2442.679609,8580.269578
59524.439773,-2146.597232,-6809.894666,6511.811733
59524.440082,-3923.091493,-9474.636058,4826.401637
59524.440392,-5181.441594,-10214.842000,2374.896044
59524.440702,-2960.823768,-10807.006753,2451.505594
59524.441011,-2516.700203,-13175.665768,2374.896044
59524.441321,-6069.688724,-15100.201217,2068.457845
59524.441631,-7179.997637,-17764.942608,2068.457845
59524.441940,-5921.647536,-14285.974681,2451.505594
59524.442250,0.000000,-9548.656652,7354.516781
59524.442560,4663.297435,-5921.647536,8503.660028
59524.442869,5847.626942,-1776.494261,8503.660028
59524.443179,5847.626942,-814.226536,9039.926876
59524.443488,4811.338623,-1184.329507,7124.688131
59524.443798,3256.906145,-2442.679609,5056.230287
59524.444108,0.000000,-8512.368333,3983.696590
59524.444417,-1258.350101,-12139.377449,2987.772442
59524.444727,-4811.338623,-16432.571912,-689.485948
59524.445037,-10362.883188,-16654.633695,-3370.820191
59524.445346,-8290.306550,-18727.210333,-919.314598
59524.445656,-3627.009116,-16284.530724,-1302.362347
59524.445966,-74.020594,-11843.295072,-76.609550
59524.446275,888.247130,-6735.874072,2451.505594
59524.446585,3701.029710,-4219.173869,4136.915689
59524.446895,6883.915261,-2590.720797,4979.620737
59524.447204,7920.203579,-2738.761985,4749.792088
59524.447514,5255.462188,-6217.729913,5132.839837
59524.447824,740.205942,-9548.656652,2911.162892
59524.448133,-888.247130,-9548.656652,536.266849
59524.448443,-74.020594,-14211.954086,2374.896044
59524.448753,-1258.350101,-10658.965565,-2528.115143
59524.449062,-3182.885551,-12435.459826,-76.609550
59524.449372,-3404.947333,-12065.356855,-1838.629195
59524.449682,370.102971,-11843.295072,-1532.190996
59524.449991,0.000000,-12583.501014,-153.219100
59524.450301,370.102971,-12065.356855,1225.752797
59524.450611,1406.391290,-11177.109724,2145.067394
59524.450920,5551.544565,-7698.141797,3600.648841
59524.451230,4367.215058,-2664.741391,2987.772442
59524.451540,2368.659014,-2442.679609,4903.011187
59524.451849,4071.132681,-4737.318029,3600.648841
59524.452159,2072.576638,-8290.306550,3370.820191
59524.452469,0.000000,-8660.409521,0.000000
59524.452778,-3404.947333,-14952.160028,306.438199
59524.453088,-5995.668130,-18357.107362,76.609550
59524.453398,-3849.070898,-15248.242405,-1225.752797
59524.453707,-1702.473667,-12509.480420,0.000000
59524.454017,-1776.494261,-8068.244768,2451.505594
59524.454327,4071.132681,-5921.647536,5439.278036
59524.454636,1184.329507,-74.020594,2451.505594
59524.454946,4145.153275,-6365.771101,6435.202183
59524.455256,0.000000,-8364.327145,6435.202183
59524.455565,-1480.411884,-9622.677246,4903.011187
59524.455875,-962.267725,-9992.780217,4903.011187
59524.456185,-2664.741391,-8660.409521,2987.772442
59524.456494,-2812.782580,-8290.306550,3370.820191
59524.456804,0.000000,-7179.997637,3064.381992
59524.457114,0.000000,-8882.471304,4136.915689
59524.457423,-1850.514855,-10658.965565,2068.457845
59524.457733,-8882.471304,-9548.656652,0.000000
59524.458043,-814.226536,-14656.077652,6665.030833
59524.458352,592.164754,-7179.997637,6741.640382
59524.458662,962.267725,-5477.523971,5822.325785
59524.458972,296.082377,-6513.812290,6971.469032
59524.459281,2368.659014,-6587.832884,7431.126331
59524.459591,2072.576638,-7994.224174,7737.564530
59524.459901,-1406.391290,-8364.327145,6665.030833
59524.460210,-3552.988522,-8956.491898,5515.887586
59524.460520,-74.020594,-9474.636058,6665.030833
59524.460829,-4737.318029,-7179.997637,2451.505594
59524.461139,-666.185348,-10658.965565,6052.154434
59524.461449,-4737.318029,-5995.668130,2451.505594
59524.461758,-962.267725,-9326.594869,4673.182538
59524.462068,1480.411884,-6957.935855,5669.106685
59524.462378,1110.308913,-5921.647536,5439.278036
59524.462687,-962.267725,-8364.327145,5362.668486
59524.462997,-888.247130,-9548.656652,6052.154434
59524.463307,1036.288319,-9622.677246,5439.278036
59524.463616,-74.020594,-11843.295072,7584.345430
59524.463926,-4737.318029,-5995.668130,4903.011187
59524.464236,0.000000,-9548.656652,7354.516781
59524.464545,-2146.597232,-6587.832884,3983.696590
59524.464855,-1554.432478,-7105.977043,4519.963438
59524.465165,-814.226536,-7105.977043,4290.134789
59524.465474,1776.494261,-5921.647536,4826.401637
59524.465784,1184.329507,-7328.038826,4366.744339
59524.466094,-1258.350101,-10066.800811,4213.525239
59524.466403,-2072.576638,-8956.491898,2604.724693
59524.466713,-888.247130,-10732.986159,3983.696590
59524.467023,2294.638420,-11843.295072,4826.401637
59524.467332,-1332.370696,-6661.853478,2528.115143
59524.467642,-1554.432478,-7846.182985,2451.505594
59524.467952,1702.473667,-10658.965565,5592.497135
59524.468261,148.041188,-10732.986159,4519.963438
59524.468571,-592.164754,-10510.924376,3907.087040
59524.468881,-1258.350101,-9030.512492,3753.867940
59524.469190,518.144159,-7994.224174,4213.525239
59524.469500,1406.391290,-5699.585753,4213.525239
59524.469810,0.000000,-5403.503377,3064.381992
59524.470119,3478.967927,-7105.977043,3600.648841
59524.470429,-2960.823768,-8364.327145,1225.752797
59524.470739,-1258.350101,-10066.800811,842.705048
59524.471048,-1998.556043,-11547.212695,2068.457845
59524.471358,-1258.350101,-9770.718434,1685.410096
59524.471668,-888.247130,-8142.265362,1838.629195
59524.471977,-592.164754,-9252.574275,2451.505594
59524.472287,1406.391290,-9474.636058,2374.896044
59524.472597,222.061783,-11473.192101,2911.162892
59524.472906,0.000000,-7772.162391,0.000000
59524.473216,0.000000,-12805.562797,4903.011187
59524.473526,-74.020594,-9178.553681,3294.210641
59524.473835,1702.473667,-7698.141797,2374.896044
59524.474145,1184.329507,-5107.421000,2451.505594
59524.474455,814.226536,-6513.812290,2298.286494
59524.474764,148.041188,-8734.430116,2604.724693
59524.475074,518.144159,-8956.491898,1149.143247
59524.475384,-666.185348,-14211.954086,4213.525239
59524.475693,-74.020594,-10955.047942,1762.019645
59524.476003,-3330.926739,-12805.562797,0.000000
59524.476313,-74.020594,-10658.965565,3600.648841
59524.476622,-1850.514855,-7105.977043,229.828649
59524.476932,2294.638420,-4737.318029,2374.896044
59524.477241,0.000000,-4811.338623,1225.752797
59524.477551,666.185348,-6217.729913,1072.533697
59524.477861,0.000000,-11177.109724,153.219100
59524.478170,-1036.288319,-13545.768739,995.924147
59524.478480,-2072.576638,-14137.933492,1532.190996
59524.478790,-3849.070898,-11917.315666,0.000000
59524.479099,-2960.823768,-5551.544565,-3677.258390
59524.479409,2294.638420,-8882.471304,-76.609550
59524.479719,370.102971,-2960.823768,-689.485948
59524.480028,1332.370696,-9030.512492,2911.162892
59524.480338,666.185348,-9252.574275,459.657299
59524.480648,296.082377,-13249.686362,1378.971896
59524.480957,0.000000,-10362.883188,919.314598
59524.481267,-1110.308913,-10510.924376,1225.752797
59524.481577,0.000000,-5995.668130,1225.752797
59524.481886,1702.473667,-7105.977043,-76.609550
59524.482196,444.123565,-3627.009116,-4596.572988
59524.482506,592.164754,-9252.574275,919.314598
59524.482815,-74.020594,-9474.636058,-1608.800546
59524.483125,-592.164754,-13471.748144,-766.095498
59524.483435,-1406.391290,-13989.892304,-1302.362347
59524.483744,-1998.556043,-13915.871710,-306.438199
59524.484054,-2072.576638,-13693.809927,689.485948
59524.484364,296.082377,-7402.059420,-1149.143247
59524.484673,0.000000,-3923.091493,0.000000
59524.484983,2664.741391,-1036.288319,-842.705048
59524.485293,2294.638420,-5921.647536,-76.609550
59524.485602,0.000000,-4811.338623,0.000000
59524.485912,2220.617826,-16284.530724,1608.800546
59524.486222,-592.164754,-15914.427753,2145.067394
59524.486531,-3330.926739,-16580.613101,-1302.362347
59524.486841,-2368.659014,-9548.656652,-1532.190996
59524.487151,-1258.350101,-5403.503377,-3064.381992
59524.487460,666.185348,-3701.029710,-1608.800546
59524.487770,0.000000,-5107.421000,-3677.258390
59524.488080,2072.576638,-11621.233289,612.876398
59524.488389,2294.638420,-15470.304188,2757.943793
59524.488699,-1554.432478,-13915.871710,-995.924147
59524.489009,-1776.494261,-11917.315666,1378.971896
59524.489318,-2368.659014,-7179.997637,1532.190996
59524.489628,1036.288319,-3552.988522,-76.609550
59524.489938,1036.288319,-2072.576638,-306.438199
59524.490247,2368.659014,-1036.288319,-306.438199
59524.490557,518.144159,-8512.368333,153.219100
59524.490867,-1036.288319,-8364.327145,-2451.505594
59524.491176,-3552.988522,-15470.304188,0.000000
59524.491486,-1480.411884,-16654.633695,2604.724693
59524.491796,-2442.679609,-16580.613101,-76.609550
59524.492105,-3701.029710,-7772.162391,0.000000
59524.492415,-1776.494261,-3923.091493,0.000000
59524.492725,1998.556043,-3108.864956,766.095498
59524.493034,1036.288319,-4811.338623,612.876398
59524.493344,0.000000,-9622.677246,1608.800546
59524.493654,-74.020594,-12065.356855,1149.143247
59524.493963,-962.267725,-14508.036463,1608.800546
59524.494273,-1776.494261,-9696.697840,1838.629195
59524.494582,-74.020594,-14211.954086,7277.907231
59524.494892,-666.185348,-2220.617826,1149.143247
59524.495202,296.082377,-5107.421000,2604.724693
59524.495511,518.144159,-3478.967927,2451.505594
59524.495821,-222.061783,-10658.965565,2451.505594
59524.496131,-296.082377,-11695.253884,2604.724693
59524.496440,-1258.350101,-14211.954086,2298.286494
59524.496750,-1332.370696,-12731.542202,3370.820191
59524.497060,-666.185348,-10658.965565,2374.896044
59524.497369,-962.267725,-7179.997637,2987.772442
59524.497679,-444.123565,-6809.894666,4519.963438
59524.497989,-1258.350101,-2368.659014,-76.609550
59524.498298,0.000000,-3923.091493,1225.752797
59524.498608,-1036.288319,-7550.100608,3064.381992
59524.498918,740.205942,-10066.800811,3294.210641
59524.499227,-1036.288319,-13175.665768,3370.820191
59524.499537,518.144159,-9770.718434,3217.601092
59524.499847,-666.185348,-10584.944971,4213.525239
59524.500156,2294.638420,-6809.894666,3600.648841
59524.500466,-1850.514855,-5773.606348,0.000000
59524.500776,296.082377,-6291.750507,3064.381992
59524.501085,2294.638420,-11843.295072,2374.896044
59524.501395,0.000000,-9548.656652,1838.629195
59524.501705,-74.020594,-10362.883188,0.000000
59524.502014,1480.411884,-10066.800811,3140.991542
59524.502324,2516.700203,-9030.512492,3677.258390
59524.502634,1332.370696,-8660.409521,3217.601092
59524.502943,-1110.308913,-7105.977043,536.266849
59524.503253,-666.185348,-10658.965565,-76.609550
59524.503563,-370.102971,-8882.471304,-76.609550
59524.503872,-4145.153275,-9548.656652,0.000000
59524.504182,1332.370696,-11621.233289,1915.238745
59524.504492,-1258.350101,-11843.295072,229.828649
59524.504801,-74.020594,-9918.759623,76.609550
59524.505111,-1184.329507,-9844.739029,1532.190996
59524.505421,-1480.411884,-5181.441594,0.000000
59524.505730,-2368.659014,-5995.668130,-1608.800546
59524.506040,-1184.329507,-5699.585753,-76.609550
59524.506350,-74.020594,-12583.501014,1838.629195
59524.506659,-74.020594,-11251.130318,-76.609550
59524.506969,-4737.318029,-9548.656652,0.000000
59524.507279,2886.803174,-11843.295072,2374.896044
59524.507588,814.226536,-7031.956449,383.047749
59524.507898,2294.638420,-8290.306550,1149.143247
59524.508208,-888.247130,-5995.668130,-1225.752797
59524.508517,-1628.453072,-9252.574275,-1915.238745
59524.508827,-888.247130,-9622.677246,-1608.800546
59524.509137,-1850.514855,-11843.295072,459.657299
59524.509446,-592.164754,-7179.997637,-766.095498
59524.509756,-74.020594,-9474.636058,-76.609550
59524.510066,2294.638420,-3627.009116,-1762.019645
59524.510375,2368.659014,-11917.315666,2757.943793
59524.510685,1702.473667,-9474.636058,-76.609550
59524.510994,-2442.679609,-11251.130318,-1915.238745
59524.511304,-2886.803174,-8734.430116,-3217.601092
59524.511614,-1702.473667,-10362.883188,-2451.505594
59524.511923,-1036.288319,-8586.388927,-1685.410096
59524.512233,0.000000,-8808.450710,-1225.752797
59524.512543,1776.494261,-9548.656652,1225.752797
59524.512852,4663.297435,-11843.295072,4213.525239
59524.513162,-962.267725,-9770.718434,0.000000
59524.513472,-1184.329507,-7772.162391,0.000000
59524.513781,-1258.350101,-9474.636058,-995.924147
59524.514091,1184.329507,-6513.812290,-76.609550
59524.514401,-222.061783,-10362.883188,689.485948
59524.514710,1184.329507,-7624.121203,0.000000
59524.515020,518.144159,-11473.192101,995.924147
59524.515330,2442.679609,-8660.409521,1225.752797
59524.515639,0.000000,-10140.821405,2757.943793
59524.515949,1332.370696,-9104.533087,3677.258390
59524.516259,-74.020594,-11251.130318,-76.609550
59524.516568,-3552.988522,-7179.997637,0.000000
59524.516878,-370.102971,-10658.965565,1149.143247
59524.517188,-1184.329507,-9178.553681,3600.648841
59524.517497,-74.020594,-6217.729913,153.219100
59524.517807,222.061783,-8290.306550,2068.457845
59524.518117,1702.473667,-8438.347739,3064.381992
59524.518426,-74.020594,-11029.068536,1838.629195
59524.518736,-3552.988522,-5995.668130,0.000000
59524.519046,-5921.647536,-9548.656652,0.000000
59524.519355,-1258.350101,-9474.636058,-383.047749
59524.519665,-4737.318029,-9548.656652,0.000000
59524.519975,-74.020594,-7698.141797,1762.019645
59524.520284,-1480.411884,-10436.903782,2757.943793
59524.520594,3034.844362,-8586.388927,3217.601092
59524.520904,1924.535449,-11843.295072,4596.572988
59524.521213,222.061783,-8512.368333,2987.772442
59524.521523,-3034.844362,-7772.162391,-1608.800546
59524.521833,-3330.926739,-6217.729913,-2451.505594
59524.522142,-2072.576638,-9548.656652,0.000000
59524.522452,2294.638420,-11843.295072,3600.648841
59524.522762,0.000000,-5995.668130,0.000000
59524.523071,2294.638420,-10658.965565,4826.401637
59524.523381,2664.741391,-7772.162391,4903.011187
59524.523691,814.226536,-12139.377449,4596.572988
59524.524000,-1628.453072,-8290.306550,1762.019645
59524.524310,-3034.844362,-10807.006753,1455.581446
59524.524620,-518.144159,-6809.894666,1762.019645
59524.524929,-1850.514855,-8586.388927,536.266849
59524.525239,-2368.659014,-2442.679609,0.000000
59524.525549,1036.288319,-8438.347739,3524.039291
59524.525858,2294.638420,-5329.482782,2374.896044
59524.526168,0.000000,-9548.656652,4903.011187
59524.526478,-888.247130,-9548.656652,3677.258390
59524.526787,-1110.308913,-9474.636058,536.266849
59524.527097,-1628.453072,-9400.615463,383.047749
59524.527407,-740.205942,-7254.018232,76.609550
59524.527716,-1406.391290,-8290.306550,1762.019645
59524.528026,2294.638420,-7698.141797,-76.609550
59524.528336,1850.514855,-9548.656652,0.000000
59524.528645,3552.988522,-9844.739029,3983.696590
59524.528955,2294.638420,-14211.954086,4213.525239
59524.529265,-1628.453072,-6735.874072,153.219100
59524.529574,-2442.679609,-8808.450710,-689.485948
59524.529884,-74.020594,-7105.977043,-1532.190996
59524.530194,-2442.679609,-10066.800811,-766.095498
59524.530503,-814.226536,-7698.141797,-1149.143247
59524.530813,0.000000,-10214.842000,-459.657299
59524.531123,1702.473667,-9474.636058,-76.609550
59524.531432,0.000000,-11029.068536,612.876398
59524.531742,0.000000,-11917.315666,3677.258390
59524.532052,-74.020594,-9474.636058,-1302.362347
59524.532361,-3552.988522,-7179.997637,-2145.067394
59524.532671,-2664.741391,-6291.750507,-1532.190996
59524.532981,-2442.679609,-10288.862594,-229.828649
59524.533290,296.082377,-7402.059420,-1685.410096
59524.533600,814.226536,-11177.109724,842.705048
59524.533910,2368.659014,-8290.306550,1608.800546
59524.534219,1998.556043,-11843.295072,2374.896044
59524.534529,0.000000,-6291.750507,0.000000
59524.534839,0.000000,-8364.327145,1225.752797
59524.535148,-74.020594,-8290.306550,-76.609550
59524.535458,-3552.988522,-9104.533087,-1532.190996
59524.535768,-1850.514855,-7254.018232,-1838.629195
59524.536078,-888.247130,-11103.089130,-612.876398
59524.536387,1480.411884,-9918.759623,1608.800546
59524.536697,1406.391290,-9992.780217,2221.676944
59524.537007,1110.308913,-8290.306550,2451.505594
59524.537316,1998.556043,-7105.977043,-76.609550
59524.537626,-2368.659014,-6735.874072,-1378.971896
59524.537936,-4737.318029,-5403.503377,0.000000
59524.538245,-666.185348,-11843.295072,-76.609550
59524.538555,-3256.906145,-7772.162391,-3064.381992
59524.538865,-666.185348,-11251.130318,-1532.190996
59524.539174,2960.823768,-7772.162391,2145.067394
59524.539484,1480.411884,-10436.903782,3064.381992
59524.539794,1924.535449,-5773.606348,383.047749
59524.540103,-518.144159,-9844.739029,-76.609550
59524.540413,1110.308913,-11251.130318,1149.143247
59524.540723,-1258.350101,-13027.624579,-76.609550
59524.541032,-4145.153275,-7772.162391,-2451.505594
59524.541342,1702.473667,-12287.418637,1762.019645
59524.541652,3330.926739,-7994.224174,2374.896044
59524.541961,4663.297435,-6217.729913,2834.553343
59524.542271,2516.700203,-7624.121203,4060.306139
59524.542581,1776.494261,-6957.935855,1838.629195
59524.542890,-740.205942,-11769.274478,1608.800546
59524.543200,-2146.597232,-10510.924376,1762.019645
59524.543510,-4293.194464,-14508.036463,1685.410096
59524.543819,-2442.679609,-9474.636058,-383.047749
59524.544129,-4737.318029,-7772.162391,0.000000
59524.544439,2960.823768,-8364.327145,4903.011187
59524.544748,1702.473667,-9474.636058,4060.306139
59524.545058,1702.473667,-5921.647536,3600.648841
59524.545368,-1036.288319,-7179.997637,1838.629195
59524.545677,-1258.350101,-7105.977043,1762.019645
59524.545987,-3552.988522,-8660.409521,383.047749
59524.546297,-4145.153275,-9696.697840,612.876398
59524.546606,-2368.659014,-11029.068536,1225.752797
59524.546916,2294.638420,-11843.295072,4826.401637
59524.547226,1702.473667,-6365.771101,1762.019645
59524.547536,0.000000,-5995.668130,2451.505594
59524.547845,2294.638420,-6513.812290,2374.896044
59524.548155,222.061783,-9844.739029,2374.896044
59524.548465,-1702.473667,-8734.430116,0.000000
59524.548774,-4737.318029,-13693.809927,229.828649
59524.549084,-3256.906145,-8660.409521,-1378.971896
59524.549394,-1924.535449,-9104.533087,0.000000
59524.549703,1776.494261,-3034.844362,1225.752797
59524.550013,3849.070898,-7624.121203,4826.401637
59524.550323,2886.803174,-3849.070898,689.485948
59524.550632,0.000000,-10140.821405,1225.752797
59524.550942,-74.020594,-11843.295072,1149.143247
59524.551252,-3256.906145,-14211.954086,-76.609550
59524.551561,-3330.926739,-11399.171507,-995.924147
59524.551871,-962.267725,-7846.182985,-2298.286494
59524.552181,1480.411884,-8290.306550,842.705048
59524.552490,4293.194464,-5699.585753,612.876398
59524.552800,592.164754,-7772.162391,1225.752797
59524.553110,3997.112087,-8068.244768,2604.724693
59524.553419,-74.020594,-11843.295072,-76.609550
59524.553729,-3552.988522,-9548.656652,0.000000
59524.554039,-2442.679609,-14211.954086,-76.609550
59524.554348,-1924.535449,-10288.862594,-76.609550
59524.554658,-370.102971,-9474.636058,-689.485948
59524.554968,2442.679609,-6291.750507,1225.752797
59524.555277,2368.659014,-9252.574275,2604.724693
59524.555587,1850.514855,-7772.162391,153.219100
59524.555897,-3182.885551,-9548.656652,-2451.505594
59524.556206,-2960.823768,-10732.986159,0.000000
59524.556516,-666.185348,-13619.789333,-76.609550
59524.556826,-4737.318029,-8660.409521,-2145.067394
59524.557135,-2368.659014,-6587.832884,-1225.752797
59524.557445,-1184.329507,-8068.244768,1225.752797
59524.557755,2738.761985,-5329.482782,1991.848295
59524.558065,1110.308913,-8808.450710,2451.505594
59524.558374,592.164754,-6291.750507,919.314598
59524.558684,-2146.597232,-10732.986159,-383.047749
59524.558994,-1998.556043,-8882.471304,-2987.772442
59524.559303,-5329.482782,-11917.315666,-3677.258390
59524.559613,-2072.576638,-9474.636058,-76.609550
59524.559923,-3923.091493,-7698.141797,-2834.553343
59524.560232,0.000000,-5403.503377,1149.143247
59524.560542,1776.494261,-7772.162391,3064.381992
59524.560852,3182.885551,-8734.430116,3524.039291
59524.561161,1406.391290,-9622.677246,1608.800546
59524.561471,444.123565,-10955.047942,1991.848295
59524.561781,-592.164754,-9178.553681,-76.609550
59524.562090,-1850.514855,-8882.471304,-1608.800546
59524.562400,-1776.494261,-4219.173869,-4903.011187
59524.562710,3478.967927,-11251.130318,2987.772442
59524.563019,1998.556043,-5921.647536,229.828649
59524.563329,0.000000,-12509.480420,4290.134789
59524.563639,592.164754,-8364.327145,1225.752797
59524.563948,-1184.329507,-13101.645173,1225.752797
59524.564258,-592.164754,-7920.203579,0.000000
59524.564568,-2368.659014,-9252.574275,383.047749
59524.564877,-962.267725,-5921.647536,-76.609550
59524.565187,-74.020594,-8290.306550,-1302.362347
59524.565497,0.000000,-7179.997637,0.000000
59524.565806,4071.132681,-13323.706956,4826.401637
59524.566116,814.226536,-10066.800811,1838.629195
59524.566426,0.000000,-7476.080014,1225.752797
59524.566735,0.000000,-6587.832884,0.000000
59524.567045,296.082377,-6365.771101,0.000000
59524.567355,-1850.514855,-10584.944971,536.266849
59524.567664,-1924.535449,-9400.615463,-1915.238745
59524.567974,-2220.617826,-15396.283594,-76.609550
59524.568284,2294.638420,-12731.542202,-76.609550
59524.568594,222.061783,-10362.883188,1149.143247
59524.568903,1184.329507,-5995.668130,3677.258390
59524.569213,1110.308913,-5921.647536,995.924147
59524.569523,592.164754,-4219.173869,1225.752797
59524.569832,-962.267725,-7254.018232,229.828649
59524.570142,-1184.329507,-9400.615463,0.000000
59524.570452,-2960.823768,-10807.006753,-1149.143247
59524.570761,-1924.535449,-11547.212695,383.047749
59524.571071,-74.020594,-11547.212695,2374.896044
59524.571381,1702.473667,-11843.295072,4826.401637
59524.571690,-74.020594,-7105.977043,-76.609550
59524.572000,-3552.988522,-5995.668130,0.000000
59524.572310,1332.370696,-9104.533087,1762.019645
59524.572619,-2442.679609,-10510.924376,0.000000
59524.572929,-3034.844362,-7846.182985,-1608.800546
59524.573239,-3849.070898,-11991.336260,0.000000
59524.573548,296.082377,-8586.388927,1532.190996
59524.573858,1258.350101,-9844.739029,4136.915689
59524.574168,3330.926739,-5181.441594,3677.258390
59524.574477,2664.741391,-8216.285956,3600.648841
59524.574787,2886.803174,-7698.141797,-76.609550
59524.575097,-4145.153275,-9548.656652,0.000000
59524.575406,-1924.535449,-12953.603985,536.266849
59524.575716,-4367.215058,-10732.986159,-4290.134789
59524.576026,-1850.514855,-11843.295072,-76.609550
59524.576335,0.000000,-9770.718434,1072.533697
59524.576645,1258.350101,-9252.574275,3370.820191
59524.576955,2368.659014,-3923.091493,1838.629195
59524.577264,1480.411884,-5995.668130,2451.505594
59524.577574,2368.659014,-7179.997637,3677.258390
59524.577884,2294.638420,-14211.954086,5439.278036
59524.578193,-1258.350101,-8290.306550,-1302.362347
59524.578503,-3404.947333,-13693.809927,306.438199
59524.578813,-74.020594,-8882.471304,-76.609550
59524.579122,1110.308913,-11251.130318,2374.896044
59524.579432,1628.453072,-4959.379811,995.924147
59524.579742,592.164754,-6365.771101,306.438199
59524.580052,518.144159,-7476.080014,229.828649
59524.580361,-2368.659014,-10732.986159,0.000000
59524.580671,-2368.659014,-12509.480420,1225.752797
59524.580981,-666.185348,-13619.789333,2068.457845
59524.581290,-1850.514855,-9770.718434,-383.047749
59524.581600,2368.659014,-7179.997637,3064.381992
59524.581910,2886.803174,-7105.977043,3600.648841
59524.582219,4367.215058,-5921.647536,3294.210641
59524.582529,370.102971,-8068.244768,1149.143247
59524.582839,1332.370696,-8364.327145,766.095498
59524.583148,-1702.473667,-12953.603985,1302.362347
59524.583458,-4441.235652,-8364.327145,-2451.505594
59524.583768,-6513.812290,-11917.315666,-2451.505594
59524.584077,-3552.988522,-8364.327145,0.000000
59524.584387,-74.020594,-11843.295072,1762.019645
59524.584697,0.000000,-4811.338623,0.000000
59524.585006,814.226536,-7105.977043,1762.019645
59524.585316,1258.350101,-7402.059420,2068.457845
59524.585626,-74.020594,-9918.759623,1149.143247
59524.585935,-2294.638420,-12657.521608,842.705048
59524.586245,-3256.906145,-10807.006753,-1302.362347
59524.586555,-4145.153275,-10436.903782,-2221.676944
59524.586864,0.000000,-3627.009116,0.000000
59524.587174,0.000000,-7179.997637,2451.505594
59524.587484,4071.132681,-4737.318029,-76.609550
59524.587793,-1480.411884,-7772.162391,-1149.143247
59524.588103,2294.638420,-9474.636058,2068.457845
59524.588413,-1184.329507,-13693.809927,2451.505594
59524.588722,-1258.350101,-8734.430116,-1302.362347
59524.589032,-3256.906145,-10732.986159,-1608.800546
59524.589342,74.020594,-6957.935855,-689.485948
59524.589651,962.267725,-8290.306550,536.266849
59524.589961,222.061783,-5181.441594,0.000000
59524.590271,-2368.659014,-7179.997637,0.000000
59524.590581,1554.432478,-10881.027347,2374.896044
59524.590890,1998.556043,-9474.636058,1149.143247
59524.591200,1110.308913,-11177.109724,3830.477490
59524.591510,0.000000,-6587.832884,0.000000
59524.591819,-592.164754,-12583.501014,459.657299
59524.592129,1110.308913,-9474.636058,153.219100
59524.592439,0.000000,-11251.130318,2068.457845
59524.592748,2294.638420,-7105.977043,1762.019645
59524.593058,-74.020594,-9474.636058,-76.609550
59524.593368,2294.638420,-7105.977043,-76.609550
59524.593677,0.000000,-11325.150913,1838.629195
59524.593987,814.226536,-10140.821405,2374.896044
59524.594297,-2960.823768,-10140.821405,0.000000
59524.594606,-1998.556043,-6143.709319,76.609550
59524.594916,0.000000,-8660.409521,1532.190996
59524.595226,-518.144159,-6809.894666,1378.971896
59524.595535,-1110.308913,-7772.162391,0.000000
59524.595845,-74.020594,-13027.624579,3294.210641
59524.596155,2294.638420,-13027.624579,3600.648841
59524.596464,-4737.318029,-9548.656652,0.000000
59524.596774,-666.185348,-10658.965565,-76.609550
59524.597084,-3552.988522,-8734.430116,-1072.533697
59524.597393,0.000000,-7179.997637,612.876398
59524.597703,-1924.535449,-10066.800811,1608.800546
59524.598013,-1480.411884,-6291.750507,0.000000
59524.598322,-1628.453072,-9400.615463,536.266849
59524.598632,1036.288319,-5921.647536,1149.143247
59524.598942,148.041188,-9844.739029,3370.820191
59524.599251,-74.020594,-8068.244768,1991.848295
59524.599561,-74.020594,-10658.965565,-76.609550
59524.599871,-3552.988522,-9548.656652,0.000000
59524.600180,-74.020594,-11843.295072,2987.772442
59524.600490,-2590.720797,-7772.162391,0.000000
59524.600800,-666.185348,-6513.812290,-1302.362347
59524.601110,0.000000,-7846.182985,0.000000
59524.601419,1332.370696,-6735.874072,766.095498
59524.601729,370.102971,-10658.965565,2374.896044
59524.602039,1258.350101,-8364.327145,1378.971896
59524.602348,888.247130,-13841.851115,1225.752797
59524.602658,3478.967927,-11843.295072,4826.401637
59524.602968,-2664.741391,-10140.821405,0.000000
59524.603277,0.000000,-7476.080014,2374.896044
59524.603587,-1258.350101,-7550.100608,-1302.362347
59524.603897,1554.432478,-5477.523971,383.047749
59524.604206,814.226536,-8068.244768,1838.629195
59524.604516,1110.308913,-7846.182985,1302.362347
59524.604826,740.205942,-10881.027347,536.266849
59524.605135,1924.535449,-13693.809927,3524.039291
59524.605445,1702.473667,-14211.954086,2451.505594
59524.605755,-74.020594,-13027.624579,2374.896044
59524.606064,-2368.659014,-4811.338623,-1838.629195
59524.606374,1406.391290,-9178.553681,2374.896044
59524.606684,0.000000,-2442.679609,0.000000
59524.606993,-1702.473667,-7846.182985,0.000000
59524.607303,0.000000,-8660.409521,0.000000
59524.607613,-1110.308913,-14137.933492,1072.533697
59524.607922,370.102971,-11399.171507,1455.581446
59524.608232,-370.102971,-13619.789333,3600.648841
59524.608542,2294.638420,-7105.977043,1225.752797
59524.608851,1110.308913,-8290.306550,-76.609550
59524.609161,222.061783,-3404.947333,-1302.362347
59524.609471,0.000000,-8956.491898,1225.752797
59524.609780,-74.020594,-11843.295072,-76.609550
59524.610090,-1776.494261,-11325.150913,0.000000
59524.610400,-1332.370696,-13323.706956,689.485948
59524.610709,-1776.494261,-9622.677246,383.047749
59524.611019,-2368.659014,-7994.224174,612.876398
59524.611329,1406.391290,-6513.812290,1762.019645
59524.611638,2294.638420,-9474.636058,2068.457845
59524.611948,-74.020594,-5329.482782,-689.485948
59524.612258,-2368.659014,-11917.315666,1225.752797
59524.612568,1702.473667,-9474.636058,1149.143247
59524.612877,-4145.153275,-9548.656652,0.000000
59524.613187,-74.020594,-8142.265362,536.266849
59524.613497,-1924.535449,-10436.903782,1532.190996
59524.613806,-592.164754,-6661.853478,306.438199
59524.614116,-444.123565,-8142.265362,-76.609550
59524.614426,1776.494261,-7994.224174,3064.381992
59524.614735,1924.535449,-11103.089130,3677.258390
59524.615045,2886.803174,-12731.542202,2374.896044
59524.615355,-962.267725,-8956.491898,-1378.971896
59524.615664,0.000000,-13397.727550,3600.648841
59524.615974,-1406.391290,-7624.121203,-1455.581446
59524.616284,-1258.350101,-10658.965565,536.266849
59524.616593,-888.247130,-5699.585753,-536.266849
59524.616903,-444.123565,-8290.306550,612.876398
59524.617213,1480.411884,-5477.523971,919.314598
59524.617522,0.000000,-10140.821405,3064.381992
59524.617832,888.247130,-8660.409521,0.000000
59524.618142,2886.803174,-14211.954086,3600.648841
59524.618451,-518.144159,-8660.409521,76.609550
59524.618761,-1036.288319,-11177.109724,3600.648841
59524.619071,-74.020594,-7698.141797,-1302.362347
59524.619380,-74.020594,-9178.553681,-76.609550
59524.619690,296.082377,-7402.059420,153.219100
59524.620000,0.000000,-8068.244768,766.095498
59524.620309,-740.205942,-10732.986159,1608.800546
59524.620619,0.000000,-8364.327145,0.000000
59524.620929,0.000000,-9548.656652,612.876398
59524.621238,0.000000,-8364.327145,2757.943793
59524.621548,-74.020594,-10658.965565,2374.896044
59524.621858,0.000000,-4811.338623,612.876398
59524.622167,-74.020594,-9474.636058,-76.609550
59524.622477,1110.308913,-8142.265362,1762.019645
59524.622787,-1406.391290,-11103.089130,1149.143247
59524.623097,0.000000,-8068.244768,536.266849
59524.623406,-740.205942,-10658.965565,766.095498
59524.623716,0.000000,-5995.668130,0.000000
59524.624026,0.000000,-7476.080014,0.000000
59524.624335,0.000000,-10436.903782,2451.505594
59524.624645,-1258.350101,-10658.965565,-689.485948
59524.624955,-2960.823768,-9548.656652,1685.410096
59524.625264,-74.020594,-8882.471304,-76.609550
59524.625574,148.041188,-8290.306550,2068.457845
59524.625884,666.185348,-6587.832884,306.438199
59524.626193,-518.144159,-10436.903782,1225.752797
59524.626503,148.041188,-9178.553681,689.485948
59524.626813,-3923.091493,-9992.780217,-995.924147
59524.627122,-4737.318029,-6365.771101,-1608.800546
59524.627432,-4737.318029,-9548.656652,0.000000
59524.627742,-74.020594,-7105.977043,-76.609550
59524.628051,-2368.659014,-9548.656652,1225.752797
59524.628361,2294.638420,-10658.965565,2374.896044
59524.628671,296.082377,-10140.821405,919.314598
59524.628980,2294.638420,-8290.306550,1532.190996
59524.629290,1036.288319,-9104.533087,1532.190996
59524.629600,518.144159,-7994.224174,766.095498
59524.629910,-1258.350101,-7994.224174,-1302.362347
59524.630219,-2442.679609,-11251.130318,-76.609550
59524.630529,-74.020594,-11251.130318,-76.609550
59524.630839,-2368.659014,-9844.739029,306.438199
59524.631148,2886.803174,-7105.977043,-76.609550
59524.631458,148.041188,-7179.997637,1685.410096
59524.631768,3478.967927,-6809.894666,2681.334243
59524.632077,0.000000,-10140.821405,0.000000
59524.632387,-592.164754,-10584.944971,689.485948
59524.632697,-3701.029710,-12435.459826,-919.314598
59524.633007,-4293.194464,-7772.162391,-1915.238745
59524.633316,-3478.967927,-6883.915261,229.828649
59524.633626,0.000000,-3627.009116,1225.752797
59524.633936,4071.132681,-7105.977043,2374.896044
59524.634245,1184.329507,-5995.668130,0.000000
59524.634555,2886.803174,-12731.542202,3600.648841
59524.634865,-1036.288319,-13101.645173,2604.724693
59524.635175,-2442.679609,-10362.883188,-995.924147
59524.635484,-3627.009116,-10732.986159,-459.657299
59524.635794,-1258.350101,-7402.059420,0.000000
59524.636104,-666.185348,-7550.100608,1149.143247
59524.636413,74.020594,-5921.647536,1149.143247
59524.636723,0.000000,-7476.080014,919.314598
59524.637033,2368.659014,-8512.368333,3677.258390
59524.637342,2294.638420,-15396.283594,6052.154434
59524.637652,-74.020594,-10066.800811,2987.772442
59524.637962,-4145.153275,-7772.162391,-1225.752797
59524.638272,-1998.556043,-7031.956449,-459.657299
59524.638581,-1628.453072,-8290.306550,229.828649
59524.638891,-888.247130,-8364.327145,919.314598
59524.639201,-74.020594,-8882.471304,-76.609550
59524.639510,-74.020594,-13027.624579,2374.896044
59524.639820,-74.020594,-9770.718434,1149.143247
59524.640130,-2960.823768,-10732.986159,1225.752797
59524.640439,-1258.350101,-8290.306550,-76.609550
59524.640749,-3256.906145,-9548.656652,612.876398
59524.641059,-2368.659014,-6291.750507,0.000000
59524.641369,-1036.288319,-10807.006753,1455.581446
59524.641678,1258.350101,-5625.565159,153.219100
59524.641988,888.247130,-9474.636058,1225.752797
59524.642298,4663.297435,-8290.306550,4213.525239
59524.642607,4071.132681,-13027.624579,4826.401637
59524.642917,-1258.350101,-7105.977043,-689.485948
59524.643227,-4441.235652,-9548.656652,-1838.629195
59524.643537,-1850.514855,-9474.636058,-1302.362347
59524.643846,-2368.659014,-9548.656652,0.000000
59524.644156,0.000000,-8364.327145,306.438199
59524.644466,1184.329507,-7328.038826,153.219100
59524.644775,2368.659014,-8512.368333,1915.238745
59524.645085,3775.050304,-7550.100608,2911.162892
59524.645395,3478.967927,-11843.295072,4596.572988
59524.645704,-74.020594,-9326.594869,1762.019645
59524.646014,-1554.432478,-11547.212695,-1302.362347
59524.646324,-2368.659014,-7179.997637,-1838.629195
59524.646634,-74.020594,-14211.954086,-76.609550
59524.646943,0.000000,-5107.421000,0.000000
59524.647253,296.082377,-8364.327145,-612.876398
59524.647563,2664.741391,-7846.182985,1455.581446
59524.647872,1628.453072,-10807.006753,2221.676944
59524.648182,-296.082377,-8956.491898,919.314598
59524.648492,-1110.308913,-10881.027347,-306.438199
59524.648801,-74.020594,-11917.315666,2374.896044
59524.649111,-1554.432478,-8882.471304,-1915.238745
59524.649421,-2368.659014,-9548.656652,1225.752797
59524.649731,2294.638420,-9474.636058,-76.609550
59524.650040,0.000000,-7179.997637,0.000000
59524.650350,2886.803174,-8290.306550,2374.896044
59524.650660,0.000000,-11029.068536,2681.334243
59524.650969,-1480.411884,-7179.997637,-306.438199
59524.651279,-4219.173869,-10362.883188,-1378.971896
59524.651589,-2368.659014,-8364.327145,0.000000
59524.651899,-4737.318029,-10732.986159,0.000000
59524.652208,-74.020594,-11251.130318,-76.609550
59524.652518,-2368.659014,-10288.862594,-766.095498
59524.652828,2368.659014,-8364.327145,4903.011187
59524.653137,1702.473667,-8290.306550,2451.505594
59524.653447,814.226536,-6809.894666,2681.334243
59524.653757,-2146.597232,-7476.080014,153.219100
59524.654066,-1406.391290,-8882.471304,842.705048
59524.654376,-962.267725,-9474.636058,1149.143247
59524.654686,-2368.659014,-8364.327145,1225.752797
59524.654996,0.000000,-4811.338623,0.000000
59524.655305,3478.967927,-11251.130318,4213.525239
59524.655615,2294.638420,-6439.791695,1915.238745
59524.655925,1184.329507,-12509.480420,5515.887586
59524.656234,-74.020594,-8882.471304,-1608.800546
59524.656544,-1850.514855,-13471.748144,-76.609550
59524.656854,-1628.453072,-8882.471304,-459.657299
59524.657164,-2368.659014,-10436.903782,1149.143247
59524.657473,0.000000,-5699.585753,766.095498
59524.657783,0.000000,-5107.421000,0.000000
59524.658093,2368.659014,-3923.091493,2451.505594
59524.658402,3552.988522,-8364.327145,5209.449386
59524.658712,2294.638420,-9474.636058,3600.648841
59524.659022,-2368.659014,-7179.997637,0.000000
59524.659331,-1258.350101,-11843.295072,-1302.362347
59524.659641,-2146.597232,-10658.965565,-1302.362347
59524.659951,-3404.947333,-11325.150913,-842.705048
59524.660261,-1110.308913,-7476.080014,-1455.581446
59524.660570,222.061783,-10288.862594,766.095498
59524.660880,1184.329507,-7179.997637,612.876398
59524.661190,222.061783,-8956.491898,2068.457845
59524.661499,0.000000,-6587.832884,1225.752797
59524.661809,-74.020594,-11547.212695,2068.457845
59524.662119,-4737.318029,-4811.338623,0.000000
59524.662428,-74.020594,-11251.130318,2374.896044
59524.662738,-888.247130,-7624.121203,1225.752797
59524.663048,-74.020594,-8660.409521,383.047749
59524.663358,1924.535449,-8882.471304,2298.286494
59524.663667,1702.473667,-9622.677246,2757.943793
59524.663977,-370.102971,-9178.553681,1149.143247
59524.664287,-1258.350101,-8882.471304,-689.485948
59524.664596,-5329.482782,-9844.739029,-1838.629195
59524.664906,-3849.070898,-9844.739029,919.314598
59524.665216,-4811.338623,-9770.718434,-1302.362347
59524.665526,1332.370696,-7105.977043,2068.457845
59524.665835,1184.329507,-6587.832884,2451.505594
59524.666145,4441.235652,-5181.441594,3217.601092
59524.666455,2220.617826,-10140.821405,4290.134789
59524.666764,1480.411884,-8290.306550,1225.752797
59524.667074,-1258.350101,-12435.459826,-76.609550
59524.667384,-1258.350101,-10658.965565,-1608.800546
59524.667693,-6809.894666,-9548.656652,-3064.381992
59524.668003,-1406.391290,-9474.636058,-76.609550
59524.668313,-74.020594,-5921.647536,-2528.115143
59524.668623,2368.659014,-9252.574275,3830.477490
59524.668932,1924.535449,-8364.327145,2604.724693
59524.669242,1628.453072,-10584.944971,3140.991542
59524.669552,296.082377,-7772.162391,306.438199
59524.669861,-1998.556043,-9696.697840,76.609550
59524.670171,-74.020594,-7105.977043,-766.095498
59524.670481,-74.020594,-11843.295072,-76.609550
59524.670790,-1554.432478,-6883.915261,-2374.896044
59524.671100,0.000000,-11769.274478,2068.457845
59524.671410,4071.132681,-8882.471304,-76.609550
59524.671720,2368.659014,-12435.459826,4749.792088
59524.672029,1924.535449,-8364.327145,1225.752797
59524.672339,-370.102971,-11029.068536,842.705048
59524.672649,-1332.370696,-8438.347739,-842.705048
59524.672958,-2812.782580,-10584.944971,-842.705048
59524.673268,-2442.679609,-8882.471304,-1302.362347
59524.673578,1110.308913,-8290.306550,-689.485948
59524.673888,666.185348,-7179.997637,1225.752797
59524.674197,4663.297435,-9474.636058,4826.401637
59524.674507,0.000000,-6735.874072,995.924147
59524.674817,1998.556043,-9474.636058,3294.210641
59524.675126,-1628.453072,-10732.986159,919.314598
59524.675436,-1628.453072,-8734.430116,-536.266849
59524.675746,-4071.132681,-11769.274478,-612.876398
59524.676055,-2368.659014,-8364.327145,-1608.800546
59524.676365,-74.020594,-11843.295072,-76.609550
59524.676675,4663.297435,-9474.636058,3294.210641
59524.676985,370.102971,-7920.203579,2604.724693
59524.677294,1184.329507,-6735.874072,3677.258390
59524.677604,2294.638420,-9474.636058,-76.609550
59524.677914,-1184.329507,-9104.533087,2987.772442
59524.678223,-4737.318029,-8956.491898,0.000000
59524.678533,-3849.070898,-9326.594869,-536.266849
59524.678843,-2146.597232,-9104.533087,-229.828649
59524.679153,74.020594,-9474.636058,2374.896044
59524.679462,4071.132681,-9474.636058,4213.525239
59524.679772,3478.967927,-11547.212695,4826.401637
59524.680082,1110.308913,-6809.894666,1149.143247
59524.680391,-2220.617826,-8364.327145,0.000000
59524.680701,-74.020594,-9474.636058,-76.609550
59524.681011,-5921.647536,-10732.986159,612.876398
59524.681320,-3997.112087,-7772.162391,-1762.019645
59524.681630,-1554.432478,-11917.315666,612.876398
59524.681940,1850.514855,-8586.388927,2681.334243
59524.682250,962.267725,-9474.636058,3907.087040
59524.682559,4071.132681,-7698.141797,3370.820191
59524.682869,4367.215058,-9178.553681,4136.915689
59524.683179,518.144159,-6217.729913,1149.143247
59524.683488,-2368.659014,-9104.533087,1455.581446
59524.683798,-3627.009116,-9918.759623,-1915.238745
59524.684108,-3552.988522,-9548.656652,0.000000
59524.684417,0.000000,-11399.171507,1378.971896
59524.684727,2146.597232,-7550.100608,2145.067394
59524.685037,1628.453072,-8216.285956,2757.943793
59524.685347,2146.597232,-4959.379811,766.095498
59524.685656,888.247130,-10732.986159,612.876398
59524.685966,-888.247130,-9104.533087,0.000000
59524.686276,-2442.679609,-14211.954086,-76.609550
59524.686585,-2960.823768,-8364.327145,-4290.134789
59524.686895,1406.391290,-13619.789333,2681.334243
59524.687205,592.164754,-4811.338623,1225.752797
59524.687515,2590.720797,-6661.853478,2221.676944
59524.687824,2590.720797,-5995.668130,1915.238745
59524.688134,1406.391290,-7698.141797,229.828649
59524.688444,-592.164754,-10066.800811,76.609550
59524.688753,-2368.659014,-9548.656652,-1838.629195
59524.689063,-4737.318029,-10732.986159,-2451.505594
59524.689373,-814.226536,-11399.171507,-689.485948
59524.689682,-666.185348,-9770.718434,-2528.115143
59524.689992,2368.659014,-9844.739029,3064.381992
59524.690302,0.000000,-8956.491898,1838.629195
59524.690612,2294.638420,-7031.956449,1149.143247
59524.690921,-444.123565,-8808.450710,766.095498
59524.691231,-518.144159,-5995.668130,-536.266849
59524.691541,-3108.864956,-9844.739029,-612.876398
59524.691850,-3552.988522,-7179.997637,-1685.410096
59524.692160,-4737.318029,-11325.150913,0.000000
59524.692470,-1184.329507,-11325.150913,1225.752797
59524.692779,-74.020594,-11843.295072,-76.609550
59524.693089,0.000000,-7179.997637,1225.752797
59524.693399,-370.102971,-3849.070898,-842.705048
59524.693709,814.226536,-6439.791695,1608.800546
59524.694018,-1184.329507,-6291.750507,0.000000
59524.694328,-2146.597232,-10732.986159,536.266849
59524.694638,-1776.494261,-10214.842000,-842.705048
59524.694947,-4145.153275,-12065.356855,0.000000
59524.695257,0.000000,-6587.832884,306.438199
59524.695567,1776.494261,-9548.656652,3983.696590
59524.695877,4663.297435,-7105.977043,3600.648841
59524.696186,0.000000,-4811.338623,0.000000
59524.696496,2294.638420,-6809.894666,536.266849
59524.696806,-1628.453072,-12509.480420,995.924147
59524.697115,-2220.617826,-11769.274478,-76.609550
59524.697425,-2960.823768,-12139.377449,-76.609550
59524.697735,518.144159,-8660.409521,1915.238745
59524.698044,1998.556043,-7698.141797,3294.210641
59524.698354,2886.803174,-4885.359217,3064.381992
59524.698664,1776.494261,-4811.338623,2451.505594
59524.698974,2294.638420,-11547.212695,4213.525239
59524.699283,-1258.350101,-6513.812290,-1455.581446
59524.699593,-2442.679609,-13027.624579,-76.609550
59524.699903,-3256.906145,-10214.842000,-1225.752797
59524.700212,-2664.741391,-14063.912898,153.219100
59524.700522,518.144159,-9400.615463,1225.752797
59524.700832,888.247130,-10140.821405,2834.553343
59524.701142,3478.967927,-5329.482782,2987.772442
59524.701451,1110.308913,-6513.812290,842.705048
