#time,accel_x,accel_y,accel_z
163214.215121,7328.038826,-6513.812290,6971.469032
163214.215440,5329.482782,-4811.338623,6128.763984
163214.215758,6143.709319,-9030.512492,6665.030833
163214.216077,1110.308913,-11251.130318,3600.648841
163214.216395,-4737.318029,-10140.821405,-1225.752797
163214.216713,-6883.915261,-11843.295072,-3830.477490
163214.217032,-4737.318029,-11473.192101,-2757.943793
163214.217350,-592.164754,-9400.615463,-2068.457845
163214.217669,592.164754,-5403.503377,-1149.143247
163214.217987,2294.638420,-7105.977043,1762.019645
163214.218305,2738.761985,-4811.338623,0.000000
163214.218624,2368.659014,-5995.668130,1225.752797
163214.218942,592.164754,-7772.162391,766.095498
163214.219261,3478.967927,-11251.130318,-76.609550
163214.219579,1924.535449,-11695.253884,919.314598
163214.219897,1332.370696,-12139.377449,-1149.143247
163214.220216,1258.350101,-11251.130318,-2987.772442
163214.220534,-444.123565,-11325.150913,-4596.572988
163214.220853,-2072.576638,-10288.862594,-4443.353888
163214.221171,-74.020594,-10955.047942,-5439.278036
163214.221490,888.247130,-10732.986159,-3677.258390
163214.221808,592.164754,-7476.080014,-2451.505594
163214.222126,6883.915261,-8882.471304,1149.143247
163214.222445,5551.544565,-4515.256246,-2451.505594
163214.222763,7328.038826,-7105.977043,2221.676944
163214.223082,6217.729913,-8364.327145,1455.581446
163214.223400,5329.482782,-9178.553681,995.924147
163214.223718,4589.276840,-10066.800811,-76.609550
163214.224037,4663.297435,-9770.718434,-689.485948
163214.224355,3256.906145,-9918.759623,-2528.115143
163214.224674,4071.132681,-9474.636058,-3140.991542
163214.224992,1480.411884,-9844.739029,-4290.134789
163214.225311,2738.761985,-12583.501014,-1225.752797
163214.225629,0.000000,-10140.821405,-2451.505594
163214.225947,444.123565,-11769.274478,-689.485948
163214.226266,-666.185348,-10140.821405,536.266849
163214.226584,-370.102971,-9326.594869,2757.943793
163214.226903,0.000000,-5329.482782,766.095498
163214.227221,2294.638420,-4219.173869,3294.210641
163214.227539,2294.638420,-3256.906145,2374.896044
163214.227858,1184.329507,-4811.338623,2451.505594
163214.228176,-74.020594,-6291.750507,153.219100
163214.228495,-666.185348,-9474.636058,-1915.238745
163214.228813,-4737.318029,-10140.821405,-5209.449386
163214.229131,-5773.606348,-12509.480420,-5898.935335
163214.229450,-4885.359217,-15026.180623,-4673.182538
163214.229768,-3404.947333,-14730.098246,-2374.896044
163214.230087,-4441.235652,-11917.315666,-1838.629195
163214.230405,-1258.350101,-11843.295072,1455.581446
163214.230724,-1184.329507,-8660.409521,3140.991542
163214.231042,0.000000,-7179.997637,4903.011187
163214.231360,3478.967927,-7994.224174,9116.536426
163214.231679,2294.638420,-2812.782580,4060.306139
163214.231997,2368.659014,-3997.112087,5669.106685
163214.232316,-148.041188,-5551.544565,2604.724693
163214.232634,-3256.906145,-6291.750507,-1608.800546
163214.232952,-7179.997637,-10658.965565,-4979.620737
163214.233271,-11251.130318,-13027.624579,-6511.811733
163214.233589,-10140.821405,-14211.954086,-8350.440928
163214.233908,-8660.409521,-14063.912898,-5592.497135
163214.234226,-5551.544565,-10807.006753,-4290.134789
163214.234544,-1184.329507,-10732.986159,2451.505594
163214.234863,592.164754,-7179.997637,1225.752797
163214.235181,3775.050304,-8290.306550,5132.839837
163214.235500,2886.803174,-7476.080014,5132.839837
163214.235818,1184.329507,-7624.121203,3677.258390
163214.236137,-74.020594,-7994.224174,-76.609550
163214.236455,-1036.288319,-8734.430116,-1302.362347
163214.236773,-1998.556043,-9474.636058,-2528.115143
163214.237092,-4145.153275,-8364.327145,-4596.572988
163214.237410,-2960.823768,-10881.027347,-3983.696590
163214.237729,-1850.514855,-11843.295072,-3753.867940
163214.238047,-4441.235652,-10140.821405,-6128.763984
163214.238365,-1850.514855,-10066.800811,-3217.601092
163214.238684,1776.494261,-9326.594869,-612.876398
163214.239002,4737.318029,-8290.306550,2757.943793
163214.239321,4737.318029,-5107.421000,3064.381992
163214.239639,7624.121203,-7105.977043,4826.401637
163214.239957,3552.988522,-5995.668130,2757.943793
163214.240276,5107.421000,-9474.636058,3600.648841
163214.240594,4071.132681,-12879.583391,2068.457845
163214.240913,0.000000,-13841.851115,-76.609550
163214.241231,-2590.720797,-11917.315666,-3447.429741
163214.241550,-2886.803174,-11843.295072,-2757.943793
163214.241868,-2294.638420,-10288.862594,-2451.505594
163214.242186,0.000000,-7772.162391,-2451.505594
163214.242505,1110.308913,-7031.956449,229.828649
163214.242823,2294.638420,-5921.647536,1455.581446
163214.243142,888.247130,-4367.215058,689.485948
163214.243460,1184.329507,-5403.503377,2451.505594
163214.243778,4663.297435,-9474.636058,2987.772442
163214.244097,740.205942,-8364.327145,0.000000
163214.244415,1554.432478,-10436.903782,-689.485948
163214.244734,1110.308913,-12213.398043,-995.924147
163214.245052,444.123565,-13545.768739,-1072.533697
163214.245370,-2072.576638,-12213.398043,-2451.505594
163214.245689,-1184.329507,-14285.974681,0.000000
163214.246007,-1258.350101,-14063.912898,-76.609550
163214.246326,-2738.761985,-10658.965565,-76.609550
163214.246644,-3256.906145,-7179.997637,306.438199
163214.246963,2146.597232,-8290.306550,4826.401637
163214.247281,444.123565,-3923.091493,3677.258390
163214.247599,1110.308913,-3182.885551,3447.429741
163214.247918,296.082377,-3701.029710,1991.848295
163214.248236,-814.226536,-5625.565159,1149.143247
163214.248555,-4737.318029,-5995.668130,-3677.258390
163214.248873,-4811.338623,-11769.274478,-3753.867940
163214.249191,-5995.668130,-14063.912898,-4519.963438
163214.249510,-5255.462188,-15322.262999,-4213.525239
163214.249828,-3627.009116,-14211.954086,-3447.429741
163214.250147,-1998.556043,-12213.398043,-2298.286494
163214.250465,-370.102971,-13027.624579,1149.143247
163214.250783,-2220.617826,-9548.656652,612.876398
163214.251102,-3552.988522,-7179.997637,612.876398
163214.251420,2294.638420,-7698.141797,4826.401637
163214.251739,296.082377,-4219.173869,3677.258390
163214.252057,2146.597232,-3849.070898,3064.381992
163214.252376,888.247130,-3849.070898,919.314598
163214.252694,-1406.391290,-5995.668130,-1838.629195
163214.253012,-3775.050304,-7920.203579,-3370.820191
163214.253331,-5329.482782,-10362.883188,-4979.620737
163214.253649,-4811.338623,-12731.542202,-3753.867940
163214.253968,-2442.679609,-14211.954086,-3140.991542
163214.254286,-666.185348,-11843.295072,-2221.676944
163214.254604,4071.132681,-10658.965565,-76.609550
163214.254923,5329.482782,-9326.594869,3064.381992
163214.255241,6143.709319,-8364.327145,4213.525239
163214.255560,4145.153275,-8586.388927,4519.963438
163214.255878,1628.453072,-9252.574275,3524.039291
163214.256196,814.226536,-10658.965565,1762.019645
163214.256515,-1110.308913,-9252.574275,-383.047749
163214.256833,-3552.988522,-6587.832884,-2451.505594
163214.257152,-1184.329507,-7920.203579,-1072.533697
163214.257470,-1258.350101,-8216.285956,-766.095498
163214.257789,-3552.988522,-5403.503377,-4903.011187
163214.258107,-1850.514855,-9400.615463,-3064.381992
163214.258425,-2146.597232,-8882.471304,-2911.162892
163214.258744,-1332.370696,-9474.636058,-2145.067394
163214.259062,1702.473667,-8882.471304,-1302.362347
163214.259381,4071.132681,-9474.636058,-76.609550
163214.259699,6439.791695,-11843.295072,2068.457845
163214.260017,2960.823768,-9548.656652,536.266849
163214.260336,2960.823768,-10955.047942,0.000000
163214.260654,3182.885551,-14211.954086,2374.896044
163214.260973,0.000000,-11325.150913,0.000000
163214.261291,-74.020594,-12139.377449,153.219100
163214.261609,-518.144159,-11177.109724,229.828649
163214.261928,-666.185348,-8290.306550,842.705048
163214.262246,-296.082377,-4811.338623,1149.143247
163214.262565,2294.638420,-5921.647536,1149.143247
163214.262883,1406.391290,-5329.482782,536.266849
163214.263202,-666.185348,-5921.647536,-76.609550
163214.263520,-2146.597232,-5995.668130,-1915.238745
163214.263838,-74.020594,-9474.636058,-689.485948
163214.264157,-1332.370696,-10436.903782,-1302.362347
163214.264475,-1258.350101,-11325.150913,-1149.143247
163214.264794,-370.102971,-12509.480420,-306.438199
163214.265112,0.000000,-12731.542202,229.828649
163214.265430,74.020594,-13767.830521,1149.143247
163214.265749,-1554.432478,-12287.418637,-76.609550
163214.266067,-4145.153275,-9548.656652,-2451.505594
163214.266386,-3552.988522,-10732.986159,766.095498
163214.266704,-1850.514855,-9326.594869,612.876398
163214.267023,-2368.659014,-4811.338623,0.000000
163214.267341,222.061783,-4959.379811,1762.019645
163214.267659,0.000000,-3256.906145,1378.971896
163214.267978,-962.267725,-4367.215058,-306.438199
163214.268296,-74.020594,-7105.977043,-1915.238745
163214.268615,-74.020594,-9474.636058,-2528.115143
163214.268933,-666.185348,-13027.624579,-1302.362347
163214.269251,-1850.514855,-12435.459826,-3217.601092
163214.269570,-2368.659014,-12509.480420,-1685.410096
163214.269888,592.164754,-13989.892304,919.314598
163214.270207,0.000000,-11621.233289,0.000000
163214.270525,814.226536,-11917.315666,1608.800546
163214.270843,148.041188,-9696.697840,2528.115143
163214.271162,148.041188,-8068.244768,2681.334243
163214.271480,222.061783,-4811.338623,1762.019645
163214.271799,2294.638420,-7105.977043,3600.648841
163214.272117,1702.473667,-3108.864956,995.924147
163214.272436,592.164754,-4367.215058,689.485948
163214.272754,-3552.988522,-5403.503377,-2451.505594
163214.273072,-1258.350101,-10658.965565,-2528.115143
163214.273391,-5625.565159,-11029.068536,-5515.887586
163214.273709,-5699.585753,-13027.624579,-4903.011187
163214.274028,-3997.112087,-12953.603985,-3907.087040
163214.274346,-370.102971,-11843.295072,-689.485948
163214.274664,1406.391290,-9252.574275,229.828649
163214.274983,5255.462188,-9474.636058,1762.019645
163214.275301,3701.029710,-9548.656652,2451.505594
163214.275620,2368.659014,-9548.656652,3677.258390
163214.275938,2886.803174,-10881.027347,1532.190996
163214.276256,0.000000,-8364.327145,0.000000
163214.276575,222.061783,-9030.512492,76.609550
163214.276893,0.000000,-9326.594869,76.609550
163214.277212,0.000000,-8734.430116,689.485948
163214.277530,-74.020594,-7105.977043,-1302.362347
163214.277849,-74.020594,-7698.141797,-1608.800546
163214.278167,-1258.350101,-6957.935855,-1915.238745
163214.278485,-2960.823768,-6587.832884,-3370.820191
163214.278804,-592.164754,-9844.739029,306.438199
163214.279122,2294.638420,-10658.965565,2374.896044
163214.279441,1184.329507,-9548.656652,1532.190996
163214.279759,2294.638420,-10214.842000,1762.019645
163214.280077,1776.494261,-10881.027347,1838.629195
163214.280396,592.164754,-11547.212695,1225.752797
163214.280714,-2368.659014,-10140.821405,0.000000
163214.281033,-2368.659014,-11473.192101,-1149.143247
163214.281351,-1332.370696,-12731.542202,1149.143247
163214.281669,-2442.679609,-8882.471304,-842.705048
163214.281988,-2960.823768,-6587.832884,-1149.143247
163214.282306,-1406.391290,-6217.729913,536.266849
163214.282625,444.123565,-6291.750507,1532.190996
163214.282943,-370.102971,-4663.297435,-383.047749
163214.283262,-296.082377,-6217.729913,-689.485948
163214.283580,-444.123565,-7994.224174,-1532.190996
163214.283898,-2368.659014,-8364.327145,-2451.505594
163214.284217,-296.082377,-10066.800811,-2528.115143
163214.284535,0.000000,-11917.315666,0.000000
163214.284854,2294.638420,-13619.789333,-383.047749
163214.285172,3182.885551,-14211.954086,-76.609550
163214.285490,3034.844362,-15396.283594,3600.648841
163214.285809,-592.164754,-12583.501014,0.000000
163214.286127,-2220.617826,-11621.233289,0.000000
163214.286446,-3182.885551,-9622.677246,229.828649
163214.286764,-2368.659014,-7031.956449,2451.505594
163214.287082,-370.102971,-6365.771101,2068.457845
163214.287401,2294.638420,-4737.318029,2374.896044
163214.287719,814.226536,-3034.844362,995.924147
163214.288038,0.000000,-3627.009116,0.000000
163214.288356,-74.020594,-9474.636058,-76.609550
163214.288675,-2368.659014,-10436.903782,-3140.991542
163214.288993,-3775.050304,-12657.521608,-4213.525239
163214.289311,-3627.009116,-13915.871710,-3140.991542
163214.289630,-2442.679609,-13989.892304,-2834.553343
163214.289948,-3552.988522,-12509.480420,-2451.505594
163214.290267,0.000000,-12509.480420,306.438199
163214.290585,444.123565,-11621.233289,1838.629195
163214.290903,2886.803174,-10658.965565,4213.525239
163214.291222,518.144159,-6587.832884,1915.238745
163214.291540,3849.070898,-8290.306550,4826.401637
163214.291859,2368.659014,-4515.256246,2604.724693
163214.292177,3108.864956,-4515.256246,2834.553343
163214.292495,0.000000,-3627.009116,0.000000
163214.292814,-370.102971,-7328.038826,-76.609550
163214.293132,-5921.647536,-5995.668130,-5822.325785
163214.293451,-3997.112087,-11029.068536,-4366.744339
163214.293769,-3849.070898,-12213.398043,-3907.087040
163214.294088,-1850.514855,-12657.521608,-2221.676944
163214.294406,1110.308913,-11251.130318,-383.047749
163214.294724,2960.823768,-9030.512492,612.876398
163214.295043,5551.544565,-11547.212695,3600.648841
163214.295361,4367.215058,-9030.512492,2987.772442
163214.295680,0.000000,-8364.327145,1225.752797
163214.295998,2886.803174,-13027.624579,4826.401637
163214.296316,-2072.576638,-9548.656652,612.876398
163214.296635,-1702.473667,-9770.718434,-229.828649
163214.296953,-1776.494261,-8660.409521,-1149.143247
163214.297272,-2368.659014,-7402.059420,-1915.238745
163214.297590,-2812.782580,-7105.977043,-2451.505594
163214.297908,-2960.823768,-7328.038826,-2834.553343
163214.298227,-1258.350101,-8290.306550,-1302.362347
163214.298545,-74.020594,-8882.471304,-2528.115143
163214.298864,-666.185348,-7698.141797,-2298.286494
163214.299182,3478.967927,-9474.636058,-76.609550
163214.299501,1184.329507,-7772.162391,0.000000
163214.299819,3182.885551,-10214.842000,1149.143247
163214.300137,2664.741391,-11843.295072,1149.143247
163214.300456,1554.432478,-12657.521608,1608.800546
163214.300774,222.061783,-13619.789333,1762.019645
163214.301093,-962.267725,-11843.295072,2374.896044
163214.301411,-74.020594,-9474.636058,-689.485948
163214.301729,-2146.597232,-7179.997637,0.000000
163214.302048,-1184.329507,-6291.750507,1225.752797
163214.302366,-1850.514855,-2738.761985,0.000000
163214.302685,-444.123565,-5107.421000,0.000000
163214.303003,-1776.494261,-5847.626942,-1302.362347
163214.303322,-2886.803174,-7402.059420,-2451.505594
163214.303640,-1850.514855,-9474.636058,-1915.238745
163214.303958,-666.185348,-11547.212695,-2068.457845
163214.304277,-74.020594,-11843.295072,-2528.115143
163214.304595,-1776.494261,-11029.068536,-1838.629195
163214.304914,888.247130,-12509.480420,0.000000
163214.305232,3330.926739,-14063.912898,2987.772442
163214.305550,0.000000,-11325.150913,0.000000
163214.305869,-1036.288319,-11843.295072,766.095498
163214.306187,-2368.659014,-10881.027347,612.876398
163214.306506,-2294.638420,-8586.388927,612.876398
163214.306824,-74.020594,-5921.647536,536.266849
163214.307142,2294.638420,-6513.812290,2987.772442
163214.307461,1628.453072,-3552.988522,536.266849
163214.307779,592.164754,-2442.679609,0.000000
163214.308098,-2072.576638,-5403.503377,0.000000
163214.308416,-74.020594,-9474.636058,-1302.362347
163214.308735,-2368.659014,-10140.821405,-2757.943793
163214.309053,-1628.453072,-12805.562797,-1762.019645
163214.309371,-592.164754,-13101.645173,-1149.143247
163214.309690,518.144159,-12509.480420,1149.143247
163214.310008,1406.391290,-12953.603985,1685.410096
163214.310327,2294.638420,-11843.295072,1455.581446
163214.310645,814.226536,-11843.295072,2374.896044
163214.310963,-2072.576638,-8364.327145,612.876398
163214.311282,0.000000,-9252.574275,612.876398
163214.311600,-74.020594,-6809.894666,-76.609550
163214.311919,1184.329507,-6217.729913,1532.190996
163214.312237,1406.391290,-5625.565159,1378.971896
163214.312555,148.041188,-5995.668130,0.000000
163214.312874,-666.185348,-8290.306550,-1915.238745
163214.313192,-1258.350101,-11251.130318,-3140.991542
163214.313511,-2442.679609,-12435.459826,-2834.553343
163214.313829,-2442.679609,-11843.295072,-3753.867940
163214.314148,-2146.597232,-10510.924376,-4136.915689
163214.314466,592.164754,-10732.986159,0.000000
163214.314784,1702.473667,-9548.656652,-1225.752797
163214.315103,3627.009116,-10807.006753,1532.190996
163214.315421,3627.009116,-10584.944971,2145.067394
163214.315740,2368.659014,-11251.130318,2145.067394
163214.316058,2294.638420,-10066.800811,2068.457845
163214.316376,1628.453072,-11547.212695,3524.039291
163214.316695,-74.020594,-8882.471304,1149.143247
163214.317013,-1184.329507,-7179.997637,1225.752797
163214.317332,-3552.988522,-4811.338623,0.000000
163214.317650,-74.020594,-7994.224174,-76.609550
163214.317969,-2664.741391,-5699.585753,-2068.457845
163214.318287,-2146.597232,-7550.100608,-2221.676944
163214.318605,-2220.617826,-8808.450710,-2451.505594
163214.318924,-2516.700203,-9548.656652,-919.314598
163214.319242,-1850.514855,-10214.842000,-1915.238745
163214.319561,-74.020594,-13027.624579,-229.828649
163214.319879,1110.308913,-11769.274478,-76.609550
163214.320197,1110.308913,-11251.130318,0.000000
163214.320516,0.000000,-11325.150913,0.000000
163214.320834,-74.020594,-10658.965565,1149.143247
163214.321153,-1628.453072,-9992.780217,459.657299
163214.321471,-1480.411884,-8512.368333,612.876398
163214.321789,-1184.329507,-7179.997637,536.266849
163214.322108,1110.308913,-7994.224174,2374.896044
163214.322426,1480.411884,-6143.709319,1149.143247
163214.322745,-74.020594,-5773.606348,-76.609550
163214.323063,-74.020594,-7105.977043,-2528.115143
163214.323382,-4441.235652,-7179.997637,-3983.696590
163214.323700,-4737.318029,-9548.656652,-2451.505594
163214.324018,-1924.535449,-10658.965565,-2528.115143
163214.324337,740.205942,-11917.315666,-536.266849
163214.324655,2812.782580,-11103.089130,1149.143247
163214.324974,3997.112087,-11621.233289,1685.410096
163214.325292,4663.297435,-11843.295072,2374.896044
163214.325610,1110.308913,-11843.295072,3294.210641
163214.325929,-1258.350101,-10362.883188,0.000000
163214.326247,-4441.235652,-10140.821405,306.438199
163214.326566,-2442.679609,-9474.636058,2068.457845
163214.326884,-3552.988522,-5403.503377,0.000000
163214.327202,-74.020594,-5921.647536,842.705048
163214.327521,74.020594,-4441.235652,306.438199
163214.327839,-962.267725,-4737.318029,-919.314598
163214.328158,-2368.659014,-4811.338623,-3140.991542
163214.328476,-1406.391290,-9474.636058,-3370.820191
163214.328795,-2960.823768,-10140.821405,-2451.505594
163214.329113,-74.020594,-12879.583391,-1302.362347
163214.329431,518.144159,-13027.624579,-76.609550
163214.329750,0.000000,-10732.986159,0.000000
163214.330068,0.000000,-10510.924376,0.000000
163214.330387,1110.308913,-12287.418637,612.876398
163214.330705,370.102971,-11399.171507,1225.752797
163214.331023,888.247130,-10140.821405,1378.971896
163214.331342,2886.803174,-8882.471304,2068.457845
163214.331660,1480.411884,-6291.750507,1532.190996
163214.331979,1184.329507,-4811.338623,1838.629195
163214.332297,0.000000,-3627.009116,1225.752797
163214.332615,1702.473667,-6661.853478,1302.362347
163214.332934,-2960.823768,-4811.338623,-2451.505594
163214.333252,-2146.597232,-8734.430116,-3140.991542
163214.333571,-3256.906145,-10288.862594,-3600.648841
163214.333889,-3330.926739,-11473.192101,-3370.820191
163214.334208,-2442.679609,-11917.315666,-2834.553343
163214.334526,2294.638420,-13027.624579,-76.609550
163214.334844,814.226536,-10881.027347,0.000000
163214.335163,2368.659014,-11695.253884,1149.143247
163214.335481,2516.700203,-10955.047942,2145.067394
163214.335800,2590.720797,-12213.398043,3677.258390
163214.336118,0.000000,-10732.986159,2068.457845
163214.336436,-3552.988522,-7772.162391,0.000000
163214.336755,-1184.329507,-9474.636058,766.095498
163214.337073,-1850.514855,-8290.306550,-76.609550
163214.337392,-2368.659014,-5403.503377,0.000000
163214.337710,-666.185348,-4737.318029,-1915.238745
163214.338029,-1406.391290,-6143.709319,-1838.629195
163214.338347,-1776.494261,-7624.121203,-3140.991542
163214.338665,-1628.453072,-9252.574275,-2604.724693
163214.338984,-74.020594,-9548.656652,-383.047749
163214.339302,370.102971,-11251.130318,-76.609550
163214.339621,1628.453072,-12361.439231,1302.362347
163214.339939,2886.803174,-14211.954086,2374.896044
163214.340257,2886.803174,-12731.542202,2374.896044
163214.340576,1480.411884,-12213.398043,4903.011187
163214.340894,-962.267725,-9992.780217,1608.800546
163214.341213,-1998.556043,-10140.821405,1685.410096
163214.341531,-1850.514855,-8216.285956,1455.581446
163214.341849,-1110.308913,-7031.956449,919.314598
163214.342168,-1776.494261,-4811.338623,0.000000
163214.342486,-1184.329507,-4959.379811,0.000000
163214.342805,-2368.659014,-5995.668130,-612.876398
163214.343123,-2146.597232,-8586.388927,-2528.115143
163214.343442,-3923.091493,-9474.636058,-4060.306139
163214.343760,-1480.411884,-13027.624579,-1302.362347
163214.344078,-1702.473667,-10436.903782,-1915.238745
163214.344397,1628.453072,-11769.274478,-306.438199
163214.344715,3256.906145,-11251.130318,383.047749
163214.345034,4145.153275,-11547.212695,3370.820191
163214.345352,2960.823768,-12509.480420,3064.381992
163214.345670,0.000000,-10140.821405,0.000000
163214.345989,-1036.288319,-12361.439231,919.314598
163214.346307,-1554.432478,-11547.212695,-76.609550
163214.346626,-3552.988522,-7179.997637,-2451.505594
163214.346944,-74.020594,-7105.977043,-689.485948
163214.347262,518.144159,-6217.729913,536.266849
163214.347581,666.185348,-4293.194464,612.876398
163214.347899,74.020594,-4811.338623,0.000000
163214.348218,2294.638420,-8290.306550,-76.609550
163214.348536,-1184.329507,-7476.080014,-1225.752797
163214.348855,-592.164754,-10436.903782,-919.314598
163214.349173,-74.020594,-11695.253884,-306.438199
163214.349491,-74.020594,-13619.789333,-689.485948
163214.349810,-1776.494261,-13101.645173,0.000000
163214.350128,-1332.370696,-12065.356855,-1225.752797
163214.350447,-888.247130,-12805.562797,-612.876398
163214.350765,-740.205942,-11843.295072,383.047749
163214.351083,-592.164754,-10436.903782,383.047749
163214.351402,-74.020594,-8290.306550,306.438199
163214.351720,444.123565,-6587.832884,1991.848295
163214.352039,2220.617826,-5329.482782,3600.648841
163214.352357,518.144159,-2738.761985,0.000000
163214.352676,0.000000,-4219.173869,0.000000
163214.352994,-74.020594,-9178.553681,-76.609550
163214.353312,-2886.803174,-7772.162391,-3217.601092
163214.353631,-2368.659014,-10584.944971,-3677.258390
163214.353949,-2368.659014,-11177.109724,-3600.648841
163214.354268,-1184.329507,-11917.315666,-2298.286494
163214.354586,0.000000,-11917.315666,0.000000
163214.354904,2368.659014,-11695.253884,0.000000
163214.355223,5477.523971,-13027.624579,3907.087040
163214.355541,3775.050304,-11251.130318,2374.896044
163214.355860,148.041188,-7772.162391,1378.971896
163214.356178,2294.638420,-9474.636058,4213.525239
163214.356496,0.000000,-8512.368333,3140.991542
163214.356815,-814.226536,-7476.080014,1838.629195
163214.357133,-1184.329507,-6217.729913,842.705048
163214.357452,-888.247130,-7994.224174,1149.143247
163214.357770,-1776.494261,-6735.874072,-3677.258390
163214.358089,-1258.350101,-9474.636058,-1915.238745
163214.358407,-2738.761985,-8734.430116,-3753.867940
163214.358725,-3552.988522,-8364.327145,-6435.202183
163214.359044,-4737.318029,-9548.656652,-3064.381992
163214.359362,-1406.391290,-10955.047942,-2221.676944
163214.359681,740.205942,-11399.171507,153.219100
163214.359999,2442.679609,-11991.336260,1302.362347
163214.360317,2960.823768,-11399.171507,2911.162892
163214.360636,2590.720797,-12435.459826,2374.896044
163214.360954,0.000000,-9844.739029,2451.505594
163214.361273,-74.020594,-10362.883188,1608.800546
163214.361591,-74.020594,-8290.306550,-76.609550
163214.361909,-1110.308913,-5403.503377,-995.924147
163214.362228,0.000000,-7254.018232,2757.943793
163214.362546,-518.144159,-6143.709319,-1455.581446
163214.362865,-1628.453072,-6883.915261,-1915.238745
163214.363183,-2812.782580,-7772.162391,-3447.429741
163214.363502,-4737.318029,-7772.162391,-3677.258390
163214.363820,-2368.659014,-9548.656652,-2145.067394
163214.364138,444.123565,-11029.068536,306.438199
163214.364457,1776.494261,-9844.739029,1838.629195
163214.364775,4663.297435,-11843.295072,2987.772442
163214.365094,2294.638420,-9252.574275,536.266849
163214.365412,3478.967927,-13323.706956,2374.896044
163214.365730,-888.247130,-11769.274478,0.000000
163214.366049,-3108.864956,-12139.377449,-459.657299
163214.366367,-4589.276840,-11029.068536,-766.095498
163214.366686,-3552.988522,-10436.903782,919.314598
163214.367004,-2516.700203,-7476.080014,-919.314598
163214.367323,-2960.823768,-4811.338623,0.000000
163214.367641,1184.329507,-5551.544565,766.095498
163214.367959,-74.020594,-5329.482782,-689.485948
163214.368278,-3256.906145,-4811.338623,-2451.505594
163214.368596,-74.020594,-8512.368333,-1455.581446
163214.368915,0.000000,-9770.718434,-1225.752797
163214.369233,148.041188,-11695.253884,-919.314598
163214.369551,1184.329507,-12583.501014,-76.609550
163214.369870,3478.967927,-15396.283594,-76.609550
163214.370188,592.164754,-12509.480420,612.876398
163214.370507,1998.556043,-13915.871710,-76.609550
163214.370825,666.185348,-11769.274478,1149.143247
163214.371143,-1258.350101,-8142.265362,306.438199
163214.371462,0.000000,-5403.503377,0.000000
163214.371780,962.267725,-6217.729913,1915.238745
163214.372099,1332.370696,-4811.338623,1915.238745
163214.372417,1110.308913,-4737.318029,2145.067394
163214.372736,1110.308913,-4737.318029,-76.609550
163214.373054,-1850.514855,-6365.771101,-919.314598
163214.373372,-4145.153275,-7772.162391,-2911.162892
163214.373691,-3701.029710,-10732.986159,-4903.011187
163214.374009,-1258.350101,-13619.789333,-2528.115143
163214.374328,-3256.906145,-11029.068536,-4903.011187
163214.374646,-74.020594,-11843.295072,-2528.115143
163214.374964,1332.370696,-11991.336260,-153.219100
163214.375283,1924.535449,-11399.171507,919.314598
163214.375601,2146.597232,-11473.192101,1608.800546
163214.375920,3478.967927,-12435.459826,3600.648841
163214.376238,0.000000,-9548.656652,1838.629195
163214.376556,-592.164754,-8734.430116,1608.800546
163214.376875,-444.123565,-7254.018232,1149.143247
163214.377193,74.020594,-5995.668130,1762.019645
163214.377512,0.000000,-5107.421000,1838.629195
163214.377830,-2368.659014,-3627.009116,0.000000
163214.378149,-370.102971,-7846.182985,-1302.362347
163214.378467,-1258.350101,-9104.533087,-1302.362347
163214.378785,-2368.659014,-9252.574275,-4903.011187
163214.379104,-1554.432478,-10658.965565,-3447.429741
163214.379422,-888.247130,-12213.398043,-995.924147
163214.379741,666.185348,-11695.253884,229.828649
163214.380059,1702.473667,-11769.274478,1455.581446
163214.380377,3478.967927,-13027.624579,2681.334243
163214.380696,1110.308913,-11251.130318,2068.457845
163214.381014,-1776.494261,-9844.739029,2145.067394
163214.381333,-370.102971,-9474.636058,2374.896044
163214.381651,-74.020594,-7698.141797,-76.609550
163214.381969,0.000000,-6587.832884,0.000000
163214.382288,-1628.453072,-4811.338623,-1915.238745
163214.382606,-1480.411884,-6291.750507,-1991.848295
163214.382925,-3108.864956,-7254.018232,-3370.820191
163214.383243,-3923.091493,-8438.347739,-4673.182538
163214.383562,-3701.029710,-9548.656652,-6128.763984
163214.383880,-1554.432478,-11621.233289,-2298.286494
163214.384198,518.144159,-11547.212695,-76.609550
163214.384517,4663.297435,-13027.624579,1762.019645
163214.384835,5255.462188,-10510.924376,2681.334243
163214.385154,7031.956449,-12435.459826,4826.401637
163214.385472,2664.741391,-10658.965565,2451.505594
163214.385790,1184.329507,-11399.171507,1685.410096
163214.386109,-1184.329507,-11695.253884,612.876398
163214.386427,-2220.617826,-11029.068536,995.924147
163214.386746,-2960.823768,-8364.327145,0.000000
163214.387064,-962.267725,-7476.080014,459.657299
163214.387383,-74.020594,-7105.977043,1149.143247
163214.387701,-74.020594,-5329.482782,-153.219100
163214.388019,-518.144159,-4811.338623,-2451.505594
163214.388338,-74.020594,-7105.977043,-1302.362347
163214.388656,-888.247130,-8364.327145,-1225.752797
163214.388975,-296.082377,-10214.842000,-383.047749
163214.389293,296.082377,-11029.068536,-383.047749
163214.389611,2294.638420,-14063.912898,1762.019645
163214.389930,1628.453072,-13693.809927,0.000000
163214.390248,592.164754,-14804.118840,-76.609550
163214.390567,-962.267725,-12731.542202,-766.095498
163214.390885,-1702.473667,-11547.212695,-76.609550
163214.391203,-2368.659014,-9548.656652,0.000000
163214.391522,-962.267725,-7698.141797,-229.828649
163214.391840,888.247130,-6217.729913,1685.410096
163214.392159,2368.659014,-4515.256246,1608.800546
163214.392477,2368.659014,-4071.132681,2604.724693
163214.392796,3478.967927,-6513.812290,1149.143247
163214.393114,0.000000,-6735.874072,0.000000
163214.393432,-592.164754,-9474.636058,-1915.238745
163214.393751,-1850.514855,-13027.624579,-1915.238745
163214.394069,-4145.153275,-10140.821405,-4903.011187
163214.394388,-592.164754,-13841.851115,-306.438199
163214.394706,-592.164754,-11991.336260,-2145.067394
163214.395024,1850.514855,-12657.521608,0.000000
163214.395343,2368.659014,-11917.315666,1378.971896
163214.395661,1184.329507,-11473.192101,2757.943793
163214.395980,592.164754,-9548.656652,2451.505594
163214.396298,0.000000,-9252.574275,2987.772442
163214.396616,-74.020594,-9474.636058,3600.648841
163214.396935,-1554.432478,-5625.565159,612.876398
163214.397253,-1036.288319,-5107.421000,0.000000
163214.397572,-74.020594,-7105.977043,-76.609550
163214.397890,-2368.659014,-5699.585753,-2604.724693
163214.398209,-3330.926739,-7698.141797,-4060.306139
163214.398527,-3701.029710,-9400.615463,-4903.011187
163214.398845,-2072.576638,-11769.274478,-2451.505594
163214.399164,-1184.329507,-12805.562797,-1225.752797
163214.399482,0.000000,-11917.315666,0.000000
163214.399800,2590.720797,-12731.542202,1762.019645
163214.400119,2590.720797,-10955.047942,1455.581446
163214.400437,296.082377,-9548.656652,1225.752797
163214.400756,2072.576638,-9622.677246,3064.381992
163214.401074,3478.967927,-10658.965565,3600.648841
163214.401392,148.041188,-7772.162391,2451.505594
163214.401711,0.000000,-7031.956449,1532.190996
163214.402029,2294.638420,-8290.306550,1762.019645
163214.402347,1184.329507,-7031.956449,1378.971896
163214.402666,-222.061783,-7698.141797,-1302.362347
163214.402984,-2738.761985,-7994.224174,-3140.991542
163214.403303,-5403.503377,-7698.141797,-5669.106685
163214.403621,-2960.823768,-12213.398043,-459.657299
163214.403939,-2590.720797,-10436.903782,-2298.286494
163214.404258,222.061783,-10658.965565,-76.609550
163214.404576,2368.659014,-10140.821405,1685.410096
163214.404894,3849.070898,-9992.780217,2451.505594
163214.405213,4663.297435,-11547.212695,3524.039291
163214.405531,3775.050304,-12435.459826,3447.429741
163214.405850,-148.041188,-11843.295072,1149.143247
163214.406168,-5847.626942,-9548.656652,-2451.505594
163214.406486,-4737.318029,-9548.656652,-3677.258390
163214.406805,-666.185348,-10658.965565,-1915.238745
163214.407123,-2368.659014,-7179.997637,-1532.190996
163214.407442,-888.247130,-5699.585753,-842.705048
163214.407760,-222.061783,-4737.318029,-383.047749
163214.408078,1184.329507,-6587.832884,1532.190996
163214.408397,592.164754,-7328.038826,229.828649
163214.408715,1110.308913,-8290.306550,-383.047749
163214.409033,518.144159,-8290.306550,-1608.800546
163214.409352,0.000000,-10140.821405,76.609550
163214.409670,0.000000,-10732.986159,0.000000
163214.409989,1406.391290,-12953.603985,383.047749
163214.410307,-592.164754,-13175.665768,0.000000
163214.410625,-1628.453072,-12953.603985,-459.657299
163214.410944,-2220.617826,-11695.253884,-459.657299
163214.411262,-74.020594,-11843.295072,-76.609550
163214.411580,-962.267725,-7920.203579,2451.505594
163214.411899,2294.638420,-5921.647536,1762.019645
163214.412217,0.000000,-3330.926739,1838.629195
163214.412536,2146.597232,-4145.153275,2451.505594
163214.412854,0.000000,-3034.844362,-2451.505594
163214.413172,-814.226536,-6661.853478,-1302.362347
163214.413491,-2812.782580,-9104.533087,-3294.210641
163214.413809,-3256.906145,-11695.253884,-3907.087040
163214.414128,-3182.885551,-12139.377449,-4366.744339
163214.414446,-1480.411884,-13175.665768,-3677.258390
163214.414764,-2072.576638,-11325.150913,-2451.505594
163214.415083,2072.576638,-12509.480420,0.000000
163214.415401,4663.297435,-14211.954086,3600.648841
163214.415719,1776.494261,-9548.656652,612.876398
163214.416038,1998.556043,-8882.471304,2374.896044
163214.416356,1258.350101,-8808.450710,3600.648841
163214.416675,592.164754,-6735.874072,2528.115143
163214.416993,740.205942,-6143.709319,2451.505594
163214.417311,2294.638420,-6513.812290,2374.896044
163214.417630,222.061783,-5699.585753,-76.609550
163214.417948,-1998.556043,-5995.668130,-2145.067394
163214.418266,-3034.844362,-6883.915261,-5286.058936
163214.418585,-4737.318029,-9844.739029,-3983.696590
163214.418903,-4737.318029,-10140.821405,-6128.763984
163214.419222,-1554.432478,-12657.521608,-2221.676944
163214.419540,-296.082377,-11917.315666,-383.047749
163214.419858,1480.411884,-11621.233289,1149.143247
163214.420177,2072.576638,-11029.068536,2451.505594
163214.420495,3182.885551,-11843.295072,4826.401637
163214.420813,296.082377,-10140.821405,2528.115143
163214.421132,74.020594,-9770.718434,2145.067394
163214.421450,-962.267725,-8216.285956,995.924147
163214.421769,-296.082377,-7179.997637,1225.752797
163214.422087,-1184.329507,-6217.729913,995.924147
163214.422405,-2368.659014,-5995.668130,-1225.752797
163214.422724,-888.247130,-7994.224174,-1838.629195
163214.423042,-1850.514855,-9474.636058,-1915.238745
163214.423361,-5625.565159,-7179.997637,-6128.763984
163214.423679,-1850.514855,-10658.965565,-3753.867940
163214.423997,0.000000,-11029.068536,-1302.362347
163214.424316,2368.659014,-10066.800811,1149.143247
163214.424634,4219.173869,-9622.677246,2374.896044
163214.424952,5625.565159,-9770.718434,3447.429741
163214.425271,4367.215058,-10807.006753,2528.115143
163214.425589,296.082377,-11029.068536,1991.848295
163214.425908,-1776.494261,-11917.315666,1532.190996
163214.426226,-1850.514855,-11843.295072,-689.485948
163214.426544,-4737.318029,-9548.656652,0.000000
163214.426863,-3923.091493,-8290.306550,-1915.238745
163214.427181,-2738.761985,-6735.874072,-689.485948
163214.427499,-1776.494261,-5107.421000,-766.095498
163214.427818,-1480.411884,-5255.462188,-1072.533697
163214.428136,-1554.432478,-5403.503377,-2451.505594
163214.428455,-1702.473667,-7105.977043,-1685.410096
163214.428773,0.000000,-8364.327145,0.000000
163214.429091,1406.391290,-11547.212695,-76.609550
163214.429410,740.205942,-11843.295072,-459.657299
163214.429728,1184.329507,-14211.954086,1532.190996
163214.430047,0.000000,-12361.439231,-919.314598
163214.430365,-740.205942,-13249.686362,-842.705048
163214.430683,-1184.329507,-12657.521608,-536.266849
163214.431002,-2072.576638,-11325.150913,0.000000
163214.431320,0.000000,-7772.162391,0.000000
163214.431638,0.000000,-5403.503377,612.876398
163214.431957,2960.823768,-5847.626942,3677.258390
163214.432275,4071.132681,-4737.318029,3677.258390
163214.432594,2590.720797,-2072.576638,1149.143247
163214.432912,3478.967927,-5921.647536,2068.457845
163214.433230,0.000000,-7179.997637,-842.705048
163214.433549,-1998.556043,-9326.594869,-2604.724693
163214.433867,-2738.761985,-11547.212695,-3524.039291
163214.434185,-1776.494261,-13101.645173,-2451.505594
163214.434504,-2960.823768,-11917.315666,-4136.915689
163214.434822,0.000000,-12509.480420,-1532.190996
163214.435141,1924.535449,-12879.583391,612.876398
163214.435459,3478.967927,-13619.789333,2681.334243
163214.435777,0.000000,-9548.656652,1225.752797
163214.436096,1258.350101,-9474.636058,2374.896044
163214.436414,-592.164754,-8882.471304,2604.724693
163214.436732,-740.205942,-7105.977043,1532.190996
163214.437051,-666.185348,-6217.729913,1072.533697
163214.437369,-296.082377,-5699.585753,536.266849
163214.437688,-1776.494261,-5403.503377,-1838.629195
163214.438006,-1406.391290,-6957.935855,-4290.134789
163214.438324,-1554.432478,-9918.759623,-2528.115143
163214.438643,-1850.514855,-10658.965565,-4366.744339
163214.438961,-2368.659014,-12657.521608,-1532.190996
163214.439280,-814.226536,-12213.398043,-2221.676944
163214.439598,962.267725,-11843.295072,76.609550
163214.439916,2590.720797,-11621.233289,2068.457845
163214.440235,2368.659014,-9548.656652,2451.505594
163214.440553,1184.329507,-8364.327145,2451.505594
163214.440871,888.247130,-10140.821405,3677.258390
163214.441190,1998.556043,-10658.965565,3600.648841
163214.441508,-1332.370696,-7031.956449,536.266849
163214.441827,-1258.350101,-4663.297435,-689.485948
163214.442145,-74.020594,-7624.121203,1149.143247
163214.442463,-1184.329507,-6069.688724,-612.876398
163214.442782,-3034.844362,-6661.853478,-2221.676944
163214.443100,-5033.400406,-7846.182985,-3907.087040
163214.443418,-4737.318029,-9844.739029,-2451.505594
163214.443737,-4737.318029,-9548.656652,-4903.011187
163214.444055,-3552.988522,-10732.986159,-1225.752797
163214.444374,1998.556043,-11547.212695,1455.581446
163214.444692,3478.967927,-11843.295072,3600.648841
163214.445010,1480.411884,-8364.327145,0.000000
163214.445329,3478.967927,-11251.130318,2374.896044
163214.445647,518.144159,-11325.150913,1608.800546
163214.445966,-2072.576638,-11991.336260,-536.266849
163214.446284,-3627.009116,-11399.171507,-612.876398
163214.446602,-2442.679609,-11769.274478,-383.047749
163214.446921,-2368.659014,-7772.162391,0.000000
163214.447239,-222.061783,-7179.997637,-76.609550
163214.447557,-74.020594,-8290.306550,-76.609550
163214.447876,-370.102971,-5033.400406,-1302.362347
163214.448194,0.000000,-7179.997637,1532.190996
163214.448513,-74.020594,-8068.244768,-383.047749
163214.448831,592.164754,-9474.636058,383.047749
163214.449149,814.226536,-10214.842000,383.047749
163214.449468,0.000000,-9844.739029,0.000000
163214.449786,0.000000,-10732.986159,0.000000
163214.450104,518.144159,-13101.645173,306.438199
163214.450423,-1184.329507,-12509.480420,612.876398
163214.450741,-74.020594,-13915.871710,-76.609550
163214.451060,-1850.514855,-10362.883188,-1302.362347
163214.451378,-74.020594,-11251.130318,1149.143247
163214.451696,-518.144159,-7624.121203,919.314598
163214.452015,962.267725,-5699.585753,1762.019645
163214.452333,1554.432478,-4737.318029,2221.676944
163214.452651,1776.494261,-4811.338623,3064.381992
163214.452970,296.082377,-5255.462188,0.000000
163214.453288,0.000000,-8660.409521,306.438199
163214.453607,-1850.514855,-8882.471304,-3753.867940
163214.453925,-3552.988522,-11325.150913,-4290.134789
163214.454243,-4145.153275,-10732.986159,-6128.763984
163214.454562,-74.020594,-13471.748144,-2528.115143
163214.454880,1332.370696,-13249.686362,-1149.143247
163214.455199,2812.782580,-12435.459826,842.705048
163214.455517,2886.803174,-11695.253884,2451.505594
163214.455835,4071.132681,-11843.295072,3907.087040
163214.456154,0.000000,-9548.656652,2451.505594
163214.456472,740.205942,-9770.718434,3600.648841
163214.456790,-666.185348,-6661.853478,1915.238745
163214.457109,-3552.988522,-3627.009116,0.000000
163214.457427,-1258.350101,-3256.906145,-612.876398
163214.457746,-370.102971,-5329.482782,-612.876398
163214.458064,-2072.576638,-6439.791695,-2145.067394
163214.458382,-3182.885551,-8216.285956,-3524.039291
163214.458701,-2442.679609,-11251.130318,-3753.867940
163214.459019,-4219.173869,-11473.192101,-3907.087040
163214.459337,-3552.988522,-12065.356855,-3064.381992
163214.459656,-888.247130,-11917.315666,-2451.505594
163214.459974,1554.432478,-13027.624579,2298.286494
163214.460293,518.144159,-9548.656652,0.000000
163214.460611,2294.638420,-11251.130318,2681.334243
163214.460929,444.123565,-9696.697840,2681.334243
163214.461248,-222.061783,-8068.244768,2451.505594
163214.461566,-222.061783,-7179.997637,1762.019645
163214.461885,2294.638420,-8290.306550,2374.896044
163214.462203,444.123565,-5699.585753,0.000000
163214.462521,592.164754,-5699.585753,-689.485948
163214.462840,-1850.514855,-6957.935855,-2298.286494
163214.463158,-3182.885551,-8956.491898,-2528.115143
163214.463476,-4737.318029,-10732.986159,-3677.258390
163214.463795,-5921.647536,-9548.656652,-4903.011187
163214.464113,-2072.576638,-11621.233289,-1072.533697
163214.464432,2590.720797,-11843.295072,4136.915689
163214.464750,3923.091493,-9770.718434,1225.752797
163214.465068,5847.626942,-9474.636058,2987.772442
163214.465387,3108.864956,-10214.842000,3370.820191
163214.465705,888.247130,-10732.986159,2298.286494
163214.466023,-2220.617826,-10658.965565,919.314598
163214.466342,-1554.432478,-11547.212695,995.924147
163214.466660,-3034.844362,-9474.636058,-995.924147
163214.466979,-2368.659014,-9252.574275,-919.314598
163214.467297,-3034.844362,-5921.647536,-1915.238745
163214.467615,-2442.679609,-4293.194464,-2834.553343
163214.467934,-2368.659014,-5403.503377,0.000000
163214.468252,-1776.494261,-5995.668130,-2604.724693
163214.468571,0.000000,-8142.265362,-689.485948
163214.468889,740.205942,-8956.491898,0.000000
163214.469207,1628.453072,-10214.842000,229.828649
163214.469526,2294.638420,-10066.800811,-1378.971896
163214.469844,1480.411884,-10881.027347,229.828649
163214.470162,2294.638420,-12953.603985,1225.752797
163214.470481,2294.638420,-14211.954086,1149.143247
163214.470799,-74.020594,-12731.542202,-76.609550
163214.471118,-74.020594,-13027.624579,2145.067394
163214.471436,-1036.288319,-8586.388927,306.438199
163214.471754,592.164754,-7179.997637,995.924147
163214.472073,1332.370696,-5995.668130,1762.019645
163214.472391,1702.473667,-5107.421000,2451.505594
163214.472709,592.164754,-3627.009116,2451.505594
163214.473028,592.164754,-5403.503377,0.000000
163214.473346,740.205942,-8660.409521,-76.609550
163214.473665,-1406.391290,-9474.636058,-2834.553343
163214.473983,-3404.947333,-10140.821405,-4903.011187
163214.474301,-74.020594,-14211.954086,-3140.991542
163214.474620,-1776.494261,-13175.665768,-3064.381992
163214.474938,0.000000,-13545.768739,-1455.581446
163214.475256,814.226536,-12583.501014,0.000000
163214.475575,2368.659014,-12657.521608,3370.820191
163214.475893,2368.659014,-10732.986159,612.876398
163214.476212,0.000000,-10140.821405,3064.381992
163214.476530,-74.020594,-8290.306550,1608.800546
163214.476848,-1036.288319,-5403.503377,0.000000
163214.477167,0.000000,-4811.338623,612.876398
163214.477485,-74.020594,-4737.318029,76.609550
163214.477804,0.000000,-4811.338623,-1302.362347
163214.478122,-1258.350101,-6439.791695,-2451.505594
163214.478440,-1850.514855,-8734.430116,-3140.991542
163214.478759,-1258.350101,-11843.295072,-2528.115143
163214.479077,-3256.906145,-11917.315666,-3064.381992
163214.479395,-1184.329507,-12731.542202,-536.266849
163214.479714,1184.329507,-13693.809927,2145.067394
163214.480032,2294.638420,-13027.624579,2221.676944
163214.480351,1184.329507,-11917.315666,4290.134789
163214.480669,666.185348,-9918.759623,2451.505594
163214.480987,0.000000,-9844.739029,2987.772442
163214.481306,-592.164754,-7920.203579,2374.896044
163214.481624,-888.247130,-6735.874072,1225.752797
163214.481942,-1184.329507,-4811.338623,612.876398
163214.482261,-296.082377,-5995.668130,459.657299
163214.482579,-1184.329507,-7328.038826,-459.657299
163214.482898,-2442.679609,-8290.306550,-3140.991542
163214.483216,-5255.462188,-7846.182985,-5898.935335
163214.483534,-2442.679609,-13027.624579,-3753.867940
163214.483853,-3552.988522,-11695.253884,-3983.696590
163214.484171,-666.185348,-11251.130318,-1072.533697
163214.484490,2368.659014,-10140.821405,919.314598
163214.484808,4145.153275,-10140.821405,3064.381992
163214.485126,4737.318029,-10732.986159,3677.258390
163214.485445,4737.318029,-10732.986159,4290.134789
163214.485763,3182.885551,-11843.295072,3294.210641
163214.486081,-2368.659014,-9548.656652,0.000000
163214.486400,-3997.112087,-8364.327145,-2451.505594
163214.486718,-1850.514855,-9474.636058,-1302.362347
163214.487037,-2220.617826,-8142.265362,-1378.971896
163214.487355,-2294.638420,-6735.874072,-1149.143247
163214.487673,-2220.617826,-6365.771101,-1762.019645
163214.487992,-666.185348,-7920.203579,-76.609550
163214.488310,-3552.988522,-5403.503377,-2145.067394
163214.488628,0.000000,-8660.409521,306.438199
163214.488947,1998.556043,-9474.636058,2374.896044
163214.489265,2294.638420,-10658.965565,-76.609550
163214.489584,0.000000,-10140.821405,1225.752797
163214.489902,518.144159,-11695.253884,-76.609550
163214.490220,-592.164754,-13249.686362,-1149.143247
163214.490539,-1184.329507,-13545.768739,-1302.362347
163214.490857,-2294.638420,-12065.356855,-2451.505594
163214.491175,-1776.494261,-11325.150913,-2145.067394
163214.491494,-1776.494261,-8660.409521,0.000000
163214.491812,740.205942,-7476.080014,0.000000
163214.492131,3478.967927,-7031.956449,3294.210641
163214.492449,3478.967927,-4737.318029,2374.896044
163214.492767,3552.988522,-5921.647536,3217.601092
163214.493086,1184.329507,-5181.441594,76.609550
163214.493404,222.061783,-7105.977043,-1149.143247
163214.493723,-888.247130,-9622.677246,-2374.896044
163214.494041,-3552.988522,-10732.986159,-3064.381992
163214.494359,-2368.659014,-11917.315666,-3677.258390
163214.494678,74.020594,-13101.645173,-3064.381992
163214.494996,1776.494261,-13989.892304,612.876398
163214.495314,3478.967927,-13027.624579,1149.143247
163214.495633,1110.308913,-10140.821405,0.000000
163214.495951,2294.638420,-11843.295072,2987.772442
163214.496270,-296.082377,-9548.656652,2528.115143
163214.496588,-1258.350101,-7772.162391,2528.115143
163214.496906,-666.185348,-5773.606348,2068.457845
163214.497225,592.164754,-7105.977043,3600.648841
163214.497543,-74.020594,-5033.400406,0.000000
163214.497861,-74.020594,-7105.977043,-76.609550
163214.498180,-2442.679609,-7698.141797,-3753.867940
163214.498498,-4589.276840,-8586.388927,-5286.058936
163214.498817,-3627.009116,-11251.130318,-7431.126331
163214.499135,-3404.947333,-12953.603985,-3983.696590
163214.499453,-1184.329507,-13397.727550,-2528.115143
163214.499772,1184.329507,-12583.501014,0.000000
163214.500090,2590.720797,-13027.624579,2374.896044
163214.500409,2368.659014,-9548.656652,3217.601092
163214.500727,296.082377,-8364.327145,1838.629195
163214.501046,740.205942,-8290.306550,2911.162892
163214.501364,-1554.432478,-5403.503377,1225.752797
163214.501682,296.082377,-5403.503377,1532.190996
163214.502001,1110.308913,-4515.256246,2068.457845
163214.502319,3182.885551,-7105.977043,-76.609550
163214.502638,-370.102971,-6365.771101,-1762.019645
163214.502956,-3404.947333,-7476.080014,-2987.772442
163214.503275,-3627.009116,-10658.965565,-3753.867940
163214.503593,-4959.379811,-11103.089130,-5056.230287
163214.503911,-4071.132681,-11029.068536,-3983.696590
163214.504230,0.000000,-10140.821405,0.000000
163214.504548,4071.132681,-11251.130318,2068.457845
163214.504867,1776.494261,-7772.162391,612.876398
163214.505185,4367.215058,-10066.800811,3140.991542
163214.505504,2368.659014,-10510.924376,2451.505594
163214.505822,-296.082377,-11621.233289,995.924147
163214.506141,-2664.741391,-11399.171507,-153.219100
163214.506459,-2442.679609,-11843.295072,-76.609550
163214.506777,-4293.194464,-9104.533087,-2451.505594
163214.507096,-3330.926739,-7772.162391,-2298.286494
163214.507414,-2294.638420,-6587.832884,-1991.848295
163214.507733,-1480.411884,-6883.915261,-1225.752797
163214.508051,-2368.659014,-5699.585753,-459.657299
163214.508370,-2368.659014,-5995.668130,-2451.505594
163214.508688,1184.329507,-8364.327145,229.828649
163214.509006,4071.132681,-11695.253884,2374.896044
163214.509325,888.247130,-9548.656652,0.000000
163214.509643,3478.967927,-11843.295072,1149.143247
163214.509962,1702.473667,-11769.274478,689.485948
163214.510280,518.144159,-12509.480420,153.219100
163214.510599,-740.205942,-12805.562797,76.609550
163214.510917,-1184.329507,-12213.398043,766.095498
163214.511235,-1258.350101,-11251.130318,-76.609550
163214.511554,-888.247130,-8734.430116,1225.752797
163214.511872,592.164754,-6291.750507,3064.381992
163214.512191,2294.638420,-5921.647536,2374.896044
163214.512509,0.000000,-2738.761985,2757.943793
163214.512828,592.164754,-4071.132681,536.266849
163214.513146,0.000000,-6069.688724,-459.657299
163214.513464,-1850.514855,-7994.224174,-2604.724693
163214.513783,-2960.823768,-10436.903782,-4060.306139
163214.514101,-3997.112087,-11325.150913,-6128.763984
163214.514420,-2590.720797,-13249.686362,-4060.306139
163214.514738,0.000000,-13693.809927,-2145.067394
163214.515057,2590.720797,-14211.954086,-76.609550
163214.515375,2294.638420,-12879.583391,1072.533697
163214.515694,3404.947333,-13619.789333,4826.401637
163214.516012,1406.391290,-9992.780217,2145.067394
163214.516330,518.144159,-9548.656652,2911.162892
163214.516649,296.082377,-6883.915261,2221.676944
163214.516967,0.000000,-4811.338623,2451.505594
163214.517286,0.000000,-3034.844362,1225.752797
163214.517604,-2368.659014,-2442.679609,0.000000
163214.517923,0.000000,-7254.018232,-459.657299
163214.518241,-1258.350101,-8290.306550,-2451.505594
163214.518559,-3627.009116,-8068.244768,-5669.106685
163214.518878,-1850.514855,-12731.542202,-3753.867940
163214.519196,-2812.782580,-12509.480420,-2528.115143
163214.519515,-666.185348,-12657.521608,-536.266849
163214.519833,1776.494261,-11399.171507,919.314598
163214.520152,3552.988522,-11917.315666,3064.381992
163214.520470,0.000000,-9548.656652,1915.238745
163214.520788,0.000000,-9548.656652,2604.724693
163214.521107,-74.020594,-9474.636058,3600.648841
163214.521425,-2738.761985,-5995.668130,0.000000
163214.521744,-2368.659014,-4811.338623,0.000000
163214.522062,-74.020594,-5329.482782,-536.266849
163214.522381,-518.144159,-5699.585753,-1149.143247
163214.522699,-1998.556043,-6069.688724,-2528.115143
163214.523018,-3330.926739,-7994.224174,-3677.258390
163214.523336,-3923.091493,-8956.491898,-4979.620737
163214.523654,-4737.318029,-10140.821405,-4596.572988
163214.523973,-1998.556043,-10732.986159,-4903.011187
163214.524291,2516.700203,-12361.439231,1455.581446
163214.524610,4663.297435,-10510.924376,1149.143247
163214.524928,5329.482782,-11621.233289,5056.230287
163214.525247,4219.173869,-10955.047942,2834.553343
163214.525565,2664.741391,-11843.295072,2604.724693
163214.525883,-296.082377,-11103.089130,1838.629195
163214.526202,-3552.988522,-9548.656652,0.000000
163214.526520,-4737.318029,-7772.162391,0.000000
163214.526839,-2590.720797,-7179.997637,-3064.381992
163214.527157,-3552.988522,-6291.750507,0.000000
163214.527476,-666.185348,-6513.812290,-229.828649
163214.527794,-1554.432478,-4589.276840,-2528.115143
163214.528112,-666.185348,-7105.977043,-1072.533697
163214.528431,-1924.535449,-7920.203579,-2221.676944
163214.528749,-888.247130,-8882.471304,-1225.752797
163214.529068,0.000000,-10066.800811,-995.924147
163214.529386,1184.329507,-11029.068536,1838.629195
163214.529705,888.247130,-10732.986159,-995.924147
163214.530023,0.000000,-11917.315666,0.000000
163214.530342,1332.370696,-13545.768739,229.828649
163214.530660,-518.144159,-14211.954086,-76.609550
163214.530978,-3552.988522,-9548.656652,-2451.505594
163214.531297,-74.020594,-10658.965565,-76.609550
163214.531615,0.000000,-7846.182985,919.314598
163214.531934,888.247130,-5847.626942,1762.019645
163214.532252,1998.556043,-4737.318029,1838.629195
163214.532571,2960.823768,-5403.503377,2145.067394
163214.532889,0.000000,-3627.009116,0.000000
163214.533207,296.082377,-7624.121203,-995.924147
163214.533526,-74.020594,-11843.295072,-689.485948
163214.533844,-2664.741391,-9548.656652,-3983.696590
163214.534163,-2368.659014,-11325.150913,0.000000
163214.534481,-962.267725,-12287.418637,-2451.505594
163214.534800,444.123565,-12657.521608,-1378.971896
163214.535118,1924.535449,-12657.521608,0.000000
163214.535436,74.020594,-11325.150913,0.000000
163214.535755,0.000000,-10732.986159,612.876398
163214.536073,-592.164754,-10881.027347,2451.505594
163214.536392,-74.020594,-11843.295072,2374.896044
163214.536710,-2960.823768,-5403.503377,0.000000
163214.537029,-74.020594,-7105.977043,2374.896044
163214.537347,740.205942,-6661.853478,1915.238745
163214.537666,-888.247130,-4441.235652,-1072.533697
163214.537984,-1332.370696,-5699.585753,-2145.067394
163214.538302,-2072.576638,-7772.162391,-3140.991542
163214.538621,-3552.988522,-8364.327145,-3677.258390
163214.538939,-3849.070898,-10732.986159,-3524.039291
163214.539258,-4145.153275,-10732.986159,-3677.258390
163214.539576,1702.473667,-14211.954086,-689.485948
163214.539895,666.185348,-12287.418637,153.219100
163214.540213,888.247130,-10288.862594,0.000000
163214.540531,2664.741391,-11843.295072,3600.648841
163214.540850,1776.494261,-9844.739029,3830.477490
163214.541168,1332.370696,-7920.203579,3677.258390
163214.541487,1110.308913,-6883.915261,3140.991542
163214.541805,1776.494261,-6069.688724,2604.724693
163214.542124,0.000000,-3627.009116,612.876398
163214.542442,444.123565,-6513.812290,306.438199
163214.542760,-1554.432478,-7105.977043,-1302.362347
163214.543079,-3627.009116,-10066.800811,-4903.011187
163214.543397,-5995.668130,-10066.800811,-6818.249932
163214.543716,-5921.647536,-12213.398043,-5439.278036
163214.544034,-3034.844362,-12361.439231,-3064.381992
163214.544353,444.123565,-11621.233289,-612.876398
163214.544671,4367.215058,-11843.295072,2374.896044
163214.544990,4663.297435,-10362.883188,2374.896044
163214.545308,4293.194464,-10214.842000,3370.820191
163214.545626,2368.659014,-9844.739029,0.000000
163214.545945,2886.803174,-12435.459826,3447.429741
163214.546263,-2442.679609,-8586.388927,-2221.676944
163214.546582,-3034.844362,-11843.295072,-689.485948
163214.546900,-3404.947333,-8438.347739,-2451.505594
163214.547219,-2368.659014,-7328.038826,-2528.115143
163214.547537,-2072.576638,-7031.956449,-2834.553343
163214.547855,-74.020594,-7994.224174,-76.609550
163214.548174,-1776.494261,-7179.997637,-1991.848295
163214.548492,-296.082377,-7550.100608,-919.314598
163214.548811,1628.453072,-8068.244768,0.000000
163214.549129,2664.741391,-9326.594869,2374.896044
163214.549448,2960.823768,-11177.109724,4290.134789
163214.549766,1184.329507,-9548.656652,2451.505594
163214.550084,3182.885551,-13915.871710,2068.457845
163214.550403,-1110.308913,-12287.418637,-459.657299
163214.550721,-2812.782580,-12361.439231,-2145.067394
163214.551040,-4219.173869,-10066.800811,-2834.553343
163214.551358,-2368.659014,-10732.986159,-995.924147
163214.551677,-1258.350101,-8586.388927,-459.657299
163214.551995,148.041188,-6143.709319,306.438199
163214.552314,2294.638420,-5921.647536,2068.457845
163214.552632,1702.473667,-4367.215058,1072.533697
163214.552950,296.082377,-5403.503377,919.314598
163214.553269,-74.020594,-7031.956449,-383.047749
163214.553587,-74.020594,-8882.471304,-2528.115143
163214.553906,-888.247130,-10288.862594,-612.876398
163214.554224,-2368.659014,-10881.027347,-3983.696590
163214.554543,-592.164754,-12657.521608,-2987.772442
163214.554861,74.020594,-13027.624579,-1991.848295
163214.555179,1998.556043,-13397.727550,-306.438199
163214.555498,2368.659014,-12805.562797,0.000000
163214.555816,1184.329507,-11177.109724,1762.019645
163214.556135,1924.535449,-10288.862594,2451.505594
163214.556453,2886.803174,-10658.965565,4519.963438
163214.556772,814.226536,-6513.812290,2374.896044
163214.557090,2294.638420,-6809.894666,4213.525239
163214.557408,0.000000,-3627.009116,1838.629195
163214.557727,148.041188,-4663.297435,0.000000
163214.558045,-1184.329507,-6217.729913,-1838.629195
163214.558364,-2442.679609,-8290.306550,-1762.019645
163214.558682,-3256.906145,-10436.903782,-3064.381992
163214.559001,-3552.988522,-12213.398043,-4903.011187
163214.559319,-2220.617826,-14878.139434,-1608.800546
163214.559638,-74.020594,-14211.954086,-995.924147
163214.559956,222.061783,-12139.377449,0.000000
163214.560274,2294.638420,-11843.295072,1149.143247
163214.560593,888.247130,-10955.047942,2604.724693
163214.560911,370.102971,-9400.615463,2451.505594
163214.561230,0.000000,-8142.265362,2374.896044
163214.561548,1110.308913,-8290.306550,4826.401637
163214.561867,2294.638420,-6883.915261,2451.505594
163214.562185,2664.741391,-6661.853478,2298.286494
163214.562503,-592.164754,-4071.132681,-1915.238745
163214.562822,-1924.535449,-5181.441594,-4366.744339
163214.563140,-4737.318029,-8364.327145,-3677.258390
163214.563459,-5403.503377,-9548.656652,-6205.373534
163214.563777,-3923.091493,-11769.274478,-3677.258390
163214.564096,-1258.350101,-12065.356855,-2145.067394
163214.564414,1924.535449,-10955.047942,459.657299
163214.564732,4663.297435,-11547.212695,2681.334243
163214.565051,5033.400406,-10436.903782,4290.134789
163214.565369,5255.462188,-10955.047942,4519.963438
163214.565688,1332.370696,-9548.656652,0.000000
163214.566006,-2368.659014,-10140.821405,1838.629195
163214.566325,-1258.350101,-13027.624579,2068.457845
163214.566643,-4145.153275,-9178.553681,-1762.019645
163214.566962,-3552.988522,-8660.409521,-1991.848295
163214.567280,-3256.906145,-7179.997637,-2221.676944
163214.567598,-3404.947333,-6587.832884,-2374.896044
163214.567917,-3182.885551,-6291.750507,-1991.848295
163214.568235,-1850.514855,-8290.306550,-2528.115143
163214.568554,-74.020594,-10658.965565,-76.609550
163214.568872,1110.308913,-9474.636058,-842.705048
163214.569191,1998.556043,-8956.491898,0.000000
163214.569509,4663.297435,-10658.965565,1762.019645
163214.569827,2368.659014,-11177.109724,1149.143247
163214.570146,1776.494261,-12139.377449,536.266849
163214.570464,296.082377,-12509.480420,0.000000
163214.570783,962.267725,-14211.954086,1149.143247
163214.571101,-444.123565,-12953.603985,995.924147
163214.571420,-444.123565,-11325.150913,1685.410096
163214.571738,1702.473667,-8882.471304,1685.410096
163214.572056,1702.473667,-5329.482782,2068.457845
163214.572375,0.000000,-2442.679609,2451.505594
163214.572693,1554.432478,-3552.988522,1149.143247
163214.573012,666.185348,-4441.235652,1072.533697
163214.573330,-444.123565,-6513.812290,-612.876398
163214.573649,-1554.432478,-8660.409521,-1685.410096
163214.573967,-74.020594,-11843.295072,-2528.115143
163214.574286,-1776.494261,-12213.398043,-1838.629195
163214.574604,-74.020594,-14211.954086,-1608.800546
163214.574922,0.000000,-13101.645173,-1378.971896
163214.575241,1110.308913,-13027.624579,-1302.362347
163214.575559,1184.329507,-14285.974681,2681.334243
163214.575878,0.000000,-10955.047942,1149.143247
163214.576196,0.000000,-9548.656652,1225.752797
163214.576515,0.000000,-8808.450710,1991.848295
163214.576833,296.082377,-6513.812290,2451.505594
163214.577151,1702.473667,-6513.812290,2987.772442
163214.577470,1184.329507,-5403.503377,1685.410096
163214.577788,-74.020594,-4737.318029,-76.609550
163214.578107,-74.020594,-5921.647536,-2528.115143
163214.578425,-2664.741391,-7179.997637,-4903.011187
163214.578744,-74.020594,-11251.130318,-3753.867940
163214.579062,-2146.597232,-11917.315666,-3447.429741
163214.579380,-962.267725,-12953.603985,-1838.629195
163214.579699,592.164754,-12657.521608,-689.485948
163214.580017,3478.967927,-14211.954086,3600.648841
163214.580336,3478.967927,-12731.542202,3600.648841
163214.580654,1406.391290,-9844.739029,2834.553343
163214.580973,0.000000,-8364.327145,3677.258390
163214.581291,2294.638420,-9474.636058,4213.525239
163214.581610,592.164754,-6587.832884,3370.820191
163214.581928,0.000000,-3923.091493,1225.752797
163214.582246,1702.473667,-5625.565159,0.000000
163214.582565,-962.267725,-5773.606348,-1072.533697
163214.582883,-3627.009116,-7031.956449,-3370.820191
163214.583202,-5403.503377,-7105.977043,-7124.688131
163214.583520,-5921.647536,-10436.903782,-5898.935335
163214.583839,-4811.338623,-11843.295072,-5592.497135
163214.584157,-2812.782580,-11325.150913,-3370.820191
163214.584475,296.082377,-10436.903782,0.000000
163214.584794,2516.700203,-9548.656652,2451.505594
163214.585112,4663.297435,-10510.924376,2681.334243
163214.585431,3701.029710,-10510.924376,3524.039291
163214.585749,1702.473667,-10658.965565,3140.991542
163214.586068,-296.082377,-10288.862594,612.876398
163214.586386,-74.020594,-11251.130318,-76.609550
163214.586704,-518.144159,-10584.944971,1149.143247
163214.587023,-962.267725,-8586.388927,-689.485948
163214.587341,-1850.514855,-7105.977043,-689.485948
163214.587660,-1258.350101,-7105.977043,-1608.800546
163214.587978,-4737.318029,-5995.668130,-2451.505594
163214.588297,-1850.514855,-7698.141797,-1685.410096
163214.588615,-814.226536,-8438.347739,-766.095498
163214.588934,592.164754,-9326.594869,153.219100
163214.589252,1110.308913,-7920.203579,-1225.752797
163214.589570,740.205942,-10140.821405,1225.752797
163214.589889,888.247130,-11029.068536,919.314598
163214.590207,592.164754,-12213.398043,1225.752797
163214.590526,-74.020594,-14211.954086,1608.800546
163214.590844,-2072.576638,-13101.645173,1532.190996
163214.591163,-3256.906145,-10732.986159,-1302.362347
163214.591481,-1924.535449,-9696.697840,-689.485948
163214.591799,-962.267725,-7402.059420,459.657299
163214.592118,222.061783,-5551.544565,1072.533697
163214.592436,1702.473667,-3552.988522,0.000000
163214.592755,1406.391290,-4367.215058,1225.752797
163214.593073,962.267725,-5403.503377,229.828649
163214.593392,0.000000,-6809.894666,-919.314598
163214.593710,-1258.350101,-9178.553681,-1915.238745
163214.594028,-74.020594,-12435.459826,-3907.087040
163214.594347,-74.020594,-14211.954086,-689.485948
163214.594665,-74.020594,-13027.624579,-2221.676944
163214.594984,518.144159,-13027.624579,-76.609550
163214.595302,3923.091493,-14137.933492,2221.676944
163214.595621,0.000000,-11917.315666,1225.752797
163214.595939,1406.391290,-11251.130318,2528.115143
163214.596257,0.000000,-9474.636058,2528.115143
163214.596576,-296.082377,-8512.368333,2374.896044
163214.596894,814.226536,-6513.812290,1915.238745
163214.597213,0.000000,-3923.091493,1608.800546
163214.597531,1702.473667,-5329.482782,1762.019645
163214.597850,-962.267725,-2738.761985,-3447.429741
163214.598168,-2960.823768,-4811.338623,-3677.258390
163214.598487,-962.267725,-11251.130318,-1608.800546
163214.598805,-4441.235652,-10288.862594,-4903.011187
163214.599123,-3330.926739,-13101.645173,-4443.353888
163214.599442,-1924.535449,-14211.954086,-2681.334243
163214.599760,296.082377,-12657.521608,-1302.362347
163214.600079,2368.659014,-11917.315666,1225.752797
163214.600397,2368.659014,-11029.068536,2528.115143
163214.600716,2294.638420,-10658.965565,3600.648841
163214.601034,2294.638420,-9474.636058,2987.772442
163214.601353,0.000000,-7179.997637,2451.505594
163214.601671,1702.473667,-5181.441594,306.438199
163214.601990,2664.741391,-6661.853478,2987.772442
163214.602308,1258.350101,-5625.565159,842.705048
163214.602626,-518.144159,-5995.668130,-1149.143247
163214.602945,-1998.556043,-7698.141797,-2528.115143
163214.603263,-3034.844362,-10658.965565,-2528.115143
163214.603582,-5033.400406,-11917.315666,-3064.381992
163214.603900,-2442.679609,-13619.789333,-2834.553343
163214.604219,-814.226536,-11251.130318,-1072.533697
163214.604537,1924.535449,-10881.027347,2757.943793
163214.604856,1776.494261,-8364.327145,1225.752797
163214.605174,3775.050304,-10955.047942,4060.306139
163214.605493,2590.720797,-10436.903782,3600.648841
163214.605811,222.061783,-10881.027347,2451.505594
163214.606129,-1258.350101,-10658.965565,1149.143247
163214.606448,-1258.350101,-11843.295072,-76.609550
163214.606766,-2738.761985,-9178.553681,-1302.362347
163214.607085,-4367.215058,-6883.915261,-2987.772442
163214.607403,-5329.482782,-4811.338623,-3677.258390
163214.607722,-1554.432478,-8290.306550,-1302.362347
163214.608040,-4145.153275,-6291.750507,-3064.381992
163214.608359,-2146.597232,-7846.182985,-2145.067394
163214.608677,-222.061783,-8586.388927,-919.314598
163214.608996,1332.370696,-9474.636058,689.485948
163214.609314,3182.885551,-8512.368333,2374.896044
163214.609632,4071.132681,-11251.130318,2068.457845
163214.609951,1998.556043,-11473.192101,1455.581446
163214.610269,1110.308913,-11251.130318,-76.609550
163214.610588,-1480.411884,-11621.233289,76.609550
163214.610906,-74.020594,-11843.295072,-689.485948
163214.611225,-1776.494261,-10881.027347,0.000000
163214.611543,-1184.329507,-9178.553681,689.485948
163214.611862,-222.061783,-6513.812290,1378.971896
163214.612180,1110.308913,-6217.729913,2987.772442
163214.612499,1702.473667,-6513.812290,2987.772442
163214.612817,518.144159,-5107.421000,2068.457845
163214.613135,-74.020594,-5921.647536,-1302.362347
163214.613454,-2960.823768,-6883.915261,-2451.505594
163214.613772,-2368.659014,-8364.327145,-2451.505594
163214.614091,-3627.009116,-9548.656652,-4749.792088
163214.614409,-1554.432478,-12657.521608,-3064.381992
163214.614728,-666.185348,-13693.809927,-2221.676944
163214.615046,814.226536,-13841.851115,-995.924147
163214.615365,3478.967927,-13027.624579,-76.609550
163214.615683,2886.803174,-13027.624579,2987.772442
163214.616001,2886.803174,-11843.295072,1149.143247
163214.616320,0.000000,-8660.409521,1225.752797
163214.616638,296.082377,-7920.203579,0.000000
163214.616957,2294.638420,-8734.430116,4519.963438
163214.617275,0.000000,-3923.091493,459.657299
163214.617594,1480.411884,-5107.421000,842.705048
163214.617912,740.205942,-5107.421000,0.000000
163214.618231,-370.102971,-6587.832884,-2145.067394
163214.618549,-1850.514855,-7698.141797,-3753.867940
163214.618868,-74.020594,-12435.459826,-2834.553343
163214.619186,-2442.679609,-12435.459826,-3907.087040
163214.619504,-2146.597232,-13027.624579,-2528.115143
163214.619823,-1184.329507,-11029.068536,-1225.752797
163214.620141,3478.967927,-13027.624579,-76.609550
163214.620460,1258.350101,-11325.150913,2604.724693
163214.620778,518.144159,-10881.027347,2987.772442
163214.621097,74.020594,-9326.594869,3830.477490
163214.621415,1110.308913,-9178.553681,4826.401637
163214.621734,370.102971,-6883.915261,3600.648841
163214.622052,1110.308913,-5625.565159,1149.143247
163214.622371,0.000000,-3849.070898,-383.047749
163214.622689,-2368.659014,-3627.009116,-2451.505594
163214.623007,-4737.318029,-5995.668130,-4290.134789
163214.623326,-5403.503377,-8290.306550,-6052.154434
163214.623644,-5625.565159,-11103.089130,-6128.763984
163214.623963,-3923.091493,-12435.459826,-4443.353888
163214.624281,-592.164754,-11991.336260,-1991.848295
163214.624600,4367.215058,-12435.459826,-76.609550
163214.624918,5255.462188,-10955.047942,3600.648841
163214.625237,4663.297435,-10658.965565,3600.648841
163214.625555,1776.494261,-9548.656652,3677.258390
163214.625874,2368.659014,-11251.130318,4826.401637
163214.626192,592.164754,-10732.986159,4903.011187
163214.626510,-2368.659014,-7624.121203,0.000000
163214.626829,-1850.514855,-7772.162391,-153.219100
163214.627147,-2590.720797,-6513.812290,-919.314598
163214.627466,-3034.844362,-6217.729913,-2451.505594
163214.627784,-4811.338623,-6439.791695,-4979.620737
163214.628103,-4811.338623,-9474.636058,-2528.115143
163214.628421,-3923.091493,-8734.430116,-4366.744339
163214.628740,-3404.947333,-9548.656652,-2451.505594
163214.629058,0.000000,-8364.327145,0.000000
163214.629377,1184.329507,-9548.656652,2757.943793
163214.629695,2294.638420,-9992.780217,2145.067394
163214.630013,2072.576638,-10510.924376,1685.410096
163214.630332,1036.288319,-11399.171507,1072.533697
163214.630650,-2294.638420,-10732.986159,0.000000
163214.630969,-1628.453072,-11843.295072,0.000000
163214.631287,-1406.391290,-12361.439231,-76.609550
163214.631606,-1258.350101,-9474.636058,-76.609550
163214.631924,-74.020594,-7698.141797,-76.609550
163214.632243,592.164754,-5995.668130,2834.553343
163214.632561,296.082377,-3627.009116,612.876398
163214.632880,1628.453072,-4515.256246,383.047749
163214.633198,888.247130,-5699.585753,-383.047749
163214.633516,518.144159,-7031.956449,-766.095498
163214.633835,-74.020594,-7772.162391,-3140.991542
163214.634153,444.123565,-10807.006753,-1072.533697
163214.634472,0.000000,-11843.295072,-1762.019645
163214.634790,444.123565,-12879.583391,-1072.533697
163214.635109,1258.350101,-13619.789333,0.000000
163214.635427,3182.885551,-14211.954086,1762.019645
163214.635746,1110.308913,-15396.283594,2374.896044
163214.636064,-74.020594,-11251.130318,536.266849
163214.636382,-2072.576638,-10140.821405,1532.190996
163214.636701,-592.164754,-8586.388927,2987.772442
163214.637019,-2368.659014,-3627.009116,306.438199
163214.637338,370.102971,-5181.441594,1149.143247
163214.637656,0.000000,-4737.318029,306.438199
163214.637975,-148.041188,-4811.338623,-1149.143247
163214.638293,-1998.556043,-6217.729913,-2911.162892
163214.638612,-666.185348,-10658.965565,-2528.115143
163214.638930,-1850.514855,-11843.295072,-4979.620737
163214.639249,-2738.761985,-12139.377449,-3447.429741
163214.639567,-2368.659014,-11695.253884,-3600.648841
163214.639885,2294.638420,-15988.448347,-76.609550
163214.640204,1776.494261,-13101.645173,1838.629195
163214.640522,1850.514855,-11547.212695,2528.115143
163214.640841,1480.411884,-11029.068536,2987.772442
163214.641159,1184.329507,-9326.594869,3447.429741
163214.641478,888.247130,-6513.812290,3217.601092
163214.641796,888.247130,-5403.503377,2757.943793
163214.642115,740.205942,-3923.091493,1302.362347
163214.642433,0.000000,-3627.009116,2451.505594
163214.642752,-74.020594,-6809.894666,-306.438199
163214.643070,-3034.844362,-6217.729913,-3753.867940
163214.643388,-5403.503377,-10140.821405,-4673.182538
163214.643707,-5477.523971,-11621.233289,-5439.278036
163214.644025,-4071.132681,-12213.398043,-3983.696590
163214.644344,-1776.494261,-12213.398043,-1608.800546
163214.644662,2294.638420,-13619.789333,1762.019645
163214.644981,1998.556043,-10214.842000,1378.971896
163214.645299,3478.967927,-11251.130318,2374.896044
163214.645618,0.000000,-10140.821405,2451.505594
163214.645936,0.000000,-10881.027347,3983.696590
163214.646255,-4737.318029,-7179.997637,0.000000
163214.646573,-1924.535449,-9252.574275,229.828649
163214.646891,-2442.679609,-7772.162391,-995.924147
163214.647210,-1554.432478,-6587.832884,-1378.971896
163214.647528,-1850.514855,-4737.318029,-2528.115143
163214.647847,-1258.350101,-5921.647536,-1302.362347
163214.648165,-666.185348,-9178.553681,-2221.676944
163214.648484,-1554.432478,-9178.553681,-3140.991542
163214.648802,-740.205942,-10066.800811,-1302.362347
163214.649121,2294.638420,-12361.439231,2681.334243
163214.649439,2368.659014,-9696.697840,1532.190996
163214.649758,3552.988522,-10362.883188,2298.286494
163214.650076,2960.823768,-11177.109724,1762.019645
163214.650394,1258.350101,-11621.233289,1455.581446
163214.650713,-1036.288319,-11029.068536,612.876398
163214.651031,-370.102971,-12435.459826,-76.609550
163214.651350,-2368.659014,-9548.656652,-1532.190996
163214.651668,-1776.494261,-7476.080014,-2068.457845
163214.651987,0.000000,-7179.997637,919.314598
163214.652305,1998.556043,-5921.647536,-76.609550
163214.652624,0.000000,-5181.441594,306.438199
163214.652942,-592.164754,-5625.565159,-612.876398
163214.653261,-1850.514855,-6365.771101,-1378.971896
163214.653579,-1776.494261,-7476.080014,-1762.019645
163214.653897,-962.267725,-10066.800811,-1302.362347
163214.654216,-222.061783,-10510.924376,-2604.724693
163214.654534,0.000000,-10955.047942,-2528.115143
163214.654853,0.000000,-10436.903782,-1838.629195
163214.655171,2368.659014,-12805.562797,1225.752797
163214.655490,1184.329507,-10436.903782,0.000000
163214.655808,2072.576638,-12953.603985,995.924147
163214.656127,444.123565,-11325.150913,842.705048
163214.656445,-666.185348,-10288.862594,766.095498
163214.656763,-74.020594,-8882.471304,-76.609550
163214.657082,1702.473667,-7105.977043,1149.143247
163214.657400,740.205942,-4441.235652,1455.581446
163214.657719,0.000000,-2738.761985,0.000000
163214.658037,0.000000,-4367.215058,153.219100
163214.658356,1184.329507,-7476.080014,1455.581446
163214.658674,-2368.659014,-7179.997637,-3064.381992
163214.658993,-2442.679609,-11177.109724,-3140.991542
163214.659311,-3182.885551,-13249.686362,-3140.991542
163214.659630,-2368.659014,-13619.789333,-2911.162892
163214.659948,-2442.679609,-12213.398043,-2528.115143
163214.660266,-74.020594,-15988.448347,-76.609550
163214.660585,-666.185348,-11991.336260,383.047749
163214.660903,-1776.494261,-10436.903782,1532.190996
163214.661222,0.000000,-7772.162391,2757.943793
163214.661540,2294.638420,-8882.471304,3600.648841
163214.661859,666.185348,-5107.421000,3064.381992
163214.662177,1702.473667,-3552.988522,2145.067394
163214.662496,1036.288319,-3404.947333,689.485948
163214.662814,-444.123565,-4959.379811,-1608.800546
163214.663133,-4589.276840,-6439.791695,-4060.306139
163214.663451,-4811.338623,-10658.965565,-5592.497135
163214.663769,-6365.771101,-11399.171507,-6205.373534
163214.664088,-5551.544565,-11917.315666,-5822.325785
163214.664406,-1776.494261,-12509.480420,-2451.505594
163214.664725,2294.638420,-10066.800811,76.609550
163214.665043,3627.009116,-10658.965565,3524.039291
163214.665362,4219.173869,-10140.821405,4749.792088
163214.665680,2738.761985,-10214.842000,4903.011187
163214.665999,2294.638420,-11843.295072,4826.401637
163214.666317,-74.020594,-9474.636058,2374.896044
163214.666636,-2146.597232,-7254.018232,689.485948
163214.666954,-1850.514855,-6661.853478,-1608.800546
163214.667272,-3552.988522,-5995.668130,-2145.067394
163214.667591,-2664.741391,-7772.162391,-1225.752797
163214.667909,-6365.771101,-6587.832884,-4903.011187
163214.668228,-5181.441594,-9400.615463,-5132.839837
163214.668546,-4293.194464,-10214.842000,-4213.525239
163214.668865,-1776.494261,-11547.212695,-1608.800546
163214.669183,1110.308913,-9178.553681,-1225.752797
163214.669502,2664.741391,-9548.656652,1762.019645
163214.669820,2590.720797,-7624.121203,689.485948
163214.670139,2368.659014,-10140.821405,2451.505594
163214.670457,2590.720797,-10955.047942,1685.410096
163214.670775,0.000000,-11029.068536,1225.752797
163214.671094,-1258.350101,-11251.130318,-842.705048
163214.671412,-1332.370696,-10214.842000,-919.314598
163214.671731,-518.144159,-8586.388927,-536.266849
163214.672049,148.041188,-7105.977043,0.000000
163214.672368,2294.638420,-6957.935855,1762.019645
163214.672686,2146.597232,-7105.977043,2068.457845
163214.673005,1110.308913,-5921.647536,-76.609550
163214.673323,-518.144159,-5921.647536,-689.485948
163214.673642,-74.020594,-8142.265362,-229.828649
163214.673960,0.000000,-7772.162391,0.000000
163214.674278,222.061783,-9918.759623,-766.095498
163214.674597,814.226536,-11621.233289,-995.924147
163214.674915,518.144159,-12657.521608,-1149.143247
163214.675234,0.000000,-11917.315666,-3677.258390
163214.675552,0.000000,-13841.851115,0.000000
163214.675871,-592.164754,-13101.645173,383.047749
163214.676189,-74.020594,-14211.954086,-76.609550
163214.676508,-2442.679609,-8734.430116,-689.485948
163214.676826,-2072.576638,-7772.162391,2451.505594
163214.677144,-814.226536,-5403.503377,612.876398
163214.677463,962.267725,-4663.297435,1149.143247
163214.677781,814.226536,-3552.988522,766.095498
163214.678100,888.247130,-4293.194464,-459.657299
163214.678418,-74.020594,-5921.647536,-3753.867940
163214.678737,-148.041188,-9104.533087,-2528.115143
163214.679055,-1850.514855,-10881.027347,-3524.039291
163214.679374,-2220.617826,-13693.809927,-3447.429741
163214.679692,-1258.350101,-14211.954086,-2528.115143
163214.680011,1998.556043,-15396.283594,-842.705048
163214.680329,1924.535449,-14285.974681,2987.772442
163214.680647,1702.473667,-12435.459826,2221.676944
163214.680966,296.082377,-8438.347739,1762.019645
163214.681284,592.164754,-8660.409521,5515.887586
163214.681603,0.000000,-4811.338623,3064.381992
163214.681921,1406.391290,-4737.318029,3294.210641
163214.682240,1258.350101,-3552.988522,2451.505594
163214.682558,1036.288319,-4441.235652,383.047749
163214.682877,-1258.350101,-6513.812290,-2374.896044
163214.683195,-5329.482782,-7550.100608,-5209.449386
163214.683514,-5403.503377,-11547.212695,-6358.592633
163214.683832,-5995.668130,-15396.283594,-4979.620737
163214.684150,-3923.091493,-13619.789333,-5286.058936
163214.684469,-74.020594,-14804.118840,-76.609550
163214.684787,888.247130,-10881.027347,612.876398
163214.685106,3627.009116,-10584.944971,2451.505594
163214.685424,3849.070898,-10288.862594,3753.867940
163214.685743,2368.659014,-10140.821405,3753.867940
163214.686061,0.000000,-8364.327145,4290.134789
163214.686380,-1036.288319,-8364.327145,1608.800546
163214.686698,-222.061783,-8290.306550,-76.609550
163214.687017,-2368.659014,-5403.503377,-1225.752797
163214.687335,-2072.576638,-6587.832884,-1838.629195
163214.687653,-666.185348,-7698.141797,-3140.991542
163214.687972,-4145.153275,-8364.327145,-4060.306139
163214.688290,-4589.276840,-9252.574275,-4673.182538
163214.688609,-3404.947333,-9992.780217,-2987.772442
163214.688927,-370.102971,-11843.295072,-76.609550
163214.689246,3108.864956,-12731.542202,2374.896044
163214.689564,4663.297435,-11547.212695,4826.401637
163214.689883,4367.215058,-9474.636058,2987.772442
163214.690201,1332.370696,-9548.656652,1532.190996
163214.690520,0.000000,-10732.986159,2451.505594
163214.690838,-2812.782580,-10140.821405,-1455.581446
163214.691156,-2516.700203,-11843.295072,-612.876398
163214.691475,-2738.761985,-10066.800811,-1225.752797
163214.691793,-1776.494261,-9252.574275,-1302.362347
163214.692112,-74.020594,-8882.471304,-76.609550
163214.692430,370.102971,-6883.915261,1225.752797
163214.692749,1110.308913,-6809.894666,689.485948
163214.693067,666.185348,-5921.647536,-76.609550
163214.693386,-74.020594,-7105.977043,-1608.800546
163214.693704,1258.350101,-9474.636058,1072.533697
163214.694023,0.000000,-8364.327145,-1225.752797
163214.694341,962.267725,-10214.842000,-1149.143247
163214.694659,1554.432478,-11177.109724,-919.314598
163214.694978,1702.473667,-12361.439231,-229.828649
163214.695296,2294.638420,-12879.583391,-153.219100
163214.695615,2294.638420,-14211.954086,689.485948
163214.695933,1406.391290,-13323.706956,1149.143247
163214.696252,-2294.638420,-9844.739029,0.000000
163214.696570,-1776.494261,-9548.656652,1225.752797
163214.696889,-74.020594,-8882.471304,2374.896044
163214.697207,0.000000,-5403.503377,1915.238745
163214.697525,1036.288319,-4219.173869,1915.238745
163214.697844,1332.370696,-3330.926739,1149.143247
163214.698162,2294.638420,-6217.729913,1762.019645
163214.698481,-74.020594,-8290.306550,-76.609550
163214.698799,-1258.350101,-9474.636058,-2451.505594
163214.699118,-1258.350101,-13619.789333,-3140.991542
163214.699436,-3034.844362,-13545.768739,-4673.182538
163214.699755,-4145.153275,-13101.645173,-4903.011187
163214.700073,-666.185348,-13471.748144,-2374.896044
163214.700392,74.020594,-13545.768739,153.219100
163214.700710,222.061783,-12287.418637,919.314598
163214.701029,0.000000,-10436.903782,2451.505594
163214.701347,2294.638420,-9474.636058,3600.648841
163214.701666,1702.473667,-4737.318029,2987.772442
163214.701984,3478.967927,-4145.153275,5132.839837
163214.702303,4663.297435,-4441.235652,2374.896044
163214.702621,1184.329507,-2738.761985,612.876398
163214.702940,592.164754,-8068.244768,-76.609550
163214.703258,-4737.318029,-7772.162391,-3677.258390
163214.703576,-5625.565159,-12065.356855,-6128.763984
163214.703895,-5847.626942,-13323.706956,-5515.887586
163214.704213,-3330.926739,-13767.830521,-3830.477490
163214.704532,-2368.659014,-11325.150913,-2145.067394
163214.704850,3478.967927,-11843.295072,1149.143247
163214.705169,2368.659014,-9548.656652,2604.724693
163214.705487,3256.906145,-10436.903782,4903.011187
163214.705806,3404.947333,-10955.047942,5439.278036
163214.706124,-74.020594,-7920.203579,1149.143247
163214.706443,-1036.288319,-8660.409521,2068.457845
163214.706761,-1850.514855,-6883.915261,0.000000
163214.707080,-1628.453072,-6587.832884,-1149.143247
163214.707398,-2442.679609,-7105.977043,-2528.115143
163214.707717,-4737.318029,-7105.977043,-3140.991542
163214.708035,-5995.668130,-8586.388927,-6205.373534
163214.708354,-6661.853478,-9474.636058,-6511.811733
163214.708672,-4737.318029,-9548.656652,-4903.011187
163214.708991,0.000000,-11029.068536,919.314598
163214.709309,0.000000,-7772.162391,612.876398
163214.709628,4737.318029,-9030.512492,2987.772442
163214.709946,4959.379811,-9104.533087,3600.648841
163214.710265,3552.988522,-9992.780217,2528.115143
163214.710583,1998.556043,-9474.636058,1149.143247
163214.710902,370.102971,-10658.965565,689.485948
163214.711220,-1184.329507,-9696.697840,-1608.800546
163214.711539,-2368.659014,-10140.821405,0.000000
163214.711857,-592.164754,-9696.697840,-76.609550
163214.712176,-74.020594,-9474.636058,-76.609550
163214.712494,-2368.659014,-6587.832884,0.000000
163214.712813,-1110.308913,-6365.771101,-689.485948
163214.713131,-1332.370696,-6439.791695,-995.924147
163214.713450,-592.164754,-7031.956449,-383.047749
163214.713768,-2368.659014,-4811.338623,0.000000
163214.714087,518.144159,-7994.224174,-689.485948
163214.714405,0.000000,-8660.409521,0.000000
163214.714724,2294.638420,-11843.295072,-229.828649
163214.715042,962.267725,-13027.624579,-76.609550
163214.715361,1406.391290,-15100.201217,2221.676944
163214.715679,0.000000,-13545.768739,-1149.143247
163214.715998,-888.247130,-13101.645173,-842.705048
163214.716316,-1628.453072,-12361.439231,-995.924147
163214.716635,-2368.659014,-9548.656652,919.314598
163214.716953,-1258.350101,-7994.224174,842.705048
163214.717271,1702.473667,-6513.812290,2374.896044
163214.717590,1924.535449,-2812.782580,766.095498
163214.717908,2368.659014,-3034.844362,2451.505594
163214.718227,4663.297435,-7105.977043,-76.609550
163214.718545,592.164754,-7179.997637,0.000000
163214.718864,-370.102971,-9400.615463,-2528.115143
163214.719182,-2220.617826,-12509.480420,-3753.867940
163214.719501,-2738.761985,-14211.954086,-3294.210641
163214.719819,-4737.318029,-11917.315666,-3677.258390
163214.720138,-740.205942,-13841.851115,-1225.752797
163214.720456,1110.308913,-14211.954086,612.876398
163214.720775,1406.391290,-13619.789333,3600.648841
163214.721093,-666.185348,-10066.800811,1762.019645
163214.721412,592.164754,-9474.636058,4213.525239
163214.721730,0.000000,-5107.421000,2528.115143
163214.722049,1406.391290,-3997.112087,3217.601092
163214.722367,2368.659014,-3034.844362,2068.457845
163214.722686,1554.432478,-4589.276840,1685.410096
163214.723004,-3404.947333,-3627.009116,-4596.572988
163214.723323,-4663.297435,-9326.594869,-4979.620737
163214.723641,-7624.121203,-11843.295072,-7124.688131
163214.723960,-6513.812290,-13397.727550,-7124.688131
163214.724278,-2738.761985,-14211.954086,-4979.620737
163214.724597,518.144159,-11917.315666,-1378.971896
163214.724915,4663.297435,-13027.624579,2374.896044
163214.725234,3330.926739,-9548.656652,3370.820191
163214.725552,1184.329507,-7476.080014,2757.943793
163214.725871,4663.297435,-11843.295072,7584.345430
163214.726189,0.000000,-7179.997637,3677.258390
163214.726508,370.102971,-6957.935855,2374.896044
163214.726826,592.164754,-6439.791695,766.095498
163214.727145,-148.041188,-5847.626942,-766.095498
163214.727463,-2368.659014,-6513.812290,-1838.629195
163214.727782,-5329.482782,-7476.080014,-4903.011187
163214.728100,-5551.544565,-10362.883188,-3753.867940
163214.728419,-4811.338623,-12731.542202,-4979.620737
163214.728737,-3627.009116,-10881.027347,-3447.429741
163214.729056,-74.020594,-10658.965565,-76.609550
163214.729374,1924.535449,-9326.594869,2145.067394
163214.729693,3182.885551,-8882.471304,3217.601092
163214.730011,3478.967927,-9030.512492,2834.553343
163214.730329,1776.494261,-10066.800811,2374.896044
163214.730648,962.267725,-11843.295072,2911.162892
163214.730966,-666.185348,-11695.253884,-76.609550
163214.731285,-1554.432478,-10066.800811,-2528.115143
163214.731603,-2368.659014,-9548.656652,-1838.629195
163214.731922,-1036.288319,-9844.739029,-919.314598
163214.732240,-3034.844362,-6661.853478,-3677.258390
163214.732559,-1332.370696,-7254.018232,-1072.533697
163214.732877,-666.185348,-6587.832884,-1302.362347
163214.733196,518.144159,-6365.771101,-153.219100
163214.733514,2294.638420,-7105.977043,-76.609550
163214.733833,4071.132681,-8290.306550,-76.609550
163214.734151,3478.967927,-8882.471304,-76.609550
163214.734470,444.123565,-7772.162391,0.000000
163214.734788,1776.494261,-11029.068536,0.000000
163214.735107,3108.864956,-13841.851115,2374.896044
163214.735425,0.000000,-12509.480420,0.000000
163214.735744,0.000000,-13323.706956,-306.438199
163214.736062,-1628.453072,-12435.459826,-306.438199
163214.736381,-2368.659014,-11103.089130,-536.266849
163214.736699,-1850.514855,-9474.636058,-306.438199
163214.737018,-74.020594,-8290.306550,2374.896044
163214.737336,1110.308913,-5625.565159,1608.800546
163214.737655,1850.514855,-3552.988522,1762.019645
163214.737973,592.164754,-2146.597232,0.000000
163214.738292,2294.638420,-7105.977043,-76.609550
163214.738610,-1480.411884,-7476.080014,-2451.505594
163214.738929,-2146.597232,-10436.903782,-4060.306139
163214.739247,-2886.803174,-12805.562797,-4519.963438
163214.739566,-2442.679609,-14211.954086,-2528.115143
163214.739884,-1036.288319,-14582.057057,-766.095498
163214.740203,1110.308913,-14211.954086,-689.485948
163214.740521,148.041188,-12435.459826,-76.609550
163214.740840,0.000000,-9548.656652,1225.752797
163214.741158,1332.370696,-9548.656652,3677.258390
163214.741477,1702.473667,-5921.647536,2987.772442
163214.741795,1850.514855,-4367.215058,3830.477490
163214.742114,2960.823768,-3478.967927,3140.991542
163214.742432,2664.741391,-3849.070898,1838.629195
163214.742751,2294.638420,-7105.977043,-76.609550
163214.743069,-666.185348,-9178.553681,-2528.115143
163214.743387,-3627.009116,-12731.542202,-3447.429741
163214.743706,-5995.668130,-12435.459826,-7431.126331
163214.744024,-5847.626942,-13101.645173,-4903.011187
163214.744343,-2368.659014,-13397.727550,-1225.752797
163214.744661,0.000000,-10140.821405,0.000000
163214.744980,2812.782580,-10658.965565,2374.896044
163214.745298,3478.967927,-9992.780217,3447.429741
163214.745617,2442.679609,-9178.553681,3677.258390
163214.745935,1110.308913,-9178.553681,3600.648841
163214.746254,-296.082377,-9400.615463,2911.162892
163214.746572,-74.020594,-9474.636058,-76.609550
163214.746891,-2368.659014,-6883.915261,-1608.800546
163214.747209,-3552.988522,-5551.544565,-3370.820191
163214.747528,-888.247130,-9474.636058,-1302.362347
163214.747846,-4737.318029,-7476.080014,-4903.011187
163214.748165,-4515.256246,-9030.512492,-4596.572988
163214.748483,-3627.009116,-10140.821405,-3983.696590
163214.748802,-592.164754,-10288.862594,-76.609550
163214.749120,2294.638420,-9474.636058,689.485948
163214.749439,4959.379811,-9474.636058,3753.867940
163214.749757,4367.215058,-8586.388927,2987.772442
163214.750076,592.164754,-7179.997637,1838.629195
163214.750394,3256.906145,-11473.192101,2451.505594
163214.750713,1702.473667,-11843.295072,-76.609550
163214.751031,-2146.597232,-11769.274478,-536.266849
163214.751350,-2294.638420,-10732.986159,-1532.190996
163214.751668,-2442.679609,-9992.780217,-1455.581446
163214.751987,-74.020594,-10658.965565,1149.143247
163214.752305,-74.020594,-8290.306550,1149.143247
163214.752624,-666.185348,-5921.647536,-76.609550
163214.752942,-666.185348,-5921.647536,-1455.581446
163214.753261,-2368.659014,-5403.503377,0.000000
163214.753579,-2072.576638,-5995.668130,0.000000
163214.753898,-370.102971,-7179.997637,-1072.533697
163214.754216,222.061783,-9104.533087,-1302.362347
163214.754535,888.247130,-11325.150913,-1455.581446
163214.754853,962.267725,-12213.398043,-1225.752797
163214.755172,3182.885551,-13619.789333,-689.485948
163214.755490,814.226536,-14137.933492,-76.609550
163214.755809,2294.638420,-14211.954086,-76.609550
163214.756127,-1776.494261,-11917.315666,-1225.752797
163214.756445,-592.164754,-9992.780217,0.000000
163214.756764,-1776.494261,-6587.832884,1225.752797
163214.757082,1998.556043,-6365.771101,2834.553343
163214.757401,2220.617826,-4219.173869,2528.115143
163214.757719,1998.556043,-3330.926739,2451.505594
163214.758038,2220.617826,-3627.009116,0.000000
163214.758356,1998.556043,-7402.059420,-1225.752797
163214.758675,-1184.329507,-9548.656652,-1532.190996
163214.758993,-1332.370696,-11843.295072,-3753.867940
163214.759312,-3108.864956,-13323.706956,-4979.620737
163214.759630,-3552.988522,-13101.645173,-3064.381992
163214.759949,-2664.741391,-12213.398043,-2757.943793
163214.760267,-74.020594,-13397.727550,229.828649
163214.760586,592.164754,-12509.480420,1608.800546
163214.760904,518.144159,-10436.903782,2528.115143
163214.761223,-74.020594,-8734.430116,2374.896044
163214.761541,518.144159,-5995.668130,2757.943793
163214.761860,592.164754,-4811.338623,2145.067394
163214.762178,1924.535449,-5403.503377,3677.258390
163214.762497,2886.803174,-5921.647536,-76.609550
163214.762815,-2368.659014,-3627.009116,-3064.381992
163214.763134,-3034.844362,-8142.265362,-4673.182538
163214.763452,-4663.297435,-11251.130318,-5515.887586
163214.763771,-5329.482782,-12213.398043,-6358.592633
163214.764089,-3701.029710,-12953.603985,-4060.306139
163214.764408,-74.020594,-13027.624579,-1302.362347
163214.764726,2664.741391,-10955.047942,1225.752797
163214.765045,4367.215058,-10436.903782,3524.039291
163214.765363,4441.235652,-9696.697840,4673.182538
163214.765682,4071.132681,-11843.295072,6052.154434
163214.766000,1332.370696,-10732.986159,3677.258390
163214.766319,-592.164754,-9548.656652,3370.820191
163214.766637,-666.185348,-7994.224174,536.266849
163214.766956,-2368.659014,-5847.626942,-1302.362347
163214.767274,-3552.988522,-5995.668130,-2451.505594
163214.767593,-3330.926739,-6143.709319,-3753.867940
163214.767911,-5403.503377,-7624.121203,-3983.696590
163214.768230,-5995.668130,-9770.718434,-4903.011187
163214.768548,-4515.256246,-10807.006753,-3753.867940
163214.768867,-1554.432478,-10510.924376,-1608.800546
163214.769185,-148.041188,-9326.594869,229.828649
163214.769504,2368.659014,-9548.656652,2451.505594
163214.769822,4441.235652,-10288.862594,4596.572988
163214.770140,4071.132681,-10955.047942,2374.896044
163214.770459,1184.329507,-11325.150913,3677.258390
163214.770777,-1480.411884,-10288.862594,0.000000
163214.771096,-1406.391290,-11843.295072,-842.705048
163214.771414,-1776.494261,-10732.986159,-1302.362347
163214.771733,-1184.329507,-9474.636058,-766.095498
163214.772051,-1702.473667,-7179.997637,0.000000
163214.772370,0.000000,-7031.956449,0.000000
163214.772688,0.000000,-5403.503377,612.876398
163214.773007,1406.391290,-7105.977043,-76.609550
163214.773325,222.061783,-6957.935855,-383.047749
163214.773644,2294.638420,-9474.636058,-76.609550
163214.773962,296.082377,-8068.244768,0.000000
163214.774281,888.247130,-9474.636058,-229.828649
163214.774599,1110.308913,-10732.986159,-229.828649
163214.774918,2886.803174,-13027.624579,1149.143247
163214.775236,1184.329507,-13693.809927,1838.629195
163214.775555,0.000000,-13101.645173,0.000000
163214.775873,-74.020594,-14211.954086,-76.609550
163214.776192,-1702.473667,-11843.295072,-689.485948
163214.776510,-4145.153275,-8364.327145,0.000000
163214.776829,-666.185348,-8290.306550,536.266849
163214.777147,-370.102971,-5847.626942,995.924147
163214.777466,666.185348,-4441.235652,1378.971896
163214.777784,1480.411884,-3923.091493,1149.143247
163214.778103,3478.967927,-5921.647536,1608.800546
163214.778421,0.000000,-4811.338623,-1225.752797
163214.778740,814.226536,-9474.636058,-2528.115143
163214.779058,-1258.350101,-10955.047942,-2987.772442
163214.779377,-4589.276840,-11325.150913,-4903.011187
163214.779695,-1776.494261,-13397.727550,-1225.752797
163214.780014,-592.164754,-12805.562797,-1915.238745
163214.780332,1258.350101,-13841.851115,689.485948
163214.780651,1110.308913,-12583.501014,1685.410096
163214.780969,74.020594,-10436.903782,1991.848295
163214.781288,1702.473667,-9178.553681,4136.915689
163214.781606,2590.720797,-6661.853478,4826.401637
163214.781925,2886.803174,-5921.647536,2757.943793
163214.782243,2294.638420,-4737.318029,1149.143247
163214.782562,0.000000,-4811.338623,1225.752797
163214.782880,-1184.329507,-4737.318029,-1838.629195
163214.783198,-3775.050304,-8364.327145,-4366.744339
163214.783517,-6883.915261,-10658.965565,-6128.763984
163214.783835,-7105.977043,-12731.542202,-5822.325785
163214.784154,-3997.112087,-13101.645173,-5515.887586
163214.784472,-148.041188,-13619.789333,-1915.238745
163214.784791,1702.473667,-11251.130318,842.705048
163214.785109,2886.803174,-11843.295072,3600.648841
163214.785428,1924.535449,-8956.491898,2757.943793
163214.785746,1480.411884,-8956.491898,3830.477490
163214.786065,1036.288319,-11251.130318,5745.716235
163214.786383,-1184.329507,-7698.141797,1378.971896
163214.786702,-962.267725,-7402.059420,383.047749
163214.787020,-962.267725,-7105.977043,-306.438199
163214.787339,-1184.329507,-5995.668130,0.000000
163214.787657,-2368.659014,-5995.668130,-2451.505594
163214.787976,-3552.988522,-7772.162391,-4290.134789
163214.788294,-4145.153275,-10881.027347,-2911.162892
163214.788613,-2442.679609,-11103.089130,-2528.115143
163214.788931,-1998.556043,-8956.491898,-2604.724693
163214.789250,2294.638420,-11843.295072,2374.896044
163214.789568,2960.823768,-9696.697840,2834.553343
163214.789887,3256.906145,-9252.574275,3064.381992
163214.790205,2960.823768,-9696.697840,2451.505594
163214.790524,2664.741391,-12953.603985,4519.963438
163214.790842,0.000000,-12213.398043,0.000000
163214.791161,-666.185348,-13027.624579,1149.143247
163214.791479,-1850.514855,-10066.800811,-1915.238745
163214.791798,-2220.617826,-8364.327145,-2681.334243
163214.792116,-3552.988522,-5995.668130,-1838.629195
163214.792435,-1258.350101,-8290.306550,-689.485948
163214.792753,-2072.576638,-6513.812290,-1225.752797
163214.793072,-1480.411884,-6143.709319,-1378.971896
163214.793390,-962.267725,-6735.874072,-689.485948
163214.793709,1702.473667,-9474.636058,-76.609550
163214.794027,0.000000,-7179.997637,0.000000
163214.794346,2886.803174,-10066.800811,-76.609550
163214.794664,2886.803174,-13027.624579,-76.609550
163214.794983,3478.967927,-12435.459826,-76.609550
163214.795301,2368.659014,-14137.933492,2757.943793
163214.795620,1258.350101,-13693.809927,-229.828649
163214.795938,0.000000,-13101.645173,0.000000
163214.796256,-1406.391290,-12361.439231,0.000000
163214.796575,-2960.823768,-8660.409521,0.000000
163214.796893,-1776.494261,-7179.997637,612.876398
163214.797212,296.082377,-6069.688724,2911.162892
163214.797530,2368.659014,-5107.421000,4749.792088
163214.797849,2294.638420,-2368.659014,1149.143247
163214.798167,1110.308913,-1628.453072,-689.485948
163214.798486,2294.638420,-7698.141797,-76.609550
163214.798804,-2072.576638,-8734.430116,-3217.601092
163214.799123,-3701.029710,-11547.212695,-3830.477490
163214.799441,-4145.153275,-14434.015869,-4596.572988
163214.799760,-3552.988522,-16062.468941,-1915.238745
163214.800078,-2368.659014,-15026.180623,-1532.190996
163214.800396,-74.020594,-16580.613101,2374.896044
163214.800715,-962.267725,-10881.027347,153.219100
163214.801033,0.000000,-9844.739029,2451.505594
163214.801352,0.000000,-5995.668130,2451.505594
163214.801670,1702.473667,-5329.482782,3600.648841
163214.801988,592.164754,-3034.844362,2451.505594
163214.802307,2738.761985,-3627.009116,2681.334243
163214.802625,1628.453072,-4145.153275,766.095498
163214.802944,-74.020594,-8290.306550,-995.924147
163214.803262,-3552.988522,-8364.327145,-4290.134789
163214.803580,-3627.009116,-12435.459826,-4979.620737
163214.803899,-5551.544565,-13101.645173,-5592.497135
163214.804217,-3034.844362,-12583.501014,-3677.258390
163214.804536,-2220.617826,-10140.821405,-2451.505594
163214.804854,3182.885551,-11547.212695,2374.896044
163214.805172,4219.173869,-9992.780217,4290.134789
163214.805491,4219.173869,-9622.677246,4979.620737
163214.805809,2886.803174,-8882.471304,4213.525239
163214.806128,0.000000,-8068.244768,3370.820191
163214.806446,-2368.659014,-7179.997637,1532.190996
163214.806764,-962.267725,-7994.224174,612.876398
163214.807083,-74.020594,-8882.471304,-76.609550
163214.807401,-4441.235652,-5995.668130,-4903.011187
163214.807720,-3775.050304,-8142.265362,-4366.744339
163214.808038,-5847.626942,-9252.574275,-5592.497135
163214.808356,-6069.688724,-10140.821405,-5209.449386
163214.808675,-3923.091493,-10288.862594,-3677.258390
163214.808993,-74.020594,-11843.295072,-689.485948
163214.809312,2368.659014,-9548.656652,1378.971896
163214.809630,3775.050304,-8512.368333,2911.162892
163214.809948,4589.276840,-9474.636058,2834.553343
163214.810267,3701.029710,-9844.739029,4213.525239
163214.810585,1776.494261,-11325.150913,3370.820191
163214.810904,296.082377,-11029.068536,2451.505594
163214.811222,-74.020594,-11843.295072,-76.609550
163214.811540,-2368.659014,-9844.739029,-1685.410096
163214.811859,-1628.453072,-9252.574275,-1838.629195
163214.812177,-1850.514855,-6513.812290,-1915.238745
163214.812496,-1184.329507,-7105.977043,-76.609550
163214.812814,-1406.391290,-6291.750507,0.000000
163214.813132,-1184.329507,-5995.668130,-842.705048
163214.813451,-74.020594,-7698.141797,-76.609550
163214.813769,814.226536,-7402.059420,153.219100
163214.814088,1776.494261,-9030.512492,1455.581446
163214.814406,1406.391290,-9474.636058,-76.609550
163214.814724,1998.556043,-10658.965565,-995.924147
163214.815043,592.164754,-13101.645173,0.000000
163214.815361,0.000000,-13101.645173,-2221.676944
163214.815680,-814.226536,-13989.892304,-1072.533697
163214.815998,-2368.659014,-13619.789333,-1225.752797
163214.816316,-2812.782580,-12583.501014,-1302.362347
163214.816635,-2664.741391,-9474.636058,-1838.629195
163214.816953,-1702.473667,-6883.915261,0.000000
163214.817272,814.226536,-5181.441594,2451.505594
163214.817590,4663.297435,-4737.318029,2987.772442
163214.817908,2886.803174,-2960.823768,1762.019645
163214.818227,4663.297435,-4737.318029,2987.772442
163214.818545,444.123565,-6365.771101,-1225.752797
163214.818864,-74.020594,-9104.533087,-2374.896044
163214.819182,-2368.659014,-11695.253884,-3830.477490
163214.819500,-2812.782580,-14582.057057,-1608.800546
163214.819819,-2072.576638,-14582.057057,-2068.457845
163214.820137,-370.102971,-15174.221811,-919.314598
163214.820456,2294.638420,-15988.448347,2221.676944
163214.820774,814.226536,-11843.295072,1762.019645
163214.821092,0.000000,-9548.656652,2451.505594
163214.821411,-74.020594,-6513.812290,2987.772442
163214.821729,1184.329507,-4811.338623,3600.648841
163214.822048,2146.597232,-3552.988522,3830.477490
163214.822366,2146.597232,-3552.988522,2451.505594
163214.822684,2294.638420,-6513.812290,2374.896044
163214.823003,-74.020594,-8142.265362,-3370.820191
163214.823321,-3627.009116,-11251.130318,-3294.210641
163214.823640,-5995.668130,-12287.418637,-7431.126331
163214.823958,-6587.832884,-15396.283594,-5286.058936
163214.824276,-4737.318029,-13101.645173,-3677.258390
163214.824595,-1110.308913,-11769.274478,-2451.505594
163214.824913,2442.679609,-11769.274478,995.924147
163214.825232,4071.132681,-10288.862594,3753.867940
163214.825550,3404.947333,-9474.636058,3983.696590
163214.825868,4663.297435,-10362.883188,5132.839837
163214.826187,2368.659014,-9104.533087,5132.839837
163214.826505,1998.556043,-8512.368333,3294.210641
163214.826824,-370.102971,-5329.482782,-689.485948
163214.827142,-1184.329507,-4811.338623,-919.314598
163214.827460,-296.082377,-8290.306550,-76.609550
163214.827779,-3552.988522,-6883.915261,-3370.820191
163214.828097,-4959.379811,-8956.491898,-4749.792088
163214.828416,-5699.585753,-10288.862594,-4826.401637
163214.828734,-4071.132681,-10510.924376,-3064.381992
163214.829052,-1110.308913,-10140.821405,229.828649
163214.829371,2146.597232,-10658.965565,2221.676944
163214.829689,4293.194464,-11029.068536,4979.620737
163214.830008,4663.297435,-9474.636058,3600.648841
163214.830326,2368.659014,-8956.491898,1302.362347
163214.830644,3478.967927,-11251.130318,2374.896044
163214.830963,-592.164754,-10732.986159,842.705048
163214.831281,-1850.514855,-10807.006753,-306.438199
163214.831600,-2368.659014,-10510.924376,-1149.143247
163214.831918,-222.061783,-10362.883188,-76.609550
163214.832236,-592.164754,-9474.636058,-229.828649
163214.832555,-1406.391290,-7476.080014,-76.609550
163214.832873,-74.020594,-7698.141797,-1455.581446
163214.833192,-1258.350101,-7105.977043,-1608.800546
163214.833510,-3552.988522,-5995.668130,0.000000
163214.833828,222.061783,-7179.997637,-1608.800546
163214.834147,1628.453072,-8660.409521,76.609550
163214.834465,2368.659014,-9030.512492,612.876398
163214.834784,3034.844362,-11029.068536,689.485948
163214.835102,4663.297435,-13619.789333,2374.896044
163214.835420,1776.494261,-12509.480420,1225.752797
163214.835739,0.000000,-13915.871710,1225.752797
163214.836057,-1258.350101,-13915.871710,-76.609550
163214.836376,-1258.350101,-11843.295072,-689.485948
163214.836694,-1776.494261,-10881.027347,1838.629195
163214.837012,-2072.576638,-6883.915261,383.047749
163214.837331,-592.164754,-5033.400406,1608.800546
163214.837649,518.144159,-3701.029710,1378.971896
163214.837968,814.226536,-3923.091493,1225.752797
163214.838286,1110.308913,-4737.318029,-153.219100
163214.838604,-74.020594,-8290.306550,-766.095498
163214.838923,-2146.597232,-8882.471304,-3064.381992
163214.839241,-4737.318029,-10140.821405,-4903.011187
163214.839560,-2368.659014,-12509.480420,-3677.258390
163214.839878,-74.020594,-15988.448347,-1302.362347
163214.840196,-666.185348,-13471.748144,-1225.752797
163214.840515,-148.041188,-13471.748144,0.000000
163214.840833,-370.102971,-12139.377449,1072.533697
163214.841152,1184.329507,-11325.150913,4596.572988
163214.841470,1184.329507,-7772.162391,3983.696590
163214.841788,2590.720797,-5921.647536,4826.401637
163214.842107,1998.556043,-2072.576638,1072.533697
163214.842425,2368.659014,-3330.926739,3064.381992
163214.842744,0.000000,-2738.761985,0.000000
163214.843062,-74.020594,-6513.812290,-1915.238745
163214.843380,-3552.988522,-9104.533087,-4136.915689
163214.843699,-4737.318029,-12509.480420,-4903.011187
163214.844017,-4293.194464,-13915.871710,-4903.011187
163214.844336,-74.020594,-15396.283594,-2528.115143
163214.844654,370.102971,-13101.645173,-536.266849
163214.844972,4071.132681,-13027.624579,1762.019645
163214.845291,3182.885551,-11843.295072,2987.772442
163214.845609,1184.329507,-9548.656652,766.095498
163214.845928,222.061783,-8956.491898,2987.772442
163214.846246,-74.020594,-8882.471304,2528.115143
163214.846564,-888.247130,-7698.141797,1532.190996
163214.846883,-1258.350101,-6661.853478,612.876398
163214.847201,-1184.329507,-5107.421000,-1532.190996
163214.847520,-74.020594,-7698.141797,-2451.505594
163214.847838,-1776.494261,-8586.388927,-1991.848295
163214.848156,-3923.091493,-9178.553681,-4979.620737
163214.848475,-5625.565159,-9474.636058,-5286.058936
163214.848793,-3552.988522,-10140.821405,-2451.505594
163214.849112,-2960.823768,-9548.656652,-1838.629195
163214.849430,1702.473667,-10214.842000,842.705048
163214.849748,3108.864956,-9696.697840,2528.115143
163214.850067,3923.091493,-9696.697840,3447.429741
163214.850385,4071.132681,-9474.636058,2068.457845
163214.850704,1258.350101,-10362.883188,3524.039291
163214.851022,0.000000,-9844.739029,2145.067394
163214.851340,0.000000,-10140.821405,1838.629195
163214.851659,-74.020594,-9474.636058,-76.609550
163214.851977,-2368.659014,-7179.997637,0.000000
163214.852296,-2146.597232,-7476.080014,-1608.800546
163214.852614,-2516.700203,-7179.997637,-1762.019645
163214.852932,-3775.050304,-7254.018232,-2528.115143
163214.853251,-3552.988522,-8068.244768,-2528.115143
163214.853569,-74.020594,-8882.471304,-2528.115143
163214.853888,-888.247130,-8142.265362,-383.047749
163214.854206,1184.329507,-9252.574275,-153.219100
163214.854524,2146.597232,-9474.636058,612.876398
163214.854843,3182.885551,-11251.130318,2068.457845
163214.855161,4219.173869,-12583.501014,1149.143247
163214.855480,1184.329507,-12509.480420,1225.752797
163214.855798,1110.308913,-14211.954086,-76.609550
163214.856116,-2516.700203,-12287.418637,-1608.800546
163214.856435,-2960.823768,-11029.068536,0.000000
163214.856753,-3404.947333,-8364.327145,-1762.019645
163214.857072,-814.226536,-7402.059420,919.314598
163214.857390,518.144159,-5181.441594,1302.362347
163214.857708,2368.659014,-3404.947333,1991.848295
163214.858027,3182.885551,-4589.276840,1455.581446
163214.858345,1480.411884,-4293.194464,995.924147
163214.858664,1850.514855,-7105.977043,689.485948
163214.858982,-74.020594,-8882.471304,-1915.238745
163214.859300,-2368.659014,-10881.027347,-3064.381992
163214.859619,-74.020594,-16580.613101,-76.609550
163214.859937,-2368.659014,-13693.809927,-2145.067394
163214.860256,-1258.350101,-14211.954086,-842.705048
163214.860574,-1110.308913,-14063.912898,-76.609550
163214.860892,-1184.329507,-12435.459826,383.047749
163214.861211,-2368.659014,-9696.697840,612.876398
163214.861529,-1184.329507,-7179.997637,2068.457845
163214.861848,1110.308913,-7698.141797,4826.401637
163214.862166,592.164754,-2442.679609,1838.629195
163214.862484,1184.329507,-2738.761985,2145.067394
163214.862803,3182.885551,-4737.318029,-76.609550
163214.863121,-1480.411884,-5995.668130,-1991.848295
163214.863440,-3330.926739,-8808.450710,-4826.401637
163214.863758,-4885.359217,-11621.233289,-5745.716235
163214.864076,-3034.844362,-14211.954086,-3753.867940
163214.864395,-592.164754,-15914.427753,-383.047749
163214.864713,592.164754,-13101.645173,0.000000
163214.865032,3478.967927,-13027.624579,1608.800546
163214.865350,2886.803174,-11103.089130,2374.896044
163214.865668,1184.329507,-9548.656652,3064.381992
163214.865987,2294.638420,-8882.471304,3600.648841
163214.866305,296.082377,-7476.080014,3677.258390
163214.866624,962.267725,-6513.812290,3524.039291
163214.866942,370.102971,-5699.585753,2145.067394
163214.867260,2294.638420,-7105.977043,-76.609550
163214.867579,-888.247130,-6883.915261,-612.876398
163214.867897,-2738.761985,-9178.553681,-3294.210641
163214.868216,-5995.668130,-9918.759623,-5132.839837
163214.868534,-6291.750507,-10658.965565,-6818.249932
163214.868852,-5329.482782,-13101.645173,-2451.505594
163214.869171,-3775.050304,-10732.986159,-2451.505594
163214.869489,518.144159,-10955.047942,306.438199
163214.869808,2146.597232,-10362.883188,2374.896044
163214.870126,2738.761985,-9252.574275,2911.162892
163214.870444,3034.844362,-9622.677246,2757.943793
163214.870763,2072.576638,-10140.821405,3064.381992
163214.871081,814.226536,-10140.821405,1762.019645
163214.871400,-3552.988522,-7179.997637,0.000000
163214.871718,-2220.617826,-8364.327145,-1225.752797
163214.872036,-74.020594,-9474.636058,-76.609550
163214.872355,-1776.494261,-7920.203579,-1915.238745
163214.872673,-1776.494261,-7772.162391,-1762.019645
163214.872992,-2516.700203,-7772.162391,-2374.896044
163214.873310,-1258.350101,-8438.347739,-919.314598
163214.873628,-740.205942,-9030.512492,-76.609550
163214.873947,1406.391290,-8290.306550,612.876398
163214.874265,4663.297435,-9474.636058,2068.457845
163214.874584,2664.741391,-7772.162391,1072.533697
163214.874902,1184.329507,-8364.327145,0.000000
163214.875220,2886.803174,-10955.047942,842.705048
163214.875539,666.185348,-13027.624579,459.657299
163214.875857,-1406.391290,-13989.892304,-1302.362347
163214.876176,-3701.029710,-12583.501014,-1838.629195
163214.876494,-2442.679609,-13619.789333,-76.609550
163214.876812,-2442.679609,-11177.109724,-153.219100
163214.877131,-74.020594,-8882.471304,-76.609550
163214.877449,-74.020594,-5477.523971,-76.609550
163214.877768,0.000000,-2442.679609,0.000000
163214.878086,2368.659014,-4219.173869,3064.381992
163214.878404,1480.411884,-4219.173869,0.000000
163214.878723,1184.329507,-6661.853478,-612.876398
163214.879041,-296.082377,-10066.800811,-2451.505594
163214.879360,-1406.391290,-12731.542202,-2604.724693
163214.879678,-2516.700203,-12805.562797,-3294.210641
163214.879996,-74.020594,-16580.613101,-1302.362347
163214.880315,-74.020594,-14804.118840,-1608.800546
163214.880633,-888.247130,-13175.665768,-76.609550
163214.880952,-1776.494261,-10140.821405,1225.752797
163214.881270,1702.473667,-9474.636058,1149.143247
163214.881588,1332.370696,-6439.791695,3830.477490
163214.881907,2146.597232,-3997.112087,3907.087040
163214.882225,3034.844362,-2442.679609,2987.772442
163214.882544,3478.967927,-4145.153275,3600.648841
163214.882862,444.123565,-4737.318029,2221.676944
163214.883180,-2146.597232,-5995.668130,-3064.381992
163214.883499,-4737.318029,-8882.471304,-4979.620737
163214.883817,-8290.306550,-10732.986159,-7354.516781
163214.884136,-4737.318029,-14878.139434,-4443.353888
163214.884454,-6513.812290,-13101.645173,-4903.011187
163214.884772,-962.267725,-13397.727550,-1608.800546
163214.885091,518.144159,-12435.459826,459.657299
163214.885409,1702.473667,-11547.212695,2451.505594
163214.885728,2294.638420,-8586.388927,2374.896044
163214.886046,1406.391290,-8290.306550,3753.867940
163214.886364,296.082377,-6957.935855,2987.772442
163214.886683,0.000000,-5403.503377,2451.505594
163214.887001,1554.432478,-6513.812290,1991.848295
163214.887320,-74.020594,-7698.141797,-76.609550
163214.887638,-2368.659014,-6587.832884,-2145.067394
163214.887956,-3775.050304,-8364.327145,-4749.792088
163214.888275,-5403.503377,-10214.842000,-5515.887586
163214.888593,-5477.523971,-11399.171507,-5515.887586
163214.888912,-4737.318029,-9548.656652,-4903.011187
163214.889230,0.000000,-11251.130318,-1608.800546
163214.889548,0.000000,-9548.656652,2451.505594
163214.889867,4663.297435,-10436.903782,4366.744339
163214.890185,4663.297435,-9474.636058,4826.401637
163214.890504,4145.153275,-11547.212695,7124.688131
163214.890822,1110.308913,-9622.677246,2911.162892
163214.891140,0.000000,-9918.759623,1532.190996
163214.891459,-592.164754,-9548.656652,153.219100
163214.891777,-1776.494261,-8068.244768,0.000000
163214.892096,-666.185348,-8512.368333,-919.314598
163214.892414,-666.185348,-9178.553681,-2451.505594
163214.892732,-2590.720797,-7994.224174,-2528.115143
163214.893051,-4811.338623,-6069.688724,-5132.839837
163214.893369,-2960.823768,-9104.533087,-1915.238745
163214.893688,-1776.494261,-8660.409521,-919.314598
163214.894006,1480.411884,-7846.182985,-76.609550
163214.894324,3256.906145,-7920.203579,153.219100
163214.894643,3701.029710,-9400.615463,1149.143247
163214.894961,1184.329507,-8364.327145,0.000000
163214.895280,2516.700203,-11547.212695,612.876398
163214.895598,1184.329507,-13915.871710,306.438199
163214.895916,-74.020594,-15396.283594,-689.485948
163214.896235,-3552.988522,-12509.480420,-2068.457845
163214.896553,-2294.638420,-12953.603985,-76.609550
163214.896872,-4145.153275,-7179.997637,-1838.629195
163214.897190,518.144159,-7031.956449,536.266849
163214.897508,1332.370696,-4737.318029,1838.629195
163214.897827,2294.638420,-3256.906145,2911.162892
163214.898145,0.000000,-1258.350101,0.000000
163214.898464,1998.556043,-5329.482782,536.266849
163214.898782,148.041188,-7254.018232,-1762.019645
163214.899100,-1480.411884,-10066.800811,-2374.896044
163214.899419,-1258.350101,-13619.789333,-2834.553343
163214.899737,-2516.700203,-13693.809927,-3677.258390
163214.900056,-666.185348,-15988.448347,-1302.362347
163214.900374,-2590.720797,-13175.665768,-1838.629195
163214.900693,-3552.988522,-11917.315666,0.000000
163214.901011,-74.020594,-13471.748144,2987.772442
163214.901329,-2368.659014,-8364.327145,2451.505594
163214.901648,814.226536,-6069.688724,2528.115143
163214.901966,1998.556043,-3849.070898,2757.943793
163214.902285,2738.761985,-3256.906145,3217.601092
163214.902603,2368.659014,-2442.679609,2451.505594
163214.902921,592.164754,-4293.194464,-383.047749
163214.903240,-1480.411884,-7772.162391,-3677.258390
163214.903558,-2368.659014,-11843.295072,-3753.867940
163214.903877,-4811.338623,-13027.624579,-6205.373534
163214.904195,-2442.679609,-14211.954086,-4366.744339
163214.904514,-666.185348,-13915.871710,-3140.991542
163214.904832,444.123565,-11917.315666,-842.705048
163214.905150,2590.720797,-11325.150913,1915.238745
163214.905469,3330.926739,-10658.965565,3907.087040
163214.905787,2886.803174,-11547.212695,4826.401637
163214.906106,0.000000,-8734.430116,4519.963438
163214.906424,-666.185348,-7402.059420,1915.238745
163214.906742,-2368.659014,-5995.668130,1225.752797
163214.907061,-962.267725,-6587.832884,2987.772442
163214.907379,-3552.988522,-3627.009116,0.000000
163214.907698,-2442.679609,-6883.915261,-2528.115143
163214.908016,-4515.256246,-8068.244768,-4443.353888
163214.908335,-5921.647536,-10066.800811,-5669.106685
163214.908653,-5403.503377,-10658.965565,-6511.811733
163214.908971,-2738.761985,-10658.965565,-3140.991542
163214.909290,-74.020594,-11843.295072,-1302.362347
163214.909608,1184.329507,-9548.656652,612.876398
163214.909927,3256.906145,-9548.656652,0.000000
163214.910245,4663.297435,-11843.295072,4826.401637
163214.910564,1184.329507,-10140.821405,2757.943793
163214.910882,814.226536,-10288.862594,1608.800546
163214.911200,0.000000,-10732.986159,383.047749
163214.911519,74.020594,-9474.636058,459.657299
163214.911837,-1110.308913,-6587.832884,-689.485948
163214.912156,1702.473667,-7105.977043,-383.047749
163214.912474,-1184.329507,-5995.668130,-1685.410096
163214.912792,-1036.288319,-7328.038826,-2451.505594
163214.913111,-2960.823768,-8364.327145,-1225.752797
163214.913429,-1258.350101,-8290.306550,-2528.115143
163214.913748,-592.164754,-9030.512492,-995.924147
163214.914066,814.226536,-8882.471304,0.000000
163214.914385,2072.576638,-9474.636058,0.000000
163214.914703,2072.576638,-9770.718434,536.266849
163214.915021,1406.391290,-11547.212695,-76.609550
163214.915340,1110.308913,-12287.418637,-383.047749
163214.915658,0.000000,-11473.192101,-2221.676944
163214.915977,-3256.906145,-12213.398043,0.000000
163214.916295,-1924.535449,-12879.583391,-76.609550
163214.916613,-4737.318029,-7772.162391,-3064.381992
163214.916932,-1184.329507,-8438.347739,-306.438199
163214.917250,0.000000,-5551.544565,919.314598
163214.917569,1628.453072,-4737.318029,536.266849
163214.917887,2294.638420,-3997.112087,-76.609550
163214.918206,2886.803174,-4737.318029,-76.609550
163214.918524,592.164754,-4811.338623,-3370.820191
163214.918842,2294.638420,-10362.883188,-383.047749
163214.919161,-666.185348,-10658.965565,-2528.115143
163214.919479,-74.020594,-13915.871710,-689.485948
163214.919798,-2072.576638,-13101.645173,-1225.752797
163214.920116,888.247130,-13989.892304,-383.047749
163214.920435,592.164754,-13027.624579,689.485948
163214.920753,444.123565,-12287.418637,1762.019645
163214.921071,-2368.659014,-8364.327145,612.876398
163214.921390,-370.102971,-9474.636058,2374.896044
163214.921708,-1702.473667,-5995.668130,1532.190996
163214.922027,1184.329507,-5995.668130,3294.210641
163214.922345,2294.638420,-7105.977043,3600.648841
163214.922663,2294.638420,-4737.318029,-76.609550
163214.922982,-592.164754,-5403.503377,-1455.581446
163214.923300,-2442.679609,-7698.141797,-3447.429741
163214.923619,-4219.173869,-9844.739029,-5056.230287
163214.923937,-4811.338623,-12065.356855,-4979.620737
163214.924256,-4737.318029,-12805.562797,-4366.744339
163214.924574,-74.020594,-13323.706956,-2834.553343
163214.924892,148.041188,-11473.192101,0.000000
163214.925211,2368.659014,-11029.068536,2451.505594
163214.925529,3256.906145,-11917.315666,3677.258390
163214.925848,814.226536,-9548.656652,1532.190996
163214.926166,592.164754,-9770.718434,3064.381992
163214.926485,0.000000,-7698.141797,2681.334243
163214.926803,592.164754,-6587.832884,1149.143247
163214.927121,2294.638420,-7105.977043,-76.609550
163214.927440,1110.308913,-5625.565159,-689.485948
163214.927758,-2146.597232,-4811.338623,-2451.505594
163214.928077,-5921.647536,-4811.338623,-5515.887586
163214.928395,-4441.235652,-9548.656652,-3983.696590
163214.928713,-2442.679609,-12583.501014,-1608.800546
163214.929032,-3849.070898,-10732.986159,-2451.505594
163214.929350,74.020594,-11843.295072,153.219100
163214.929669,1702.473667,-11325.150913,1608.800546
163214.929987,2072.576638,-10436.903782,2068.457845
163214.930306,1110.308913,-9178.553681,0.000000
163214.930624,0.000000,-10807.006753,1608.800546
163214.930942,-3552.988522,-9548.656652,0.000000
163214.931261,-74.020594,-11251.130318,1762.019645
163214.931579,-1258.350101,-7846.182985,-76.609550
163214.931898,0.000000,-7179.997637,0.000000
163214.932216,-666.185348,-7031.956449,-766.095498
163214.932534,-1776.494261,-6957.935855,-1608.800546
163214.932853,-2590.720797,-7179.997637,-2374.896044
163214.933171,-3108.864956,-7550.100608,-4290.134789
163214.933490,-1554.432478,-9474.636058,-2528.115143
163214.933808,-74.020594,-10658.965565,-383.047749
163214.934127,2146.597232,-9474.636058,-76.609550
163214.934445,2368.659014,-8364.327145,-2145.067394
163214.934763,3256.906145,-10732.986159,2757.943793
163214.935082,1776.494261,-9548.656652,306.438199
163214.935400,2812.782580,-12509.480420,2068.457845
163214.935719,1184.329507,-12213.398043,1149.143247
163214.936037,-518.144159,-12139.377449,536.266849
163214.936356,-3034.844362,-9918.759623,-2528.115143
163214.936674,-2960.823768,-9252.574275,0.000000
163214.936992,-1184.329507,-8956.491898,766.095498
163214.937311,-74.020594,-8882.471304,2374.896044
163214.937629,-74.020594,-4737.318029,-383.047749
163214.937948,0.000000,-4811.338623,612.876398
163214.938266,-962.267725,-4589.276840,-1838.629195
163214.938584,-444.123565,-6883.915261,-1762.019645
163214.938903,-814.226536,-8882.471304,-2298.286494
163214.939221,-1258.350101,-11547.212695,-2221.676944
163214.939540,-370.102971,-11251.130318,-4979.620737
163214.939858,-592.164754,-13471.748144,-1225.752797
163214.940177,74.020594,-13397.727550,-995.924147
163214.940495,592.164754,-13471.748144,0.000000
163214.940813,888.247130,-13619.789333,2068.457845
163214.941132,1554.432478,-11843.295072,1149.143247
163214.941450,0.000000,-8364.327145,2451.505594
163214.941769,2294.638420,-7994.224174,2834.553343
163214.942087,1480.411884,-4145.153275,1762.019645
163214.942405,2960.823768,-4811.338623,3064.381992
163214.942724,1184.329507,-3034.844362,76.609550
163214.943042,1332.370696,-5403.503377,-689.485948
163214.943361,-962.267725,-6957.935855,-2221.676944
163214.943679,-2442.679609,-9474.636058,-3830.477490
163214.943998,-2146.597232,-12583.501014,-4519.963438
163214.944316,-2072.576638,-14137.933492,-2681.334243
163214.944634,-74.020594,-13397.727550,-842.705048
163214.944953,1110.308913,-14211.954086,-76.609550
163214.945271,2294.638420,-13027.624579,1455.581446
163214.945590,3330.926739,-13915.871710,4826.401637
163214.945908,0.000000,-10140.821405,2451.505594
163214.946227,-1036.288319,-9770.718434,2374.896044
163214.946545,-1554.432478,-7920.203579,2221.676944
163214.946863,-1036.288319,-6439.791695,995.924147
163214.947182,-1776.494261,-3627.009116,612.876398
163214.947500,-2072.576638,-5329.482782,-1302.362347
163214.947819,-1850.514855,-8290.306550,-1302.362347
163214.948137,-5847.626942,-5995.668130,-6128.763984
163214.948455,-5921.647536,-8956.491898,-4903.011187
163214.948774,-2442.679609,-12435.459826,-4979.620737
163214.949092,-2220.617826,-12139.377449,-2757.943793
163214.949411,-74.020594,-12361.439231,-766.095498
163214.949729,1850.514855,-11325.150913,1302.362347
163214.950048,2886.803174,-12953.603985,2987.772442
163214.950366,3404.947333,-13027.624579,4826.401637
163214.950684,2664.741391,-11769.274478,5056.230287
163214.951003,1110.308913,-9474.636058,2987.772442
163214.951321,-592.164754,-8068.244768,1762.019645
163214.951640,0.000000,-7179.997637,0.000000
163214.951958,-296.082377,-5329.482782,-383.047749
163214.952277,-370.102971,-6587.832884,76.609550
163214.952595,-1480.411884,-7031.956449,-1302.362347
163214.952913,-3701.029710,-7772.162391,-2451.505594
163214.953232,-3627.009116,-9474.636058,-3140.991542
163214.953550,-3034.844362,-11325.150913,-1302.362347
163214.953869,-1258.350101,-10658.965565,-1915.238745
163214.954187,-222.061783,-9252.574275,-689.485948
163214.954505,2294.638420,-7994.224174,-689.485948
163214.954824,2960.823768,-10140.821405,3447.429741
163214.955142,1924.535449,-9548.656652,612.876398
163214.955461,2368.659014,-11991.336260,842.705048
163214.955779,518.144159,-12139.377449,536.266849
163214.956098,-1036.288319,-12583.501014,-689.485948
163214.956416,-1850.514855,-11843.295072,-1072.533697
163214.956734,-1258.350101,-11251.130318,-612.876398
163214.957053,-666.185348,-8290.306550,-76.609550
163214.957371,-74.020594,-7105.977043,-76.609550
163214.957690,518.144159,-5625.565159,-689.485948
163214.958008,3478.967927,-7105.977043,-76.609550
163214.958326,814.226536,-5255.462188,0.000000
163214.958645,1776.494261,-6365.771101,-76.609550
