#time,accel_x,accel_y,accel_z
59534.766656,-444.123565,-9030.512492,919.314598
59534.766966,-518.144159,-9178.553681,459.657299
59534.767276,-2368.659014,-7476.080014,0.000000
59534.767586,0.000000,-7772.162391,612.876398
59534.767896,0.000000,-9548.656652,1685.410096
59534.768206,-74.020594,-7772.162391,-1608.800546
59534.768515,0.000000,-9844.739029,2451.505594
59534.768825,-74.020594,-9474.636058,-76.609550
59534.769135,0.000000,-10140.821405,1838.629195
59534.769445,-74.020594,-9474.636058,842.705048
59534.769755,-370.102971,-9252.574275,612.876398
59534.770065,-592.164754,-9030.512492,536.266849
59534.770375,-1406.391290,-7772.162391,0.000000
59534.770685,-2368.659014,-7179.997637,0.000000
59534.770994,0.000000,-9548.656652,1225.752797
59534.771304,-74.020594,-9178.553681,-76.609550
59534.771614,0.000000,-9548.656652,1838.629195
59534.771924,-74.020594,-10658.965565,2374.896044
59534.772234,0.000000,-8364.327145,1225.752797
59534.772544,-74.020594,-9474.636058,842.705048
59534.772854,-370.102971,-8882.471304,383.047749
59534.773163,0.000000,-8956.491898,919.314598
59534.773473,-74.020594,-8290.306550,-76.609550
59534.773783,-2368.659014,-7179.997637,0.000000
59534.774093,-2072.576638,-8364.327145,0.000000
59534.774403,-74.020594,-10658.965565,-76.609550
59534.774713,-2368.659014,-7772.162391,0.000000
59534.775023,2294.638420,-11251.130318,2987.772442
59534.775333,-1776.494261,-7772.162391,0.000000
59534.775642,-74.020594,-9252.574275,919.314598
59534.775952,-296.082377,-9104.533087,766.095498
59534.776262,-74.020594,-9104.533087,1378.971896
59534.776572,-74.020594,-9474.636058,-76.609550
59534.776882,-666.185348,-8290.306550,-76.609550
59534.777192,-2072.576638,-7772.162391,0.000000
59534.777502,814.226536,-10658.965565,2374.896044
59534.777812,0.000000,-7772.162391,0.000000
59534.778121,1184.329507,-9252.574275,1838.629195
59534.778431,-2072.576638,-7772.162391,0.000000
59534.778741,-370.102971,-8882.471304,842.705048
59534.779051,-296.082377,-8808.450710,842.705048
59534.779361,-592.164754,-9178.553681,612.876398
59534.779671,-74.020594,-11843.295072,2374.896044
59534.779981,-74.020594,-8882.471304,-76.609550
59534.780290,-1406.391290,-7994.224174,0.000000
59534.780600,518.144159,-11843.295072,3600.648841
59534.780910,-2960.823768,-7179.997637,0.000000
59534.781220,0.000000,-8956.491898,1225.752797
59534.781530,-1258.350101,-7772.162391,0.000000
59534.781840,-592.164754,-8956.491898,1072.533697
59534.782150,-370.102971,-9030.512492,919.314598
59534.782460,-222.061783,-8808.450710,689.485948
59534.782769,1332.370696,-10955.047942,3447.429741
59534.783079,1702.473667,-9474.636058,-76.609550
59534.783389,-1110.308913,-7994.224174,-76.609550
59534.783699,1184.329507,-10955.047942,3753.867940
59534.784009,-74.020594,-8290.306550,-76.609550
59534.784319,0.000000,-7179.997637,0.000000
59534.784629,-74.020594,-8882.471304,842.705048
59534.784938,-814.226536,-8956.491898,766.095498
59534.785248,-148.041188,-9178.553681,612.876398
59534.785558,-148.041188,-9104.533087,1149.143247
59534.785868,0.000000,-10140.821405,2451.505594
59534.786178,1702.473667,-10658.965565,2221.676944
59534.786488,-74.020594,-9474.636058,842.705048
59534.786798,-2368.659014,-7179.997637,0.000000
59534.787108,2294.638420,-10658.965565,2374.896044
59534.787417,-2738.761985,-6291.750507,0.000000
59534.787727,-74.020594,-9474.636058,1149.143247
59534.788037,-592.164754,-8882.471304,766.095498
59534.788347,-370.102971,-9252.574275,919.314598
59534.788657,-666.185348,-9030.512492,612.876398
59534.788967,0.000000,-8364.327145,612.876398
59534.789277,592.164754,-9992.780217,2604.724693
59534.789587,1110.308913,-9474.636058,1762.019645
59534.789896,0.000000,-6587.832884,0.000000
59534.790206,2886.803174,-9474.636058,2374.896044
59534.790516,296.082377,-6883.915261,-383.047749
59534.790826,2294.638420,-9474.636058,2374.896044
59534.791136,1110.308913,-8882.471304,536.266849
59534.791446,1628.453072,-9030.512492,536.266849
59534.791756,2294.638420,-8882.471304,229.828649
59534.792065,0.000000,-7179.997637,0.000000
59534.792375,1776.494261,-9548.656652,612.876398
59534.792685,4367.215058,-10362.883188,2374.896044
59534.792995,0.000000,-7179.997637,0.000000
59534.793305,4663.297435,-10658.965565,1762.019645
59534.793615,2886.803174,-9178.553681,-76.609550
59534.793925,4663.297435,-9474.636058,1149.143247
59534.794235,3997.112087,-9030.512492,842.705048
59534.794544,4589.276840,-8956.491898,1302.362347
59534.794854,4811.338623,-8586.388927,995.924147
59534.795164,3552.988522,-7179.997637,1225.752797
59534.795474,5329.482782,-8660.409521,1532.190996
59534.795784,6883.915261,-10658.965565,2374.896044
59534.796094,3552.988522,-7179.997637,0.000000
59534.796404,8216.285956,-10658.965565,1149.143247
59534.796714,6143.709319,-8882.471304,-76.609550
59534.797023,7624.121203,-10658.965565,1149.143247
59534.797333,5625.565159,-9844.739029,0.000000
59534.797643,4737.318029,-11103.089130,-459.657299
59534.797953,3775.050304,-11621.233289,-459.657299
59534.798263,1184.329507,-10732.986159,0.000000
59534.798573,2368.659014,-11325.150913,306.438199
59534.798883,4663.297435,-11843.295072,-76.609550
59534.799192,0.000000,-5107.421000,0.000000
59534.799502,5847.626942,-7105.977043,2374.896044
59534.799812,4959.379811,-3849.070898,1149.143247
59534.800122,8808.450710,-7105.977043,3600.648841
59534.800432,7846.182985,-3849.070898,2221.676944
59534.800742,9104.533087,-6439.791695,2681.334243
59534.801052,6809.894666,-10066.800811,2068.457845
59534.801362,2368.659014,-13101.645173,0.000000
59534.801671,-888.247130,-16654.633695,-1685.410096
59534.801981,-1850.514855,-18949.272115,-1302.362347
59534.802291,-6217.729913,-13101.645173,-4903.011187
59534.802601,-2072.576638,-13175.665768,-842.705048
59534.802911,-2146.597232,-6587.832884,-1608.800546
59534.803221,3478.967927,-7698.141797,4213.525239
59534.803531,4663.297435,-5329.482782,4596.572988
59534.803841,4515.256246,-4663.297435,5362.668486
59534.804150,3552.988522,-4441.235652,4903.011187
59534.804460,0.000000,-2442.679609,3064.381992
59534.804770,1184.329507,-4367.215058,3370.820191
59534.805080,4219.173869,-5625.565159,3600.648841
59534.805390,296.082377,-3627.009116,-2145.067394
59534.805700,740.205942,-11325.150913,1225.752797
59534.806010,-1258.350101,-18949.272115,-2528.115143
59534.806319,-6365.771101,-20947.828159,-3830.477490
59534.806629,-7328.038826,-19023.292709,-3753.867940
59534.806939,-5033.400406,-12583.501014,-3983.696590
59534.807249,-1332.370696,-7179.997637,-919.314598
59534.807559,444.123565,-1258.350101,0.000000
59534.807869,2664.741391,-2442.679609,4903.011187
59534.808179,5921.647536,-5699.585753,8197.221829
59534.808489,3478.967927,-2442.679609,3294.210641
59534.808798,8586.388927,-4737.318029,7048.078582
59534.809108,10584.944971,-7105.977043,7277.907231
59534.809418,5181.441594,-5033.400406,3294.210641
59534.809728,1184.329507,-9622.677246,306.438199
59534.810038,-1258.350101,-14285.974681,-2528.115143
59534.810348,-2368.659014,-16432.571912,-4290.134789
59534.810658,-4145.153275,-14582.057057,-6741.640382
59534.810968,-5921.647536,-14285.974681,-4903.011187
59534.811277,-4737.318029,-14137.933492,-2451.505594
59534.811587,-1258.350101,-9474.636058,-2528.115143
59534.811897,4737.318029,-7179.997637,3677.258390
59534.812207,14137.933492,-4737.318029,8503.660028
59534.812517,14211.954086,-666.185348,7737.564530
59534.812827,12953.603985,-3552.988522,8197.221829
59534.813137,11621.233289,-6957.935855,7124.688131
59534.813446,6883.915261,-10288.862594,4136.915689
59534.813756,1702.473667,-8956.491898,-2451.505594
59534.814066,-2960.823768,-13101.645173,-4290.134789
59534.814376,-4145.153275,-16654.633695,-3677.258390
59534.814686,-74.020594,-16580.613101,-4979.620737
59534.814996,1184.329507,-14878.139434,0.000000
59534.815306,6735.874072,-13027.624579,-76.609550
59534.815616,0.000000,-11029.068536,0.000000
59534.815925,3775.050304,-10066.800811,1378.971896
59534.816235,7846.182985,-6957.935855,3983.696590
59534.816545,7920.203579,-3034.844362,4749.792088
59534.816855,5847.626942,-3404.947333,2068.457845
59534.817165,3182.885551,-4811.338623,306.438199
59534.817475,5329.482782,-5995.668130,0.000000
59534.817785,7624.121203,-12509.480420,5132.839837
59534.818094,1702.473667,-8512.368333,-1302.362347
59534.818404,-2368.659014,-13693.809927,-612.876398
59534.818714,-3552.988522,-11029.068536,-4903.011187
59534.819024,-4589.276840,-10140.821405,-3677.258390
59534.819334,-592.164754,-8364.327145,-1149.143247
59534.819644,3330.926739,-6809.894666,383.047749
59534.819954,9400.615463,-5921.647536,3600.648841
59534.820264,7624.121203,-4145.153275,2374.896044
59534.820573,3775.050304,-5995.668130,306.438199
59534.820883,4737.318029,-8068.244768,4290.134789
59534.821193,1702.473667,-6957.935855,-76.609550
59534.821503,0.000000,-7179.997637,0.000000
59534.821813,-1036.288319,-9548.656652,0.000000
59534.822123,296.082377,-11769.274478,383.047749
59534.822433,962.267725,-10807.006753,-1149.143247
59534.822743,-2368.659014,-13619.789333,-1608.800546
59534.823052,-1258.350101,-13027.624579,-76.609550
59534.823362,-74.020594,-9474.636058,-76.609550
59534.823672,3552.988522,-3627.009116,0.000000
59534.823982,5329.482782,-6587.832884,5515.887586
59534.824292,5847.626942,-5329.482782,3600.648841
59534.824602,2368.659014,-3627.009116,3677.258390
59534.824912,2886.803174,-7105.977043,2374.896044
59534.825221,2442.679609,-6883.915261,0.000000
59534.825531,1702.473667,-8956.491898,995.924147
59534.825841,1110.308913,-9696.697840,536.266849
59534.826151,518.144159,-13619.789333,-76.609550
59534.826461,-666.185348,-12435.459826,-1608.800546
59534.826771,-1258.350101,-13027.624579,-2528.115143
59534.827081,0.000000,-8364.327145,0.000000
59534.827391,5847.626942,-8290.306550,1762.019645
59534.827700,2516.700203,-4811.338623,0.000000
59534.828010,6439.791695,-7105.977043,3294.210641
59534.828320,4811.338623,-6661.853478,2068.457845
59534.828630,4145.153275,-9104.533087,2834.553343
59534.828940,4145.153275,-8216.285956,1685.410096
59534.829250,3849.070898,-10732.986159,2451.505594
59534.829560,4589.276840,-11843.295072,1915.238745
59534.829870,1998.556043,-10658.965565,-689.485948
59534.830179,-3552.988522,-9548.656652,0.000000
59534.830489,3478.967927,-11251.130318,-76.609550
59534.830799,2294.638420,-4145.153275,-2068.457845
59534.831109,4515.256246,-8216.285956,1762.019645
59534.831419,2960.823768,-6883.915261,153.219100
59534.831729,2664.741391,-8364.327145,0.000000
59534.832039,4663.297435,-9178.553681,919.314598
59534.832348,2664.741391,-6587.832884,1225.752797
59534.832658,4145.153275,-10732.986159,1838.629195
59534.832968,4663.297435,-9474.636058,-76.609550
59534.833278,0.000000,-9548.656652,0.000000
59534.833588,4663.297435,-11843.295072,1149.143247
59534.833898,2886.803174,-7994.224174,-76.609550
59534.834208,3775.050304,-9474.636058,536.266849
59534.834518,2590.720797,-9770.718434,-76.609550
59534.834824,2368.659014,-8660.409521,306.438199
59534.835133,4293.194464,-9030.512492,1302.362347
59534.835443,4737.318029,-5403.503377,2451.505594
59534.835752,4737.318029,-7772.162391,2528.115143
59534.836062,5255.462188,-8882.471304,1762.019645
59534.836371,0.000000,-9548.656652,1225.752797
59534.836681,4663.297435,-9474.636058,1149.143247
59534.836990,3478.967927,-9474.636058,2374.896044
59534.837300,3478.967927,-12435.459826,1532.190996
59534.837610,-1110.308913,-9548.656652,-1302.362347
59534.837919,1406.391290,-11473.192101,842.705048
59534.838229,3775.050304,-8216.285956,842.705048
59534.838538,0.000000,-7179.997637,0.000000
59534.838848,0.000000,-7179.997637,0.000000
59534.839157,1110.308913,-11251.130318,1762.019645
59534.839467,2368.659014,-4811.338623,0.000000
59534.839776,7624.121203,-10658.965565,4826.401637
59534.840086,4663.297435,-6513.812290,2987.772442
59534.840395,4885.359217,-10214.842000,2681.334243
59534.840705,4589.276840,-10584.944971,2757.943793
59534.841014,3478.967927,-10510.924376,1838.629195
59534.841324,518.144159,-11473.192101,1072.533697
59534.841633,-3849.070898,-7772.162391,-2451.505594
59534.841943,-2368.659014,-9548.656652,0.000000
59534.842252,3849.070898,-8586.388927,3064.381992
59534.842562,592.164754,-5107.421000,459.657299
59534.842871,3182.885551,-8142.265362,2298.286494
59534.843181,-962.267725,-10658.965565,-76.609550
59534.843490,-1332.370696,-9548.656652,-306.438199
59534.843800,-3034.844362,-11251.130318,-995.924147
59534.844109,-3478.967927,-10436.903782,-766.095498
59534.844419,-2368.659014,-9918.759623,-76.609550
59534.844729,74.020594,-7476.080014,-995.924147
59534.845038,0.000000,-7772.162391,1378.971896
59534.845348,0.000000,-8364.327145,3677.258390
59534.845657,-74.020594,-8882.471304,2374.896044
59534.845967,-2368.659014,-8364.327145,1225.752797
59534.846276,-74.020594,-13027.624579,4826.401637
59534.846586,-5329.482782,-7772.162391,0.000000
59534.846895,-4663.297435,-8882.471304,-383.047749
59534.847205,-1924.535449,-6217.729913,-1149.143247
59534.847514,-2072.576638,-7920.203579,153.219100
59534.847824,-1258.350101,-7105.977043,-383.047749
59534.848133,-4293.194464,-9548.656652,0.000000
59534.848443,-2368.659014,-9548.656652,0.000000
59534.848752,-74.020594,-15396.283594,2374.896044
59534.849062,-4737.318029,-9548.656652,0.000000
59534.849371,-2072.576638,-11547.212695,4060.306139
59534.849681,-2368.659014,-5403.503377,1225.752797
59534.849990,222.061783,-6883.915261,1991.848295
59534.850300,370.102971,-5921.647536,2374.896044
59534.850609,-296.082377,-8364.327145,2068.457845
59534.850919,2294.638420,-8290.306550,1149.143247
59534.851229,-2442.679609,-8808.450710,-689.485948
59534.851538,-5329.482782,-8364.327145,-2451.505594
59534.851848,-2442.679609,-12731.542202,-76.609550
59534.852157,-4737.318029,-7772.162391,-2451.505594
59534.852467,0.000000,-10732.986159,2604.724693
59534.852776,0.000000,-8364.327145,766.095498
59534.853086,2516.700203,-10732.986159,3677.258390
59534.853395,4737.318029,-8364.327145,4136.915689
59534.853705,2738.761985,-9622.677246,3370.820191
59534.854014,2294.638420,-9474.636058,2374.896044
59534.854324,-1850.514855,-8882.471304,-383.047749
59534.854633,-1776.494261,-4811.338623,-2451.505594
59534.854943,-74.020594,-10658.965565,-76.609550
59534.855252,-2368.659014,-6587.832884,-1685.410096
59534.855562,0.000000,-9548.656652,1838.629195
59534.855871,2072.576638,-8956.491898,612.876398
59534.856181,2072.576638,-11029.068536,766.095498
59534.856490,-888.247130,-11177.109724,536.266849
59534.856800,-2516.700203,-11695.253884,-536.266849
59534.857109,2294.638420,-11843.295072,2374.896044
59534.857419,4071.132681,-8290.306550,1149.143247
59534.857728,1480.411884,-6883.915261,0.000000
59534.858038,7031.956449,-8882.471304,4213.525239
59534.858348,2664.741391,-5995.668130,1532.190996
59534.858657,2368.659014,-4811.338623,2451.505594
59534.858967,-518.144159,-8808.450710,-76.609550
59534.859276,-4737.318029,-9178.553681,-2374.896044
59534.859586,-5181.441594,-11103.089130,-3140.991542
59534.859895,-2072.576638,-10288.862594,-2528.115143
59534.860205,1110.308913,-12435.459826,1455.581446
59534.860514,3478.967927,-9474.636058,1762.019645
59534.860824,2886.803174,-9474.636058,2374.896044
59534.861133,2368.659014,-7179.997637,2451.505594
59534.861443,4663.297435,-11251.130318,3600.648841
59534.861752,-3256.906145,-7179.997637,0.000000
59534.862062,-1258.350101,-8290.306550,-229.828649
59534.862371,-1258.350101,-6957.935855,-689.485948
59534.862681,-74.020594,-8290.306550,612.876398
59534.862990,814.226536,-8142.265362,1455.581446
59534.863300,1184.329507,-10732.986159,3677.258390
59534.863609,3330.926739,-9474.636058,2068.457845
59534.863919,-74.020594,-13027.624579,-76.609550
59534.864228,-6809.894666,-7179.997637,-2451.505594
59534.864538,-6587.832884,-13027.624579,-689.485948
59534.864848,-4589.276840,-7179.997637,-4290.134789
59534.865157,1406.391290,-8142.265362,1608.800546
59534.865467,1406.391290,-7772.162391,3064.381992
59534.865776,1184.329507,-6069.688724,1838.629195
59534.866086,518.144159,-8438.347739,2757.943793
59534.866395,0.000000,-6587.832884,3064.381992
59534.866705,-2960.823768,-11177.109724,1991.848295
59534.867014,-4811.338623,-9474.636058,-1302.362347
59534.867324,-7105.977043,-9548.656652,-1838.629195
59534.867633,-74.020594,-9474.636058,-383.047749
59534.867943,-962.267725,-8290.306550,-1762.019645
59534.868252,1110.308913,-11103.089130,3140.991542
59534.868562,2516.700203,-8586.388927,2221.676944
59534.868871,2960.823768,-10584.944971,3600.648841
59534.869181,-296.082377,-8586.388927,2834.553343
59534.869490,-7105.977043,-9548.656652,612.876398
59534.869800,-3849.070898,-8068.244768,0.000000
59534.870109,-74.020594,-11251.130318,-76.609550
59534.870419,0.000000,-4811.338623,0.000000
59534.870728,2294.638420,-9474.636058,3217.601092
59534.871038,3478.967927,-6513.812290,-76.609550
59534.871347,2294.638420,-10658.965565,2221.676944
59534.871657,-962.267725,-10881.027347,1072.533697
59534.871967,-4885.359217,-12065.356855,-1685.410096
59534.872276,-4885.359217,-11325.150913,-2221.676944
59534.872586,-4737.318029,-9548.656652,-2451.505594
59534.872895,0.000000,-9548.656652,1225.752797
59534.873205,5921.647536,-11251.130318,6894.859482
59534.873514,5255.462188,-5255.462188,2987.772442
59534.873824,4737.318029,-6587.832884,4290.134789
59534.874133,3478.967927,-9474.636058,2374.896044
59534.874443,-2072.576638,-8956.491898,306.438199
59534.874752,-3552.988522,-9104.533087,-919.314598
59534.875062,-1850.514855,-8364.327145,-1991.848295
59534.875371,0.000000,-9918.759623,-612.876398
59534.875681,0.000000,-6291.750507,0.000000
59534.875990,592.164754,-8956.491898,612.876398
59534.876300,4737.318029,-10140.821405,4290.134789
59534.876609,2146.597232,-10066.800811,536.266849
59534.876919,0.000000,-9844.739029,1225.752797
59534.877228,-74.020594,-13027.624579,-76.609550
59534.877538,-2368.659014,-8660.409521,-1225.752797
59534.877847,-1110.308913,-9178.553681,-612.876398
59534.878157,1036.288319,-7179.997637,689.485948
59534.878466,3182.885551,-6957.935855,2068.457845
59534.878776,3478.967927,-4737.318029,612.876398
59534.879086,1480.411884,-7476.080014,1378.971896
59534.879395,0.000000,-9548.656652,1225.752797
59534.879705,-3627.009116,-11843.295072,-1302.362347
59534.880014,-4293.194464,-10140.821405,-2145.067394
59534.880324,-1258.350101,-13915.871710,-76.609550
59534.880633,-1184.329507,-9548.656652,0.000000
59534.880943,1110.308913,-10362.883188,1455.581446
59534.881252,3182.885551,-7920.203579,2068.457845
59534.881562,1998.556043,-9844.739029,2911.162892
59534.881871,-666.185348,-8290.306550,536.266849
59534.882181,-5181.441594,-8956.491898,0.000000
59534.882490,-4737.318029,-8364.327145,612.876398
59534.882800,-3034.844362,-8142.265362,-1302.362347
59534.883109,-888.247130,-8660.409521,1838.629195
59534.883419,74.020594,-7179.997637,766.095498
59534.883728,1110.308913,-6809.894666,1149.143247
59534.884038,1480.411884,-9326.594869,2451.505594
59534.884347,666.185348,-8438.347739,1991.848295
59534.884657,-3775.050304,-11547.212695,612.876398
59534.884966,-4737.318029,-10066.800811,1072.533697
59534.885276,-3478.967927,-11547.212695,-76.609550
59534.885586,-74.020594,-7105.977043,-76.609550
59534.885895,-2368.659014,-8364.327145,1225.752797
59534.886205,3478.967927,-7105.977043,2374.896044
59534.886514,3478.967927,-7994.224174,4213.525239
59534.886824,1258.350101,-7772.162391,3294.210641
59534.887133,-2442.679609,-9400.615463,306.438199
59534.887443,-4737.318029,-9030.512492,-1302.362347
59534.887752,-3627.009116,-9770.718434,-1991.848295
59534.888062,-2368.659014,-8364.327145,-2451.505594
59534.888371,0.000000,-7476.080014,-2145.067394
59534.888681,4663.297435,-10955.047942,4213.525239
59534.888990,5551.544565,-7105.977043,2068.457845
59534.889300,3552.988522,-9844.739029,3677.258390
59534.889609,148.041188,-9548.656652,3064.381992
59534.889919,-1850.514855,-10066.800811,-383.047749
59534.890228,-2146.597232,-8882.471304,-1455.581446
59534.890538,-1036.288319,-9400.615463,0.000000
59534.890847,-74.020594,-9992.780217,536.266849
59534.891157,2960.823768,-9326.594869,2374.896044
59534.891466,4663.297435,-9178.553681,2374.896044
59534.891776,0.000000,-5995.668130,612.876398
59534.892085,-296.082377,-10362.883188,1455.581446
59534.892395,-4811.338623,-10140.821405,-3600.648841
59534.892705,-1258.350101,-8290.306550,-3677.258390
59534.893014,-1776.494261,-10881.027347,76.609550
59534.893324,0.000000,-7476.080014,0.000000
59534.893633,74.020594,-9844.739029,1149.143247
59534.893943,4737.318029,-6365.771101,2987.772442
59534.894252,2368.659014,-8068.244768,3140.991542
59534.894562,0.000000,-5995.668130,0.000000
59534.894871,-1406.391290,-11843.295072,-76.609550
59534.895181,-4737.318029,-7994.224174,-3600.648841
59534.895490,-1258.350101,-14211.954086,-76.609550
59534.895800,-2368.659014,-11251.130318,-76.609550
59534.896109,-370.102971,-9178.553681,-76.609550
59534.896419,3701.029710,-8216.285956,2374.896044
59534.896728,4071.132681,-9030.512492,3294.210641
59534.897038,2294.638420,-8660.409521,1838.629195
59534.897347,1110.308913,-9474.636058,2987.772442
59534.897657,-74.020594,-8882.471304,-76.609550
59534.897966,-4737.318029,-8364.327145,-2145.067394
59534.898276,-2072.576638,-9918.759623,536.266849
59534.898585,-3775.050304,-7179.997637,-2451.505594
59534.898895,0.000000,-4811.338623,0.000000
59534.899205,2368.659014,-9104.533087,2451.505594
59534.899514,370.102971,-8882.471304,2221.676944
59534.899824,-2294.638420,-9400.615463,842.705048
59534.900133,-2146.597232,-9474.636058,-76.609550
59534.900443,-4737.318029,-9548.656652,-2451.505594
59534.900752,-4737.318029,-9548.656652,0.000000
59534.901062,-74.020594,-10658.965565,-76.609550
59534.901371,2664.741391,-7179.997637,3983.696590
59534.901681,6439.791695,-8290.306550,2374.896044
59534.901990,3182.885551,-9474.636058,3600.648841
59534.902300,-2220.617826,-8956.491898,306.438199
59534.902609,-4145.153275,-9548.656652,-1149.143247
59534.902919,-5329.482782,-10584.944971,-1608.800546
59534.903228,-6513.812290,-9548.656652,0.000000
59534.903538,-1258.350101,-10658.965565,1149.143247
59534.903847,3478.967927,-7105.977043,2068.457845
59534.904157,4737.318029,-5995.668130,3983.696590
59534.904466,4663.297435,-7105.977043,4826.401637
59534.904776,0.000000,-8364.327145,2451.505594
59534.905085,-2368.659014,-7920.203579,0.000000
59534.905395,-2516.700203,-10807.006753,-459.657299
59534.905704,-3849.070898,-11473.192101,-995.924147
59534.906014,-3478.967927,-11103.089130,-1532.190996
59534.906324,1702.473667,-9474.636058,-76.609550
59534.906633,1184.329507,-7476.080014,0.000000
59534.906943,3108.864956,-9252.574275,3983.696590
59534.907252,1110.308913,-8290.306550,2374.896044
59534.907562,-3552.988522,-6587.832884,0.000000
59534.907871,-74.020594,-9474.636058,-76.609550
59534.908181,-1850.514855,-11251.130318,-76.609550
59534.908490,-2664.741391,-9178.553681,-383.047749
59534.908800,148.041188,-8364.327145,919.314598
59534.909109,4071.132681,-6883.915261,2145.067394
59534.909419,2368.659014,-6587.832884,3064.381992
59534.909728,2294.638420,-9474.636058,2374.896044
59534.910038,-2442.679609,-8438.347739,-689.485948
59534.910347,-3552.988522,-9548.656652,0.000000
59534.910657,-1850.514855,-10658.965565,-1915.238745
59534.910966,-3552.988522,-10881.027347,0.000000
59534.911276,-2368.659014,-10140.821405,0.000000
59534.911585,2220.617826,-7846.182985,919.314598
59534.911895,2442.679609,-8290.306550,2374.896044
59534.912204,2738.761985,-7031.956449,2834.553343
59534.912514,1702.473667,-8290.306550,1762.019645
59534.912824,0.000000,-7772.162391,0.000000
59534.913133,-1258.350101,-12139.377449,842.705048
59534.913443,-2738.761985,-9400.615463,-4290.134789
59534.913752,-74.020594,-11843.295072,-76.609550
59534.914062,0.000000,-4811.338623,0.000000
59534.914371,2294.638420,-8290.306550,1149.143247
59534.914681,1554.432478,-8364.327145,2068.457845
59534.914990,592.164754,-9696.697840,1685.410096
59534.915300,74.020594,-8882.471304,459.657299
59534.915609,-1184.329507,-11473.192101,1838.629195
59534.915919,-1258.350101,-10066.800811,-76.609550
59534.916228,-2368.659014,-9548.656652,-1149.143247
59534.916538,3552.988522,-10288.862594,3830.477490
59534.916847,4071.132681,-8290.306550,1762.019645
59534.917157,2960.823768,-8660.409521,3600.648841
59534.917466,296.082377,-10288.862594,2451.505594
59534.917776,-222.061783,-8956.491898,689.485948
59534.918085,-2220.617826,-10288.862594,0.000000
59534.918395,-3849.070898,-9030.512492,-612.876398
59534.918704,-5403.503377,-8956.491898,-2451.505594
59534.919014,-2812.782580,-6735.874072,0.000000
59534.919323,2442.679609,-9326.594869,2987.772442
59534.919633,0.000000,-4811.338623,612.876398
59534.919943,1702.473667,-10584.944971,4213.525239
59534.920252,-1776.494261,-5551.544565,0.000000
59534.920562,-2738.761985,-8734.430116,-459.657299
59534.920871,-3256.906145,-9844.739029,0.000000
59534.921181,-3701.029710,-11695.253884,-383.047749
59534.921490,-1554.432478,-10288.862594,-306.438199
59534.921800,1406.391290,-10362.883188,1762.019645
59534.922109,370.102971,-9252.574275,2298.286494
59534.922419,1702.473667,-7105.977043,3140.991542
59534.922728,74.020594,-9622.677246,3294.210641
59534.923038,74.020594,-6809.894666,536.266849
59534.923347,-3849.070898,-8364.327145,919.314598
59534.923657,-1998.556043,-8068.244768,612.876398
59534.923966,-74.020594,-9474.636058,-76.609550
59534.924276,-1776.494261,-7476.080014,0.000000
59534.924585,1998.556043,-9474.636058,1915.238745
59534.924895,2590.720797,-9178.553681,3217.601092
59534.925204,1110.308913,-8882.471304,1149.143247
59534.925514,-2960.823768,-7179.997637,-3677.258390
59534.925823,-666.185348,-12435.459826,-76.609550
59534.926133,-3627.009116,-10955.047942,-2451.505594
59534.926443,-370.102971,-10066.800811,-383.047749
59534.926752,1184.329507,-9844.739029,919.314598
59534.927062,2738.761985,-8882.471304,2145.067394
59534.927371,2516.700203,-7105.977043,2374.896044
59534.927681,1776.494261,-8290.306550,2834.553343
59534.927990,1184.329507,-6291.750507,612.876398
59534.928300,-74.020594,-10288.862594,995.924147
59534.928609,-1406.391290,-9400.615463,-153.219100
59534.928919,-1258.350101,-10436.903782,0.000000
59534.929228,1184.329507,-8142.265362,229.828649
59534.929538,2294.638420,-10658.965565,2374.896044
59534.929847,0.000000,-5995.668130,-2221.676944
59534.930157,-592.164754,-12065.356855,1838.629195
59534.930466,814.226536,-7698.141797,-689.485948
59534.930776,-1184.329507,-9548.656652,0.000000
59534.931085,-2072.576638,-7920.203579,0.000000
59534.931395,-2072.576638,-10807.006753,-76.609550
59534.931704,-444.123565,-8586.388927,0.000000
59534.932014,1480.411884,-9326.594869,1838.629195
59534.932323,1258.350101,-7698.141797,2681.334243
59534.932633,1702.473667,-9474.636058,2374.896044
59534.932942,1406.391290,-6809.894666,-383.047749
59534.933252,0.000000,-7772.162391,1225.752797
59534.933562,-74.020594,-10658.965565,2374.896044
59534.933871,-3552.988522,-8660.409521,0.000000
59534.934181,-2072.576638,-7179.997637,-1225.752797
59534.934491,888.247130,-10288.862594,1455.581446
59534.934800,1110.308913,-8956.491898,2604.724693
59534.935110,-1110.308913,-8956.491898,1685.410096
59534.935420,-518.144159,-7846.182985,995.924147
59534.935729,1998.556043,-10658.965565,2374.896044
59534.936039,-370.102971,-8882.471304,-76.609550
59534.936349,-4737.318029,-9548.656652,0.000000
59534.936658,-74.020594,-9474.636058,-76.609550
59534.936968,-1184.329507,-8660.409521,0.000000
59534.937278,-74.020594,-8438.347739,0.000000
59534.937587,-1406.391290,-9252.574275,1762.019645
59534.937897,-296.082377,-7105.977043,1072.533697
59534.938207,0.000000,-8586.388927,842.705048
59534.938517,0.000000,-8290.306550,2221.676944
59534.938826,-370.102971,-9474.636058,1149.143247
59534.939136,-2442.679609,-9770.718434,-76.609550
59534.939446,-296.082377,-11325.150913,1991.848295
59534.939755,-74.020594,-8734.430116,-76.609550
59534.940065,-1776.494261,-8364.327145,1225.752797
59534.940375,-222.061783,-6809.894666,0.000000
59534.940684,1184.329507,-7920.203579,842.705048
59534.940994,666.185348,-9400.615463,995.924147
59534.941304,-1702.473667,-9622.677246,76.609550
59534.941613,-2368.659014,-11473.192101,536.266849
59534.941923,2146.597232,-11251.130318,1762.019645
59534.942233,1406.391290,-11251.130318,-76.609550
59534.942542,0.000000,-8364.327145,2451.505594
59534.942852,-74.020594,-7698.141797,842.705048
59534.943162,1184.329507,-5995.668130,1225.752797
59534.943472,1110.308913,-9474.636058,0.000000
59534.943781,-1036.288319,-9696.697840,459.657299
59534.944091,-2146.597232,-11177.109724,229.828649
59534.944401,296.082377,-9474.636058,612.876398
59534.944710,1036.288319,-9548.656652,2068.457845
59534.945020,592.164754,-8882.471304,2757.943793
59534.945330,-518.144159,-9474.636058,2374.896044
59534.945639,0.000000,-4811.338623,0.000000
59534.945949,2146.597232,-10658.965565,2298.286494
59534.946259,-74.020594,-9474.636058,-76.609550
59534.946568,-1554.432478,-11251.130318,-1302.362347
59534.946878,-1998.556043,-9548.656652,-1225.752797
59534.947188,-444.123565,-10436.903782,229.828649
59534.947497,0.000000,-8438.347739,1455.581446
59534.947807,-370.102971,-7698.141797,2834.553343
59534.948117,592.164754,-7476.080014,1838.629195
59534.948427,1554.432478,-11251.130318,2374.896044
59534.948736,-2960.823768,-7179.997637,0.000000
59534.949046,-74.020594,-11547.212695,2068.457845
59534.949356,-962.267725,-7179.997637,-536.266849
59534.949665,1702.473667,-8882.471304,1149.143247
59534.949975,148.041188,-8364.327145,1838.629195
59534.950285,-888.247130,-9400.615463,1149.143247
59534.950594,-222.061783,-8512.368333,0.000000
59534.950904,444.123565,-9474.636058,1532.190996
59534.951214,0.000000,-8956.491898,1225.752797
59534.951523,-888.247130,-12361.439231,2604.724693
59534.951833,-370.102971,-11251.130318,-689.485948
59534.952143,-1776.494261,-8364.327145,0.000000
59534.952452,-1554.432478,-11695.253884,1608.800546
59534.952762,-74.020594,-8882.471304,2374.896044
59534.953072,1480.411884,-6587.832884,1685.410096
59534.953382,3182.885551,-7550.100608,2911.162892
59534.953691,1628.453072,-8142.265362,2451.505594
59534.954001,-888.247130,-9844.739029,1225.752797
59534.954311,-2368.659014,-8364.327145,0.000000
59534.954620,-2368.659014,-9548.656652,0.000000
59534.954930,-1258.350101,-9474.636058,-76.609550
59534.955240,-3552.988522,-8956.491898,1225.752797
59534.955549,-74.020594,-7698.141797,-76.609550
59534.955859,2072.576638,-8882.471304,3294.210641
59534.956169,1480.411884,-7772.162391,1915.238745
59534.956478,-370.102971,-9696.697840,1762.019645
59534.956788,-814.226536,-9178.553681,536.266849
59534.957098,-1184.329507,-9548.656652,0.000000
59534.957407,-4441.235652,-8956.491898,0.000000
59534.957717,-4737.318029,-7772.162391,0.000000
59534.958027,-74.020594,-10658.965565,1762.019645
59534.958337,592.164754,-6513.812290,76.609550
59534.958646,740.205942,-8364.327145,2451.505594
59534.958956,0.000000,-9474.636058,3600.648841
59534.959266,-1258.350101,-9918.759623,1149.143247
59534.959575,-222.061783,-9178.553681,612.876398
59534.959885,-1110.308913,-10214.842000,1302.362347
59534.960195,-1702.473667,-7772.162391,0.000000
59534.960504,-2812.782580,-6587.832884,0.000000
59534.960814,0.000000,-4811.338623,0.000000
59534.961124,4367.215058,-11251.130318,2374.896044
59534.961433,-962.267725,-7846.182985,229.828649
59534.961743,-1776.494261,-10214.842000,612.876398
59534.962053,-1776.494261,-11473.192101,919.314598
59534.962363,-666.185348,-10955.047942,229.828649
59534.962672,-1554.432478,-9548.656652,689.485948
59534.962982,-1480.411884,-8808.450710,766.095498
59534.963292,888.247130,-5995.668130,-689.485948
59534.963601,518.144159,-6513.812290,0.000000
59534.963911,0.000000,-7179.997637,1225.752797
59534.964221,2294.638420,-10658.965565,2374.896044
59534.964530,0.000000,-7254.018232,612.876398
59534.964840,592.164754,-9992.780217,2987.772442
59534.965150,-2220.617826,-10140.821405,919.314598
59534.965459,-2738.761985,-10955.047942,-536.266849
59534.965769,-1480.411884,-8586.388927,-383.047749
59534.966079,-296.082377,-9474.636058,612.876398
59534.966388,222.061783,-7698.141797,842.705048
59534.966698,-74.020594,-9474.636058,995.924147
59534.967008,1702.473667,-8290.306550,-76.609550
59534.967318,0.000000,-8364.327145,612.876398
59534.967627,-666.185348,-10658.965565,2374.896044
59534.967937,-2812.782580,-9104.533087,-76.609550
59534.968247,0.000000,-7179.997637,306.438199
59534.968556,2294.638420,-8956.491898,1991.848295
59534.968866,1702.473667,-7772.162391,1838.629195
59534.969176,1036.288319,-9474.636058,1532.190996
59534.969485,1554.432478,-9474.636058,2374.896044
59534.969795,1702.473667,-10658.965565,2068.457845
59534.970105,-74.020594,-11843.295072,-76.609550
59534.970414,-5329.482782,-8660.409521,-1838.629195
59534.970724,-888.247130,-9992.780217,766.095498
59534.971034,-518.144159,-9104.533087,612.876398
59534.971343,0.000000,-6587.832884,612.876398
59534.971653,666.185348,-7920.203579,2068.457845
59534.971963,962.267725,-7994.224174,1915.238745
59534.972273,814.226536,-9178.553681,1455.581446
59534.972582,-1554.432478,-10658.965565,2374.896044
59534.972892,-1258.350101,-9474.636058,-76.609550
59534.973202,-1258.350101,-8290.306550,-1302.362347
59534.973511,0.000000,-7476.080014,0.000000
59534.973821,1110.308913,-8882.471304,536.266849
59534.974131,-1184.329507,-9548.656652,612.876398
59534.974440,-3256.906145,-6587.832884,-1608.800546
59534.974750,-2072.576638,-12731.542202,1532.190996
59534.975060,2442.679609,-7846.182985,1378.971896
59534.975369,-1258.350101,-9696.697840,1838.629195
59534.975679,-666.185348,-8586.388927,1762.019645
59534.975989,1332.370696,-8882.471304,-842.705048
59534.976298,4071.132681,-10658.965565,2374.896044
59534.976608,0.000000,-4811.338623,0.000000
59534.976918,-666.185348,-12435.459826,2374.896044
59534.977228,0.000000,-7476.080014,-2451.505594
59534.977537,-1554.432478,-11473.192101,459.657299
59534.977847,-592.164754,-9252.574275,153.219100
59534.978157,-3775.050304,-10658.965565,0.000000
59534.978466,-888.247130,-7105.977043,-153.219100
59534.978776,2886.803174,-10955.047942,3294.210641
59534.979086,2368.659014,-9178.553681,3677.258390
59534.979395,1480.411884,-11547.212695,4136.915689
59534.979705,1702.473667,-8290.306550,1762.019645
59534.980015,0.000000,-7328.038826,0.000000
59534.980324,-296.082377,-9548.656652,306.438199
59534.980634,-3627.009116,-8734.430116,-842.705048
59534.980944,-2368.659014,-7328.038826,-995.924147
59534.981253,-1628.453072,-8808.450710,-995.924147
59534.981563,-1554.432478,-9104.533087,-383.047749
59534.981873,740.205942,-11325.150913,1838.629195
59534.982183,2368.659014,-9844.739029,2451.505594
59534.982492,5847.626942,-11843.295072,3600.648841
59534.982802,-2368.659014,-7772.162391,0.000000
59534.983112,-814.226536,-11251.130318,3600.648841
59534.983421,962.267725,-7031.956449,-383.047749
59534.983731,2294.638420,-7994.224174,2374.896044
59534.984041,666.185348,-6365.771101,1608.800546
59534.984350,-296.082377,-8512.368333,1378.971896
59534.984660,370.102971,-9178.553681,995.924147
59534.984970,0.000000,-9548.656652,0.000000
59534.985279,-3552.988522,-10140.821405,0.000000
59534.985589,-4737.318029,-10732.986159,153.219100
59534.985899,-1850.514855,-8882.471304,-1302.362347
59534.986208,-2664.741391,-7179.997637,-3677.258390
59534.986518,0.000000,-8364.327145,1149.143247
59534.986828,2886.803174,-9474.636058,2681.334243
59534.987138,2664.741391,-8290.306550,1991.848295
59534.987447,2886.803174,-7994.224174,2298.286494
59534.987757,-296.082377,-8882.471304,1915.238745
59534.988067,-3552.988522,-9548.656652,0.000000
59534.988376,-2960.823768,-7476.080014,-459.657299
59534.988686,-2368.659014,-7772.162391,0.000000
59534.988996,-74.020594,-10658.965565,-76.609550
59534.989305,0.000000,-8364.327145,1225.752797
59534.989615,2220.617826,-10510.924376,1762.019645
59534.989925,4071.132681,-11251.130318,2374.896044
59534.990234,222.061783,-10066.800811,1455.581446
59534.990544,-1924.535449,-9992.780217,919.314598
59534.990854,-2738.761985,-9178.553681,-306.438199
59534.991163,-2368.659014,-7179.997637,-1838.629195
59534.991473,-1184.329507,-9474.636058,2374.896044
59534.991783,0.000000,-7772.162391,2451.505594
59534.992093,3478.967927,-8882.471304,2987.772442
59534.992402,1184.329507,-7179.997637,2451.505594
59534.992712,-74.020594,-10658.965565,2374.896044
59534.993022,-1110.308913,-11103.089130,1762.019645
59534.993331,-3330.926739,-9326.594869,-689.485948
59534.993641,-2738.761985,-9178.553681,-1685.410096
59534.993951,-1702.473667,-9400.615463,-689.485948
59534.994260,-2294.638420,-7772.162391,76.609550
59534.994570,0.000000,-9178.553681,2298.286494
59534.994880,0.000000,-6587.832884,0.000000
59534.995189,1776.494261,-10140.821405,3370.820191
59534.995499,-74.020594,-8364.327145,76.609550
59534.995809,-1480.411884,-10658.965565,2374.896044
59534.996118,-1036.288319,-8364.327145,1225.752797
59534.996428,-1628.453072,-8882.471304,229.828649
59534.996738,-370.102971,-8142.265362,1149.143247
59534.997048,0.000000,-9400.615463,995.924147
59534.997357,814.226536,-6291.750507,1455.581446
59534.997667,0.000000,-9474.636058,1149.143247
59534.997977,-2368.659014,-8364.327145,0.000000
59534.998286,-3256.906145,-11029.068536,0.000000
59534.998596,-2442.679609,-9474.636058,-1915.238745
59534.998906,-1554.432478,-10955.047942,-76.609550
59534.999215,148.041188,-8364.327145,1838.629195
59534.999525,814.226536,-9178.553681,1915.238745
59534.999835,2072.576638,-7772.162391,1455.581446
59535.000144,1998.556043,-9252.574275,2374.896044
59535.000454,518.144159,-8882.471304,2374.896044
59535.000764,-1850.514855,-9400.615463,689.485948
59535.001073,-3330.926739,-8734.430116,-2374.896044
59535.001383,-1776.494261,-8364.327145,-766.095498
59535.001693,-2442.679609,-9844.739029,-1685.410096
59535.002003,1924.535449,-10140.821405,3064.381992
59535.002312,296.082377,-7179.997637,1225.752797
59535.002622,3330.926739,-9252.574275,2221.676944
59535.002932,518.144159,-10288.862594,2374.896044
59535.003241,-1850.514855,-9400.615463,1378.971896
59535.003551,-1850.514855,-9178.553681,-689.485948
59535.003861,-2442.679609,-9548.656652,-1225.752797
59535.004170,-666.185348,-7994.224174,-689.485948
59535.004480,0.000000,-8956.491898,2757.943793
59535.004790,2590.720797,-5329.482782,-76.609550
59535.005099,2368.659014,-7772.162391,2451.505594
59535.005409,0.000000,-7772.162391,919.314598
59535.005719,-962.267725,-10732.986159,995.924147
59535.006028,-3923.091493,-9696.697840,-1072.533697
59535.006338,-4071.132681,-9918.759623,-2451.505594
59535.006648,-1554.432478,-11843.295072,-383.047749
59535.006958,1702.473667,-10658.965565,2604.724693
59535.007267,1998.556043,-7698.141797,1455.581446
59535.007577,2960.823768,-7179.997637,3064.381992
59535.007887,4071.132681,-9474.636058,3600.648841
59535.008196,0.000000,-7179.997637,2451.505594
59535.008506,-4515.256246,-7772.162391,0.000000
59535.008816,-3034.844362,-8364.327145,-1225.752797
59535.009125,-2664.741391,-9918.759623,-229.828649
59535.009435,-148.041188,-8734.430116,919.314598
59535.009745,2294.638420,-10066.800811,2374.896044
59535.010054,2368.659014,-7328.038826,1378.971896
59535.010364,4071.132681,-10658.965565,2987.772442
59535.010674,0.000000,-8068.244768,1302.362347
59535.010983,-3552.988522,-9548.656652,612.876398
59535.011293,-5625.565159,-8364.327145,-2451.505594
59535.011603,-4959.379811,-9622.677246,-2145.067394
59535.011913,-2960.823768,-9252.574275,-612.876398
59535.012222,-222.061783,-8956.491898,995.924147
59535.012532,3330.926739,-6809.894666,2298.286494
59535.012842,6217.729913,-8512.368333,4290.134789
59535.013151,2368.659014,-8364.327145,3370.820191
59535.013461,-74.020594,-10658.965565,2374.896044
59535.013771,-4071.132681,-7846.182985,-1915.238745
59535.014080,-1258.350101,-12435.459826,-76.609550
59535.014390,-2960.823768,-7476.080014,-2451.505594
59535.014700,-74.020594,-8290.306550,-76.609550
59535.015009,2368.659014,-8956.491898,1685.410096
59535.015319,4737.318029,-8956.491898,3217.601092
59535.015629,2812.782580,-9178.553681,3370.820191
59535.015939,0.000000,-8956.491898,612.876398
59535.016248,-3034.844362,-8808.450710,-1455.581446
59535.016558,-3256.906145,-10732.986159,-919.314598
59535.016868,-1850.514855,-10066.800811,-995.924147
59535.017177,-2368.659014,-7772.162391,0.000000
59535.017487,1110.308913,-7179.997637,0.000000
59535.017797,4663.297435,-7105.977043,2068.457845
59535.018106,1702.473667,-8808.450710,2604.724693
59535.018416,0.000000,-8956.491898,2145.067394
59535.018726,-1406.391290,-9474.636058,229.828649
59535.019035,-2960.823768,-9548.656652,0.000000
59535.019345,-2664.741391,-9696.697840,-689.485948
59535.019655,-592.164754,-9844.739029,1532.190996
59535.019964,1406.391290,-7846.182985,689.485948
59535.020274,3552.988522,-8364.327145,4290.134789
59535.020584,1998.556043,-8290.306550,1762.019645
59535.020894,-74.020594,-10362.883188,1149.143247
59535.021203,-4293.194464,-9474.636058,-1072.533697
59535.021513,-3108.864956,-10140.821405,-766.095498
59535.021823,-592.164754,-9178.553681,383.047749
59535.022132,-2368.659014,-8068.244768,0.000000
59535.022442,1036.288319,-8142.265362,1072.533697
59535.022752,2368.659014,-9474.636058,2911.162892
59535.023061,1554.432478,-8660.409521,2145.067394
59535.023371,2368.659014,-11177.109724,5515.887586
59535.023681,-1258.350101,-8882.471304,-76.609550
59535.023990,-2146.597232,-9474.636058,-383.047749
59535.024300,-2738.761985,-9696.697840,-536.266849
59535.024610,-666.185348,-8364.327145,153.219100
59535.024919,222.061783,-8364.327145,1072.533697
59535.025229,1184.329507,-6291.750507,0.000000
59535.025539,4663.297435,-9326.594869,2374.896044
59535.025849,1184.329507,-8068.244768,2451.505594
59535.026158,-666.185348,-11843.295072,1149.143247
59535.026468,-5107.421000,-8068.244768,-3753.867940
59535.026778,-2886.803174,-10658.965565,-1915.238745
59535.027087,-1554.432478,-11251.130318,-76.609550
59535.027397,-74.020594,-9400.615463,536.266849
59535.027707,3034.844362,-7550.100608,2528.115143
59535.028016,3701.029710,-7772.162391,3983.696590
59535.028326,1554.432478,-7624.121203,3600.648841
59535.028636,1406.391290,-9104.533087,3294.210641
59535.028945,-2368.659014,-6291.750507,0.000000
59535.029255,-1924.535449,-8660.409521,1762.019645
59535.029565,-5699.585753,-6587.832884,-3677.258390
59535.029874,-1258.350101,-11547.212695,-76.609550
59535.030184,1332.370696,-10214.842000,1532.190996
59535.030494,2812.782580,-9696.697840,2221.676944
59535.030804,1628.453072,-9770.718434,2451.505594
59535.031113,0.000000,-9474.636058,1378.971896
59535.031423,-2146.597232,-9030.512492,-76.609550
59535.031733,-4737.318029,-10214.842000,-459.657299
59535.032042,-5699.585753,-8142.265362,-2068.457845
59535.032352,-1628.453072,-9770.718434,2757.943793
59535.032662,4663.297435,-8290.306550,1762.019645
59535.032971,4663.297435,-8290.306550,4673.182538
59535.033281,1776.494261,-7179.997637,3064.381992
59535.033591,-1480.411884,-6439.791695,1072.533697
59535.033900,-2738.761985,-10881.027347,0.000000
59535.034210,-1406.391290,-8956.491898,-689.485948
59535.034520,-3627.009116,-11843.295072,-766.095498
59535.034829,-3404.947333,-9770.718434,-1149.143247
59535.035139,-1850.514855,-10066.800811,-1302.362347
59535.035449,1776.494261,-8438.347739,2987.772442
59535.035759,2294.638420,-8290.306550,842.705048
59535.036068,888.247130,-10955.047942,3983.696590
59535.036378,-1184.329507,-8660.409521,459.657299
59535.036687,-814.226536,-10066.800811,766.095498
59535.036997,-370.102971,-8734.430116,0.000000
59535.037306,-1332.370696,-8882.471304,1149.143247
59535.037616,1998.556043,-8290.306550,1072.533697
59535.037925,2960.823768,-7476.080014,1225.752797
59535.038235,0.000000,-7179.997637,766.095498
59535.038545,-296.082377,-10140.821405,153.219100
59535.038854,-74.020594,-13027.624579,2987.772442
59535.039164,-74.020594,-10955.047942,1149.143247
59535.039473,-1406.391290,-11843.295072,1225.752797
59535.039783,-666.185348,-11843.295072,-76.609550
59535.040092,-962.267725,-8882.471304,689.485948
59535.040402,2812.782580,-7328.038826,2528.115143
59535.040711,3182.885551,-7105.977043,3600.648841
59535.041021,1554.432478,-7846.182985,2987.772442
59535.041331,-2146.597232,-6661.853478,0.000000
59535.041640,-1184.329507,-8660.409521,919.314598
59535.041950,-74.020594,-9474.636058,-1302.362347
59535.042259,-888.247130,-10658.965565,1608.800546
59535.042569,-1184.329507,-9548.656652,306.438199
59535.042878,2072.576638,-9178.553681,766.095498
59535.043188,2072.576638,-9770.718434,1991.848295
59535.043498,1628.453072,-9696.697840,2451.505594
59535.043807,1406.391290,-10066.800811,1762.019645
59535.044117,-444.123565,-8364.327145,766.095498
59535.044426,-1258.350101,-9474.636058,-383.047749
59535.044736,-3552.988522,-7179.997637,0.000000
59535.045045,-74.020594,-11843.295072,-76.609550
59535.045355,1776.494261,-8364.327145,3447.429741
59535.045664,1184.329507,-7179.997637,2451.505594
59535.045974,2220.617826,-7550.100608,3064.381992
59535.046284,222.061783,-8438.347739,1532.190996
59535.046593,-740.205942,-9178.553681,536.266849
59535.046903,-1850.514855,-12435.459826,-919.314598
59535.047212,-3256.906145,-10881.027347,-1225.752797
59535.047522,-2442.679609,-11251.130318,-1302.362347
59535.047831,0.000000,-8660.409521,0.000000
59535.048141,4071.132681,-9474.636058,2374.896044
59535.048450,1776.494261,-7179.997637,3677.258390
59535.048760,0.000000,-7179.997637,1838.629195
59535.049070,592.164754,-8364.327145,1685.410096
59535.049379,-1036.288319,-8956.491898,76.609550
59535.049689,-1924.535449,-9252.574275,0.000000
59535.049998,-1258.350101,-11029.068536,459.657299
59535.050308,0.000000,-8512.368333,0.000000
59535.050617,1702.473667,-9474.636058,1149.143247
59535.050927,0.000000,-9548.656652,2451.505594
59535.051236,3478.967927,-11843.295072,4213.525239
59535.051546,0.000000,-8364.327145,1838.629195
59535.051856,-1036.288319,-8512.368333,0.000000
59535.052165,-2368.659014,-9252.574275,-153.219100
59535.052475,-2960.823768,-9178.553681,-1149.143247
59535.052784,-1702.473667,-7994.224174,-306.438199
59535.053094,1480.411884,-8364.327145,1225.752797
59535.053403,1554.432478,-8290.306550,2068.457845
59535.053713,814.226536,-8290.306550,1455.581446
59535.054023,0.000000,-8364.327145,3064.381992
59535.054332,-74.020594,-7698.141797,-76.609550
59535.054642,-4737.318029,-7179.997637,0.000000
59535.054951,-1998.556043,-8586.388927,-536.266849
59535.055261,-1998.556043,-9844.739029,-612.876398
59535.055570,444.123565,-8660.409521,153.219100
59535.055880,518.144159,-10214.842000,1762.019645
59535.056189,1184.329507,-8068.244768,2145.067394
59535.056499,0.000000,-8364.327145,2451.505594
59535.056809,-74.020594,-8882.471304,-76.609550
59535.057118,-2368.659014,-8364.327145,0.000000
59535.057428,-74.020594,-11843.295072,2374.896044
59535.057737,-3182.885551,-7476.080014,-2145.067394
59535.058047,518.144159,-7994.224174,-76.609550
59535.058356,666.185348,-8512.368333,1072.533697
59535.058666,1406.391290,-9548.656652,2145.067394
59535.058975,1480.411884,-9252.574275,2221.676944
59535.059285,592.164754,-7624.121203,1378.971896
59535.059595,-2368.659014,-8364.327145,0.000000
59535.059904,-1554.432478,-11547.212695,1149.143247
59535.060214,-3034.844362,-9770.718434,-2528.115143
59535.060523,-592.164754,-10436.903782,1225.752797
59535.060833,-74.020594,-7402.059420,-1149.143247
59535.061142,1110.308913,-9474.636058,2374.896044
59535.061452,1406.391290,-8660.409521,2068.457845
59535.061762,3108.864956,-8586.388927,2604.724693
59535.062071,888.247130,-7772.162391,1915.238745
59535.062381,-5329.482782,-9326.594869,229.828649
59535.062690,-2738.761985,-10955.047942,-842.705048
59535.063000,0.000000,-7772.162391,0.000000
59535.063309,1702.473667,-14211.954086,4213.525239
59535.063619,-1998.556043,-5403.503377,0.000000
59535.063928,-74.020594,-9474.636058,2374.896044
59535.064238,3627.009116,-7698.141797,2374.896044
59535.064548,0.000000,-9770.718434,1685.410096
59535.064857,-2368.659014,-8660.409521,306.438199
59535.065167,-3478.967927,-10510.924376,-766.095498
59535.065476,-1998.556043,-8216.285956,-689.485948
59535.065786,-74.020594,-10658.965565,229.828649
59535.066095,-1184.329507,-8364.327145,1838.629195
59535.066405,2294.638420,-9474.636058,-76.609550
59535.066714,0.000000,-5403.503377,0.000000
59535.067024,1702.473667,-8290.306550,1149.143247
59535.067334,-296.082377,-11251.130318,2068.457845
59535.067643,-814.226536,-9918.759623,689.485948
59535.067953,-370.102971,-10436.903782,153.219100
59535.068262,740.205942,-9104.533087,536.266849
59535.068572,1554.432478,-9178.553681,3294.210641
59535.068881,1628.453072,-7328.038826,1915.238745
59535.069191,0.000000,-6883.915261,612.876398
59535.069500,-74.020594,-8882.471304,-76.609550
59535.069810,-4737.318029,-7476.080014,0.000000
59535.070120,-74.020594,-11843.295072,-76.609550
59535.070429,-2664.741391,-10732.986159,-919.314598
59535.070739,-2442.679609,-9400.615463,-1149.143247
59535.071048,-1554.432478,-10362.883188,536.266849
59535.071358,296.082377,-7920.203579,1302.362347
59535.071667,1110.308913,-8290.306550,2374.896044
59535.071977,3478.967927,-8142.265362,1762.019645
59535.072287,0.000000,-7920.203579,1225.752797
59535.072596,1702.473667,-11843.295072,3600.648841
59535.072906,-2442.679609,-10362.883188,-1302.362347
59535.073215,-444.123565,-10955.047942,-76.609550
59535.073525,-1628.453072,-10436.903782,306.438199
59535.073834,-962.267725,-9326.594869,612.876398
59535.074144,-814.226536,-8956.491898,0.000000
59535.074453,814.226536,-8216.285956,842.705048
59535.074763,2146.597232,-10066.800811,1838.629195
59535.075073,0.000000,-9252.574275,1302.362347
59535.075382,-666.185348,-9474.636058,-76.609550
59535.075692,-2368.659014,-7179.997637,0.000000
59535.076001,2294.638420,-11251.130318,2374.896044
59535.076311,592.164754,-9474.636058,4060.306139
59535.076620,0.000000,-6291.750507,1225.752797
59535.076930,1184.329507,-7402.059420,1225.752797
59535.077239,222.061783,-9696.697840,1378.971896
59535.077549,-2072.576638,-9252.574275,689.485948
59535.077859,-2442.679609,-10807.006753,-1838.629195
59535.078168,-2146.597232,-9548.656652,-1378.971896
59535.078478,-74.020594,-10955.047942,-76.609550
59535.078787,0.000000,-7179.997637,0.000000
59535.079097,2294.638420,-9474.636058,1762.019645
59535.079406,0.000000,-6291.750507,2757.943793
59535.079716,740.205942,-8512.368333,1455.581446
59535.080026,1258.350101,-8438.347739,2604.724693
59535.080335,-222.061783,-9992.780217,1455.581446
59535.080645,222.061783,-9104.533087,842.705048
59535.080954,148.041188,-9548.656652,0.000000
59535.081264,296.082377,-9548.656652,2145.067394
59535.081573,-666.185348,-8290.306550,-76.609550
59535.081883,-1184.329507,-8364.327145,1838.629195
59535.082192,2294.638420,-9474.636058,-76.609550
59535.082502,-2368.659014,-8364.327145,2451.505594
59535.082812,74.020594,-8512.368333,459.657299
59535.083121,-444.123565,-9252.574275,306.438199
59535.083431,-1036.288319,-9770.718434,0.000000
59535.083740,-1702.473667,-9770.718434,383.047749
59535.084050,-1628.453072,-8734.430116,229.828649
59535.084359,0.000000,-7179.997637,306.438199
59535.084669,2294.638420,-8882.471304,2221.676944
59535.084978,0.000000,-5995.668130,0.000000
59535.085288,1998.556043,-11843.295072,2374.896044
59535.085598,-2960.823768,-7772.162391,0.000000
59535.085907,-1258.350101,-9474.636058,-459.657299
59535.086217,-2442.679609,-9548.656652,0.000000
59535.086526,-2516.700203,-9696.697840,-229.828649
59535.086836,-1554.432478,-9104.533087,-153.219100
59535.087145,0.000000,-8438.347739,-76.609550
59535.087455,0.000000,-9548.656652,2451.505594
59535.087765,1702.473667,-9474.636058,2374.896044
59535.088074,-3552.988522,-5995.668130,0.000000
59535.088384,2886.803174,-10658.965565,2987.772442
59535.088693,-2072.576638,-7179.997637,459.657299
59535.089003,-74.020594,-8882.471304,1149.143247
59535.089312,-888.247130,-8438.347739,229.828649
59535.089622,148.041188,-8068.244768,0.000000
59535.089931,-592.164754,-9474.636058,459.657299
59535.090241,-592.164754,-9474.636058,-76.609550
59535.090551,-962.267725,-10658.965565,0.000000
59535.090860,-1184.329507,-10140.821405,1225.752797
59535.091170,-2442.679609,-8882.471304,-1302.362347
59535.091479,-4145.153275,-9548.656652,612.876398
59535.091789,-2368.659014,-8068.244768,0.000000
59535.092098,3478.967927,-6513.812290,1762.019645
59535.092408,1776.494261,-8438.347739,3064.381992
59535.092717,2590.720797,-6439.791695,2757.943793
59535.093027,1776.494261,-8364.327145,3064.381992
59535.093337,2812.782580,-7698.141797,1762.019645
59535.093646,-74.020594,-10955.047942,1685.410096
59535.093956,-2368.659014,-10288.862594,1225.752797
59535.094265,-4367.215058,-9548.656652,-3447.429741
59535.094575,-444.123565,-10288.862594,-76.609550
59535.094884,-1258.350101,-8956.491898,-1838.629195
59535.095194,-74.020594,-9474.636058,1762.019645
59535.095503,888.247130,-8882.471304,1302.362347
59535.095813,1776.494261,-7328.038826,1762.019645
59535.096123,444.123565,-9622.677246,2068.457845
59535.096432,-888.247130,-8882.471304,2374.896044
59535.096742,-3256.906145,-7328.038826,0.000000
59535.097051,0.000000,-9104.533087,2068.457845
59535.097361,-1850.514855,-5995.668130,-1762.019645
59535.097670,888.247130,-9252.574275,2757.943793
59535.097980,2886.803174,-8290.306550,842.705048
59535.098290,2368.659014,-9252.574275,2451.505594
59535.098599,1036.288319,-11029.068536,1455.581446
59535.098909,-3330.926739,-11843.295072,459.657299
59535.099218,-4663.297435,-10584.944971,-2221.676944
59535.099528,-2442.679609,-11251.130318,-689.485948
59535.099837,-370.102971,-7698.141797,-766.095498
59535.100147,0.000000,-5995.668130,1225.752797
59535.100456,4663.297435,-9178.553681,2374.896044
59535.100766,2368.659014,-7476.080014,3064.381992
59535.101076,4663.297435,-9474.636058,3600.648841
59535.101385,-2368.659014,-9548.656652,766.095498
59535.101695,-5033.400406,-9400.615463,-76.609550
59535.102004,-3923.091493,-9622.677246,-1762.019645
59535.102314,-148.041188,-8142.265362,-842.705048
59535.102623,1110.308913,-10066.800811,2834.553343
59535.102933,518.144159,-8290.306550,842.705048
59535.103242,0.000000,-9548.656652,0.000000
59535.103552,4663.297435,-11843.295072,3600.648841
59535.103862,-666.185348,-10658.965565,1762.019645
59535.104171,-1258.350101,-9474.636058,-76.609550
59535.104481,-3256.906145,-8364.327145,0.000000
59535.104790,2368.659014,-7994.224174,2145.067394
59535.105100,1628.453072,-8438.347739,2374.896044
59535.105409,1110.308913,-6809.894666,2374.896044
59535.105719,2294.638420,-10362.883188,3907.087040
59535.106029,2886.803174,-10066.800811,2221.676944
59535.106338,-1184.329507,-10732.986159,1838.629195
59535.106648,-1258.350101,-11843.295072,-76.609550
59535.106957,-5625.565159,-8068.244768,-2757.943793
59535.107267,-666.185348,-8734.430116,-995.924147
59535.107576,-1110.308913,-9918.759623,0.000000
59535.107886,-74.020594,-8290.306550,842.705048
59535.108195,0.000000,-9400.615463,1762.019645
59535.108505,3997.112087,-7550.100608,2834.553343
59535.108815,3108.864956,-9844.739029,4596.572988
59535.109124,-1776.494261,-7920.203579,1685.410096
59535.109434,-4737.318029,-8364.327145,0.000000
59535.109743,-74.020594,-9474.636058,-689.485948
59535.110053,-2368.659014,-8364.327145,0.000000
59535.110362,0.000000,-8956.491898,3064.381992
59535.110672,0.000000,-9548.656652,1225.752797
59535.110981,2368.659014,-8882.471304,1532.190996
59535.111291,148.041188,-10955.047942,995.924147
59535.111601,-3330.926739,-9992.780217,229.828649
59535.111910,-4811.338623,-9474.636058,-1838.629195
59535.112220,-1998.556043,-8142.265362,-1225.752797
59535.112529,1110.308913,-7402.059420,-76.609550
59535.112839,1184.329507,-9252.574275,4290.134789
59535.113148,3478.967927,-9474.636058,2987.772442
59535.113458,2368.659014,-7772.162391,3677.258390
59535.113767,2368.659014,-7772.162391,1378.971896
59535.114077,-1110.308913,-9918.759623,1455.581446
59535.114387,-3775.050304,-10288.862594,-459.657299
59535.114696,-3627.009116,-11029.068536,-2221.676944
59535.115006,-1332.370696,-10140.821405,-2451.505594
59535.115315,-740.205942,-11251.130318,1072.533697
59535.115625,-74.020594,-7698.141797,766.095498
59535.115934,2368.659014,-8364.327145,4903.011187
59535.116244,4663.297435,-9474.636058,3600.648841
59535.116554,0.000000,-7772.162391,2451.505594
59535.116863,-2664.741391,-8364.327145,536.266849
59535.117173,-1036.288319,-8216.285956,229.828649
59535.117482,592.164754,-7550.100608,76.609550
59535.117792,0.000000,-8660.409521,689.485948
59535.118101,370.102971,-7179.997637,0.000000
59535.118411,2368.659014,-9548.656652,2451.505594
59535.118720,3478.967927,-10658.965565,2987.772442
59535.119030,-74.020594,-11843.295072,-76.609550
59535.119340,-4737.318029,-9548.656652,-2145.067394
59535.119649,-5921.647536,-7179.997637,-2451.505594
59535.119959,-1998.556043,-9918.759623,-1302.362347
59535.120268,-296.082377,-8290.306550,0.000000
59535.120578,222.061783,-8586.388927,1838.629195
59535.120887,2590.720797,-7179.997637,2604.724693
59535.121197,2368.659014,-7254.018232,2987.772442
59535.121506,0.000000,-8512.368333,1838.629195
59535.121816,-1332.370696,-10510.924376,2374.896044
59535.122126,-7105.977043,-7179.997637,-3370.820191
59535.122435,-1258.350101,-9474.636058,-76.609550
59535.122745,-4737.318029,-7328.038826,-1225.752797
59535.123054,-74.020594,-9474.636058,842.705048
59535.123364,0.000000,-9770.718434,1225.752797
59535.123673,1554.432478,-7920.203579,1608.800546
59535.123983,592.164754,-10807.006753,1532.190996
59535.124293,-1406.391290,-8586.388927,1149.143247
59535.124602,-4737.318029,-8364.327145,0.000000
59535.124912,-666.185348,-9326.594869,-76.609550
59535.125221,-3552.988522,-7179.997637,0.000000
59535.125531,1998.556043,-10658.965565,2681.334243
59535.125840,74.020594,-7105.977043,229.828649
59535.126150,4959.379811,-7994.224174,3600.648841
59535.126459,3775.050304,-8808.450710,3524.039291
59535.126769,74.020594,-9548.656652,2221.676944
59535.127079,-4145.153275,-9622.677246,-612.876398
59535.127388,-4515.256246,-10362.883188,-1302.362347
59535.127698,-4737.318029,-8364.327145,-2451.505594
59535.128007,222.061783,-9326.594869,1762.019645
59535.128317,-666.185348,-5773.606348,0.000000
59535.128626,3256.906145,-8734.430116,3064.381992
59535.128936,4663.297435,-8586.388927,1762.019645
59535.129245,3478.967927,-9474.636058,3907.087040
59535.129555,-296.082377,-8438.347739,919.314598
59535.129865,-2812.782580,-8956.491898,-1455.581446
59535.130174,-2960.823768,-9474.636058,-1685.410096
59535.130484,-1258.350101,-11103.089130,-76.609550
59535.130793,-666.185348,-9178.553681,306.438199
59535.131103,1184.329507,-7772.162391,1838.629195
59535.131412,5847.626942,-9474.636058,3600.648841
59535.131722,592.164754,-7772.162391,2451.505594
59535.132031,-74.020594,-9474.636058,2374.896044
59535.132341,-3256.906145,-8512.368333,0.000000
59535.132651,-3182.885551,-8512.368333,-1302.362347
59535.132960,-2368.659014,-9326.594869,-306.438199
59535.133270,-370.102971,-8882.471304,229.828649
59535.133579,3775.050304,-9474.636058,3370.820191
59535.133889,4663.297435,-8882.471304,2221.676944
59535.134198,592.164754,-9548.656652,2451.505594
59535.134508,-74.020594,-11843.295072,-76.609550
59535.134818,-6513.812290,-8364.327145,-2451.505594
59535.135127,-1850.514855,-10955.047942,-689.485948
59535.135437,-3404.947333,-10732.986159,-1225.752797
59535.135746,-1554.432478,-9548.656652,153.219100
59535.136056,518.144159,-8364.327145,1455.581446
59535.136365,3108.864956,-7105.977043,2604.724693
59535.136675,3701.029710,-8660.409521,4673.182538
59535.136984,0.000000,-8438.347739,2145.067394
59535.137294,-3552.988522,-7772.162391,0.000000
59535.137603,-74.020594,-11251.130318,-76.609550
59535.137913,-4737.318029,-7772.162391,-2145.067394
59535.138222,-148.041188,-9474.636058,1762.019645
59535.138532,-814.226536,-8364.327145,459.657299
59535.138841,2294.638420,-8734.430116,2374.896044
59535.139151,1924.535449,-9474.636058,2528.115143
59535.139460,444.123565,-9696.697840,2068.457845
59535.139770,-2368.659014,-10140.821405,612.876398
59535.140079,-3701.029710,-9474.636058,-1225.752797
59535.140389,-3627.009116,-11843.295072,-689.485948
59535.140698,-3552.988522,-7179.997637,0.000000
59535.141008,2294.638420,-9474.636058,2374.896044
59535.141317,4737.318029,-7624.121203,4826.401637
59535.141627,3552.988522,-7254.018232,3524.039291
59535.141936,3034.844362,-7772.162391,3983.696590
59535.142246,0.000000,-8956.491898,1225.752797
59535.142555,-4441.235652,-9622.677246,-1532.190996
59535.142865,-5921.647536,-9548.656652,-3677.258390
59535.143174,-2072.576638,-11843.295072,-689.485948
59535.143484,-222.061783,-8956.491898,-3064.381992
59535.143793,3701.029710,-10214.842000,3524.039291
59535.144103,2886.803174,-7994.224174,1762.019645
59535.144412,2368.659014,-9548.656652,4903.011187
59535.144722,1110.308913,-8660.409521,2374.896044
59535.145031,-888.247130,-8068.244768,919.314598
59535.145341,-1776.494261,-8808.450710,-306.438199
59535.145650,-1184.329507,-8882.471304,-459.657299
59535.145960,0.000000,-9548.656652,0.000000
59535.146269,1776.494261,-8364.327145,1991.848295
59535.146579,3478.967927,-8882.471304,2374.896044
59535.146888,0.000000,-7179.997637,1225.752797
59535.147198,-74.020594,-11251.130318,1149.143247
59535.147507,-4737.318029,-10140.821405,0.000000
59535.147817,-3034.844362,-10658.965565,-1302.362347
59535.148126,-3256.906145,-10436.903782,-229.828649
59535.148436,-1554.432478,-9474.636058,-153.219100
59535.148745,1036.288319,-7772.162391,1608.800546
59535.149055,1776.494261,-5995.668130,0.000000
59535.149365,1184.329507,-7179.997637,3064.381992
59535.149674,1702.473667,-11843.295072,4826.401637
59535.149984,-3552.988522,-6587.832884,0.000000
59535.150293,-1406.391290,-10658.965565,536.266849
59535.150603,-5033.400406,-9548.656652,-1225.752797
59535.150912,-2960.823768,-10955.047942,-995.924147
59535.151222,-962.267725,-9770.718434,229.828649
59535.151531,2516.700203,-8438.347739,1991.848295
59535.151841,2072.576638,-7920.203579,3140.991542
59535.152150,1998.556043,-6809.894666,1149.143247
59535.152460,0.000000,-7179.997637,1225.752797
59535.152769,1184.329507,-10584.944971,3524.039291
59535.153079,-2442.679609,-9474.636058,-1302.362347
59535.153388,-4441.235652,-10732.986159,-919.314598
59535.153698,-2960.823768,-8364.327145,0.000000
59535.154007,2220.617826,-8808.450710,1608.800546
59535.154317,2442.679609,-8512.368333,2757.943793
59535.154626,1332.370696,-8068.244768,2834.553343
59535.154936,-296.082377,-8364.327145,306.438199
59535.155245,-666.185348,-9474.636058,-689.485948
59535.155555,-4737.318029,-9548.656652,-1991.848295
59535.155864,-4737.318029,-9548.656652,612.876398
59535.156174,-1554.432478,-9474.636058,-383.047749
59535.156483,1184.329507,-8068.244768,1838.629195
59535.156793,4441.235652,-7328.038826,4290.134789
59535.157102,5847.626942,-6587.832884,5439.278036
59535.157412,2072.576638,-7254.018232,2681.334243
59535.157721,-1480.411884,-7476.080014,-612.876398
59535.158031,-4959.379811,-11103.089130,-2068.457845
59535.158340,-3627.009116,-13619.789333,-689.485948
59535.158650,-3923.091493,-11843.295072,-2528.115143
59535.158959,-2368.659014,-9548.656652,0.000000
59535.159269,2294.638420,-9474.636058,1149.143247
59535.159578,1184.329507,-6291.750507,2451.505594
59535.159888,2442.679609,-6809.894666,1838.629195
59535.160197,1184.329507,-7179.997637,2451.505594
59535.160507,-1406.391290,-8808.450710,306.438199
59535.160816,-2738.761985,-9992.780217,76.609550
59535.161126,-2294.638420,-10732.986159,536.266849
59535.161435,1702.473667,-10658.965565,2374.896044
59535.161745,1702.473667,-8882.471304,1762.019645
59535.162054,0.000000,-5995.668130,612.876398
59535.162364,3478.967927,-9474.636058,3600.648841
59535.162673,814.226536,-9474.636058,1149.143247
59535.162983,-1850.514855,-9474.636058,-1608.800546
59535.163292,-5625.565159,-10732.986159,-1225.752797
59535.163602,-2516.700203,-10807.006753,-1302.362347
59535.163911,74.020594,-8808.450710,229.828649
59535.164221,2442.679609,-8142.265362,3600.648841
59535.164530,3478.967927,-8882.471304,4826.401637
59535.164840,2886.803174,-8142.265362,3447.429741
59535.165150,0.000000,-4811.338623,0.000000
59535.165459,740.205942,-11029.068536,2374.896044
59535.165769,-3034.844362,-11103.089130,-1302.362347
59535.166078,-1924.535449,-12287.418637,-1302.362347
59535.166388,-1184.329507,-10140.821405,0.000000
59535.166697,1184.329507,-8734.430116,919.314598
59535.167007,1776.494261,-7624.121203,2451.505594
59535.167316,1850.514855,-7254.018232,2757.943793
59535.167626,1480.411884,-8364.327145,2451.505594
59535.167935,-74.020594,-10658.965565,3600.648841
59535.168245,-666.185348,-9474.636058,-383.047749
59535.168554,-5921.647536,-9548.656652,0.000000
59535.168864,-1850.514855,-11695.253884,-76.609550
59535.169173,-666.185348,-9178.553681,-76.609550
59535.169483,-2220.617826,-7772.162391,612.876398
59535.169792,-2664.741391,-9030.512492,1149.143247
59535.170102,-3701.029710,-10214.842000,689.485948
59535.170411,-3627.009116,-9252.574275,0.000000
59535.170721,-6513.812290,-10140.821405,0.000000
59535.171030,-4959.379811,-10066.800811,1838.629195
59535.171340,-4811.338623,-8290.306550,-1302.362347
59535.171649,-2368.659014,-6587.832884,1838.629195
59535.171959,1702.473667,-7105.977043,3294.210641
59535.172268,-444.123565,-7105.977043,4826.401637
59535.172578,-3923.091493,-7772.162391,1225.752797
59535.172887,-5477.523971,-9918.759623,-536.266849
59535.173197,-7624.121203,-10955.047942,-2528.115143
59535.173506,-11325.150913,-13767.830521,-3677.258390
59535.173816,-13619.789333,-9548.656652,-4596.572988
59535.174125,-9474.636058,-11917.315666,-2451.505594
59535.174435,-1258.350101,-9474.636058,2374.896044
59535.174744,-2368.659014,-5995.668130,4903.011187
59535.175054,296.082377,-6069.688724,7890.783629
59535.175363,-3552.988522,-5921.647536,5439.278036
59535.175673,-3849.070898,-7105.977043,2681.334243
59535.175982,-3923.091493,-6217.729913,1685.410096
59535.176292,-7550.100608,-9770.718434,306.438199
59535.176601,-9770.718434,-7179.997637,-4903.011187
59535.176911,-13915.871710,-10732.986159,-4903.011187
59535.177220,-7105.977043,-10732.986159,0.000000
59535.177530,-1258.350101,-13027.624579,3600.648841
59535.177839,-3627.009116,-7105.977043,1455.581446
59535.178149,-4737.318029,-6587.832884,1225.752797
59535.178458,-4145.153275,-8660.409521,3064.381992
59535.178768,-222.061783,-8882.471304,2528.115143
59535.179077,-1184.329507,-8142.265362,3294.210641
59535.179387,-3627.009116,-8586.388927,536.266849
59535.179696,-5403.503377,-8956.491898,-1072.533697
59535.180006,-6587.832884,-8734.430116,-3370.820191
59535.180316,-4737.318029,-9548.656652,0.000000
59535.180625,-74.020594,-11251.130318,3600.648841
59535.180935,-3552.988522,-6735.874072,0.000000
59535.181244,-1184.329507,-10732.986159,2987.772442
59535.181554,-2812.782580,-8364.327145,1838.629195
59535.181863,-2146.597232,-10362.883188,1149.143247
59535.182173,-444.123565,-9326.594869,995.924147
59535.182482,814.226536,-7328.038826,766.095498
59535.182792,-962.267725,-9178.553681,536.266849
59535.183101,-2442.679609,-8290.306550,-1455.581446
59535.183411,-4737.318029,-9548.656652,-3677.258390
59535.183720,-888.247130,-12509.480420,2451.505594
59535.184030,-74.020594,-9474.636058,-76.609550
59535.184339,0.000000,-7920.203579,2145.067394
59535.184649,0.000000,-7179.997637,2451.505594
59535.184958,-296.082377,-8882.471304,919.314598
59535.185268,-1554.432478,-10288.862594,153.219100
59535.185577,-2738.761985,-9844.739029,-229.828649
59535.185887,-1110.308913,-8882.471304,-76.609550
59535.186196,-74.020594,-9474.636058,-76.609550
59535.186506,-3627.009116,-7994.224174,-1302.362347
59535.186815,-7105.977043,-9548.656652,0.000000
59535.187125,-4811.338623,-11251.130318,-76.609550
59535.187434,-6439.791695,-7920.203579,0.000000
59535.187744,-4145.153275,-5995.668130,919.314598
59535.188053,0.000000,-6957.935855,3064.381992
59535.188363,-148.041188,-6809.894666,2757.943793
59535.188672,-1998.556043,-8808.450710,1532.190996
59535.188982,-3775.050304,-11547.212695,-76.609550
59535.189291,-4811.338623,-9474.636058,-689.485948
59535.189601,-7105.977043,-8660.409521,-4290.134789
59535.189910,-1258.350101,-12435.459826,-76.609550
59535.190220,-3923.091493,-8142.265362,-689.485948
59535.190529,-4737.318029,-9548.656652,0.000000
59535.190839,-7105.977043,-9548.656652,-1838.629195
59535.191148,-6809.894666,-11325.150913,459.657299
59535.191458,-4959.379811,-10436.903782,2834.553343
59535.191767,-4367.215058,-8068.244768,2681.334243
59535.192077,-3034.844362,-8290.306550,4826.401637
59535.192386,-74.020594,-7105.977043,6971.469032
59535.192696,518.144159,-5329.482782,4213.525239
59535.193005,-4737.318029,-5995.668130,2451.505594
59535.193315,-5107.421000,-10658.965565,-76.609550
59535.193624,-7402.059420,-8364.327145,-3677.258390
59535.193934,-7476.080014,-8882.471304,-3907.087040
59535.194243,-9326.594869,-9992.780217,-2757.943793
59535.194553,-7772.162391,-9992.780217,-1915.238745
59535.194862,-2664.741391,-9622.677246,-306.438199
59535.195172,-740.205942,-12139.377449,3294.210641
59535.195482,-3849.070898,-14211.954086,4519.963438
59535.195791,-3627.009116,-13027.624579,4826.401637
59535.196101,-1258.350101,-6809.894666,2374.896044
59535.196410,0.000000,-5995.668130,4903.011187
59535.196720,-1998.556043,-7550.100608,2451.505594
59535.197029,-3034.844362,-7105.977043,1762.019645
59535.197339,-1036.288319,-6883.915261,1532.190996
59535.197648,1184.329507,-6809.894666,919.314598
59535.197958,-2442.679609,-8438.347739,306.438199
59535.198267,-6365.771101,-11917.315666,0.000000
59535.198577,-6809.894666,-13767.830521,-1072.533697
59535.198886,-3627.009116,-14804.118840,-383.047749
59535.199196,-3627.009116,-13027.624579,-1302.362347
59535.199505,-7105.977043,-9548.656652,-1225.752797
59535.199815,-4441.235652,-9548.656652,0.000000
59535.200124,1110.308913,-8882.471304,3294.210641
59535.200434,5033.400406,-5551.544565,6665.030833
59535.200743,7105.977043,-3478.967927,7584.345430
59535.201053,3997.112087,-3478.967927,4443.353888
59535.201362,-2368.659014,-7179.997637,1225.752797
59535.201672,-5921.647536,-12213.398043,0.000000
59535.201981,-4737.318029,-13397.727550,-1225.752797
59535.202291,-5995.668130,-11251.130318,-4979.620737
59535.202600,-8882.471304,-9844.739029,-4596.572988
59535.202910,-7624.121203,-13619.789333,-3753.867940
59535.203219,-3034.844362,-14211.954086,-76.609550
59535.203529,-2960.823768,-9326.594869,1455.581446
59535.203838,-740.205942,-5699.585753,3294.210641
59535.204148,3552.988522,-2812.782580,4979.620737
59535.204457,4737.318029,-666.185348,6128.763984
59535.204767,3849.070898,-3034.844362,6128.763984
59535.205076,1184.329507,-10436.903782,5515.887586
59535.205386,-5403.503377,-12435.459826,-2528.115143
59535.205695,-9178.553681,-13693.809927,-4290.134789
59535.206005,-7179.997637,-14211.954086,-3753.867940
59535.206314,-6661.853478,-11843.295072,-4060.306139
59535.206624,-8438.347739,-11325.150913,-3753.867940
59535.206933,-7179.997637,-13027.624579,-1915.238745
59535.207243,-5477.523971,-13619.789333,919.314598
59535.207552,-6809.894666,-9548.656652,1225.752797
59535.207862,-4737.318029,-4811.338623,4903.011187
59535.208171,1184.329507,-666.185348,7967.393179
59535.208481,7031.956449,0.000000,9116.536426
59535.208790,2960.823768,2886.803174,4903.011187
59535.209100,3330.926739,-4737.318029,6358.592633
59535.209409,-1628.453072,-10140.821405,-76.609550
59535.209719,-9548.656652,-15914.427753,-4673.182538
59535.210028,-15248.242405,-19393.395680,-7814.174080
59535.210338,-16358.551318,-20799.786970,-8197.221829
59535.210648,-15248.242405,-15766.386565,-7584.345430
59535.210957,-11843.295072,-10732.986159,-4903.011187
59535.211267,-7994.224174,-5403.503377,0.000000
59535.211576,1998.556043,-5551.544565,7354.516781
59535.211886,6439.791695,-592.164754,8503.660028
59535.212195,7031.956449,-1184.329507,11414.822920
59535.212505,5033.400406,-1998.556043,11031.775171
59535.212814,2442.679609,-4737.318029,6818.249932
59535.213124,-2146.597232,-7920.203579,2911.162892
59535.213433,-7105.977043,-12953.603985,-1072.533697
59535.213743,-11029.068536,-15100.201217,-6818.249932
59535.214052,-14582.057057,-16284.530724,-8963.317327
59535.214362,-16210.510130,-14878.139434,-9039.926876
59535.214671,-13027.624579,-15766.386565,-4290.134789
59535.214981,-5995.668130,-11843.295072,-689.485948
59535.215290,-222.061783,-6439.791695,3830.477490
59535.215600,2664.741391,-1258.350101,5515.887586
59535.215909,7846.182985,0.000000,7737.564530
59535.216219,8142.265362,-370.102971,8810.098227
59535.216528,6365.771101,-1850.514855,7277.907231
59535.216838,5255.462188,-4145.153275,4826.401637
59535.217147,-74.020594,-8290.306550,-76.609550
59535.217457,-6883.915261,-8882.471304,-4903.011187
59535.217766,-9474.636058,-15470.304188,-4903.011187
59535.218076,-10140.821405,-21021.848753,-4979.620737
59535.218385,-10510.924376,-20947.828159,-5669.106685
59535.218695,-9474.636058,-19023.292709,-4903.011187
59535.219004,-5921.647536,-14285.974681,0.000000
59535.219314,222.061783,-8808.450710,3524.039291
59535.219623,3997.112087,-3627.009116,6128.763984
59535.219933,7920.203579,0.000000,9729.412825
59535.220242,7031.956449,0.000000,10955.165621
59535.220552,2590.720797,2886.803174,5669.106685
59535.220861,2368.659014,-2738.761985,6741.640382
59535.221171,-74.020594,-7698.141797,3524.039291
59535.221480,-4737.318029,-9548.656652,0.000000
59535.221790,-9178.553681,-12509.480420,-3983.696590
59535.222099,-9104.533087,-16802.674883,-4290.134789
59535.222409,-9178.553681,-17468.860231,-4366.744339
59535.222718,-7105.977043,-17690.922014,-2298.286494
59535.223028,-1850.514855,-16580.613101,-76.609550
59535.223337,3478.967927,-11251.130318,4826.401637
59535.223647,5255.462188,-4367.215058,5745.716235
59535.223956,7698.141797,-1554.432478,11031.775171
59535.224266,9400.615463,0.000000,10955.165621
59535.224575,5921.647536,-74.020594,9806.022374
59535.224885,4959.379811,-4219.173869,10418.898773
59535.225194,1184.329507,-9104.533087,6128.763984
59535.225504,-2368.659014,-10436.903782,2681.334243
59535.225814,-6587.832884,-13323.706956,-229.828649
59535.226123,-5995.668130,-16580.613101,842.705048
59535.226433,-3627.009116,-18949.272115,2451.505594
59535.226742,-1258.350101,-18949.272115,3600.648841
59535.227052,-4737.318029,-11029.068536,2451.505594
59535.227361,296.082377,-8956.491898,5515.887586
59535.227671,1480.411884,-6291.750507,6128.763984
59535.227980,5847.626942,-4737.318029,9729.412825
59535.228290,4737.318029,-2886.803174,10572.117872
59535.228599,4441.235652,-1554.432478,9959.241474
59535.228909,4441.235652,-2516.700203,9422.974625
59535.229218,3552.988522,-6587.832884,9806.022374
59535.229528,2368.659014,-9844.739029,7354.516781
59535.229837,-74.020594,-15988.448347,7277.907231
59535.230147,-4811.338623,-14063.912898,2604.724693
59535.230456,-8142.265362,-17246.798449,2451.505594
59535.230766,-9918.759623,-17394.839637,2681.334243
59535.231075,-5995.668130,-14211.954086,4213.525239
59535.231385,-2294.638420,-7994.224174,6971.469032
59535.231694,4663.297435,-518.144159,10878.556072
59535.232004,6365.771101,1776.494261,12793.794817
59535.232313,5329.482782,1110.308913,12870.404366
59535.232623,4737.318029,-3034.844362,9806.022374
59535.232932,4515.256246,-8290.306550,11874.480219
59535.233242,-1850.514855,-6809.894666,5439.278036
59535.233551,-5625.565159,-8956.491898,4903.011187
59535.233861,-2442.679609,-9474.636058,2374.896044
59535.234170,-666.185348,-11843.295072,3600.648841
59535.234480,-2664.741391,-13101.645173,2681.334243
59535.234789,-4885.359217,-15766.386565,2145.067394
59535.235099,-6217.729913,-18135.045579,2681.334243
59535.235408,-4737.318029,-11917.315666,2451.505594
59535.235718,0.000000,-4811.338623,4290.134789
59535.236027,2368.659014,-74.020594,7354.516781
59535.236337,6439.791695,0.000000,9422.974625
59535.236646,4071.132681,2294.638420,3907.087040
59535.236956,5551.544565,-1776.494261,6665.030833
59535.237265,3182.885551,-6809.894666,5822.325785
59535.237575,-370.102971,-10955.047942,2987.772442
59535.237885,-3330.926739,-15100.201217,1072.533697
59535.238194,-6587.832884,-17172.777854,-1608.800546
59535.238504,-11843.295072,-17838.963202,-4749.792088
59535.238813,-11103.089130,-14508.036463,-4673.182538
59535.239123,-6513.812290,-11029.068536,-3370.820191
59535.239432,148.041188,-9844.739029,2298.286494
59535.239742,3849.070898,-7920.203579,6281.983084
59535.240052,4663.297435,-5921.647536,4826.401637
59535.240361,7328.038826,-2960.823768,5439.278036
59535.240671,7031.956449,-2368.659014,4826.401637
59535.240980,2442.679609,-5551.544565,3907.087040
59535.241290,296.082377,-8364.327145,2834.553343
59535.241600,-2368.659014,-8364.327145,0.000000
59535.241909,-2368.659014,-9548.656652,-2451.505594
59535.242219,-4737.318029,-10140.821405,-2451.505594
59535.242528,-3034.844362,-14211.954086,-1302.362347
59535.242838,-3997.112087,-12879.583391,-2528.115143
59535.243147,-74.020594,-13027.624579,-1302.362347
59535.243457,888.247130,-12879.583391,1072.533697
59535.243767,74.020594,-11547.212695,1685.410096
59535.244076,1258.350101,-8512.368333,2451.505594
59535.244386,4145.153275,-4811.338623,3217.601092
59535.244695,2368.659014,-666.185348,2451.505594
59535.245005,1184.329507,-666.185348,2681.334243
59535.245314,0.000000,-4811.338623,3677.258390
59535.245624,3478.967927,-8290.306550,2374.896044
59535.245934,0.000000,-10140.821405,0.000000
59535.246243,-2442.679609,-16580.613101,2374.896044
59535.246553,-5921.647536,-17764.942608,459.657299
59535.246862,-3627.009116,-13619.789333,-1608.800546
59535.247172,-1924.535449,-10436.903782,-306.438199
59535.247482,-592.164754,-7698.141797,1991.848295
59535.247791,1998.556043,-4589.276840,2834.553343
59535.248101,2368.659014,-5329.482782,4826.401637
59535.248410,0.000000,-5995.668130,3677.258390
59535.248720,-74.020594,-11843.295072,6665.030833
59535.249029,-1110.308913,-8364.327145,3064.381992
59535.249339,1554.432478,-9474.636058,7890.783629
59535.249649,-1776.494261,-5995.668130,3983.696590
59535.249958,-518.144159,-7772.162391,4749.792088
59535.250268,0.000000,-8882.471304,4673.182538
59535.250577,-370.102971,-10066.800811,4519.963438
59535.250887,-2442.679609,-10955.047942,2068.457845
59535.251196,-4811.338623,-13027.624579,3600.648841
59535.251506,-2960.823768,-8364.327145,2604.724693
59535.251816,1480.411884,-7624.121203,6281.983084
59535.252125,1998.556043,-4811.338623,3600.648841
59535.252435,-888.247130,-8364.327145,8273.831378
59535.252744,0.000000,-8364.327145,6128.763984
59535.253054,814.226536,-9918.759623,6665.030833
59535.253364,-2442.679609,-9400.615463,5975.544884
59535.253673,-3034.844362,-8660.409521,5362.668486
59535.253983,-74.020594,-9474.636058,6052.154434
59535.254292,-74.020594,-11251.130318,7277.907231
59535.254602,-1850.514855,-6365.771101,4213.525239
59535.254911,-148.041188,-7402.059420,5822.325785
59535.255221,-74.020594,-7105.977043,6052.154434
59535.255531,1776.494261,-4811.338623,7354.516781
59535.255840,296.082377,-5403.503377,5515.887586
59535.256150,-962.267725,-10362.883188,5286.058936
59535.256459,-1332.370696,-11621.233289,5669.106685
59535.256769,-148.041188,-11029.068536,4519.963438
59535.257078,-74.020594,-13027.624579,7277.907231
59535.257388,-74.020594,-10658.965565,7277.907231
59535.257698,-1554.432478,-5773.606348,3140.991542
59535.258007,0.000000,-9548.656652,5209.449386
59535.258317,-74.020594,-11843.295072,6052.154434
59535.258626,-3552.988522,-9548.656652,4903.011187
59535.258936,0.000000,-7179.997637,4596.572988
59535.259246,444.123565,-6365.771101,4596.572988
59535.259555,888.247130,-5921.647536,4366.744339
59535.259865,148.041188,-6661.853478,4290.134789
59535.260174,3478.967927,-10362.883188,6052.154434
59535.260484,3775.050304,-13767.830521,7890.783629
59535.260793,-74.020594,-11843.295072,3600.648841
59535.261103,-3256.906145,-11029.068536,2604.724693
59535.261413,-592.164754,-11917.315666,6435.202183
59535.261722,-2368.659014,-7772.162391,3064.381992
59535.262032,-518.144159,-7402.059420,2834.553343
59535.262341,-592.164754,-7476.080014,2911.162892
59535.262651,444.123565,-7920.203579,3064.381992
59535.262960,222.061783,-7994.224174,3370.820191
59535.263270,1036.288319,-9548.656652,3983.696590
59535.263580,1184.329507,-8956.491898,4903.011187
59535.263889,-74.020594,-9474.636058,2987.772442
59535.264199,-2368.659014,-7772.162391,2451.505594
59535.264508,-74.020594,-11251.130318,4826.401637
59535.264818,0.000000,-4071.132681,1225.752797
59535.265128,1110.308913,-8290.306550,2987.772442
59535.265437,0.000000,-9030.512492,2604.724693
59535.265747,518.144159,-10807.006753,2451.505594
59535.266056,-518.144159,-12435.459826,3064.381992
59535.266366,0.000000,-9548.656652,2451.505594
59535.266675,-4145.153275,-9548.656652,1532.190996
59535.266985,-74.020594,-9474.636058,3600.648841
59535.267295,-1480.411884,-5995.668130,919.314598
59535.267604,2294.638420,-8290.306550,4826.401637
59535.267914,-370.102971,-5921.647536,536.266849
59535.268223,1110.308913,-9474.636058,2681.334243
59535.268533,148.041188,-9622.677246,1915.238745
59535.268842,-444.123565,-12657.521608,3217.601092
59535.269152,-888.247130,-10955.047942,1838.629195
59535.269462,-3552.988522,-11917.315666,1225.752797
59535.269771,-3552.988522,-6587.832884,0.000000
59535.270081,-74.020594,-10362.883188,3907.087040
59535.270390,222.061783,-4367.215058,1762.019645
59535.270700,296.082377,-9548.656652,6128.763984
59535.271010,1702.473667,-7994.224174,2374.896044
59535.271319,-74.020594,-12657.521608,2834.553343
59535.271629,-1702.473667,-11177.109724,2451.505594
59535.271938,-2368.659014,-11029.068536,2451.505594
59535.272248,-1258.350101,-8142.265362,3064.381992
59535.272557,0.000000,-3627.009116,76.609550
59535.272867,-1406.391290,-2886.803174,383.047749
59535.273177,592.164754,-7772.162391,3983.696590
59535.273486,1110.308913,-8882.471304,2987.772442
59535.273796,0.000000,-8364.327145,2451.505594
59535.274105,2294.638420,-13027.624579,3600.648841
59535.274415,-814.226536,-13989.892304,3600.648841
59535.274724,-2294.638420,-11695.253884,1762.019645
59535.275034,-1554.432478,-8882.471304,459.657299
59535.275344,-814.226536,-4515.256246,536.266849
59535.275653,-1406.391290,-1850.514855,-1608.800546
59535.275963,222.061783,-1480.411884,-689.485948
59535.276272,0.000000,-5403.503377,0.000000
59535.276582,1036.288319,-11843.295072,2374.896044
59535.276892,-1258.350101,-14211.954086,-76.609550
59535.277201,-666.185348,-14211.954086,1762.019645
59535.277511,-1184.329507,-10732.986159,0.000000
59535.277820,1480.411884,-5107.421000,-1225.752797
59535.278130,1110.308913,-5921.647536,-995.924147
59535.278439,2072.576638,-7402.059420,-995.924147
59535.278749,1702.473667,-11843.295072,-1302.362347
59535.279059,-74.020594,-12435.459826,-3140.991542
59535.279368,-4293.194464,-13693.809927,-3524.039291
59535.279678,-2960.823768,-12213.398043,-2451.505594
59535.279987,2294.638420,-11843.295072,-76.609550
59535.280297,2590.720797,-7105.977043,-76.609550
59535.280606,1184.329507,-4811.338623,-1225.752797
59535.280916,2590.720797,-6957.935855,153.219100
59535.281226,2590.720797,-8586.388927,-689.485948
59535.281535,1036.288319,-10881.027347,-536.266849
59535.281845,-74.020594,-13027.624579,-689.485948
59535.282154,-666.185348,-14211.954086,-1302.362347
59535.282464,-3330.926739,-9548.656652,-3064.381992
59535.282773,-1776.494261,-7476.080014,-1225.752797
59535.283083,-74.020594,-8882.471304,-689.485948
59535.283393,962.267725,-7402.059420,-76.609550
59535.283702,1184.329507,-6291.750507,-1225.752797
59535.284012,1554.432478,-10658.965565,0.000000
59535.284321,-296.082377,-11917.315666,-536.266849
59535.284631,-1998.556043,-13397.727550,76.609550
59535.284941,-74.020594,-11843.295072,-76.609550
59535.285250,2294.638420,-8882.471304,-76.609550
59535.285560,-1406.391290,-3034.844362,-2068.457845
59535.285869,592.164754,-7179.997637,1225.752797
59535.286179,4663.297435,-10658.965565,-76.609550
59535.286488,0.000000,-11325.150913,2451.505594
59535.286798,-2368.659014,-11325.150913,0.000000
59535.287108,-3701.029710,-13693.809927,306.438199
59535.287417,-2812.782580,-9400.615463,-306.438199
59535.287727,-2072.576638,-6809.894666,-459.657299
59535.288036,-74.020594,-5921.647536,-153.219100
59535.288346,2294.638420,-8290.306550,2374.896044
59535.288655,1110.308913,-5847.626942,536.266849
59535.288965,1184.329507,-11029.068536,3677.258390
59535.289275,2294.638420,-13027.624579,1762.019645
59535.289584,-3552.988522,-13101.645173,2451.505594
59535.289894,-2220.617826,-11917.315666,2298.286494
59535.290203,-1776.494261,-9696.697840,1838.629195
59535.290513,-370.102971,-5995.668130,1915.238745
59535.290823,592.164754,-6291.750507,3217.601092
59535.291132,4441.235652,-6291.750507,4903.011187
59535.291442,4293.194464,-8068.244768,6435.202183
59535.291751,2886.803174,-8290.306550,3294.210641
59535.292061,-1776.494261,-10732.986159,1225.752797
59535.292370,-74.020594,-15396.283594,6052.154434
59535.292680,-3552.988522,-9548.656652,1225.752797
59535.292990,-1850.514855,-6513.812290,1149.143247
59535.293299,-1184.329507,-5847.626942,2145.067394
59535.293609,814.226536,-4441.235652,2451.505594
59535.293918,1924.535449,-8142.265362,2834.553343
59535.294228,592.164754,-10140.821405,2451.505594
59535.294537,-1776.494261,-14285.974681,3064.381992
59535.294847,-74.020594,-15396.283594,4213.525239
59535.295157,-2738.761985,-9548.656652,0.000000
59535.295466,-3552.988522,-3627.009116,612.876398
59535.295776,-3552.988522,-666.185348,0.000000
59535.296085,1406.391290,-3552.988522,1608.800546
59535.296395,3108.864956,-8290.306550,2604.724693
59535.296705,2590.720797,-11473.192101,3140.991542
59535.297014,370.102971,-13693.809927,2145.067394
59535.297324,-2368.659014,-12509.480420,1838.629195
59535.297633,-4441.235652,-9548.656652,0.000000
59535.297943,-518.144159,-7550.100608,1302.362347
59535.298252,-1258.350101,-5329.482782,-1302.362347
59535.298562,0.000000,-7772.162391,1225.752797
59535.298872,518.144159,-8586.388927,383.047749
59535.299181,1702.473667,-12435.459826,2987.772442
59535.299491,-1036.288319,-9918.759623,1915.238745
59535.299800,-2368.659014,-9178.553681,1838.629195
59535.300110,-2072.576638,-6587.832884,1072.533697
59535.300419,-4145.153275,-4811.338623,0.000000
59535.300729,-2960.823768,-3034.844362,-2145.067394
59535.301039,-888.247130,-9622.677246,1532.190996
59535.301348,1998.556043,-9474.636058,-76.609550
59535.301658,0.000000,-9548.656652,0.000000
59535.301967,-74.020594,-10658.965565,383.047749
59535.302277,296.082377,-12509.480420,2604.724693
59535.302587,518.144159,-9252.574275,1532.190996
59535.302896,0.000000,-6809.894666,306.438199
59535.303206,-444.123565,-4959.379811,-766.095498
59535.303515,-1406.391290,-6809.894666,-383.047749
59535.303825,444.123565,-6809.894666,0.000000
59535.304134,1184.329507,-9548.656652,612.876398
59535.304444,2294.638420,-11843.295072,-76.609550
59535.304754,-2368.659014,-10732.986159,0.000000
59535.305063,1702.473667,-11547.212695,1149.143247
59535.305373,-1776.494261,-9548.656652,0.000000
59535.305682,-1554.432478,-7105.977043,-1838.629195
59535.305992,-2368.659014,-9252.574275,-1608.800546
59535.306301,444.123565,-8216.285956,-689.485948
59535.306611,2294.638420,-9474.636058,1149.143247
59535.306921,814.226536,-6587.832884,-842.705048
59535.307230,0.000000,-11029.068536,612.876398
59535.307540,-74.020594,-13027.624579,-76.609550
59535.307849,-4145.153275,-7179.997637,-2451.505594
59535.308159,-74.020594,-7105.977043,-1915.238745
59535.308469,-3552.988522,-8068.244768,-3447.429741
59535.308778,-74.020594,-9474.636058,-689.485948
59535.309088,1036.288319,-12435.459826,-76.609550
59535.309397,1036.288319,-11251.130318,-229.828649
59535.309707,-74.020594,-13619.789333,1762.019645
59535.310016,-74.020594,-9474.636058,-76.609550
59535.310326,-2368.659014,-7772.162391,0.000000
59535.310636,-74.020594,-9474.636058,2374.896044
59535.310945,-1258.350101,-7105.977043,-1608.800546
59535.311255,1406.391290,-9474.636058,1762.019645
59535.311564,592.164754,-8512.368333,612.876398
59535.311874,1332.370696,-7254.018232,689.485948
59535.312183,-444.123565,-8660.409521,536.266849
59535.312493,-1258.350101,-10066.800811,842.705048
59535.312803,-666.185348,-11473.192101,1149.143247
59535.313112,-2442.679609,-10658.965565,-1302.362347
59535.313422,-5403.503377,-8068.244768,-3830.477490
59535.313731,-2960.823768,-9548.656652,612.876398
59535.314041,1702.473667,-9474.636058,-76.609550
59535.314351,2516.700203,-8290.306550,2374.896044
59535.314660,814.226536,-7476.080014,842.705048
59535.314970,888.247130,-10288.862594,2451.505594
59535.315279,518.144159,-9770.718434,2298.286494
59535.315589,-222.061783,-8586.388927,1532.190996
59535.315898,-74.020594,-7105.977043,1838.629195
59535.316208,2294.638420,-8290.306550,-76.609550
59535.316518,1184.329507,-6291.750507,1225.752797
59535.316827,6143.709319,-11843.295072,6588.421283
59535.317137,4071.132681,-11843.295072,4213.525239
59535.317446,1184.329507,-13249.686362,5056.230287
59535.317756,666.185348,-11547.212695,3600.648841
59535.318065,-1110.308913,-9918.759623,2374.896044
59535.318375,-2368.659014,-5773.606348,0.000000
59535.318685,-2368.659014,-8142.265362,1225.752797
59535.318994,1332.370696,-7179.997637,3983.696590
59535.319304,3478.967927,-9474.636058,4826.401637
59535.319613,222.061783,-7698.141797,2681.334243
59535.319923,-74.020594,-11843.295072,6435.202183
59535.320233,-666.185348,-8290.306550,2221.676944
59535.320542,-1776.494261,-9548.656652,4903.011187
59535.320852,-3034.844362,-6365.771101,-76.609550
59535.321161,-4515.256246,-9696.697840,0.000000
59535.321471,-1702.473667,-10436.903782,1685.410096
59535.321780,222.061783,-9992.780217,1915.238745
59535.322090,592.164754,-8364.327145,2451.505594
59535.322400,1702.473667,-11769.274478,4826.401637
59535.322709,1998.556043,-9474.636058,3600.648841
59535.323019,0.000000,-9548.656652,4903.011187
59535.323328,-74.020594,-8290.306550,-76.609550
59535.323638,-5921.647536,-8364.327145,0.000000
59535.323947,-2294.638420,-8438.347739,306.438199
59535.324257,0.000000,-9030.512492,766.095498
59535.324567,1110.308913,-7328.038826,1608.800546
59535.324876,74.020594,-9178.553681,1378.971896
59535.325186,0.000000,-8512.368333,612.876398
59535.325495,1184.329507,-12139.377449,3064.381992
59535.325805,-666.185348,-8290.306550,-76.609550
59535.326114,-4737.318029,-7772.162391,0.000000
59535.326424,-74.020594,-9474.636058,-76.609550
59535.326734,0.000000,-8364.327145,0.000000
59535.327043,2886.803174,-7698.141797,842.705048
59535.327353,518.144159,-9474.636058,766.095498
59535.327662,1184.329507,-9548.656652,1608.800546
59535.327972,1554.432478,-10807.006753,1378.971896
59535.328282,-2368.659014,-6143.709319,-1532.190996
59535.328591,-4737.318029,-8364.327145,-1838.629195
59535.328901,-1258.350101,-9474.636058,-1302.362347
59535.329210,1702.473667,-12657.521608,1762.019645
59535.329520,1480.411884,-8660.409521,0.000000
59535.329829,0.000000,-8660.409521,0.000000
59535.330139,2294.638420,-9622.677246,1685.410096
59535.330449,2442.679609,-7698.141797,1532.190996
59535.330758,888.247130,-6587.832884,459.657299
59535.331068,-2664.741391,-6883.915261,-2145.067394
59535.331377,-4737.318029,-8364.327145,-3447.429741
59535.331687,-3552.988522,-10140.821405,-3064.381992
59535.331996,-74.020594,-12731.542202,-76.609550
59535.332306,-4737.318029,-7179.997637,-3677.258390
59535.332616,1628.453072,-10658.965565,1455.581446
59535.332925,0.000000,-6069.688724,-919.314598
59535.333235,962.267725,-8438.347739,153.219100
59535.333544,-1406.391290,-8586.388927,-459.657299
59535.333854,-3478.967927,-9622.677246,-1608.800546
59535.334164,-1110.308913,-8586.388927,-689.485948
59535.334473,814.226536,-7994.224174,-76.609550
59535.334783,0.000000,-5995.668130,0.000000
59535.335092,3256.906145,-9992.780217,4826.401637
59535.335402,3478.967927,-8290.306550,1149.143247
59535.335711,0.000000,-9548.656652,2451.505594
59535.336021,-1554.432478,-8882.471304,-1838.629195
59535.336331,-4293.194464,-11029.068536,-459.657299
59535.336640,-1850.514855,-9622.677246,-459.657299
59535.336950,444.123565,-10510.924376,1225.752797
59535.337259,1776.494261,-7994.224174,2528.115143
59535.337569,1702.473667,-9474.636058,3600.648841
59535.337879,814.226536,-6809.894666,1991.848295
59535.338188,0.000000,-8364.327145,2451.505594
59535.338498,-74.020594,-9474.636058,-76.609550
59535.338807,-7105.977043,-9548.656652,-2451.505594
59535.339117,-2442.679609,-9474.636058,-2451.505594
59535.339427,-1776.494261,-11029.068536,612.876398
59535.339736,444.123565,-8364.327145,1608.800546
59535.340046,-74.020594,-9548.656652,2451.505594
59535.340355,2294.638420,-9178.553681,4826.401637
59535.340665,2590.720797,-9178.553681,4136.915689
59535.340975,0.000000,-5995.668130,1225.752797
59535.341284,-666.185348,-11843.295072,2374.896044
59535.341594,-2442.679609,-9030.512492,0.000000
59535.341903,0.000000,-10140.821405,2451.505594
59535.342213,1406.391290,-8882.471304,1455.581446
59535.342523,0.000000,-7476.080014,1149.143247
59535.342832,1480.411884,-6957.935855,2528.115143
59535.343142,1998.556043,-8660.409521,1608.800546
59535.343451,-74.020594,-8882.471304,1532.190996
59535.343761,-1554.432478,-12139.377449,1149.143247
59535.344071,-1850.514855,-11843.295072,-383.047749
59535.344380,-2368.659014,-8364.327145,-2451.505594
59535.344690,3478.967927,-10658.965565,2374.896044
59535.345000,0.000000,-5995.668130,0.000000
59535.345309,3478.967927,-8290.306550,3600.648841
59535.345619,2812.782580,-8438.347739,1991.848295
59535.345928,814.226536,-8438.347739,842.705048
59535.346238,-2664.741391,-9474.636058,-1149.143247
59535.346548,-3775.050304,-10066.800811,-2145.067394
59535.346857,-1480.411884,-11029.068536,-1072.533697
59535.347167,-74.020594,-11843.295072,-76.609550
59535.347476,-1036.288319,-9548.656652,-2451.505594
59535.347786,2664.741391,-12213.398043,4903.011187
59535.348096,4071.132681,-8290.306550,2987.772442
59535.348405,1850.514855,-7105.977043,3600.648841
59535.348715,-1480.411884,-5329.482782,0.000000
59535.349024,-2738.761985,-9252.574275,0.000000
59535.349334,-1184.329507,-11399.171507,0.000000
59535.349644,-888.247130,-12139.377449,0.000000
59535.349953,-1776.494261,-9548.656652,0.000000
59535.350263,-74.020594,-10658.965565,2374.896044
59535.350572,666.185348,-3627.009116,-1532.190996
59535.350882,0.000000,-6291.750507,2451.505594
59535.351192,-666.185348,-7105.977043,-76.609550
59535.351501,-3552.988522,-12435.459826,1532.190996
59535.351811,-2516.700203,-11843.295072,-229.828649
59535.352120,-2368.659014,-12065.356855,306.438199
59535.352430,-740.205942,-8068.244768,919.314598
59535.352740,1110.308913,-5995.668130,612.876398
59535.353049,2368.659014,-3034.844362,1225.752797
59535.353359,4293.194464,-7624.121203,3830.477490
59535.353668,1702.473667,-7105.977043,-689.485948
59535.353978,-1776.494261,-12509.480420,1225.752797
59535.354288,-74.020594,-13027.624579,-76.609550
59535.354597,-3256.906145,-12657.521608,-153.219100
59535.354907,-1258.350101,-9918.759623,-536.266849
59535.355216,0.000000,-10584.944971,1378.971896
59535.355526,2812.782580,-8364.327145,2451.505594
59535.355836,3256.906145,-7179.997637,1455.581446
59535.356145,592.164754,-4219.173869,0.000000
59535.356455,-1776.494261,-9548.656652,612.876398
59535.356764,-74.020594,-11843.295072,-76.609550
59535.357074,-3552.988522,-10732.986159,0.000000
59535.357384,-74.020594,-12065.356855,2374.896044
59535.357693,-888.247130,-10140.821405,1838.629195
59535.358003,2072.576638,-7624.121203,2604.724693
59535.358312,1850.514855,-6513.812290,1302.362347
59535.358622,-296.082377,-4959.379811,-306.438199
59535.358932,-3034.844362,-9178.553681,-1915.238745
59535.359241,-4737.318029,-11177.109724,-2757.943793
59535.359551,-4737.318029,-13101.645173,-1838.629195
59535.359860,-1258.350101,-14211.954086,-76.609550
59535.360170,-3552.988522,-7179.997637,0.000000
59535.360480,2812.782580,-8216.285956,4826.401637
59535.360789,3256.906145,-4219.173869,3064.381992
59535.361099,3478.967927,-4367.215058,2604.724693
59535.361409,518.144159,-7328.038826,1225.752797
59535.361718,-1554.432478,-10658.965565,536.266849
59535.362028,-2146.597232,-13027.624579,-76.609550
59535.362337,-2590.720797,-10658.965565,-2528.115143
59535.362647,-4737.318029,-8956.491898,-2451.505594
59535.362957,-74.020594,-11843.295072,2374.896044
59535.363266,518.144159,-5625.565159,-689.485948
59535.363576,0.000000,-5995.668130,0.000000
59535.363885,-2960.823768,-5995.668130,0.000000
59535.364195,-2516.700203,-11177.109724,-306.438199
59535.364505,-2368.659014,-12287.418637,0.000000
59535.364814,-1702.473667,-10732.986159,0.000000
59535.365124,222.061783,-10658.965565,2374.896044
59535.365433,3478.967927,-7698.141797,3600.648841
59535.365743,2442.679609,-3627.009116,2145.067394
59535.366053,2960.823768,-4811.338623,3677.258390
59535.366362,1998.556043,-5921.647536,-76.609550
59535.366672,-2960.823768,-10140.821405,0.000000
59535.366981,-3404.947333,-11473.192101,-2068.457845
59535.367291,-2812.782580,-15174.221811,-612.876398
59535.367601,-2442.679609,-12583.501014,-689.485948
59535.367910,-814.226536,-11251.130318,1072.533697
59535.368220,3478.967927,-8290.306550,4826.401637
59535.368529,5551.544565,-4737.318029,4826.401637
59535.368839,2146.597232,-2960.823768,1149.143247
59535.369149,0.000000,-7179.997637,3677.258390
59535.369458,1702.473667,-11251.130318,2374.896044
59535.369768,-3552.988522,-11325.150913,0.000000
59535.370077,-3330.926739,-9918.759623,-1149.143247
59535.370387,-2368.659014,-9992.780217,153.219100
59535.370697,592.164754,-7698.141797,1838.629195
59535.371006,1110.308913,-6587.832884,1225.752797
59535.371316,1628.453072,-5995.668130,1378.971896
59535.371625,-74.020594,-11843.295072,2374.896044
59535.371935,-370.102971,-10362.883188,-76.609550
59535.372245,-4737.318029,-10140.821405,-2451.505594
59535.372554,-74.020594,-14211.954086,2221.676944
59535.372864,-2664.741391,-10140.821405,0.000000
59535.373173,2146.597232,-8290.306550,2374.896044
59535.373483,1776.494261,-5847.626942,2221.676944
59535.373793,1776.494261,-1850.514855,1225.752797
59535.374102,-592.164754,-6217.729913,306.438199
59535.374412,-296.082377,-8956.491898,1838.629195
59535.374721,-814.226536,-14730.098246,2298.286494
59535.375031,-3034.844362,-14211.954086,-689.485948
59535.375341,-4737.318029,-11917.315666,0.000000
59535.375650,-74.020594,-10658.965565,1762.019645
59535.375960,74.020594,-3627.009116,306.438199
59535.376269,4071.132681,-3404.947333,2374.896044
59535.376579,0.000000,-5107.421000,995.924147
59535.376889,370.102971,-9178.553681,1991.848295
59535.377198,0.000000,-12213.398043,1455.581446
59535.377508,-3552.988522,-10732.986159,0.000000
59535.377818,-3478.967927,-11325.150913,2145.067394
59535.378127,-74.020594,-9474.636058,2374.896044
59535.378437,0.000000,-3627.009116,0.000000
59535.378746,4071.132681,-6957.935855,2374.896044
59535.379056,-962.267725,-4441.235652,-689.485948
59535.379366,2294.638420,-11843.295072,2374.896044
59535.379675,962.267725,-11843.295072,1225.752797
59535.379985,-1258.350101,-12287.418637,0.000000
59535.380294,-2368.659014,-11547.212695,153.219100
59535.380604,-1776.494261,-8956.491898,0.000000
59535.380914,1184.329507,-5995.668130,2451.505594
59535.381223,3478.967927,-7105.977043,2987.772442
59535.381533,-3552.988522,-2442.679609,0.000000
59535.381842,1480.411884,-11251.130318,2145.067394
59535.382152,-1110.308913,-11547.212695,-76.609550
59535.382462,-1110.308913,-13915.871710,459.657299
59535.382771,-3478.967927,-11621.233289,-1072.533697
59535.383081,-2590.720797,-10807.006753,0.000000
59535.383390,444.123565,-7994.224174,536.266849
59535.383700,0.000000,-4811.338623,0.000000
59535.384010,0.000000,-2442.679609,0.000000
59535.384319,0.000000,-9252.574275,2451.505594
59535.384629,-74.020594,-10658.965565,-76.609550
59535.384938,-2368.659014,-11917.315666,612.876398
59535.385248,-1850.514855,-13619.789333,-76.609550
59535.385558,-3404.947333,-11769.274478,919.314598
59535.385867,518.144159,-8512.368333,1149.143247
59535.386177,1036.288319,-6439.791695,919.314598
59535.386486,1036.288319,-3478.967927,383.047749
59535.386796,-148.041188,-5551.544565,0.000000
59535.387106,0.000000,-7179.997637,0.000000
59535.387415,-1480.411884,-11917.315666,0.000000
59535.387725,-74.020594,-14211.954086,-76.609550
59535.388034,-4737.318029,-11917.315666,0.000000
59535.388344,1702.473667,-9474.636058,2374.896044
59535.388654,592.164754,-5403.503377,1532.190996
59535.388963,1776.494261,-3701.029710,612.876398
59535.389273,-592.164754,-7179.997637,306.438199
59535.389582,370.102971,-10140.821405,766.095498
59535.389892,-74.020594,-12731.542202,-76.609550
59535.390202,-3627.009116,-9548.656652,-2374.896044
59535.390511,-4441.235652,-10732.986159,0.000000
59535.390821,2294.638420,-11547.212695,2374.896044
59535.391130,296.082377,-5995.668130,0.000000
59535.391440,3182.885551,-6957.935855,1838.629195
59535.391750,0.000000,-6883.915261,153.219100
59535.392059,1480.411884,-9326.594869,1225.752797
59535.392369,1702.473667,-11843.295072,842.705048
59535.392678,-2294.638420,-11029.068536,0.000000
59535.392988,-3330.926739,-11843.295072,-2221.676944
59535.393298,-3478.967927,-10288.862594,-1838.629195
59535.393607,148.041188,-8364.327145,2451.505594
59535.393917,2294.638420,-4145.153275,-689.485948
59535.394227,0.000000,-4811.338623,0.000000
59535.394536,4071.132681,-8882.471304,3600.648841
59535.394846,3552.988522,-10658.965565,3447.429741
59535.395155,518.144159,-12361.439231,1685.410096
59535.395465,-3552.988522,-13767.830521,-306.438199
59535.395775,-3552.988522,-12879.583391,153.219100
59535.396084,-962.267725,-7550.100608,76.609550
59535.396394,0.000000,-1258.350101,0.000000
59535.396703,592.164754,-2442.679609,612.876398
59535.397013,3478.967927,-8290.306550,-76.609550
59535.397323,0.000000,-9622.677246,0.000000
59535.397632,-74.020594,-15988.448347,3600.648841
59535.397942,-2294.638420,-15766.386565,2528.115143
59535.398251,-2960.823768,-11843.295072,1072.533697
59535.398561,0.000000,-7402.059420,1532.190996
59535.398871,1184.329507,-3923.091493,1838.629195
59535.399180,0.000000,-1702.473667,0.000000
59535.399490,0.000000,-3627.009116,0.000000
59535.399799,592.164754,-9548.656652,2451.505594
59535.400109,-74.020594,-14211.954086,-76.609550
59535.400419,-5921.647536,-11325.150913,0.000000
59535.400728,-3627.009116,-14211.954086,-76.609550
59535.401038,-2960.823768,-8660.409521,919.314598
59535.401347,-74.020594,-7624.121203,842.705048
59535.401657,-148.041188,-5033.400406,1685.410096
59535.401967,-666.185348,-7105.977043,1149.143247
59535.402276,1702.473667,-7402.059420,536.266849
59535.402586,0.000000,-8956.491898,0.000000
59535.402895,0.000000,-10140.821405,1225.752797
59535.403205,-74.020594,-14211.954086,-76.609550
59535.403515,0.000000,-9548.656652,1838.629195
59535.403824,2294.638420,-10658.965565,2987.772442
59535.404134,0.000000,-4811.338623,0.000000
59535.404443,-1110.308913,-7105.977043,153.219100
59535.404753,1554.432478,-7698.141797,1149.143247
59535.405063,1998.556043,-8734.430116,919.314598
59535.405372,1110.308913,-10362.883188,-76.609550
59535.405682,-2442.679609,-13027.624579,-76.609550
59535.405991,-2368.659014,-11325.150913,0.000000
59535.406301,2294.638420,-13027.624579,3294.210641
59535.406611,-2072.576638,-3627.009116,-1225.752797
59535.406920,888.247130,-5107.421000,1991.848295
59535.407230,1184.329507,-3034.844362,1225.752797
59535.407539,3701.029710,-7328.038826,2145.067394
59535.407849,1406.391290,-10955.047942,842.705048
59535.408159,-3404.947333,-15174.221811,-459.657299
59535.408468,-1258.350101,-15396.283594,-76.609550
59535.408778,-74.020594,-11843.295072,-689.485948
59535.409087,-2368.659014,-3627.009116,-3677.258390
59535.409397,1998.556043,-7105.977043,1762.019645
59535.409707,444.123565,-3034.844362,-1149.143247
59535.410016,2368.659014,-7476.080014,1225.752797
59535.410326,1554.432478,-11029.068536,1149.143247
59535.410636,-2072.576638,-12287.418637,-76.609550
59535.410945,-2146.597232,-14137.933492,459.657299
59535.411255,-1406.391290,-12731.542202,536.266849
59535.411564,-1258.350101,-8882.471304,-383.047749
59535.411874,-3627.009116,-5625.565159,-3140.991542
59535.412184,-2072.576638,-3627.009116,-4290.134789
59535.412493,2368.659014,-6291.750507,1838.629195
59535.412803,1110.308913,-8142.265362,-76.609550
59535.413112,-1776.494261,-11029.068536,1225.752797
59535.413422,-3552.988522,-13693.809927,0.000000
59535.413732,-2442.679609,-13989.892304,459.657299
59535.414041,-2368.659014,-9030.512492,0.000000
59535.414351,-1406.391290,-4219.173869,-766.095498
59535.414660,2294.638420,-4737.318029,-76.609550
59535.414970,4663.297435,-4145.153275,-76.609550
59535.415280,2368.659014,-7772.162391,0.000000
59535.415589,0.000000,-11917.315666,2451.505594
59535.415899,-74.020594,-15988.448347,2374.896044
59535.416208,-2368.659014,-11917.315666,612.876398
59535.416518,-3552.988522,-8364.327145,0.000000
59535.416828,-1406.391290,-4885.359217,-842.705048
59535.417137,0.000000,-5921.647536,459.657299
59535.417447,2590.720797,-5921.647536,1608.800546
59535.417756,4663.297435,-9474.636058,4213.525239
59535.418066,4663.297435,-11251.130318,2987.772442
59535.418376,-1702.473667,-10436.903782,0.000000
59535.418685,-888.247130,-12805.562797,3524.039291
59535.418995,-74.020594,-9474.636058,-76.609550
59535.419304,-2368.659014,-4811.338623,0.000000
59535.419614,-1554.432478,-5847.626942,0.000000
59535.419924,1554.432478,-5699.585753,1378.971896
59535.420233,2886.803174,-7624.121203,1608.800546
59535.420543,1406.391290,-10436.903782,1991.848295
59535.420852,-74.020594,-15988.448347,4213.525239
59535.421162,-74.020594,-14211.954086,2374.896044
59535.421472,-2442.679609,-11843.295072,-1302.362347
59535.421781,-2368.659014,-8660.409521,612.876398
59535.422091,-2442.679609,-7105.977043,-689.485948
59535.422400,0.000000,-3627.009116,0.000000
59535.422710,2886.803174,-6365.771101,1762.019645
59535.423020,2220.617826,-8068.244768,2451.505594
59535.423329,-444.123565,-11991.336260,2604.724693
59535.423639,-814.226536,-11917.315666,2145.067394
59535.423948,-1776.494261,-11917.315666,2604.724693
59535.424258,-1258.350101,-9474.636058,1762.019645
59535.424568,-3627.009116,-9474.636058,-76.609550
59535.424877,-4441.235652,-5403.503377,0.000000
59535.425187,2294.638420,-8290.306550,1915.238745
59535.425496,222.061783,-6291.750507,-1302.362347
59535.425806,-74.020594,-10510.924376,842.705048
59535.426116,-1776.494261,-12065.356855,1532.190996
59535.426425,-1850.514855,-11917.315666,995.924147
59535.426735,-3182.885551,-8512.368333,-612.876398
59535.427045,-2960.823768,-6291.750507,1225.752797
59535.427354,1776.494261,-6143.709319,2451.505594
59535.427664,4663.297435,-8290.306550,3600.648841
59535.427973,1332.370696,-4811.338623,0.000000
59535.428283,1850.514855,-11621.233289,2757.943793
59535.428593,-74.020594,-14211.954086,-76.609550
59535.428902,-74.020594,-15248.242405,1762.019645
59535.429212,-2442.679609,-9992.780217,-995.924147
59535.429521,-2738.761985,-6217.729913,-1991.848295
59535.429831,-444.123565,-4885.359217,-383.047749
59535.430141,2368.659014,-3627.009116,1225.752797
59535.430450,2960.823768,-8364.327145,3064.381992
59535.430760,3478.967927,-14211.954086,4826.401637
59535.431069,74.020594,-12287.418637,995.924147
59535.431379,296.082377,-12509.480420,2145.067394
59535.431689,-666.185348,-7994.224174,-1302.362347
59535.431998,-1258.350101,-7105.977043,-1302.362347
59535.432308,-1184.329507,-6661.853478,-842.705048
59535.432617,1776.494261,-7994.224174,0.000000
59535.432927,1850.514855,-10658.965565,995.924147
59535.433237,0.000000,-9548.656652,612.876398
59535.433546,0.000000,-13101.645173,2451.505594
59535.433856,888.247130,-13397.727550,4749.792088
59535.434165,-1850.514855,-7105.977043,-1302.362347
59535.434475,-3849.070898,-4811.338623,-1225.752797
59535.434785,-74.020594,-8290.306550,-76.609550
59535.435094,1776.494261,-7402.059420,1455.581446
59535.435404,1998.556043,-8956.491898,1532.190996
59535.435713,666.185348,-9770.718434,1532.190996
59535.436023,-444.123565,-12583.501014,2221.676944
59535.436333,-3108.864956,-9844.739029,0.000000
59535.436642,-4737.318029,-9548.656652,0.000000
59535.436952,-3552.988522,-7772.162391,612.876398
59535.437261,-2442.679609,-7105.977043,-1915.238745
59535.437571,0.000000,-5551.544565,612.876398
59535.437881,4663.297435,-9474.636058,2374.896044
59535.438190,1924.535449,-9548.656652,2604.724693
59535.438500,518.144159,-12879.583391,2834.553343
59535.438810,814.226536,-12953.603985,3140.991542
59535.439119,-1258.350101,-10955.047942,1685.410096
59535.439429,-3182.885551,-3923.091493,-2681.334243
59535.439739,-5921.647536,-3627.009116,-3064.381992
59535.440048,-1184.329507,-5403.503377,1225.752797
59535.440358,3478.967927,-9474.636058,1762.019645
59535.440668,0.000000,-8364.327145,0.000000
59535.440977,2738.761985,-15174.221811,5439.278036
59535.441287,0.000000,-11917.315666,2911.162892
59535.441597,-592.164754,-11843.295072,2374.896044
59535.441906,-2294.638420,-6809.894666,-229.828649
59535.442216,-2146.597232,-6217.729913,-612.876398
59535.442526,1110.308913,-5921.647536,-76.609550
59535.442836,1110.308913,-5995.668130,306.438199
59535.443145,0.000000,-5995.668130,0.000000
59535.443455,2368.659014,-11325.150913,3677.258390
59535.443765,2294.638420,-12731.542202,3600.648841
59535.444074,-592.164754,-10362.883188,2298.286494
59535.444384,-3552.988522,-8660.409521,-1072.533697
59535.444694,-3923.091493,-8956.491898,-1915.238745
59535.445003,-2590.720797,-8808.450710,-1072.533697
59535.445313,888.247130,-8290.306550,995.924147
59535.445623,4663.297435,-8290.306550,1149.143247
59535.445932,1998.556043,-8142.265362,1762.019645
59535.446242,0.000000,-9548.656652,612.876398
59535.446552,2368.659014,-12065.356855,3830.477490
59535.446861,-666.185348,-10066.800811,-76.609550
59535.447171,-4145.153275,-7772.162391,612.876398
59535.447481,-4737.318029,-7179.997637,-1685.410096
59535.447790,-962.267725,-7698.141797,-76.609550
59535.448100,1036.288319,-7402.059420,612.876398
59535.448410,1110.308913,-8216.285956,1685.410096
59535.448720,2294.638420,-13619.789333,4213.525239
59535.449029,2294.638420,-12731.542202,2987.772442
59535.449339,-3775.050304,-7772.162391,0.000000
59535.449649,-2664.741391,-8808.450710,612.876398
59535.449958,-3627.009116,-7105.977043,-1302.362347
59535.450268,0.000000,-4811.338623,612.876398
59535.450578,1110.308913,-5995.668130,306.438199
59535.450887,1184.329507,-7179.997637,1532.190996
59535.451197,0.000000,-11769.274478,2604.724693
59535.451507,74.020594,-12361.439231,1915.238745
59535.451816,-74.020594,-13027.624579,2987.772442
59535.452126,-2442.679609,-9474.636058,-76.609550
59535.452436,-4811.338623,-6365.771101,-3140.991542
59535.452745,0.000000,-5403.503377,0.000000
59535.453055,3182.885551,-8290.306550,1455.581446
59535.453365,0.000000,-4811.338623,612.876398
59535.453674,444.123565,-10658.965565,1762.019645
59535.453984,1258.350101,-11917.315666,2528.115143
59535.454294,444.123565,-11029.068536,2145.067394
59535.454604,-2294.638420,-7698.141797,-689.485948
59535.454913,-2664.741391,-9474.636058,-229.828649
59535.455223,-74.020594,-9178.553681,-76.609550
59535.455533,1110.308913,-7698.141797,-995.924147
59535.455842,1184.329507,-8364.327145,1838.629195
59535.456152,2294.638420,-12435.459826,2374.896044
59535.456462,0.000000,-8364.327145,0.000000
59535.456771,1110.308913,-10955.047942,1762.019645
59535.457081,-1702.473667,-8068.244768,0.000000
59535.457391,-3701.029710,-8290.306550,-1378.971896
59535.457700,-1184.329507,-7179.997637,-689.485948
59535.458010,296.082377,-8956.491898,919.314598
59535.458320,2368.659014,-9400.615463,1225.752797
59535.458629,3478.967927,-13027.624579,3294.210641
59535.458939,0.000000,-9918.759623,995.924147
59535.459249,1184.329507,-11621.233289,4826.401637
59535.459558,-2442.679609,-6143.709319,-1915.238745
59535.459868,-3034.844362,-8216.285956,-689.485948
59535.460178,-1998.556043,-6439.791695,-689.485948
59535.460488,74.020594,-7476.080014,-229.828649
59535.460797,740.205942,-8808.450710,536.266849
59535.461107,0.000000,-10140.821405,2451.505594
59535.461417,1184.329507,-13101.645173,2451.505594
59535.461726,4071.132681,-13619.789333,4826.401637
59535.462036,-2368.659014,-5995.668130,0.000000
59535.462346,-3034.844362,-7550.100608,-76.609550
59535.462655,-3034.844362,-5329.482782,-1608.800546
59535.462965,-74.020594,-8290.306550,-76.609550
59535.463275,518.144159,-7698.141797,842.705048
59535.463584,444.123565,-9844.739029,1991.848295
59535.463894,1184.329507,-11991.336260,3677.258390
59535.464204,296.082377,-9548.656652,3064.381992
59535.464513,0.000000,-7179.997637,0.000000
59535.464823,-1258.350101,-8882.471304,1762.019645
59535.465133,-3627.009116,-5921.647536,-2528.115143
59535.465443,-1776.494261,-9252.574275,0.000000
59535.465752,2294.638420,-11843.295072,-76.609550
59535.466062,592.164754,-11325.150913,1685.410096
59535.466372,444.123565,-12287.418637,2681.334243
59535.466681,2220.617826,-9252.574275,3217.601092
59535.466991,1628.453072,-6661.853478,2145.067394
59535.467301,-3404.947333,-3330.926739,0.000000
59535.467610,-4737.318029,-4811.338623,-3677.258390
59535.467920,-74.020594,-11325.150913,1225.752797
59535.468230,-74.020594,-10362.883188,-842.705048
59535.468539,296.082377,-9400.615463,2374.896044
59535.468849,3478.967927,-10658.965565,2374.896044
59535.469159,2960.823768,-9548.656652,3140.991542
59535.469468,1924.535449,-10732.986159,2374.896044
59535.469778,-1554.432478,-10214.842000,229.828649
59535.470088,-3182.885551,-11029.068536,-229.828649
59535.470397,-3034.844362,-7179.997637,-2298.286494
59535.470707,0.000000,-5033.400406,-1915.238745
59535.471017,0.000000,-5403.503377,1225.752797
59535.471327,3478.967927,-9474.636058,3447.429741
59535.471636,888.247130,-8956.491898,0.000000
59535.471946,3182.885551,-13619.789333,4673.182538
59535.472256,-2960.823768,-9252.574275,0.000000
59535.472565,-4589.276840,-10584.944971,-689.485948
59535.472875,-2960.823768,-8364.327145,-1072.533697
59535.473185,-962.267725,-8734.430116,-383.047749
59535.473494,1110.308913,-7105.977043,-76.609550
59535.473804,518.144159,-9474.636058,2374.896044
59535.474114,0.000000,-7179.997637,2451.505594
59535.474423,3404.947333,-11251.130318,5209.449386
59535.474733,-74.020594,-5625.565159,-689.485948
59535.475043,-2960.823768,-9474.636058,1838.629195
59535.475352,-3552.988522,-8068.244768,0.000000
59535.475662,-1406.391290,-9622.677246,-383.047749
59535.475972,-1184.329507,-8734.430116,0.000000
59535.476281,-1924.535449,-9844.739029,0.000000
59535.476591,-74.020594,-9474.636058,1762.019645
59535.476901,1110.308913,-9474.636058,2374.896044
59535.477211,-2368.659014,-5403.503377,0.000000
59535.477520,-1406.391290,-8660.409521,1378.971896
59535.477830,-2442.679609,-7179.997637,-2834.553343
59535.478140,0.000000,-8956.491898,612.876398
59535.478449,-1332.370696,-7772.162391,0.000000
59535.478759,0.000000,-9178.553681,536.266849
59535.479069,1702.473667,-10140.821405,2528.115143
59535.479378,2664.741391,-9696.697840,2604.724693
59535.479688,2886.803174,-9474.636058,2374.896044
59535.479998,-666.185348,-11251.130318,-76.609550
59535.480307,-5255.462188,-8512.368333,-3064.381992
59535.480617,-1406.391290,-11769.274478,-306.438199
59535.480927,-1258.350101,-8586.388927,-2834.553343
59535.481236,0.000000,-8364.327145,1225.752797
59535.481546,1628.453072,-8660.409521,2298.286494
59535.481856,4293.194464,-8438.347739,3677.258390
59535.482165,2664.741391,-7476.080014,2911.162892
59535.482475,0.000000,-7476.080014,612.876398
59535.482785,-74.020594,-11251.130318,-76.609550
59535.483095,-74.020594,-13619.789333,2374.896044
59535.483404,-1850.514855,-9474.636058,-1608.800546
59535.483714,-1184.329507,-9548.656652,0.000000
59535.484024,-74.020594,-13027.624579,2374.896044
59535.484333,0.000000,-6587.832884,1225.752797
59535.484643,1480.411884,-7476.080014,1762.019645
59535.484953,-518.144159,-5995.668130,766.095498
59535.485262,-1776.494261,-8290.306550,153.219100
59535.485572,-1332.370696,-8956.491898,153.219100
59535.485882,-148.041188,-12065.356855,612.876398
59535.486191,-444.123565,-9844.739029,1532.190996
59535.486501,-74.020594,-11251.130318,-76.609550
59535.486811,592.164754,-8956.491898,2451.505594
59535.487120,1998.556043,-7698.141797,-76.609550
59535.487430,-2960.823768,-3034.844362,0.000000
59535.487740,-2590.720797,-8586.388927,-76.609550
59535.488049,-2146.597232,-10288.862594,-383.047749
59535.488359,-2368.659014,-12139.377449,-76.609550
59535.488669,-2146.597232,-10584.944971,-153.219100
59535.488979,-1184.329507,-11917.315666,2145.067394
59535.489288,1184.329507,-7772.162391,3677.258390
59535.489598,4663.297435,-8290.306550,4213.525239
59535.489908,296.082377,-3330.926739,919.314598
59535.490217,-74.020594,-10510.924376,3600.648841
59535.490527,-2738.761985,-7994.224174,-1608.800546
59535.490837,-1554.432478,-12731.542202,-76.609550
59535.491146,-2368.659014,-11325.150913,-306.438199
59535.491456,-1776.494261,-11473.192101,919.314598
59535.491766,1332.370696,-9474.636058,2834.553343
59535.492075,2368.659014,-7179.997637,3677.258390
59535.492385,0.000000,-4811.338623,1225.752797
59535.492695,2294.638420,-9474.636058,3294.210641
59535.493004,-370.102971,-8068.244768,383.047749
59535.493314,-296.082377,-11325.150913,3064.381992
59535.493624,-1258.350101,-10066.800811,-1915.238745
59535.493934,-518.144159,-11695.253884,995.924147
59535.494243,1480.411884,-10066.800811,2681.334243
59535.494553,2368.659014,-7994.224174,2757.943793
59535.494863,888.247130,-5625.565159,1455.581446
59535.495172,-2368.659014,-4811.338623,0.000000
59535.495482,-3552.988522,-7179.997637,0.000000
59535.495792,-74.020594,-11843.295072,1762.019645
59535.496101,-4441.235652,-10288.862594,-1762.019645
59535.496411,-666.185348,-13027.624579,-76.609550
59535.496721,-74.020594,-10658.965565,536.266849
59535.497030,1480.411884,-7624.121203,2604.724693
59535.497340,1406.391290,-3997.112087,1149.143247
59535.497650,222.061783,-4959.379811,306.438199
59535.497959,-74.020594,-8882.471304,1149.143247
59535.498269,-3108.864956,-9548.656652,0.000000
59535.498579,-5625.565159,-10140.821405,-2451.505594
59535.498888,-2960.823768,-13101.645173,1225.752797
59535.499198,-74.020594,-11843.295072,1762.019645
59535.499508,0.000000,-7179.997637,3677.258390
59535.499818,4663.297435,-7105.977043,1149.143247
59535.500127,148.041188,-2738.761985,1225.752797
59535.500437,-74.020594,-8438.347739,1378.971896
59535.500747,-1036.288319,-10807.006753,766.095498
59535.501056,-2220.617826,-13101.645173,153.219100
59535.501366,-2886.803174,-11251.130318,-995.924147
59535.501676,-3627.009116,-8660.409521,-1378.971896
59535.501985,1480.411884,-8216.285956,3064.381992
59535.502295,2294.638420,-5329.482782,1149.143247
59535.502605,0.000000,-1258.350101,0.000000
59535.502914,1702.473667,-10362.883188,-76.609550
59535.503224,-1776.494261,-11029.068536,0.000000
59535.503534,-2368.659014,-13545.768739,-459.657299
59535.503843,-1850.514855,-11769.274478,-612.876398
59535.504153,-1628.453072,-11399.171507,995.924147
59535.504463,2294.638420,-7550.100608,1762.019645
59535.504772,2294.638420,-5921.647536,536.266849
59535.505082,0.000000,-3627.009116,612.876398
59535.505392,1110.308913,-8290.306550,1149.143247
59535.505702,-2886.803174,-7179.997637,-1991.848295
59535.506011,592.164754,-12731.542202,1762.019645
59535.506321,-1924.535449,-10140.821405,-1302.362347
59535.506631,-1924.535449,-12731.542202,0.000000
59535.506940,74.020594,-11103.089130,1302.362347
59535.507250,1628.453072,-8808.450710,1455.581446
59535.507560,2294.638420,-5625.565159,2374.896044
59535.507869,2294.638420,-6513.812290,-76.609550
59535.508179,0.000000,-6661.853478,0.000000
59535.508489,0.000000,-10436.903782,2451.505594
59535.508798,-74.020594,-10362.883188,-383.047749
59535.509108,-2368.659014,-13693.809927,1225.752797
59535.509418,-1258.350101,-11325.150913,1149.143247
59535.509727,444.123565,-9030.512492,1608.800546
59535.510037,1332.370696,-5255.462188,766.095498
59535.510347,-592.164754,-5107.421000,-306.438199
59535.510656,1110.308913,-8290.306550,2374.896044
59535.510966,3182.885551,-13027.624579,2374.896044
59535.511276,-1258.350101,-10658.965565,-383.047749
59535.511586,-3849.070898,-11325.150913,612.876398
59535.511895,-1258.350101,-11251.130318,-76.609550
