#time,accel_x,accel_y,accel_z
59492.728425,-370.102971,-9104.533087,612.876398
59492.728734,-2368.659014,-7179.997637,0.000000
59492.729044,-2368.659014,-8364.327145,612.876398
59492.729353,444.123565,-9844.739029,2374.896044
59492.729663,-2664.741391,-6291.750507,-1838.629195
59492.729972,0.000000,-9844.739029,1991.848295
59492.730282,2294.638420,-11843.295072,2374.896044
59492.730591,0.000000,-9252.574275,1225.752797
59492.730900,-370.102971,-9178.553681,459.657299
59492.731210,-148.041188,-9178.553681,1225.752797
59492.731519,-74.020594,-8956.491898,842.705048
59492.731829,-814.226536,-7254.018232,-1532.190996
59492.732138,-2294.638420,-7476.080014,0.000000
59492.732448,-1184.329507,-8956.491898,2451.505594
59492.732757,-74.020594,-8290.306550,-76.609550
59492.733066,0.000000,-8660.409521,919.314598
59492.733376,2294.638420,-11843.295072,4213.525239
59492.733685,-1184.329507,-8660.409521,612.876398
59492.733995,-74.020594,-9400.615463,1149.143247
59492.734304,-74.020594,-9252.574275,919.314598
59492.734614,-370.102971,-9104.533087,1149.143247
59492.734923,-74.020594,-8882.471304,-76.609550
59492.735232,-962.267725,-7772.162391,0.000000
59492.735542,-1702.473667,-7772.162391,0.000000
59492.735851,1998.556043,-11695.253884,2987.772442
59492.736161,-1258.350101,-7846.182985,-536.266849
59492.736470,0.000000,-9548.656652,3677.258390
59492.736780,-1776.494261,-7920.203579,153.219100
59492.737089,0.000000,-9104.533087,919.314598
59492.737398,-370.102971,-9326.594869,1072.533697
59492.737708,-518.144159,-8808.450710,842.705048
59492.738017,2294.638420,-10658.965565,2068.457845
59492.738327,-74.020594,-8882.471304,-76.609550
59492.738636,-1184.329507,-7476.080014,0.000000
59492.738946,2294.638420,-11843.295072,2987.772442
59492.739255,-1258.350101,-7920.203579,0.000000
59492.739564,-2368.659014,-7772.162391,2451.505594
59492.739874,-962.267725,-8364.327145,76.609550
59492.740183,-592.164754,-8660.409521,919.314598
59492.740493,-592.164754,-8956.491898,842.705048
59492.740802,-222.061783,-8882.471304,536.266849
59492.741112,1998.556043,-11251.130318,3447.429741
59492.741421,-74.020594,-9474.636058,1149.143247
59492.741730,-74.020594,-8882.471304,-689.485948
59492.742040,0.000000,-8364.327145,1225.752797
59492.742349,-74.020594,-9474.636058,1149.143247
59492.742659,-3552.988522,-5995.668130,0.000000
59492.742968,-74.020594,-9474.636058,-76.609550
59492.743278,-370.102971,-9252.574275,536.266849
59492.743587,0.000000,-9252.574275,842.705048
59492.743896,-74.020594,-9252.574275,1149.143247
59492.744206,296.082377,-10584.944971,3370.820191
59492.744515,1406.391290,-10362.883188,2374.896044
59492.744825,-74.020594,-9474.636058,-76.609550
59492.745134,0.000000,-8364.327145,612.876398
59492.745444,-74.020594,-10658.965565,1762.019645
59492.745753,-2368.659014,-6587.832884,-2451.505594
59492.746062,-74.020594,-9474.636058,842.705048
59492.746372,-592.164754,-9030.512492,383.047749
59492.746681,-296.082377,-9104.533087,919.314598
59492.746991,-370.102971,-9178.553681,842.705048
59492.747300,-1184.329507,-8660.409521,1838.629195
59492.747610,296.082377,-9844.739029,1532.190996
59492.747919,-74.020594,-10658.965565,2374.896044
59492.748229,-2368.659014,-7179.997637,0.000000
59492.748538,518.144159,-10288.862594,1991.848295
59492.748847,-74.020594,-7105.977043,-689.485948
59492.749157,-74.020594,-9474.636058,1608.800546
59492.749466,-148.041188,-8956.491898,1072.533697
59492.749776,-296.082377,-9104.533087,919.314598
59492.750085,-296.082377,-9178.553681,612.876398
59492.750395,0.000000,-7179.997637,0.000000
59492.750704,0.000000,-8660.409521,919.314598
59492.751013,1110.308913,-11843.295072,3600.648841
59492.751323,-1110.308913,-6587.832884,0.000000
59492.751632,1702.473667,-9844.739029,2221.676944
59492.751942,2294.638420,-8290.306550,-76.609550
59492.752251,2146.597232,-9400.615463,1838.629195
59492.752561,1702.473667,-8808.450710,1072.533697
59492.752870,1554.432478,-8734.430116,842.705048
59492.753179,1554.432478,-9178.553681,229.828649
59492.753489,0.000000,-7179.997637,0.000000
59492.753798,2368.659014,-8364.327145,612.876398
59492.754108,4663.297435,-11843.295072,3600.648841
59492.754417,592.164754,-7476.080014,0.000000
59492.754727,4071.132681,-10362.883188,1302.362347
59492.755036,4663.297435,-9474.636058,-76.609550
59492.755345,3701.029710,-8956.491898,1225.752797
59492.755655,4737.318029,-9252.574275,1149.143247
59492.755964,4663.297435,-8808.450710,1072.533697
59492.756274,5181.441594,-8660.409521,1378.971896
59492.756583,4515.256246,-6809.894666,0.000000
59492.756893,4145.153275,-7476.080014,0.000000
59492.757202,4737.318029,-8364.327145,2451.505594
59492.757511,5847.626942,-8290.306550,-383.047749
59492.757821,5921.647536,-8956.491898,919.314598
59492.758130,8216.285956,-11843.295072,1762.019645
59492.758440,5329.482782,-8956.491898,0.000000
59492.758749,5847.626942,-10510.924376,229.828649
59492.759059,4811.338623,-11399.171507,0.000000
59492.759368,3627.009116,-12287.418637,-76.609550
59492.759677,3478.967927,-12435.459826,-1302.362347
59492.759987,1406.391290,-10658.965565,229.828649
59492.760296,0.000000,-7179.997637,0.000000
59492.760606,4663.297435,-8882.471304,2374.896044
59492.760915,2960.823768,-4811.338623,1225.752797
59492.761225,5847.626942,-3256.906145,1685.410096
59492.761534,8808.450710,-4293.194464,2987.772442
59492.761843,9474.636058,-4885.359217,2834.553343
59492.762153,9030.512492,-6883.915261,2451.505594
59492.762462,5847.626942,-10807.006753,612.876398
59492.762772,1184.329507,-14582.057057,0.000000
59492.763081,-1702.473667,-17838.963202,-2451.505594
59492.763391,-74.020594,-18949.272115,-689.485948
59492.763700,-5329.482782,-12509.480420,-4060.306139
59492.764009,-2886.803174,-10510.924376,-689.485948
59492.764319,0.000000,-7994.224174,1149.143247
59492.764628,1776.494261,-5551.544565,2604.724693
59492.764938,4737.318029,-5033.400406,4673.182538
59492.765247,4219.173869,-4737.318029,5132.839837
59492.765557,2442.679609,-4071.132681,4060.306139
59492.765866,2294.638420,-4515.256246,2987.772442
59492.766175,2294.638420,-2368.659014,2374.896044
59492.766485,1184.329507,-4811.338623,1532.190996
59492.766794,2886.803174,-7105.977043,-76.609550
59492.767104,-2368.659014,-13101.645173,-2451.505594
59492.767413,-4293.194464,-17838.963202,-3064.381992
59492.767723,-5551.544565,-20133.601622,-3830.477490
59492.768032,-6883.915261,-16506.592507,-3677.258390
59492.768341,-4071.132681,-10140.821405,-3600.648841
59492.768651,-74.020594,-6809.894666,-153.219100
59492.768960,4737.318029,-5107.421000,3217.601092
59492.769270,5033.400406,-5403.503377,7354.516781
59492.769579,7031.956449,-5921.647536,6052.154434
59492.769889,5477.523971,-3923.091493,5209.449386
59492.770198,9400.615463,-3552.988522,6665.030833
59492.770507,8956.491898,-4145.153275,4826.401637
59492.770817,4145.153275,-6661.853478,2451.505594
59492.771126,0.000000,-11843.295072,-766.095498
59492.771436,-2812.782580,-16358.551318,-3753.867940
59492.771745,-2664.741391,-17098.757260,-4596.572988
59492.772055,-3034.844362,-15026.180623,-5592.497135
59492.772364,-3627.009116,-15396.283594,-4979.620737
59492.772673,-6513.812290,-9548.656652,-4903.011187
59492.772983,2146.597232,-10658.965565,1762.019645
59492.773292,5699.585753,-2442.679609,2834.553343
59492.773602,11843.295072,-1258.350101,7660.954980
59492.773911,14804.118840,-1998.556043,8656.879127
59492.774221,12731.542202,-4959.379811,7660.954980
59492.774530,9400.615463,-7179.997637,4826.401637
59492.774839,5477.523971,-7994.224174,1455.581446
59492.775149,1332.370696,-13693.809927,0.000000
59492.775458,-2368.659014,-14582.057057,-3677.258390
59492.775768,-2442.679609,-17172.777854,-3907.087040
59492.776077,-666.185348,-13101.645173,-6741.640382
59492.776387,4737.318029,-13101.645173,0.000000
59492.776696,4367.215058,-10658.965565,-1302.362347
59492.777005,888.247130,-10436.903782,0.000000
59492.777315,5181.441594,-8364.327145,1532.190996
59492.777624,9252.574275,-5921.647536,5132.839837
59492.777934,8882.471304,-4811.338623,6741.640382
59492.778243,4959.379811,-5921.647536,3294.210641
59492.778553,4663.297435,-6217.729913,229.828649
59492.778862,8290.306550,-9548.656652,3677.258390
59492.779171,4663.297435,-10362.883188,1149.143247
59492.779481,-2368.659014,-12509.480420,0.000000
59492.779790,-3404.947333,-15322.262999,-3064.381992
59492.780100,-2886.803174,-14063.912898,-4060.306139
59492.780409,-3330.926739,-13989.892304,-2221.676944
59492.780719,0.000000,-11029.068536,459.657299
59492.781028,4663.297435,-7105.977043,1762.019645
59492.781338,7105.977043,-3923.091493,3370.820191
59492.781647,7105.977043,-7624.121203,5362.668486
59492.781956,3182.885551,-5329.482782,2681.334243
59492.782266,4145.153275,-7624.121203,4826.401637
59492.782575,814.226536,-3627.009116,0.000000
59492.782885,1702.473667,-7476.080014,-76.609550
59492.783194,592.164754,-10288.862594,536.266849
59492.783504,222.061783,-10140.821405,-766.095498
59492.783813,-2072.576638,-11695.253884,-2451.505594
59492.784122,-2960.823768,-13101.645173,-1838.629195
59492.784432,-1258.350101,-11843.295072,-1608.800546
59492.784741,1702.473667,-9178.553681,-76.609550
59492.785051,4737.318029,-7179.997637,3064.381992
59492.785360,8808.450710,-8290.306550,4826.401637
59492.785670,5847.626942,-6809.894666,4826.401637
59492.785979,5329.482782,-6587.832884,4290.134789
59492.786288,2886.803174,-8882.471304,2681.334243
59492.786598,1998.556043,-7624.121203,842.705048
59492.786907,2294.638420,-9474.636058,919.314598
59492.787217,-370.102971,-10584.944971,-1608.800546
59492.787526,-4145.153275,-11325.150913,-2451.505594
59492.787836,-3552.988522,-11621.233289,-3064.381992
59492.788145,-74.020594,-13619.789333,-1302.362347
59492.788454,296.082377,-7179.997637,0.000000
59492.788764,4737.318029,-7179.997637,2451.505594
59492.789073,6883.915261,-8586.388927,2987.772442
59492.789383,6513.812290,-7179.997637,3524.039291
59492.789692,5403.503377,-8512.368333,3447.429741
59492.790002,4293.194464,-7550.100608,1915.238745
59492.790311,3923.091493,-9992.780217,4136.915689
59492.790620,4071.132681,-9474.636058,1762.019645
59492.790930,0.000000,-9844.739029,0.000000
59492.791239,-2368.659014,-10140.821405,0.000000
59492.791549,-74.020594,-12435.459826,-1302.362347
59492.791858,2220.617826,-10066.800811,1149.143247
59492.792168,2960.823768,-7772.162391,1302.362347
59492.792477,3997.112087,-9178.553681,2221.676944
59492.792786,3923.091493,-6291.750507,459.657299
59492.793095,3701.029710,-9918.759623,1149.143247
59492.793405,4737.318029,-8364.327145,1608.800546
59492.793714,4885.359217,-9252.574275,1225.752797
59492.794024,4663.297435,-10955.047942,1455.581446
59492.794333,1184.329507,-9548.656652,306.438199
59492.794643,2294.638420,-13619.789333,-76.609550
59492.794952,2368.659014,-9548.656652,1225.752797
59492.795262,962.267725,-9548.656652,383.047749
59492.795571,740.205942,-10288.862594,306.438199
59492.795881,-1258.350101,-9844.739029,-536.266849
59492.796190,-888.247130,-9548.656652,76.609550
59492.796500,3478.967927,-8290.306550,1608.800546
59492.796809,2368.659014,-6735.874072,3064.381992
59492.797119,1998.556043,-7328.038826,1991.848295
59492.797428,666.185348,-7698.141797,1455.581446
59492.797738,-1628.453072,-9474.636058,1225.752797
59492.798047,-2368.659014,-7179.997637,689.485948
59492.798357,-4145.153275,-12509.480420,3677.258390
59492.798666,0.000000,-8068.244768,-612.876398
59492.798975,-1850.514855,-14211.954086,-76.609550
59492.799285,-4737.318029,-7179.997637,0.000000
59492.799594,-3182.885551,-9992.780217,0.000000
59492.799904,-3330.926739,-7624.121203,612.876398
59492.800213,-74.020594,-10658.965565,-76.609550
59492.800523,-7105.977043,-7772.162391,0.000000
59492.800832,-3404.947333,-7179.997637,0.000000
59492.801142,296.082377,-9178.553681,4519.963438
59492.801451,148.041188,-5107.421000,2451.505594
59492.801761,0.000000,-8364.327145,3600.648841
59492.802070,-2146.597232,-7402.059420,1149.143247
59492.802380,-1184.329507,-10658.965565,2451.505594
59492.802689,-1850.514855,-8290.306550,0.000000
59492.802999,-5625.565159,-11029.068536,153.219100
59492.803308,-6957.935855,-11473.192101,-689.485948
59492.803618,-8808.450710,-8882.471304,-3294.210641
59492.803927,-3849.070898,-9844.739029,919.314598
59492.804237,-2368.659014,-5107.421000,153.219100
59492.804546,-2368.659014,-5477.523971,1838.629195
59492.804856,444.123565,-5403.503377,2604.724693
59492.805165,0.000000,-7179.997637,3064.381992
59492.805474,1776.494261,-8586.388927,3064.381992
59492.805784,4071.132681,-9474.636058,3600.648841
59492.806093,518.144159,-9326.594869,1149.143247
59492.806403,-3552.988522,-10140.821405,0.000000
59492.806712,-2442.679609,-15396.283594,-689.485948
59492.807022,-3923.091493,-10436.903782,-2451.505594
59492.807331,-2442.679609,-9104.533087,-995.924147
59492.807641,-370.102971,-9770.718434,842.705048
59492.807950,1184.329507,-6735.874072,766.095498
59492.808260,1332.370696,-7772.162391,2528.115143
59492.808569,5107.421000,-6661.853478,3064.381992
59492.808879,4145.153275,-7179.997637,4903.011187
59492.809188,2516.700203,-6661.853478,1149.143247
59492.809498,0.000000,-9104.533087,-689.485948
59492.809807,-2294.638420,-10955.047942,-1225.752797
59492.810117,962.267725,-10955.047942,-1302.362347
59492.810426,814.226536,-9770.718434,-1685.410096
59492.810736,2368.659014,-9844.739029,0.000000
59492.811045,3478.967927,-10658.965565,-76.609550
59492.811355,0.000000,-9548.656652,612.876398
59492.811664,5847.626942,-11547.212695,2374.896044
59492.811974,1776.494261,-7772.162391,2604.724693
59492.812283,1554.432478,-8586.388927,842.705048
59492.812592,0.000000,-8512.368333,-306.438199
59492.812902,-592.164754,-8364.327145,-76.609550
59492.813211,1850.514855,-7698.141797,0.000000
59492.813521,1110.308913,-6513.812290,-995.924147
59492.813830,592.164754,-8734.430116,0.000000
59492.814140,3478.967927,-11251.130318,-76.609550
59492.814449,0.000000,-10140.821405,0.000000
59492.814759,4145.153275,-10955.047942,2298.286494
59492.815068,0.000000,-9548.656652,1378.971896
59492.815378,-74.020594,-10066.800811,-383.047749
59492.815687,-3404.947333,-10732.986159,-1225.752797
59492.815997,-3775.050304,-10584.944971,-995.924147
59492.816306,-444.123565,-9178.553681,76.609550
59492.816616,1110.308913,-7105.977043,2374.896044
59492.816925,222.061783,-4811.338623,0.000000
59492.817235,1184.329507,-8956.491898,3830.477490
59492.817544,0.000000,-5995.668130,1149.143247
59492.817854,1776.494261,-7920.203579,2757.943793
59492.818163,-2368.659014,-7772.162391,1838.629195
59492.818473,-2146.597232,-10807.006753,1378.971896
59492.818782,-4811.338623,-11695.253884,-689.485948
59492.819091,-4885.359217,-11103.089130,-995.924147
59492.819401,-2960.823768,-9622.677246,229.828649
59492.819710,-2442.679609,-8290.306550,-76.609550
59492.820020,-4811.338623,-7920.203579,-2451.505594
59492.820329,-2368.659014,-8364.327145,2451.505594
59492.820639,3478.967927,-8290.306550,4826.401637
59492.820948,1628.453072,-5699.585753,4903.011187
59492.821258,0.000000,-3627.009116,2451.505594
59492.821567,-1554.432478,-8808.450710,1915.238745
59492.821877,-3775.050304,-8734.430116,-383.047749
59492.822186,-5625.565159,-11547.212695,-459.657299
59492.822496,-3849.070898,-9252.574275,-919.314598
59492.822805,-2442.679609,-12879.583391,-76.609550
59492.823115,-592.164754,-8882.471304,-1302.362347
59492.823424,-4145.153275,-9548.656652,1225.752797
59492.823734,2294.638420,-9178.553681,2374.896044
59492.824043,74.020594,-7624.121203,1225.752797
59492.824353,0.000000,-7179.997637,919.314598
59492.824662,-518.144159,-9104.533087,306.438199
59492.824972,-2886.803174,-10066.800811,306.438199
59492.825281,296.082377,-7772.162391,153.219100
59492.825590,962.267725,-8438.347739,1532.190996
59492.825900,1702.473667,-9474.636058,-76.609550
59492.826209,296.082377,-10658.965565,-76.609550
59492.826519,0.000000,-8364.327145,0.000000
59492.826828,4145.153275,-10140.821405,3140.991542
59492.827138,4663.297435,-9178.553681,2987.772442
59492.827447,1998.556043,-7402.059420,0.000000
59492.827757,-444.123565,-8956.491898,-306.438199
59492.828066,-2442.679609,-10066.800811,-1762.019645
59492.828376,-1184.329507,-9770.718434,-1838.629195
59492.828685,-222.061783,-9326.594869,-76.609550
59492.828995,2220.617826,-10362.883188,1762.019645
59492.829304,1998.556043,-9474.636058,-76.609550
59492.829614,592.164754,-7772.162391,1225.752797
59492.829923,6439.791695,-8882.471304,2374.896044
59492.830233,4145.153275,-7179.997637,2528.115143
59492.830542,4663.297435,-8882.471304,1608.800546
59492.830852,0.000000,-9696.697840,0.000000
59492.831161,-2294.638420,-11473.192101,-995.924147
59492.831471,-1036.288319,-10436.903782,-1302.362347
59492.831780,-1332.370696,-9252.574275,-76.609550
59492.832090,-888.247130,-10140.821405,0.000000
59492.832399,-666.185348,-11547.212695,1608.800546
59492.832708,-2294.638420,-8438.347739,-842.705048
59492.833018,4293.194464,-8956.491898,4366.744339
59492.833327,5847.626942,-7105.977043,4519.963438
59492.833637,4071.132681,-7920.203579,2987.772442
59492.833946,-2664.741391,-7476.080014,-459.657299
59492.834256,-4219.173869,-10658.965565,-1455.581446
59492.834565,-1924.535449,-9918.759623,-995.924147
59492.834875,-2960.823768,-10288.862594,306.438199
59492.835184,-4071.132681,-10140.821405,0.000000
59492.835494,-1554.432478,-12435.459826,2528.115143
59492.835803,-962.267725,-7476.080014,536.266849
59492.836113,2368.659014,-7179.997637,3677.258390
59492.836422,2886.803174,-7105.977043,4826.401637
59492.836732,814.226536,-7254.018232,3294.210641
59492.837041,-4219.173869,-9030.512492,0.000000
59492.837351,-3775.050304,-10510.924376,-76.609550
59492.837660,-3330.926739,-9400.615463,-459.657299
59492.837970,-3923.091493,-9474.636058,0.000000
59492.838279,-4737.318029,-8364.327145,-1838.629195
59492.838589,-4737.318029,-9548.656652,0.000000
59492.838898,2294.638420,-10658.965565,3600.648841
59492.839207,2442.679609,-7179.997637,2987.772442
59492.839517,1480.411884,-6587.832884,4290.134789
59492.839826,-740.205942,-8882.471304,3600.648841
59492.840136,-4959.379811,-9104.533087,-229.828649
59492.840445,-3108.864956,-9844.739029,-612.876398
59492.840755,-2220.617826,-8956.491898,0.000000
59492.841064,-3552.988522,-8956.491898,0.000000
59492.841374,-4441.235652,-7772.162391,-2145.067394
59492.841683,-4145.153275,-7772.162391,0.000000
59492.841993,4663.297435,-9474.636058,3600.648841
59492.842302,2368.659014,-5403.503377,2451.505594
59492.842612,2220.617826,-8364.327145,2987.772442
59492.842921,0.000000,-10362.883188,1915.238745
59492.843231,-3627.009116,-10658.965565,-1378.971896
59492.843540,-1924.535449,-11325.150913,-1455.581446
59492.843850,0.000000,-9992.780217,76.609550
59492.844159,74.020594,-8956.491898,0.000000
59492.844469,-1258.350101,-8068.244768,-2451.505594
59492.844778,0.000000,-7179.997637,0.000000
59492.845088,7031.956449,-9474.636058,4213.525239
59492.845397,4737.318029,-6587.832884,3677.258390
59492.845706,5773.606348,-8142.265362,4443.353888
59492.846016,592.164754,-9252.574275,1838.629195
59492.846325,-1554.432478,-10955.047942,-689.485948
59492.846635,-74.020594,-10214.842000,-1302.362347
59492.846944,-1480.411884,-9696.697840,-919.314598
59492.847254,-1258.350101,-8660.409521,-2834.553343
59492.847563,-666.185348,-10066.800811,-1915.238745
59492.847873,-962.267725,-7772.162391,0.000000
59492.848182,4737.318029,-9548.656652,4290.134789
59492.848492,7031.956449,-8290.306550,4826.401637
59492.848801,3552.988522,-6587.832884,3064.381992
59492.849111,0.000000,-8364.327145,1225.752797
59492.849420,-962.267725,-10214.842000,-536.266849
59492.849730,-888.247130,-10214.842000,-536.266849
59492.850039,-1850.514855,-10436.903782,-459.657299
59492.850349,-1924.535449,-9474.636058,-1608.800546
59492.850658,-1554.432478,-10362.883188,-1302.362347
59492.850968,-1258.350101,-8882.471304,-1302.362347
59492.851277,1184.329507,-6587.832884,1532.190996
59492.851587,4071.132681,-8882.471304,6665.030833
59492.851896,1406.391290,-7105.977043,2987.772442
59492.852206,-3256.906145,-7179.997637,0.000000
59492.852515,-2664.741391,-9918.759623,0.000000
59492.852824,-1554.432478,-8734.430116,0.000000
59492.853134,-3478.967927,-10066.800811,76.609550
59492.853443,-4071.132681,-11843.295072,-383.047749
59492.853753,-3034.844362,-11103.089130,-76.609550
59492.854062,-2442.679609,-8142.265362,76.609550
59492.854372,2368.659014,-5995.668130,3064.381992
59492.854681,4367.215058,-7698.141797,7277.907231
59492.854991,518.144159,-8216.285956,2451.505594
59492.855300,-5329.482782,-7476.080014,0.000000
59492.855610,-3849.070898,-11103.089130,-612.876398
59492.855919,-2738.761985,-9178.553681,-842.705048
59492.856229,-5107.421000,-10436.903782,-76.609550
59492.856538,-3849.070898,-10658.965565,-689.485948
59492.856848,-1554.432478,-11843.295072,612.876398
59492.857157,4071.132681,-8290.306550,2374.896044
59492.857467,1184.329507,-5995.668130,3064.381992
59492.857776,4071.132681,-7550.100608,7277.907231
59492.858086,518.144159,-8882.471304,612.876398
59492.858395,-3775.050304,-7624.121203,-1225.752797
59492.858705,-3256.906145,-11103.089130,-1225.752797
59492.859014,-2738.761985,-10955.047942,-612.876398
59492.859323,-3330.926739,-9770.718434,-1991.848295
59492.859633,-1406.391290,-11843.295072,-689.485948
59492.859942,-296.082377,-10362.883188,0.000000
59492.860252,4663.297435,-9474.636058,2987.772442
59492.860561,2442.679609,-5995.668130,3064.381992
59492.860871,4737.318029,-7476.080014,5209.449386
59492.861180,3775.050304,-7994.224174,1838.629195
59492.861490,-666.185348,-7994.224174,229.828649
59492.861799,0.000000,-8290.306550,0.000000
59492.862109,-666.185348,-9844.739029,-229.828649
59492.862418,-1924.535449,-10288.862594,-1915.238745
59492.862728,-2072.576638,-12509.480420,-1225.752797
59492.863037,-2220.617826,-12435.459826,-2451.505594
59492.863347,5847.626942,-11843.295072,2374.896044
59492.863656,3478.967927,-7031.956449,2068.457845
59492.863966,3552.988522,-7772.162391,3677.258390
59492.864275,2886.803174,-7624.121203,76.609550
59492.864585,-74.020594,-8882.471304,1149.143247
59492.864894,888.247130,-9548.656652,0.000000
59492.865204,-148.041188,-9770.718434,-153.219100
59492.865513,-2368.659014,-10140.821405,-1532.190996
59492.865822,-3552.988522,-9548.656652,-1838.629195
59492.866132,-3256.906145,-10288.862594,-459.657299
59492.866441,4663.297435,-10362.883188,3447.429741
59492.866751,1924.535449,-6291.750507,2451.505594
59492.867060,3552.988522,-7772.162391,3677.258390
59492.867370,1628.453072,-7994.224174,1149.143247
59492.867679,-74.020594,-10362.883188,-76.609550
59492.867989,-1776.494261,-9548.656652,-1532.190996
59492.868298,-3701.029710,-10436.903782,-995.924147
59492.868608,-3701.029710,-9918.759623,-2221.676944
59492.868917,-4737.318029,-9844.739029,-2298.286494
59492.869227,-1776.494261,-7772.162391,0.000000
59492.869536,3552.988522,-8364.327145,4903.011187
59492.869846,1998.556043,-5699.585753,3447.429741
59492.870155,2368.659014,-6809.894666,4290.134789
59492.870465,-74.020594,-8290.306550,2374.896044
59492.870774,-74.020594,-10066.800811,1762.019645
59492.871084,-2590.720797,-9178.553681,-76.609550
59492.871393,-4589.276840,-9844.739029,-1608.800546
59492.871703,-4959.379811,-10732.986159,-2451.505594
59492.872012,-5921.647536,-9844.739029,-1991.848295
59492.872322,-1184.329507,-9474.636058,2374.896044
59492.872631,592.164754,-6587.832884,2451.505594
59492.872940,4071.132681,-8586.388927,4826.401637
59492.873250,1702.473667,-5329.482782,1149.143247
59492.873559,-1184.329507,-8882.471304,2374.896044
59492.873869,-444.123565,-10362.883188,2068.457845
59492.874178,-962.267725,-10214.842000,229.828649
59492.874488,-2368.659014,-9918.759623,-689.485948
59492.874797,-3108.864956,-10807.006753,-1302.362347
59492.875107,-5329.482782,-9548.656652,-1608.800546
59492.875416,-814.226536,-9474.636058,1762.019645
59492.875726,296.082377,-7179.997637,1838.629195
59492.876035,4071.132681,-8882.471304,4749.792088
59492.876345,1110.308913,-5995.668130,0.000000
59492.876654,222.061783,-10066.800811,2374.896044
59492.876964,296.082377,-10140.821405,1532.190996
59492.877273,-666.185348,-9104.533087,-383.047749
59492.877583,-2812.782580,-9844.739029,-689.485948
59492.877892,-2960.823768,-10436.903782,-1685.410096
59492.878202,-2738.761985,-10066.800811,-689.485948
59492.878511,1110.308913,-9696.697840,1532.190996
59492.878821,592.164754,-6143.709319,1455.581446
59492.879130,3849.070898,-7179.997637,4136.915689
59492.879439,4663.297435,-9474.636058,4213.525239
59492.879749,1110.308913,-8734.430116,3294.210641
59492.880058,0.000000,-8364.327145,306.438199
59492.880368,-666.185348,-9474.636058,-459.657299
59492.880677,-2960.823768,-10955.047942,-2298.286494
59492.880987,-4515.256246,-11991.336260,-3294.210641
59492.881296,-2442.679609,-12435.459826,-1915.238745
59492.881606,3478.967927,-11843.295072,2374.896044
59492.881915,1702.473667,-6957.935855,1608.800546
59492.882225,2960.823768,-6587.832884,2451.505594
59492.882534,4663.297435,-9474.636058,4749.792088
59492.882844,1554.432478,-9252.574275,3294.210641
59492.883153,296.082377,-7772.162391,612.876398
59492.883463,-740.205942,-9474.636058,612.876398
59492.883772,-2590.720797,-10362.883188,-1532.190996
59492.884082,-4589.276840,-11325.150913,-2145.067394
59492.884391,-1850.514855,-11843.295072,-995.924147
59492.884701,1184.329507,-8512.368333,842.705048
59492.885010,1702.473667,-8142.265362,2374.896044
59492.885320,592.164754,-5551.544565,1225.752797
59492.885629,2294.638420,-10140.821405,4749.792088
59492.885938,0.000000,-8364.327145,2451.505594
59492.886248,0.000000,-7772.162391,229.828649
59492.886557,-1702.473667,-9252.574275,229.828649
59492.886867,-2664.741391,-9326.594869,-1532.190996
59492.887176,-4367.215058,-9474.636058,-1455.581446
59492.887486,-1258.350101,-12139.377449,919.314598
59492.887795,814.226536,-8068.244768,919.314598
59492.888105,2886.803174,-8882.471304,3600.648841
59492.888414,1184.329507,-6587.832884,2451.505594
59492.888724,3182.885551,-10732.986159,5822.325785
59492.889033,0.000000,-7328.038826,612.876398
59492.889343,-666.185348,-7772.162391,842.705048
59492.889652,-2738.761985,-9992.780217,383.047749
59492.889962,-3627.009116,-9844.739029,-1532.190996
59492.890271,-4589.276840,-11325.150913,-689.485948
59492.890581,-74.020594,-9548.656652,1532.190996
59492.890890,1184.329507,-8364.327145,3064.381992
59492.891200,3478.967927,-9474.636058,3600.648841
59492.891509,0.000000,-4811.338623,612.876398
59492.891819,-1480.411884,-11325.150913,3677.258390
59492.892128,296.082377,-7772.162391,0.000000
59492.892438,1702.473667,-8142.265362,1608.800546
59492.892747,-1110.308913,-9844.739029,306.438199
59492.893056,-2960.823768,-9992.780217,-1532.190996
59492.893366,-3923.091493,-11473.192101,-612.876398
59492.893675,0.000000,-9548.656652,0.000000
59492.893985,0.000000,-7179.997637,1838.629195
59492.894294,3923.091493,-8734.430116,4213.525239
59492.894604,2294.638420,-7402.059420,2374.896044
59492.894913,0.000000,-4811.338623,0.000000
59492.895223,-296.082377,-8660.409521,459.657299
59492.895533,-74.020594,-8586.388927,-76.609550
59492.895843,-2368.659014,-9400.615463,-1685.410096
59492.896152,-2812.782580,-10288.862594,-1608.800546
59492.896462,-3627.009116,-10658.965565,-1378.971896
59492.896772,0.000000,-10140.821405,0.000000
59492.897082,0.000000,-6291.750507,612.876398
59492.897391,3404.947333,-8882.471304,3830.477490
59492.897701,1406.391290,-6809.894666,2374.896044
59492.898011,-74.020594,-8290.306550,-76.609550
59492.898321,1480.411884,-9104.533087,842.705048
59492.898631,-370.102971,-8882.471304,306.438199
59492.898940,-74.020594,-12435.459826,-76.609550
59492.899250,-2738.761985,-10362.883188,-1762.019645
59492.899560,-3182.885551,-10288.862594,-1302.362347
59492.899870,296.082377,-9548.656652,612.876398
59492.900179,0.000000,-7179.997637,1225.752797
59492.900489,3478.967927,-9474.636058,3600.648841
59492.900799,518.144159,-7105.977043,842.705048
59492.901109,0.000000,-9548.656652,2451.505594
59492.901418,814.226536,-7402.059420,229.828649
59492.901728,-74.020594,-9474.636058,-76.609550
59492.902038,-1628.453072,-9696.697840,-612.876398
59492.902348,-2368.659014,-10288.862594,-766.095498
59492.902658,-2146.597232,-11177.109724,0.000000
59492.902967,0.000000,-8660.409521,0.000000
59492.903277,0.000000,-5995.668130,1532.190996
59492.903587,1776.494261,-8512.368333,3370.820191
59492.903897,-74.020594,-7698.141797,1149.143247
59492.904206,0.000000,-7179.997637,2451.505594
59492.904516,3478.967927,-8290.306550,2374.896044
59492.904826,2294.638420,-9474.636058,2374.896044
59492.905136,-1332.370696,-9178.553681,-612.876398
59492.905445,-3552.988522,-9326.594869,-1225.752797
59492.905755,-3034.844362,-10881.027347,-689.485948
59492.906065,-1184.329507,-8956.491898,0.000000
59492.906375,-1628.453072,-6291.750507,0.000000
59492.906685,2442.679609,-9696.697840,3217.601092
59492.906994,-74.020594,-8882.471304,1455.581446
59492.907304,0.000000,-7179.997637,0.000000
59492.907614,4071.132681,-9474.636058,2374.896044
59492.907924,1406.391290,-10214.842000,2681.334243
59492.908233,-444.123565,-9326.594869,-536.266849
59492.908543,-3330.926739,-10214.842000,-306.438199
59492.908853,-2220.617826,-10807.006753,-229.828649
59492.909163,-370.102971,-8660.409521,1608.800546
59492.909472,814.226536,-8882.471304,2374.896044
59492.909782,0.000000,-7772.162391,1225.752797
59492.910092,-1258.350101,-8882.471304,842.705048
59492.910402,0.000000,-7179.997637,0.000000
59492.910712,3478.967927,-11251.130318,4213.525239
59492.911021,592.164754,-9548.656652,1532.190996
59492.911331,-1258.350101,-9474.636058,-1149.143247
59492.911641,-3923.091493,-10066.800811,-1225.752797
59492.911951,-1924.535449,-10288.862594,-306.438199
59492.912260,518.144159,-8290.306550,995.924147
59492.912570,888.247130,-8808.450710,2451.505594
59492.912880,148.041188,-7179.997637,612.876398
59492.913190,-1184.329507,-8660.409521,1838.629195
59492.913499,3478.967927,-9474.636058,-76.609550
59492.913809,2294.638420,-9252.574275,2834.553343
59492.914119,-1184.329507,-8660.409521,306.438199
59492.914429,-1998.556043,-9844.739029,-919.314598
59492.914739,-4811.338623,-10955.047942,-1532.190996
59492.915048,-2294.638420,-10955.047942,-1302.362347
59492.915358,-74.020594,-10955.047942,1608.800546
59492.915668,740.205942,-7772.162391,1225.752797
59492.915978,-74.020594,-8142.265362,-76.609550
59492.916287,-2368.659014,-6587.832884,0.000000
59492.916597,3478.967927,-10658.965565,3600.648841
59492.916907,2738.761985,-8660.409521,2911.162892
59492.917217,0.000000,-8660.409521,76.609550
59492.917526,-2368.659014,-10584.944971,-919.314598
59492.917836,-3404.947333,-11251.130318,-1225.752797
59492.918146,0.000000,-10955.047942,459.657299
59492.918456,1702.473667,-9474.636058,2451.505594
59492.918766,3478.967927,-9474.636058,3447.429741
59492.919075,-1554.432478,-5477.523971,0.000000
59492.919385,-888.247130,-8956.491898,2451.505594
59492.919695,4663.297435,-9474.636058,2374.896044
59492.920005,1184.329507,-7476.080014,2757.943793
59492.920314,0.000000,-7476.080014,0.000000
59492.920624,-2664.741391,-9844.739029,-1302.362347
59492.920934,-3627.009116,-10436.903782,-1225.752797
59492.921244,148.041188,-10140.821405,383.047749
59492.921553,1998.556043,-11103.089130,2451.505594
59492.921863,888.247130,-8956.491898,1149.143247
59492.922173,-74.020594,-8882.471304,-76.609550
59492.922483,0.000000,-9548.656652,1532.190996
59492.922793,2294.638420,-7105.977043,1149.143247
59492.923102,0.000000,-6587.832884,3064.381992
59492.923412,74.020594,-8068.244768,229.828649
59492.923722,-1924.535449,-9622.677246,0.000000
59492.924032,-1850.514855,-10140.821405,459.657299
59492.924341,666.185348,-9178.553681,995.924147
59492.924651,1406.391290,-8364.327145,2757.943793
59492.924961,0.000000,-8956.491898,2145.067394
59492.925271,-1258.350101,-9474.636058,-76.609550
59492.925580,-2368.659014,-7772.162391,0.000000
59492.925890,2590.720797,-11251.130318,3600.648841
59492.926200,0.000000,-7179.997637,1225.752797
59492.926510,222.061783,-7698.141797,-459.657299
59492.926820,-2368.659014,-9696.697840,0.000000
59492.927129,-962.267725,-9178.553681,0.000000
59492.927439,-444.123565,-9474.636058,1225.752797
59492.927749,-1184.329507,-7772.162391,1838.629195
59492.928059,-3552.988522,-8364.327145,0.000000
59492.928368,-1258.350101,-9474.636058,-76.609550
59492.928678,-1554.432478,-8364.327145,-2451.505594
59492.928988,3849.070898,-8068.244768,3370.820191
59492.929298,0.000000,-7328.038826,0.000000
59492.929607,-74.020594,-9474.636058,-76.609550
59492.929917,-3701.029710,-10214.842000,-1225.752797
59492.930227,-1702.473667,-11251.130318,0.000000
59492.930537,74.020594,-8438.347739,1608.800546
59492.930847,-2368.659014,-8364.327145,1378.971896
59492.931156,-2960.823768,-7179.997637,0.000000
59492.931466,-2664.741391,-10214.842000,842.705048
59492.931776,-74.020594,-7772.162391,-2451.505594
59492.932086,2516.700203,-9992.780217,4290.134789
59492.932395,1110.308913,-7698.141797,-383.047749
59492.932705,-74.020594,-10362.883188,-76.609550
59492.933015,-2442.679609,-9844.739029,-689.485948
59492.933325,-666.185348,-10658.965565,229.828649
59492.933634,-592.164754,-9696.697840,995.924147
59492.933944,-2368.659014,-8956.491898,995.924147
59492.934254,-2072.576638,-9474.636058,-76.609550
59492.934564,-1776.494261,-9548.656652,919.314598
59492.934874,2886.803174,-8882.471304,2374.896044
59492.935183,1184.329507,-7179.997637,3064.381992
59492.935493,3478.967927,-9178.553681,1149.143247
59492.935803,-74.020594,-10066.800811,842.705048
59492.936113,-1406.391290,-9770.718434,383.047749
59492.936422,1776.494261,-8956.491898,1302.362347
59492.936732,1776.494261,-8734.430116,2221.676944
59492.937042,1110.308913,-8142.265362,1149.143247
59492.937352,-814.226536,-9178.553681,383.047749
59492.937661,-2368.659014,-8956.491898,0.000000
59492.937971,3404.947333,-11843.295072,3600.648841
59492.938281,518.144159,-8290.306550,-76.609550
59492.938591,1702.473667,-10658.965565,-76.609550
59492.938901,-740.205942,-10436.903782,536.266849
59492.939210,0.000000,-9474.636058,995.924147
59492.939520,2146.597232,-8734.430116,2221.676944
59492.939830,1332.370696,-7624.121203,2987.772442
59492.940140,518.144159,-8290.306550,1302.362347
59492.940449,-1332.370696,-7994.224174,842.705048
59492.940759,-1628.453072,-7254.018232,306.438199
59492.941069,3182.885551,-11251.130318,4213.525239
59492.941379,0.000000,-5995.668130,0.000000
59492.941688,1628.453072,-11843.295072,-76.609550
59492.941998,-2664.741391,-10732.986159,-919.314598
59492.942308,-1776.494261,-11769.274478,-76.609550
59492.942618,74.020594,-10658.965565,536.266849
59492.942928,-962.267725,-9400.615463,1378.971896
59492.943237,-1258.350101,-9474.636058,1225.752797
59492.943547,-3108.864956,-8512.368333,0.000000
59492.943857,-370.102971,-8808.450710,1149.143247
59492.944167,3478.967927,-8882.471304,5362.668486
59492.944476,1110.308913,-5625.565159,1149.143247
59492.944786,1480.411884,-9400.615463,2757.943793
59492.945096,-2368.659014,-8364.327145,306.438199
59492.945406,-962.267725,-10214.842000,76.609550
59492.945715,-1184.329507,-9548.656652,-536.266849
59492.946025,-3701.029710,-10584.944971,-612.876398
59492.946335,-4071.132681,-10214.842000,-1838.629195
59492.946645,-5847.626942,-10732.986159,-1072.533697
59492.946954,-222.061783,-10658.965565,1149.143247
59492.947264,0.000000,-5995.668130,0.000000
59492.947574,2886.803174,-9474.636058,3600.648841
59492.947884,0.000000,-9104.533087,2911.162892
59492.948194,-1480.411884,-7179.997637,1072.533697
59492.948503,1776.494261,-8438.347739,2451.505594
59492.948813,2072.576638,-8808.450710,2604.724693
59492.949123,-1480.411884,-6957.935855,76.609550
59492.949433,-3108.864956,-10732.986159,-1225.752797
59492.949742,-1776.494261,-7254.018232,-612.876398
59492.950052,-74.020594,-12435.459826,995.924147
59492.950362,-3552.988522,-5995.668130,0.000000
59492.950672,-2368.659014,-11917.315666,612.876398
59492.950981,0.000000,-9548.656652,1225.752797
59492.951291,0.000000,-8660.409521,842.705048
59492.951601,1776.494261,-9104.533087,2757.943793
59492.951911,1924.535449,-7624.121203,2145.067394
59492.952221,592.164754,-7920.203579,2451.505594
59492.952530,296.082377,-6587.832884,76.609550
59492.952840,-1628.453072,-9844.739029,2145.067394
59492.953150,2294.638420,-8290.306550,-76.609550
59492.953460,0.000000,-9548.656652,2451.505594
59492.953769,3478.967927,-9474.636058,2068.457845
59492.954079,-3552.988522,-8364.327145,0.000000
59492.954389,-1554.432478,-9918.759623,-536.266849
59492.954699,1036.288319,-10436.903782,536.266849
59492.955008,1258.350101,-9844.739029,2068.457845
59492.955318,740.205942,-9030.512492,1072.533697
59492.955628,-1036.288319,-8364.327145,842.705048
59492.955938,-1776.494261,-8364.327145,612.876398
59492.956248,2886.803174,-9474.636058,2374.896044
59492.956557,0.000000,-5403.503377,1225.752797
59492.956867,3182.885551,-9474.636058,3600.648841
59492.957177,-1628.453072,-5403.503377,0.000000
59492.957487,-74.020594,-10066.800811,536.266849
59492.957796,74.020594,-10362.883188,306.438199
59492.958106,-740.205942,-9696.697840,383.047749
59492.958416,-1184.329507,-10214.842000,-306.438199
59492.958726,-2960.823768,-10362.883188,-995.924147
59492.959035,-4737.318029,-10140.821405,-1915.238745
59492.959345,-888.247130,-10510.924376,766.095498
59492.959655,-74.020594,-8290.306550,-76.609550
59492.959965,0.000000,-6291.750507,612.876398
59492.960275,-1406.391290,-6513.812290,0.000000
59492.960584,1998.556043,-8882.471304,2374.896044
59492.960894,2294.638420,-7550.100608,2221.676944
59492.961204,222.061783,-7846.182985,1838.629195
59492.961514,-1480.411884,-9030.512492,0.000000
59492.961823,-3627.009116,-9474.636058,-76.609550
59492.962133,-3034.844362,-10140.821405,-1302.362347
59492.962443,0.000000,-9548.656652,612.876398
59492.962753,-74.020594,-10658.965565,-76.609550
59492.963062,-2812.782580,-8364.327145,-1838.629195
59492.963372,-1554.432478,-9474.636058,-689.485948
59492.963682,592.164754,-9548.656652,1838.629195
59492.963992,1702.473667,-8216.285956,2298.286494
59492.964302,148.041188,-7402.059420,2298.286494
59492.964611,-666.185348,-8438.347739,459.657299
59492.964921,-1258.350101,-9474.636058,1149.143247
59492.965231,-222.061783,-9030.512492,229.828649
59492.965541,0.000000,-7328.038826,1225.752797
59492.965850,-74.020594,-7105.977043,-689.485948
59492.966160,-2368.659014,-8364.327145,0.000000
59492.966470,-74.020594,-11251.130318,-76.609550
59492.966780,0.000000,-10881.027347,76.609550
59492.967089,666.185348,-9992.780217,1302.362347
59492.967399,0.000000,-9992.780217,842.705048
59492.967709,-666.185348,-10066.800811,383.047749
59492.968019,-370.102971,-11251.130318,2374.896044
59492.968329,1110.308913,-9400.615463,1915.238745
59492.968638,666.185348,-5403.503377,0.000000
59492.968948,4663.297435,-9474.636058,4213.525239
59492.969258,0.000000,-6291.750507,76.609550
59492.969568,3182.885551,-9474.636058,3294.210641
59492.969877,2368.659014,-8512.368333,1915.238745
59492.970187,1702.473667,-8808.450710,1991.848295
59492.970497,-592.164754,-9622.677246,76.609550
59492.970807,-2738.761985,-10658.965565,-1225.752797
59492.971116,-3256.906145,-11621.233289,-612.876398
59492.971426,-1258.350101,-11695.253884,-689.485948
59492.971736,-2442.679609,-8438.347739,-1915.238745
59492.972046,0.000000,-8364.327145,612.876398
59492.972356,3256.906145,-9474.636058,2987.772442
59492.972665,3478.967927,-9474.636058,4826.401637
59492.972975,3034.844362,-5847.626942,2451.505594
59492.973285,2812.782580,-6809.894666,3294.210641
59492.973595,1110.308913,-7994.224174,1685.410096
59492.973904,-2590.720797,-9030.512492,-383.047749
59492.974214,-4145.153275,-10732.986159,0.000000
59492.974524,-1332.370696,-10732.986159,-1072.533697
59492.974834,-962.267725,-9474.636058,-1302.362347
59492.975143,-3552.988522,-9548.656652,0.000000
59492.975453,-1184.329507,-10584.944971,1608.800546
59492.975763,296.082377,-10955.047942,3600.648841
59492.976073,2146.597232,-8216.285956,1915.238745
59492.976383,666.185348,-7624.121203,2834.553343
59492.976692,-888.247130,-8808.450710,766.095498
59492.977002,-3034.844362,-8290.306550,76.609550
59492.977312,-4145.153275,-7772.162391,0.000000
59492.977622,-962.267725,-7920.203579,0.000000
59492.977931,-1554.432478,-7698.141797,-1302.362347
59492.978241,-2368.659014,-9548.656652,0.000000
59492.978551,-74.020594,-12287.418637,1838.629195
59492.978861,592.164754,-10732.986159,2451.505594
59492.979170,2738.761985,-9696.697840,1762.019645
59492.979480,1332.370696,-7698.141797,1915.238745
59492.979790,-592.164754,-9548.656652,306.438199
59492.980100,-3108.864956,-10140.821405,-383.047749
59492.980410,-3552.988522,-8660.409521,-2451.505594
59492.980719,-1036.288319,-8512.368333,919.314598
59492.981029,-74.020594,-10658.965565,3600.648841
59492.981339,-3552.988522,-5995.668130,0.000000
59492.981649,-74.020594,-10362.883188,2374.896044
59492.981958,1184.329507,-7179.997637,2757.943793
59492.982268,4663.297435,-7624.121203,3600.648841
59492.982578,2516.700203,-7476.080014,2451.505594
59492.982888,-592.164754,-9992.780217,-306.438199
59492.983197,-3404.947333,-10510.924376,-842.705048
59492.983507,-3775.050304,-10807.006753,-3447.429741
59492.983817,-2368.659014,-9696.697840,0.000000
59492.984127,-74.020594,-11843.295072,-76.609550
59492.984437,-2516.700203,-7772.162391,-1532.190996
59492.984746,-1184.329507,-8956.491898,2451.505594
59492.985056,2368.659014,-6735.874072,3753.867940
59492.985366,5847.626942,-6809.894666,4826.401637
59492.985676,2886.803174,-6809.894666,2834.553343
59492.985985,-296.082377,-8586.388927,612.876398
59492.986295,-5329.482782,-9474.636058,-919.314598
59492.986605,-3034.844362,-10658.965565,-2528.115143
59492.986915,-1184.329507,-7772.162391,0.000000
59492.987224,-74.020594,-14063.912898,3600.648841
59492.987534,-1258.350101,-7994.224174,-1608.800546
59492.987844,-2368.659014,-9548.656652,1225.752797
59492.988154,2442.679609,-5995.668130,1532.190996
59492.988464,4071.132681,-9178.553681,4213.525239
59492.988773,1924.535449,-7846.182985,1762.019645
59492.989083,-1554.432478,-8438.347739,-612.876398
59492.989393,-4145.153275,-9252.574275,-689.485948
59492.989703,-666.185348,-10362.883188,-1302.362347
59492.990012,-2960.823768,-7772.162391,0.000000
59492.990322,-592.164754,-10732.986159,2451.505594
59492.990632,-1258.350101,-8586.388927,-689.485948
59492.990942,0.000000,-8364.327145,2451.505594
59492.991251,2368.659014,-7624.121203,2451.505594
59492.991561,2664.741391,-7031.956449,3524.039291
59492.991871,222.061783,-8290.306550,1149.143247
59492.992181,-2442.679609,-9252.574275,-383.047749
59492.992491,-4515.256246,-10288.862594,-995.924147
59492.992800,-370.102971,-10658.965565,-76.609550
59492.993110,-2886.803174,-7846.182985,-1608.800546
59492.993420,-4737.318029,-7772.162391,0.000000
59492.993730,-74.020594,-11843.295072,1149.143247
59492.994039,-74.020594,-9474.636058,1455.581446
59492.994349,3775.050304,-7698.141797,612.876398
59492.994659,3849.070898,-7476.080014,4290.134789
59492.994969,2738.761985,-8290.306550,2528.115143
59492.995279,-888.247130,-9696.697840,766.095498
59492.995589,-2516.700203,-10214.842000,536.266849
59492.995898,-962.267725,-11843.295072,-76.609550
59492.996208,-3034.844362,-10066.800811,-689.485948
59492.996518,-3552.988522,-9548.656652,0.000000
59492.996828,-74.020594,-11251.130318,-76.609550
59492.997138,0.000000,-7179.997637,1532.190996
59492.997447,3775.050304,-6513.812290,2681.334243
59492.997757,3256.906145,-5403.503377,3677.258390
59492.998067,1850.514855,-7476.080014,1455.581446
59492.998377,-4441.235652,-8364.327145,0.000000
59492.998687,-2442.679609,-11103.089130,-76.609550
59492.998997,-2072.576638,-10807.006753,153.219100
59492.999306,-3182.885551,-8364.327145,-4519.963438
59492.999616,-666.185348,-12435.459826,-76.609550
59492.999926,-2442.679609,-8586.388927,-842.705048
59493.000236,1776.494261,-8364.327145,1225.752797
59493.000546,7031.956449,-7994.224174,6052.154434
59493.000856,3256.906145,-7105.977043,4060.306139
59493.001165,740.205942,-8512.368333,1838.629195
59493.001475,-2220.617826,-9252.574275,536.266849
59493.001785,-1924.535449,-10066.800811,0.000000
59493.002095,-1776.494261,-8364.327145,612.876398
59493.002405,-1258.350101,-10510.924376,1762.019645
59493.002715,-1258.350101,-9474.636058,-2528.115143
59493.003024,-3552.988522,-10140.821405,612.876398
59493.003334,3478.967927,-10066.800811,3294.210641
59493.003644,3923.091493,-8290.306550,4826.401637
59493.003954,2220.617826,-7402.059420,2528.115143
59493.004264,-444.123565,-9252.574275,306.438199
59493.004573,-4219.173869,-10288.862594,-689.485948
59493.004883,-2442.679609,-10140.821405,0.000000
59493.005193,-3552.988522,-7179.997637,0.000000
59493.005503,-1258.350101,-10658.965565,2374.896044
59493.005813,-3034.844362,-6735.874072,-2221.676944
59493.006123,0.000000,-10140.821405,3064.381992
59493.006432,4663.297435,-8808.450710,3600.648841
59493.006742,3182.885551,-7105.977043,5439.278036
59493.007052,1998.556043,-7920.203579,2374.896044
59493.007362,-370.102971,-9178.553681,229.828649
59493.007672,-2812.782580,-10436.903782,-612.876398
59493.007982,-1924.535449,-10732.986159,-3064.381992
59493.008291,-4441.235652,-8364.327145,-3677.258390
59493.008601,-3256.906145,-9548.656652,-2451.505594
59493.008911,-74.020594,-12435.459826,-76.609550
59493.009221,-2368.659014,-6587.832884,0.000000
59493.009531,5033.400406,-8290.306550,4826.401637
59493.009841,3552.988522,-7031.956449,5822.325785
59493.010150,2886.803174,-7846.182985,2987.772442
59493.010460,814.226536,-8216.285956,995.924147
59493.010770,-2146.597232,-9844.739029,0.000000
59493.011080,-1110.308913,-8364.327145,-1915.238745
59493.011390,-2886.803174,-8364.327145,-4596.572988
59493.011699,-2960.823768,-9548.656652,-4903.011187
59493.012009,-370.102971,-12879.583391,1072.533697
59493.012319,-74.020594,-10362.883188,-76.609550
59493.012629,1776.494261,-7476.080014,2298.286494
59493.012939,2960.823768,-7476.080014,4903.011187
59493.013249,3849.070898,-8142.265362,3140.991542
59493.013558,74.020594,-9030.512492,1608.800546
59493.013868,-592.164754,-8512.368333,1149.143247
59493.014178,0.000000,-8882.471304,-76.609550
59493.014488,-1258.350101,-7846.182985,-2528.115143
59493.014798,-3997.112087,-8364.327145,-3677.258390
59493.015108,-3552.988522,-10732.986159,1225.752797
59493.015417,1702.473667,-11251.130318,1762.019645
59493.015727,2146.597232,-7476.080014,2834.553343
59493.016037,2072.576638,-5403.503377,2451.505594
59493.016347,1332.370696,-8068.244768,1838.629195
59493.016657,-1998.556043,-8882.471304,766.095498
59493.016967,-2442.679609,-10066.800811,-689.485948
59493.017276,-1036.288319,-9474.636058,-76.609550
59493.017586,-666.185348,-9474.636058,-76.609550
59493.017896,-2368.659014,-7772.162391,-4290.134789
59493.018206,-74.020594,-11843.295072,2374.896044
59493.018516,0.000000,-7179.997637,3064.381992
59493.018825,4663.297435,-8438.347739,5209.449386
59493.019135,1776.494261,-4811.338623,2451.505594
59493.019445,1184.329507,-8290.306550,2374.896044
59493.019755,-1998.556043,-9178.553681,383.047749
59493.020065,-2368.659014,-10436.903782,-153.219100
59493.020375,-2442.679609,-10658.965565,-383.047749
59493.020684,-1554.432478,-10658.965565,-689.485948
59493.020994,-4219.173869,-10362.883188,-2528.115143
59493.021304,-4737.318029,-9548.656652,0.000000
59493.021614,2886.803174,-10658.965565,2987.772442
59493.021924,2368.659014,-6587.832884,2451.505594
59493.022234,2368.659014,-4811.338623,2451.505594
59493.022543,1480.411884,-7179.997637,1991.848295
59493.022853,-1554.432478,-9252.574275,995.924147
59493.023163,-1850.514855,-10510.924376,-536.266849
59493.023473,-1850.514855,-11695.253884,-76.609550
59493.023783,-1406.391290,-13027.624579,-76.609550
59493.024093,-3034.844362,-9474.636058,-3140.991542
59493.024402,-4737.318029,-9844.739029,612.876398
59493.024712,2886.803174,-9474.636058,2374.896044
59493.025022,1776.494261,-4811.338623,1225.752797
59493.025332,518.144159,-6809.894666,2298.286494
59493.025642,2368.659014,-7476.080014,2451.505594
59493.025952,1702.473667,-7105.977043,2145.067394
59493.026261,1110.308913,-9474.636058,1915.238745
59493.026571,-370.102971,-9252.574275,1149.143247
59493.026881,-2738.761985,-12953.603985,-76.609550
59493.027191,-2442.679609,-11843.295072,-2528.115143
59493.027501,-6513.812290,-10140.821405,-2451.505594
59493.027810,2368.659014,-10066.800811,2298.286494
59493.028120,3478.967927,-9252.574275,1149.143247
59493.028430,4663.297435,-7105.977043,1762.019645
59493.028740,1184.329507,-8512.368333,1608.800546
59493.029050,222.061783,-9030.512492,1915.238745
59493.029360,1628.453072,-9474.636058,1072.533697
59493.029669,592.164754,-8956.491898,1838.629195
59493.029979,-1776.494261,-9844.739029,1532.190996
59493.030289,-1406.391290,-11843.295072,-76.609550
59493.030599,-2368.659014,-8364.327145,612.876398
59493.030909,4071.132681,-9474.636058,2987.772442
59493.031219,888.247130,-4811.338623,536.266849
59493.031528,2294.638420,-8290.306550,2374.896044
59493.031838,-1036.288319,-8512.368333,766.095498
59493.032148,-2072.576638,-10510.924376,306.438199
59493.032458,-962.267725,-9844.739029,0.000000
59493.032768,-2960.823768,-8068.244768,0.000000
59493.033078,-3552.988522,-9548.656652,0.000000
59493.033387,-2368.659014,-11325.150913,2145.067394
59493.033697,-1850.514855,-8512.368333,-383.047749
59493.034007,2960.823768,-9252.574275,4290.134789
59493.034317,4071.132681,-7105.977043,3600.648841
59493.034627,4071.132681,-8290.306550,2987.772442
59493.034936,-1554.432478,-7402.059420,0.000000
59493.035246,-1258.350101,-10140.821405,536.266849
59493.035556,0.000000,-9104.533087,306.438199
59493.035866,-4441.235652,-8364.327145,-2451.505594
59493.036176,-6513.812290,-9548.656652,-2451.505594
59493.036486,-3182.885551,-13693.809927,-76.609550
59493.036795,-1258.350101,-10658.965565,-383.047749
59493.037105,592.164754,-7772.162391,2451.505594
59493.037415,2886.803174,-8290.306550,3600.648841
59493.037725,3478.967927,-8586.388927,3294.210641
59493.038035,518.144159,-8586.388927,2068.457845
59493.038345,370.102971,-9622.677246,1532.190996
59493.038654,-666.185348,-8956.491898,0.000000
59493.038964,-4737.318029,-8364.327145,-3677.258390
59493.039274,-7105.977043,-7772.162391,-3677.258390
59493.039584,-5921.647536,-9548.656652,0.000000
59493.039894,2294.638420,-11843.295072,2374.896044
59493.040204,1184.329507,-7179.997637,1532.190996
59493.040513,3849.070898,-9474.636058,4826.401637
59493.040823,2368.659014,-8068.244768,3677.258390
59493.041133,518.144159,-9104.533087,2681.334243
59493.041443,888.247130,-8956.491898,1608.800546
59493.041753,-296.082377,-9030.512492,919.314598
59493.042062,-2886.803174,-7772.162391,-1455.581446
59493.042372,-6069.688724,-7476.080014,-3907.087040
59493.042682,-6513.812290,-9548.656652,0.000000
59493.042992,2294.638420,-10658.965565,1762.019645
59493.043302,296.082377,-6883.915261,1838.629195
59493.043612,4663.297435,-9474.636058,4826.401637
59493.043921,1184.329507,-7476.080014,2451.505594
59493.044231,740.205942,-9474.636058,1685.410096
59493.044541,1480.411884,-9474.636058,995.924147
59493.044851,0.000000,-8882.471304,383.047749
59493.045161,-74.020594,-9474.636058,-1302.362347
59493.045471,-3034.844362,-9474.636058,-1302.362347
59493.045780,-4737.318029,-8364.327145,0.000000
59493.046090,3478.967927,-11547.212695,3294.210641
59493.046400,1702.473667,-6365.771101,2298.286494
59493.046710,3256.906145,-8068.244768,4903.011187
59493.047020,0.000000,-6587.832884,1225.752797
59493.047330,148.041188,-9104.533087,1685.410096
59493.047639,518.144159,-8882.471304,612.876398
59493.047949,-1628.453072,-8734.430116,-689.485948
59493.048259,-2442.679609,-11251.130318,-1302.362347
59493.048569,-4811.338623,-11843.295072,-1302.362347
59493.048879,-5921.647536,-8364.327145,-2451.505594
59493.049189,4071.132681,-10658.965565,2987.772442
59493.049498,1184.329507,-5995.668130,2451.505594
59493.049808,3256.906145,-7476.080014,3983.696590
59493.050118,0.000000,-5995.668130,919.314598
59493.050428,0.000000,-9400.615463,1532.190996
59493.050738,814.226536,-8734.430116,842.705048
59493.051047,-2368.659014,-9622.677246,-229.828649
59493.051357,-1258.350101,-11843.295072,-76.609550
59493.051667,-1258.350101,-11843.295072,-76.609550
59493.051977,-2442.679609,-10066.800811,-1915.238745
59493.052287,0.000000,-8956.491898,1838.629195
59493.052597,1702.473667,-7698.141797,1762.019645
59493.052906,0.000000,-5403.503377,0.000000
59493.053216,-1776.494261,-7254.018232,383.047749
59493.053526,-592.164754,-10066.800811,919.314598
59493.053836,1406.391290,-9474.636058,919.314598
59493.054146,-222.061783,-9252.574275,229.828649
59493.054456,-370.102971,-11843.295072,1072.533697
59493.054765,-666.185348,-11843.295072,919.314598
59493.055075,-74.020594,-10658.965565,-76.609550
59493.055385,1776.494261,-8364.327145,2451.505594
59493.055695,3478.967927,-8882.471304,3600.648841
59493.056005,0.000000,-5995.668130,0.000000
59493.056315,814.226536,-7698.141797,1762.019645
59493.056624,518.144159,-8660.409521,689.485948
59493.056934,-814.226536,-8734.430116,229.828649
59493.057244,-2442.679609,-9178.553681,-995.924147
59493.057554,-2664.741391,-10732.986159,-919.314598
59493.057864,-3108.864956,-12953.603985,0.000000
59493.058173,-74.020594,-13027.624579,-76.609550
59493.058483,0.000000,-7179.997637,612.876398
59493.058793,3108.864956,-9400.615463,6052.154434
59493.059103,1406.391290,-6661.853478,383.047749
59493.059413,-74.020594,-7105.977043,1762.019645
59493.059723,0.000000,-9622.677246,1762.019645
59493.060032,2442.679609,-6587.832884,1532.190996
59493.060342,74.020594,-9696.697840,1072.533697
59493.060652,-2960.823768,-9548.656652,0.000000
59493.060962,-4737.318029,-10140.821405,0.000000
59493.061272,888.247130,-12731.542202,2834.553343
59493.061582,1110.308913,-7105.977043,995.924147
59493.061891,0.000000,-8364.327145,1225.752797
59493.062201,1110.308913,-7105.977043,1149.143247
59493.062511,-74.020594,-10362.883188,2374.896044
59493.062821,1850.514855,-8142.265362,1378.971896
59493.063131,-518.144159,-8956.491898,995.924147
59493.063441,-1998.556043,-8512.368333,-459.657299
59493.063750,-4737.318029,-9548.656652,0.000000
59493.064060,-3552.988522,-9548.656652,0.000000
59493.064370,1776.494261,-10881.027347,3370.820191
59493.064680,2294.638420,-8290.306550,2374.896044
59493.064990,0.000000,-7179.997637,0.000000
59493.065299,-74.020594,-9474.636058,2068.457845
59493.065609,-74.020594,-10955.047942,1762.019645
59493.065919,814.226536,-9400.615463,1149.143247
59493.066229,1036.288319,-7772.162391,1532.190996
59493.066539,0.000000,-9548.656652,306.438199
59493.066849,-4737.318029,-7179.997637,-2451.505594
59493.067158,-5921.647536,-8364.327145,-3217.601092
59493.067468,0.000000,-9548.656652,612.876398
59493.067778,1110.308913,-9474.636058,2068.457845
59493.068088,-1406.391290,-5995.668130,-2451.505594
59493.068398,-666.185348,-9474.636058,-76.609550
59493.068708,296.082377,-10362.883188,1455.581446
59493.069017,2294.638420,-8956.491898,1838.629195
59493.069327,518.144159,-8290.306550,383.047749
59493.069637,-1110.308913,-9474.636058,-689.485948
59493.069947,-4367.215058,-7476.080014,-3140.991542
59493.070257,-4145.153275,-9548.656652,-689.485948
59493.070567,0.000000,-8364.327145,612.876398
59493.070876,3775.050304,-9474.636058,4213.525239
59493.071186,0.000000,-5995.668130,0.000000
59493.071496,-74.020594,-9474.636058,2374.896044
59493.071806,592.164754,-8956.491898,1225.752797
59493.072116,2516.700203,-8216.285956,1685.410096
59493.072426,74.020594,-8364.327145,459.657299
59493.072735,-1554.432478,-9770.718434,-1225.752797
59493.073045,-4811.338623,-10658.965565,-2528.115143
59493.073355,-3627.009116,-10658.965565,-1302.362347
59493.073665,0.000000,-8364.327145,612.876398
59493.073975,1406.391290,-8882.471304,2374.896044
59493.074284,0.000000,-6587.832884,0.000000
59493.074594,1480.411884,-10436.903782,5056.230287
59493.074904,1184.329507,-8364.327145,2757.943793
59493.075214,3404.947333,-7624.121203,3140.991542
59493.075524,1776.494261,-7772.162391,1991.848295
59493.075834,0.000000,-9252.574275,306.438199
59493.076143,-1258.350101,-9474.636058,-76.609550
59493.076453,-74.020594,-13027.624579,-76.609550
59493.076763,0.000000,-7179.997637,0.000000
59493.077073,740.205942,-10436.903782,2374.896044
59493.077383,-2072.576638,-7179.997637,-3140.991542
59493.077693,-2960.823768,-10140.821405,2451.505594
59493.078002,-1776.494261,-8364.327145,0.000000
59493.078312,592.164754,-8734.430116,1991.848295
59493.078622,148.041188,-8438.347739,1302.362347
59493.078932,-1332.370696,-8882.471304,383.047749
59493.079242,-74.020594,-10658.965565,2374.896044
59493.079552,2886.803174,-11843.295072,3600.648841
59493.079861,1110.308913,-7105.977043,1762.019645
59493.080171,0.000000,-8068.244768,1532.190996
59493.080481,-74.020594,-7179.997637,-1302.362347
59493.080791,-2368.659014,-7772.162391,0.000000
59493.081101,444.123565,-8808.450710,919.314598
59493.081410,740.205942,-8438.347739,1149.143247
59493.081720,-444.123565,-10436.903782,76.609550
59493.082030,-3034.844362,-10140.821405,-1608.800546
59493.082340,-1850.514855,-13027.624579,-76.609550
59493.082650,-74.020594,-13027.624579,2987.772442
59493.082960,-666.185348,-7698.141797,229.828649
59493.083269,0.000000,-8660.409521,1532.190996
59493.083579,-2442.679609,-7698.141797,-76.609550
59493.083889,-4737.318029,-5995.668130,0.000000
59493.084199,518.144159,-7698.141797,536.266849
59493.084509,2368.659014,-7179.997637,1991.848295
59493.084819,2146.597232,-7624.121203,1302.362347
59493.085128,-1036.288319,-9326.594869,306.438199
59493.085438,-222.061783,-11917.315666,919.314598
59493.085748,2590.720797,-12509.480420,3524.039291
59493.086058,-74.020594,-8290.306550,-689.485948
59493.086368,-2368.659014,-9548.656652,0.000000
59493.086678,-74.020594,-11843.295072,2374.896044
59493.086987,-2368.659014,-8364.327145,0.000000
59493.087297,3330.926739,-8882.471304,1455.581446
59493.087607,1480.411884,-7994.224174,1838.629195
59493.087917,-222.061783,-7846.182985,536.266849
59493.088227,-2368.659014,-9104.533087,-612.876398
59493.088536,592.164754,-9844.739029,1838.629195
59493.088846,1776.494261,-8364.327145,3064.381992
59493.089156,3478.967927,-9474.636058,2374.896044
59493.089466,-1628.453072,-7179.997637,0.000000
59493.089776,-666.185348,-11843.295072,-76.609550
59493.090086,-1998.556043,-8512.368333,-2145.067394
59493.090395,2294.638420,-10658.965565,2068.457845
59493.090705,1480.411884,-9252.574275,1685.410096
59493.091015,370.102971,-9844.739029,995.924147
59493.091325,-1036.288319,-8512.368333,383.047749
59493.091635,0.000000,-8660.409521,1532.190996
59493.091945,0.000000,-5995.668130,1225.752797
59493.092254,2294.638420,-9474.636058,3294.210641
59493.092564,-2368.659014,-6587.832884,0.000000
59493.092874,-1554.432478,-11251.130318,-76.609550
59493.093184,-1258.350101,-8586.388927,-1608.800546
59493.093494,222.061783,-8290.306550,229.828649
59493.093804,-592.164754,-9548.656652,306.438199
59493.094113,0.000000,-10214.842000,153.219100
59493.094423,-2146.597232,-9178.553681,0.000000
59493.094733,0.000000,-10732.986159,1225.752797
59493.095043,1184.329507,-7179.997637,3064.381992
59493.095353,2294.638420,-11251.130318,3294.210641
59493.095662,-3108.864956,-7624.121203,0.000000
59493.095972,-2886.803174,-11843.295072,2987.772442
59493.096282,-1258.350101,-6809.894666,0.000000
59493.096592,2294.638420,-6217.729913,1762.019645
59493.096902,0.000000,-7624.121203,1762.019645
59493.097211,-444.123565,-7328.038826,459.657299
59493.097521,-3478.967927,-9326.594869,-383.047749
59493.097831,-2368.659014,-9548.656652,0.000000
59493.098141,-6513.812290,-9548.656652,0.000000
59493.098450,-1258.350101,-11843.295072,-2528.115143
59493.098760,-5921.647536,-9844.739029,-3370.820191
59493.099070,-2368.659014,-10140.821405,0.000000
59493.099380,3478.967927,-9474.636058,536.266849
59493.099689,1776.494261,-7550.100608,3064.381992
59493.099999,3775.050304,-9474.636058,3600.648841
59493.100309,148.041188,-6143.709319,612.876398
59493.100619,0.000000,-8364.327145,1838.629195
59493.100929,2368.659014,-9548.656652,1225.752797
59493.101238,1628.453072,-9474.636058,1915.238745
59493.101548,-2368.659014,-7772.162391,0.000000
59493.101858,-666.185348,-11251.130318,-689.485948
59493.102168,-4737.318029,-9548.656652,-2451.505594
59493.102477,-1776.494261,-8364.327145,-2451.505594
59493.102787,-74.020594,-9474.636058,842.705048
59493.103097,0.000000,-9400.615463,229.828649
59493.103407,-1258.350101,-8882.471304,0.000000
59493.103716,296.082377,-8512.368333,1149.143247
59493.104026,2368.659014,-8364.327145,3064.381992
59493.104336,0.000000,-5995.668130,2451.505594
59493.104646,2294.638420,-9178.553681,1762.019645
59493.104955,-2368.659014,-6587.832884,0.000000
59493.105265,-74.020594,-9030.512492,-76.609550
59493.105575,0.000000,-7179.997637,0.000000
59493.105885,2294.638420,-9474.636058,2068.457845
59493.106194,962.267725,-9178.553681,536.266849
59493.106504,-888.247130,-9104.533087,0.000000
59493.106814,0.000000,-11177.109724,919.314598
59493.107124,0.000000,-9548.656652,0.000000
59493.107433,0.000000,-9548.656652,612.876398
59493.107743,-74.020594,-11843.295072,2374.896044
59493.108053,-3552.988522,-7772.162391,0.000000
59493.108363,-74.020594,-8882.471304,-76.609550
59493.108672,0.000000,-5921.647536,0.000000
59493.108982,-1480.411884,-5995.668130,766.095498
59493.109292,-222.061783,-8216.285956,383.047749
59493.109602,-444.123565,-8512.368333,766.095498
59493.109911,1332.370696,-9844.739029,1838.629195
59493.110221,2368.659014,-9548.656652,1838.629195
59493.110531,0.000000,-9548.656652,1225.752797
59493.110841,-74.020594,-11843.295072,-76.609550
59493.111151,-5625.565159,-10140.821405,-2451.505594
59493.111460,-962.267725,-11103.089130,-689.485948
59493.111770,-1924.535449,-7476.080014,-1838.629195
59493.112080,-74.020594,-9474.636058,1762.019645
59493.112390,0.000000,-7254.018232,1225.752797
59493.112699,0.000000,-7254.018232,2451.505594
59493.113009,2072.576638,-7550.100608,3140.991542
59493.113319,0.000000,-5995.668130,1532.190996
59493.113629,-4737.318029,-5403.503377,0.000000
59493.113938,-3034.844362,-11103.089130,-76.609550
59493.114248,-5995.668130,-9770.718434,-2834.553343
59493.114558,-2442.679609,-13027.624579,-76.609550
59493.114868,-1258.350101,-8290.306550,-1455.581446
59493.115177,-74.020594,-10066.800811,1149.143247
59493.115487,444.123565,-8734.430116,1378.971896
59493.115797,814.226536,-9696.697840,2298.286494
59493.116107,3701.029710,-9474.636058,3064.381992
59493.116416,0.000000,-6291.750507,612.876398
59493.116726,-3552.988522,-4811.338623,0.000000
59493.117036,-74.020594,-9474.636058,1149.143247
59493.117346,-4145.153275,-8438.347739,-2068.457845
59493.117655,-74.020594,-12731.542202,2374.896044
59493.117965,-74.020594,-9474.636058,-76.609550
59493.118275,888.247130,-9252.574275,1302.362347
59493.118585,-1998.556043,-7179.997637,0.000000
59493.118894,0.000000,-9844.739029,1302.362347
59493.119204,1702.473667,-10066.800811,1685.410096
59493.119514,-1998.556043,-7994.224174,0.000000
59493.119824,-2368.659014,-7179.997637,-2451.505594
59493.120133,-2368.659014,-8660.409521,306.438199
59493.120443,-666.185348,-10362.883188,-76.609550
59493.120753,0.000000,-8364.327145,2451.505594
59493.121063,2886.803174,-9474.636058,3294.210641
59493.121373,1332.370696,-8512.368333,1991.848295
59493.121682,1776.494261,-8734.430116,1532.190996
59493.121992,2516.700203,-9474.636058,2145.067394
59493.122302,2886.803174,-9696.697840,2068.457845
59493.122612,518.144159,-7846.182985,-76.609550
59493.122921,-666.185348,-9474.636058,-1302.362347
59493.123231,-5625.565159,-9548.656652,-1838.629195
59493.123541,-1850.514855,-13027.624579,-76.609550
59493.123851,-3256.906145,-7179.997637,-2145.067394
59493.124160,1406.391290,-10658.965565,3600.648841
59493.124470,0.000000,-8364.327145,1532.190996
59493.124780,222.061783,-7698.141797,2221.676944
59493.125090,1850.514855,-7402.059420,2681.334243
59493.125399,3478.967927,-7105.977043,2911.162892
59493.125709,3478.967927,-8290.306550,2987.772442
59493.126019,2294.638420,-9474.636058,-76.609550
59493.126329,-3552.988522,-8364.327145,-1838.629195
59493.126638,-1110.308913,-12657.521608,-76.609550
59493.126948,-2442.679609,-8290.306550,-2834.553343
59493.127258,-2368.659014,-11473.192101,1225.752797
59493.127568,-2368.659014,-8660.409521,-1225.752797
59493.127877,-2368.659014,-9844.739029,612.876398
59493.128187,888.247130,-9548.656652,1608.800546
59493.128497,2368.659014,-7698.141797,2604.724693
59493.128807,3478.967927,-9178.553681,3753.867940
59493.129116,-74.020594,-9474.636058,-76.609550
59493.129426,-4737.318029,-6291.750507,-1225.752797
59493.129736,-296.082377,-10140.821405,2374.896044
59493.130046,-4367.215058,-4811.338623,-2145.067394
59493.130355,-4441.235652,-10140.821405,1532.190996
59493.130665,-2220.617826,-7254.018232,-1149.143247
59493.130975,-1924.535449,-11029.068536,995.924147
59493.131285,1406.391290,-9178.553681,1762.019645
59493.131595,-592.164754,-8586.388927,1762.019645
59493.131904,-74.020594,-9474.636058,1455.581446
59493.132214,-74.020594,-11843.295072,1762.019645
59493.132524,-4811.338623,-9474.636058,-1302.362347
59493.132834,-1184.329507,-9548.656652,612.876398
59493.133143,2294.638420,-9474.636058,-76.609550
59493.133453,0.000000,-5995.668130,1225.752797
59493.133763,-962.267725,-7624.121203,612.876398
59493.134073,74.020594,-8142.265362,1685.410096
59493.134382,4959.379811,-9622.677246,2987.772442
59493.134692,4145.153275,-7624.121203,3217.601092
59493.135002,1554.432478,-10584.944971,1225.752797
59493.135312,-1776.494261,-11029.068536,306.438199
59493.135621,-2442.679609,-12731.542202,-1302.362347
59493.135931,-2368.659014,-10732.986159,-2451.505594
59493.136241,-74.020594,-12435.459826,1762.019645
59493.136551,-2960.823768,-7179.997637,0.000000
59493.136860,-814.226536,-9178.553681,229.828649
59493.137170,1184.329507,-8956.491898,2451.505594
59493.137480,5107.421000,-7476.080014,4519.963438
59493.137790,4737.318029,-5033.400406,4136.915689
59493.138099,2368.659014,-6587.832884,2451.505594
59493.138409,-2368.659014,-9548.656652,0.000000
59493.138719,-1554.432478,-12731.542202,-76.609550
59493.139029,-2960.823768,-9548.656652,-4903.011187
59493.139338,-1184.329507,-10732.986159,612.876398
59493.139648,-2738.761985,-8512.368333,-1762.019645
59493.139958,-74.020594,-10658.965565,-76.609550
59493.140268,592.164754,-10732.986159,1762.019645
59493.140577,2442.679609,-8290.306550,2757.943793
59493.140887,888.247130,-7254.018232,2681.334243
59493.141197,0.000000,-6143.709319,766.095498
59493.141507,-3552.988522,-7179.997637,0.000000
59493.141817,-74.020594,-11547.212695,1762.019645
59493.142126,-962.267725,-6587.832884,-3370.820191
59493.142436,-296.082377,-9400.615463,2604.724693
59493.142746,-2146.597232,-6809.894666,-1838.629195
59493.143056,-2146.597232,-10510.924376,536.266849
59493.143365,74.020594,-10214.842000,1225.752797
59493.143675,3108.864956,-8882.471304,2528.115143
59493.143985,1850.514855,-8808.450710,1915.238745
59493.144295,-3256.906145,-7772.162391,-1225.752797
59493.144604,-7105.977043,-8364.327145,-2451.505594
59493.144914,-1554.432478,-13027.624579,-76.609550
59493.145224,-962.267725,-7772.162391,-3217.601092
59493.145534,-888.247130,-10732.986159,2298.286494
59493.145843,-1258.350101,-8808.450710,-1455.581446
59493.146153,-1628.453072,-9548.656652,2145.067394
59493.146463,3182.885551,-8882.471304,3907.087040
59493.146773,4145.153275,-5773.606348,3907.087040
59493.147082,1776.494261,-6513.812290,2681.334243
59493.147392,-1850.514855,-7994.224174,-229.828649
59493.147702,-5625.565159,-8364.327145,-2757.943793
59493.148012,-4441.235652,-11917.315666,-1225.752797
59493.148321,-2442.679609,-11843.295072,-76.609550
59493.148631,-6513.812290,-9548.656652,-2451.505594
59493.148941,-666.185348,-10658.965565,-689.485948
59493.149251,-2220.617826,-8512.368333,1225.752797
59493.149560,3330.926739,-7846.182985,3600.648841
59493.149870,5255.462188,-5921.647536,4673.182538
59493.150180,4293.194464,-6883.915261,3830.477490
59493.150490,1702.473667,-8586.388927,2374.896044
59493.150799,-1998.556043,-9178.553681,-1302.362347
59493.151109,-2368.659014,-10140.821405,0.000000
59493.151419,-74.020594,-13027.624579,-76.609550
59493.151729,-3478.967927,-8068.244768,-2604.724693
59493.152039,-74.020594,-10658.965565,-76.609550
59493.152348,-888.247130,-9548.656652,1838.629195
59493.152658,3552.988522,-8512.368333,2681.334243
59493.152968,4145.153275,-6809.894666,3370.820191
59493.153278,2812.782580,-7920.203579,2911.162892
59493.153587,2294.638420,-8882.471304,1762.019645
59493.153897,-2738.761985,-8882.471304,-1608.800546
59493.154207,-3256.906145,-9548.656652,-1838.629195
59493.154517,-1258.350101,-11843.295072,-76.609550
59493.154826,-4737.318029,-8512.368333,-2451.505594
59493.155136,-74.020594,-10066.800811,-76.609550
59493.155446,0.000000,-9104.533087,1455.581446
59493.155756,4293.194464,-8216.285956,3294.210641
59493.156065,3627.009116,-7179.997637,3524.039291
59493.156375,1702.473667,-7920.203579,1991.848295
59493.156685,-74.020594,-9474.636058,1072.533697
59493.156995,-2442.679609,-12731.542202,-689.485948
59493.157304,-3552.988522,-8660.409521,-2451.505594
59493.157614,-1258.350101,-11843.295072,2374.896044
59493.157924,-666.185348,-9178.553681,-1302.362347
59493.158234,-1776.494261,-10584.944971,2221.676944
59493.158543,370.102971,-7994.224174,1762.019645
59493.158853,3997.112087,-7994.224174,3677.258390
59493.159163,3108.864956,-6439.791695,3447.429741
59493.159473,518.144159,-8808.450710,1455.581446
59493.159782,-1554.432478,-10658.965565,612.876398
59493.160092,-1258.350101,-13619.789333,-76.609550
59493.160402,-2516.700203,-9918.759623,-2221.676944
59493.160712,-2368.659014,-11029.068536,1225.752797
59493.161021,-1258.350101,-10658.965565,-1302.362347
59493.161331,-3256.906145,-9844.739029,2145.067394
59493.161641,814.226536,-9178.553681,2068.457845
59493.161951,3849.070898,-6883.915261,3983.696590
59493.162261,3552.988522,-6365.771101,4673.182538
59493.162570,1850.514855,-6513.812290,2451.505594
59493.162880,-1184.329507,-8364.327145,0.000000
59493.163190,-1628.453072,-12139.377449,-76.609550
59493.163500,-4219.173869,-9622.677246,-2528.115143
59493.163809,-5921.647536,-9548.656652,0.000000
59493.164119,-1406.391290,-12435.459826,-76.609550
59493.164429,-3552.988522,-9548.656652,1225.752797
59493.164739,2294.638420,-9474.636058,2604.724693
59493.165048,4441.235652,-7179.997637,4290.134789
59493.165358,3478.967927,-7105.977043,3907.087040
59493.165668,1184.329507,-7254.018232,2145.067394
59493.165978,-2368.659014,-7772.162391,0.000000
59493.166287,-1184.329507,-10732.986159,1225.752797
59493.166597,-74.020594,-10066.800811,-842.705048
59493.166907,-1036.288319,-10140.821405,1072.533697
59493.167217,-2442.679609,-8734.430116,-1149.143247
59493.167526,-1184.329507,-9918.759623,2374.896044
59493.167836,2886.803174,-8290.306550,2374.896044
59493.168146,3330.926739,-6661.853478,3677.258390
59493.168456,2960.823768,-7476.080014,3064.381992
59493.168765,148.041188,-8290.306550,766.095498
59493.169075,-2072.576638,-10732.986159,0.000000
59493.169385,-74.020594,-13619.789333,-76.609550
59493.169695,-2886.803174,-9326.594869,-2145.067394
59493.170004,-2442.679609,-13027.624579,-76.609550
59493.170314,-2442.679609,-9474.636058,-1915.238745
59493.170624,-2368.659014,-8660.409521,1532.190996
59493.170934,3478.967927,-9326.594869,3370.820191
59493.171243,3849.070898,-6957.935855,4290.134789
59493.171553,2886.803174,-6365.771101,3140.991542
59493.171863,962.267725,-7179.997637,1685.410096
59493.172173,-1184.329507,-8364.327145,0.000000
59493.172483,-1184.329507,-10140.821405,612.876398
59493.172792,-2442.679609,-9474.636058,-1302.362347
59493.173102,-4145.153275,-11325.150913,0.000000
59493.173412,-2442.679609,-11843.295072,-1302.362347
59493.173722,-4293.194464,-9548.656652,0.000000
59493.174031,1554.432478,-8882.471304,1915.238745
59493.174341,2812.782580,-6809.894666,2834.553343
59493.174651,2886.803174,-7254.018232,2681.334243
59493.174961,740.205942,-7031.956449,1685.410096
59493.175270,-2368.659014,-7179.997637,0.000000
59493.175580,0.000000,-9548.656652,0.000000
59493.175890,-1258.350101,-10658.965565,-76.609550
59493.176200,-7105.977043,-7772.162391,-4290.134789
59493.176509,-2664.741391,-11843.295072,-76.609550
59493.176819,-1628.453072,-8956.491898,0.000000
59493.177129,3478.967927,-8586.388927,3600.648841
59493.177439,3256.906145,-7254.018232,4290.134789
59493.177748,2886.803174,-6513.812290,3064.381992
59493.178058,296.082377,-7254.018232,1762.019645
59493.178368,-1628.453072,-7476.080014,0.000000
59493.178678,-3256.906145,-9548.656652,0.000000
59493.178987,-2590.720797,-11547.212695,-76.609550
59493.179297,-7105.977043,-8364.327145,-4903.011187
59493.179607,-2442.679609,-11843.295072,-689.485948
59493.179917,-1776.494261,-7328.038826,0.000000
59493.180226,2590.720797,-8364.327145,3064.381992
59493.180536,2664.741391,-7550.100608,3140.991542
59493.180846,2294.638420,-7105.977043,2451.505594
59493.181156,666.185348,-9104.533087,1991.848295
59493.181465,0.000000,-8586.388927,1149.143247
59493.181775,-2146.597232,-8364.327145,0.000000
59493.182085,-592.164754,-10288.862594,1762.019645
59493.182395,-4515.256246,-7179.997637,-2451.505594
59493.182705,-2368.659014,-10140.821405,1225.752797
59493.183014,962.267725,-8882.471304,306.438199
59493.183324,2368.659014,-7328.038826,2911.162892
59493.183634,1850.514855,-7920.203579,2604.724693
59493.183944,814.226536,-7105.977043,1608.800546
59493.184253,-1406.391290,-8586.388927,536.266849
59493.184563,-370.102971,-9474.636058,-76.609550
59493.184873,-2442.679609,-8068.244768,-2221.676944
59493.185183,-2960.823768,-11029.068536,842.705048
59493.185492,-4737.318029,-8364.327145,-3064.381992
59493.185802,-1184.329507,-11621.233289,1991.848295
59493.186112,2294.638420,-9474.636058,1455.581446
59493.186422,2368.659014,-6365.771101,2911.162892
59493.186731,2960.823768,-6883.915261,3677.258390
59493.187041,1998.556043,-6883.915261,1915.238745
59493.187351,-296.082377,-9326.594869,2374.896044
59493.187661,-74.020594,-11843.295072,1762.019645
59493.187970,-3034.844362,-9178.553681,-2068.457845
59493.188280,-4737.318029,-10732.986159,-2451.505594
59493.188590,-1258.350101,-11843.295072,-1302.362347
59493.188900,-4663.297435,-9326.594869,-2068.457845
59493.189209,1702.473667,-9474.636058,1149.143247
59493.189519,1776.494261,-7179.997637,2681.334243
59493.189829,3108.864956,-6661.853478,2911.162892
59493.190139,814.226536,-7698.141797,1991.848295
59493.190448,222.061783,-7994.224174,1532.190996
59493.190758,1702.473667,-11843.295072,2374.896044
59493.191068,-1258.350101,-8290.306550,-1608.800546
59493.191378,-4737.318029,-10140.821405,0.000000
59493.191687,-1258.350101,-11251.130318,-1302.362347
59493.191997,-4145.153275,-9548.656652,-1838.629195
59493.192307,3108.864956,-9030.512492,3600.648841
59493.192617,1850.514855,-6217.729913,2451.505594
59493.192927,2590.720797,-7105.977043,2528.115143
59493.193236,1850.514855,-7254.018232,2374.896044
59493.193546,1480.411884,-9252.574275,1838.629195
59493.193856,2664.741391,-10732.986159,2145.067394
59493.194166,-74.020594,-11843.295072,-76.609550
59493.194475,-3330.926739,-10140.821405,-4903.011187
59493.194785,-1258.350101,-14211.954086,-76.609550
59493.195095,-3330.926739,-8956.491898,-1915.238745
59493.195405,1480.411884,-9474.636058,3600.648841
59493.195714,2516.700203,-6365.771101,2528.115143
59493.196024,3256.906145,-6883.915261,2757.943793
59493.196334,888.247130,-7105.977043,2068.457845
59493.196644,-518.144159,-8956.491898,0.000000
59493.196953,0.000000,-9548.656652,612.876398
59493.197263,-148.041188,-10955.047942,842.705048
59493.197573,-3034.844362,-8956.491898,-3447.429741
59493.197883,-2368.659014,-11473.192101,1838.629195
59493.198192,-74.020594,-9474.636058,1149.143247
59493.198502,2368.659014,-9178.553681,4596.572988
59493.198812,2294.638420,-7476.080014,2911.162892
59493.199122,1480.411884,-7772.162391,2451.505594
59493.199431,-518.144159,-8586.388927,1455.581446
59493.199741,1258.350101,-8956.491898,153.219100
59493.200051,296.082377,-8068.244768,0.000000
59493.200361,-74.020594,-11251.130318,1455.581446
59493.200671,-3775.050304,-10066.800811,-2528.115143
59493.200980,-4367.215058,-11843.295072,1149.143247
59493.201290,-1258.350101,-10362.883188,-76.609550
59493.201600,1110.308913,-9178.553681,2987.772442
59493.201910,2294.638420,-9474.636058,4826.401637
59493.202219,1258.350101,-6957.935855,2145.067394
59493.202529,0.000000,-7772.162391,1838.629195
59493.202839,592.164754,-9918.759623,1455.581446
59493.203149,0.000000,-8660.409521,612.876398
59493.203459,-666.185348,-12731.542202,-76.609550
59493.203768,-4663.297435,-9622.677246,-3600.648841
59493.204078,-4219.173869,-14211.954086,-76.609550
59493.204388,-666.185348,-9474.636058,-383.047749
59493.204698,1184.329507,-7179.997637,3064.381992
59493.205007,1998.556043,-7105.977043,2374.896044
59493.205317,296.082377,-7476.080014,1455.581446
59493.205627,-592.164754,-9326.594869,1532.190996
59493.205937,1258.350101,-10510.924376,1685.410096
59493.206247,296.082377,-9548.656652,0.000000
59493.206556,-296.082377,-11029.068536,842.705048
59493.206866,-3923.091493,-8882.471304,-1915.238745
59493.207176,-3552.988522,-11621.233289,1532.190996
59493.207486,-74.020594,-9474.636058,-76.609550
59493.207795,0.000000,-7772.162391,1838.629195
59493.208105,518.144159,-8290.306550,2221.676944
59493.208415,-2368.659014,-7179.997637,76.609550
59493.208725,-3775.050304,-9400.615463,-229.828649
59493.209035,-1998.556043,-9844.739029,229.828649
59493.209344,-3552.988522,-8364.327145,0.000000
59493.209654,-4737.318029,-9548.656652,0.000000
59493.209964,-4811.338623,-11251.130318,-76.609550
59493.210274,-7105.977043,-9548.656652,0.000000
59493.210583,-888.247130,-11473.192101,4596.572988
59493.210893,-888.247130,-5107.421000,2757.943793
59493.211203,-370.102971,-7402.059420,3294.210641
59493.211513,-2220.617826,-7476.080014,2374.896044
59493.211823,-5477.523971,-8438.347739,229.828649
59493.212132,-6883.915261,-11177.109724,-383.047749
59493.212442,-7624.121203,-8660.409521,-1455.581446
59493.212752,-7105.977043,-9548.656652,0.000000
59493.213062,-5403.503377,-11251.130318,-76.609550
59493.213371,-11251.130318,-5995.668130,0.000000
59493.213681,-5403.503377,-11251.130318,2374.896044
59493.213991,-6513.812290,-7179.997637,1225.752797
59493.214301,-2072.576638,-6661.853478,3753.867940
59493.214611,-1850.514855,-6439.791695,3677.258390
59493.214920,-2368.659014,-6291.750507,3447.429741
59493.215230,-3108.864956,-7031.956449,1762.019645
59493.215540,-5329.482782,-9030.512492,-76.609550
59493.215850,-7105.977043,-8364.327145,-1838.629195
59493.216159,-4589.276840,-10214.842000,-76.609550
59493.216469,-4811.338623,-11547.212695,-1915.238745
59493.216779,-9474.636058,-10140.821405,-2451.505594
59493.217089,-9548.656652,-11843.295072,-2451.505594
59493.217399,-8290.306550,-12361.439231,536.266849
59493.217708,-4885.359217,-8882.471304,2451.505594
59493.218018,-592.164754,-5773.606348,4903.011187
59493.218328,2368.659014,-4145.153275,6665.030833
59493.218638,1998.556043,-2368.659014,4826.401637
59493.218947,-2072.576638,-4811.338623,1225.752797
59493.219257,-2516.700203,-9400.615463,2604.724693
59493.219567,-4811.338623,-7698.141797,-3140.991542
59493.219877,-8290.306550,-8660.409521,-4596.572988
59493.220187,-4811.338623,-10362.883188,-4903.011187
59493.220496,-4737.318029,-11029.068536,-2604.724693
59493.220806,-6439.791695,-13027.624579,-2987.772442
59493.221116,-6069.688724,-14285.974681,-2298.286494
59493.221426,-4145.153275,-13767.830521,-76.609550
59493.221735,-1258.350101,-11843.295072,3600.648841
59493.222045,0.000000,-5995.668130,2911.162892
59493.222355,2368.659014,-4811.338623,7967.393179
59493.222665,6439.791695,-2368.659014,5745.716235
59493.222975,4737.318029,-1258.350101,4903.011187
59493.223284,1702.473667,-6513.812290,1455.581446
59493.223594,-4367.215058,-8660.409521,-1378.971896
59493.223904,-4811.338623,-10732.986159,-3600.648841
59493.224214,-7105.977043,-11843.295072,-5362.668486
59493.224523,-9696.697840,-13249.686362,-4979.620737
59493.224833,-5995.668130,-14211.954086,-1915.238745
59493.225143,-1258.350101,-11547.212695,-1915.238745
59493.225453,-1776.494261,-10140.821405,0.000000
59493.225763,-1776.494261,-13841.851115,4290.134789
59493.226072,-1258.350101,-9178.553681,2987.772442
59493.226382,3478.967927,-6513.812290,3600.648841
59493.226692,2368.659014,-3034.844362,5592.497135
59493.227002,-2368.659014,-4737.318029,4136.915689
59493.227311,-2738.761985,-5181.441594,2068.457845
59493.227621,370.102971,-6439.791695,2834.553343
59493.227931,2294.638420,-8290.306550,3600.648841
59493.228241,-3627.009116,-9474.636058,-1302.362347
59493.228551,-11547.212695,-11917.315666,-7354.516781
59493.228860,-7179.997637,-16580.613101,-2528.115143
59493.229170,-5995.668130,-14211.954086,-4060.306139
59493.229480,-4959.379811,-12731.542202,-1608.800546
59493.229790,-6809.894666,-11177.109724,459.657299
59493.230099,-2960.823768,-8364.327145,2298.286494
59493.230409,1184.329507,-6217.729913,5592.497135
59493.230719,5181.441594,-3627.009116,8580.269578
59493.231029,6217.729913,-2146.597232,9193.145976
59493.231338,1702.473667,-4737.318029,4826.401637
59493.231648,-7624.121203,-7179.997637,-4596.572988
59493.231958,-6587.832884,-14211.954086,-689.485948
59493.232268,-8364.327145,-14063.912898,-4366.744339
59493.232578,-9178.553681,-13027.624579,-3753.867940
59493.232887,-11843.295072,-12139.377449,-4596.572988
59493.233197,-10140.821405,-13397.727550,-2834.553343
59493.233507,-5625.565159,-12361.439231,1991.848295
59493.233817,-1258.350101,-6291.750507,3064.381992
59493.234126,592.164754,-3627.009116,7354.516781
59493.234436,4959.379811,-2960.823768,8197.221829
59493.234746,5699.585753,-1184.329507,6052.154434
59493.235056,2368.659014,-5995.668130,6128.763984
59493.235366,-2442.679609,-9474.636058,1762.019645
59493.235675,-9474.636058,-13619.789333,-2528.115143
59493.235985,-9252.574275,-15100.201217,-5592.497135
59493.236295,-9326.594869,-13027.624579,-5056.230287
59493.236605,-9400.615463,-11325.150913,-4903.011187
59493.236914,-9104.533087,-12361.439231,-4596.572988
59493.237224,-7105.977043,-11917.315666,0.000000
59493.237534,-2146.597232,-13841.851115,3600.648841
59493.237844,-74.020594,-11843.295072,6052.154434
59493.238154,0.000000,-1258.350101,4903.011187
59493.238463,4737.318029,-962.267725,9806.022374
59493.238773,7105.977043,1184.329507,9269.755526
59493.239083,6069.688724,962.267725,6665.030833
59493.239393,2368.659014,-4441.235652,2145.067394
59493.239702,-3478.967927,-10510.924376,-3753.867940
59493.240012,-10584.944971,-16654.633695,-8273.831378
59493.240322,-16432.571912,-20207.622217,-9806.022374
59493.240632,-15248.242405,-21688.034101,-7354.516781
59493.240942,-9844.739029,-17764.942608,-5592.497135
59493.241251,-8882.471304,-9548.656652,-4290.134789
59493.241561,-888.247130,-8068.244768,3294.210641
59493.241871,3108.864956,-4219.173869,6435.202183
59493.242181,7698.141797,-1998.556043,9576.193725
59493.242490,8068.244768,74.020594,9652.803275
59493.242800,6587.832884,-1110.308913,8963.317327
59493.243110,2738.761985,-2442.679609,5132.839837
59493.243420,-3478.967927,-5403.503377,0.000000
59493.243730,-8290.306550,-11029.068536,-2451.505594
59493.244039,-10732.986159,-18949.272115,-3753.867940
59493.244349,-15988.448347,-16654.633695,-9193.145976
59493.244659,-13323.706956,-19319.375086,-4979.620737
59493.244969,-10732.986159,-14878.139434,-4903.011187
59493.245278,-5107.421000,-11251.130318,-76.609550
59493.245588,296.082377,-5921.647536,3830.477490
59493.245898,4441.235652,-2590.720797,4749.792088
59493.246208,5329.482782,-592.164754,8197.221829
59493.246518,6735.874072,2294.638420,5286.058936
59493.246827,3552.988522,-1258.350101,4903.011187
59493.247137,4071.132681,-7105.977043,6665.030833
59493.247447,-4737.318029,-7179.997637,0.000000
59493.247757,-6957.935855,-12805.562797,-1378.971896
59493.248066,-10658.965565,-13101.645173,-7354.516781
59493.248376,-12213.398043,-18949.272115,-7431.126331
59493.248686,-10658.965565,-18357.107362,-6741.640382
59493.248996,-8142.265362,-19763.498651,-2757.943793
59493.249306,-3849.070898,-14211.954086,1762.019645
59493.249615,-74.020594,-7698.141797,3600.648841
59493.249925,1776.494261,-1258.350101,6128.763984
59493.250235,6439.791695,-3552.988522,12180.918418
59493.250545,2738.761985,4367.215058,4290.134789
59493.250854,2368.659014,-74.020594,7354.516781
59493.251164,74.020594,-3627.009116,3983.696590
59493.251474,-3108.864956,-8290.306550,2068.457845
59493.251784,-6291.750507,-9844.739029,-1685.410096
59493.252094,-7772.162391,-15026.180623,-3447.429741
59493.252403,-9400.615463,-18949.272115,-3753.867940
59493.252713,-7179.997637,-18949.272115,-2528.115143
59493.253023,-5847.626942,-15692.365970,-1915.238745
59493.253333,-2368.659014,-13101.645173,3677.258390
59493.253642,4663.297435,-8290.306550,4826.401637
59493.253952,5921.647536,-4811.338623,7354.516781
59493.254262,8734.430116,-666.185348,9806.022374
59493.254572,9252.574275,-518.144159,10418.898773
59493.254882,7476.080014,-2220.617826,10725.336972
59493.255191,5181.441594,-3627.009116,7124.688131
59493.255501,2294.638420,-10658.965565,6665.030833
59493.255811,-2442.679609,-13027.624579,4213.525239
59493.256121,-6587.832884,-13027.624579,-2068.457845
59493.256430,-8290.306550,-15470.304188,0.000000
59493.256740,-2442.679609,-18949.272115,-76.609550
59493.257050,-4589.276840,-12805.562797,0.000000
59493.257360,-1258.350101,-11251.130318,3600.648841
59493.257670,2368.659014,-6587.832884,5592.497135
59493.257979,4737.318029,-5699.585753,8580.269578
59493.258289,6513.812290,-3775.050304,11644.651570
59493.258599,8216.285956,-1850.514855,10725.336972
59493.258909,7624.121203,-4737.318029,12180.918418
59493.259218,5847.626942,-1776.494261,8503.660028
59493.259528,0.000000,-3627.009116,6128.763984
59493.259838,2294.638420,-12435.459826,8197.221829
59493.260148,-2146.597232,-11621.233289,2374.896044
59493.260458,-3627.009116,-16580.613101,3447.429741
59493.260767,-7402.059420,-18579.169144,2451.505594
59493.261077,-9400.615463,-17468.860231,2451.505594
59493.261387,-6809.894666,-13619.789333,4519.963438
59493.261697,0.000000,-5403.503377,8580.269578
59493.262006,6513.812290,-3182.885551,13636.499864
59493.262316,8216.285956,0.000000,15858.176809
59493.262626,1776.494261,2294.638420,10418.898773
59493.262936,6439.791695,-3552.988522,13406.671215
59493.263245,1110.308913,-2516.700203,7890.783629
59493.263555,-1258.350101,-7105.977043,7124.688131
59493.263865,-5329.482782,-8734.430116,3753.867940
59493.264175,-4515.256246,-10658.965565,2451.505594
59493.264485,-2590.720797,-12879.583391,2451.505594
59493.264794,-4737.318029,-13693.809927,1532.190996
59493.265104,-5921.647536,-17246.798449,3677.258390
59493.265414,-5403.503377,-18653.189738,4826.401637
59493.265724,-4959.379811,-10732.986159,1838.629195
59493.266033,296.082377,-7772.162391,8120.612279
59493.266343,4071.132681,-2368.659014,9729.412825
59493.266653,5847.626942,0.000000,9729.412825
59493.266963,4959.379811,888.247130,7814.174080
59493.267273,3775.050304,-740.205942,5975.544884
59493.267582,1628.453072,-4811.338623,4903.011187
59493.267892,-2368.659014,-9548.656652,1225.752797
59493.268202,-4737.318029,-13101.645173,612.876398
59493.268512,-7698.141797,-17987.004391,-919.314598
59493.268821,-9548.656652,-21317.931130,-3753.867940
59493.269131,-9474.636058,-14285.974681,-4596.572988
59493.269441,-3256.906145,-13619.789333,-76.609550
59493.269751,518.144159,-11547.212695,3140.991542
59493.270061,2294.638420,-6217.729913,2834.553343
59493.270370,4885.359217,-5773.606348,5362.668486
59493.270680,7550.100608,-4071.132681,5975.544884
59493.270990,5033.400406,-1258.350101,2451.505594
59493.271300,0.000000,-3627.009116,2451.505594
59493.271609,0.000000,-7476.080014,2451.505594
59493.271919,-74.020594,-9474.636058,-76.609550
59493.272229,-2368.659014,-10732.986159,0.000000
59493.272539,-2442.679609,-14211.954086,-76.609550
59493.272849,-5921.647536,-14285.974681,-1838.629195
59493.273158,-3108.864956,-14656.077652,-2604.724693
59493.273468,-962.267725,-12657.521608,-1455.581446
59493.273778,592.164754,-11029.068536,0.000000
59493.274088,518.144159,-9474.636058,-76.609550
59493.274397,0.000000,-4811.338623,0.000000
59493.274707,4737.318029,-3627.009116,1225.752797
59493.275017,7476.080014,-5625.565159,6894.859482
59493.275327,2294.638420,-2664.741391,2145.067394
59493.275637,2294.638420,-7402.059420,4519.963438
59493.275946,1184.329507,-7179.997637,1225.752797
59493.276256,962.267725,-10658.965565,383.047749
59493.276566,-3552.988522,-14285.974681,0.000000
59493.276876,-5477.523971,-15988.448347,-383.047749
59493.277185,-1258.350101,-12731.542202,-1915.238745
59493.277495,-1850.514855,-10510.924376,-1302.362347
59493.277805,-1776.494261,-4811.338623,0.000000
59493.278115,4515.256246,-7402.059420,6205.373534
59493.278425,2442.679609,-3627.009116,3370.820191
59493.278734,2368.659014,-7179.997637,7354.516781
59493.279044,-1776.494261,-7920.203579,4903.011187
59493.279354,74.020594,-9178.553681,5056.230287
59493.279664,0.000000,-8142.265362,4596.572988
59493.279973,-1776.494261,-8290.306550,4060.306139
59493.280283,-74.020594,-9474.636058,4826.401637
59493.280593,1702.473667,-9474.636058,4826.401637
59493.280903,-1998.556043,-8660.409521,612.876398
59493.281213,-3552.988522,-12213.398043,3677.258390
59493.281522,-2442.679609,-13915.871710,4213.525239
59493.281832,-2368.659014,-8364.327145,4903.011187
59493.282142,74.020594,-5551.544565,5515.887586
59493.282452,-296.082377,-6291.750507,6358.592633
59493.282761,-888.247130,-7328.038826,6511.811733
59493.283071,1110.308913,-8512.368333,7737.564530
59493.283381,2294.638420,-10658.965565,9729.412825
59493.283691,-74.020594,-9474.636058,7277.907231
59493.284001,-3034.844362,-5403.503377,2451.505594
59493.284310,1110.308913,-10658.965565,8197.221829
59493.284620,-2664.741391,-8734.430116,5286.058936
59493.284930,-3552.988522,-7179.997637,4903.011187
59493.285240,-3034.844362,-7772.162391,3370.820191
59493.285549,-740.205942,-8660.409521,5515.887586
59493.285859,1776.494261,-6439.791695,5592.497135
59493.286169,-222.061783,-6957.935855,5362.668486
59493.286479,-666.185348,-11843.295072,7431.126331
59493.286789,2294.638420,-13027.624579,7277.907231
59493.287098,-370.102971,-11843.295072,4826.401637
59493.287408,-3552.988522,-9844.739029,7354.516781
59493.287718,-74.020594,-9178.553681,7277.907231
59493.288028,-3552.988522,-4811.338623,3064.381992
59493.288337,-74.020594,-5921.647536,5439.278036
59493.288647,-1332.370696,-5699.585753,4290.134789
59493.288957,74.020594,-7846.182985,4673.182538
59493.289267,1184.329507,-6809.894666,3830.477490
59493.289577,0.000000,-9252.574275,5286.058936
59493.289886,1702.473667,-11547.212695,4213.525239
59493.290196,-666.185348,-8290.306550,2374.896044
59493.290506,0.000000,-9548.656652,3677.258390
59493.290816,2294.638420,-10658.965565,4519.963438
59493.291125,-2368.659014,-7476.080014,1915.238745
59493.291435,-74.020594,-11843.295072,4213.525239
59493.291745,74.020594,-10362.883188,3907.087040
59493.292055,518.144159,-9622.677246,4519.963438
59493.292365,814.226536,-7476.080014,4596.572988
59493.292674,0.000000,-5995.668130,3064.381992
59493.292984,2960.823768,-6883.915261,4903.011187
59493.293294,2294.638420,-8882.471304,4826.401637
59493.293604,0.000000,-4811.338623,0.000000
59493.293913,1406.391290,-9474.636058,2145.067394
59493.294223,-2442.679609,-9252.574275,-689.485948
59493.294533,-1258.350101,-11843.295072,-76.609550
59493.294843,-3552.988522,-11177.109724,-689.485948
59493.295153,-1406.391290,-9992.780217,-383.047749
59493.295462,-740.205942,-9030.512492,0.000000
59493.295772,-2368.659014,-7179.997637,0.000000
59493.296082,0.000000,-8364.327145,0.000000
59493.296392,-74.020594,-13619.789333,2374.896044
59493.296701,0.000000,-7179.997637,-1838.629195
59493.297011,592.164754,-10881.027347,1532.190996
59493.297321,-74.020594,-7698.141797,-1302.362347
59493.297631,-74.020594,-7994.224174,-1608.800546
59493.297940,74.020594,-7105.977043,-2068.457845
59493.298250,2146.597232,-6957.935855,-2145.067394
59493.298560,148.041188,-8512.368333,-2298.286494
59493.298870,-3256.906145,-9548.656652,-4903.011187
59493.299179,-3552.988522,-11917.315666,-3677.258390
59493.299489,-1184.329507,-14285.974681,-1225.752797
59493.299799,-74.020594,-14211.954086,-2528.115143
59493.300108,-2960.823768,-11917.315666,-2451.505594
59493.300418,-74.020594,-11843.295072,-1915.238745
59493.300728,-74.020594,-7994.224174,-2834.553343
59493.301037,0.000000,-5329.482782,-1915.238745
59493.301347,1184.329507,-4515.256246,-3140.991542
59493.301657,0.000000,-6661.853478,-3447.429741
59493.301967,0.000000,-9844.739029,-3064.381992
59493.302276,888.247130,-14582.057057,-306.438199
59493.302586,1110.308913,-14211.954086,-689.485948
59493.302896,-2368.659014,-9548.656652,-4519.963438
59493.303205,518.144159,-10881.027347,-1225.752797
59493.303515,-666.185348,-7402.059420,-4366.744339
59493.303825,-74.020594,-11251.130318,-1302.362347
59493.304135,-1258.350101,-10140.821405,-2911.162892
59493.304444,-370.102971,-10066.800811,-2374.896044
59493.304754,-1184.329507,-9326.594869,-2145.067394
59493.305064,-1776.494261,-6587.832884,-2451.505594
59493.305373,0.000000,-5995.668130,0.000000
59493.305683,1998.556043,-8290.306550,2374.896044
59493.305993,1702.473667,-6513.812290,-1915.238745
59493.306302,-2368.659014,-9548.656652,0.000000
59493.306612,-74.020594,-11843.295072,-76.609550
59493.306922,-74.020594,-11843.295072,1149.143247
59493.307232,-74.020594,-9992.780217,842.705048
59493.307541,888.247130,-8216.285956,1762.019645
59493.307851,370.102971,-8512.368333,2681.334243
59493.308161,296.082377,-6291.750507,1225.752797
59493.308470,1184.329507,-5995.668130,3677.258390
59493.308780,3256.906145,-8660.409521,4903.011187
59493.309090,3478.967927,-9474.636058,4213.525239
59493.309400,-3552.988522,-7772.162391,2451.505594
59493.309709,-666.185348,-11843.295072,4213.525239
59493.310019,-1628.453072,-9474.636058,3524.039291
59493.310329,-1258.350101,-8290.306550,2987.772442
59493.310638,-666.185348,-7105.977043,2604.724693
59493.310948,-1332.370696,-8956.491898,3370.820191
59493.311258,-2072.576638,-8364.327145,1915.238745
59493.311567,-3256.906145,-8364.327145,2451.505594
59493.311877,0.000000,-10732.986159,5515.887586
59493.312187,-74.020594,-11251.130318,6052.154434
59493.312497,-2368.659014,-7179.997637,4903.011187
59493.312806,-74.020594,-9474.636058,6665.030833
59493.313116,-888.247130,-6883.915261,5515.887586
59493.313426,370.102971,-6365.771101,4519.963438
59493.313735,-592.164754,-7772.162391,4290.134789
59493.314045,-2294.638420,-9030.512492,3524.039291
59493.314355,-1850.514855,-9178.553681,1762.019645
59493.314665,-3182.885551,-8364.327145,1838.629195
59493.314974,0.000000,-9548.656652,4903.011187
59493.315284,-74.020594,-11843.295072,6971.469032
59493.315594,-2960.823768,-10732.986159,4903.011187
59493.315903,-74.020594,-10955.047942,6052.154434
59493.316213,-2368.659014,-7476.080014,3064.381992
59493.316523,-222.061783,-7105.977043,3140.991542
59493.316832,-1258.350101,-6735.874072,2757.943793
59493.317142,-370.102971,-6069.688724,1608.800546
59493.317452,2294.638420,-8290.306550,2374.896044
59493.317762,-1258.350101,-8142.265362,2987.772442
59493.318071,2368.659014,-8364.327145,1532.190996
59493.318381,3478.967927,-13027.624579,3600.648841
59493.318691,-4145.153275,-7179.997637,0.000000
59493.319000,-592.164754,-10584.944971,2451.505594
59493.319310,-3552.988522,-9548.656652,-1225.752797
59493.319620,-592.164754,-7994.224174,-536.266849
59493.319929,-1776.494261,-8882.471304,-1532.190996
59493.320239,-1332.370696,-9770.718434,-1149.143247
59493.320549,1110.308913,-11547.212695,-76.609550
59493.320859,-74.020594,-8882.471304,-689.485948
59493.321168,0.000000,-6587.832884,-2451.505594
59493.321478,592.164754,-9252.574275,1225.752797
59493.321788,-74.020594,-7550.100608,-2528.115143
59493.322097,-2368.659014,-5995.668130,-2451.505594
59493.322407,-2812.782580,-8512.368333,-3294.210641
59493.322717,-1184.329507,-9770.718434,-2221.676944
59493.323027,-888.247130,-11029.068536,-1608.800546
59493.323336,-370.102971,-11251.130318,-1991.848295
59493.323646,1702.473667,-11843.295072,-76.609550
59493.323956,4663.297435,-9474.636058,-76.609550
59493.324265,2812.782580,-5773.606348,-1302.362347
59493.324575,0.000000,-5995.668130,0.000000
59493.324885,2294.638420,-11103.089130,-76.609550
59493.325194,-3256.906145,-9548.656652,-3677.258390
59493.325504,-2442.679609,-11473.192101,-2987.772442
59493.325814,-1924.535449,-9770.718434,-2221.676944
59493.326124,-1184.329507,-7772.162391,-2451.505594
59493.326433,1036.288319,-7031.956449,-1455.581446
59493.326743,2886.803174,-9178.553681,1072.533697
59493.327053,4663.297435,-11843.295072,-76.609550
59493.327362,1110.308913,-11843.295072,-76.609550
59493.327672,-3552.988522,-11917.315666,0.000000
59493.327982,-74.020594,-13027.624579,-76.609550
59493.328292,-4589.276840,-5995.668130,-4290.134789
59493.328601,-1258.350101,-5921.647536,-1915.238745
59493.328911,-592.164754,-4811.338623,-1455.581446
59493.329221,-148.041188,-7179.997637,-766.095498
59493.329530,-518.144159,-9252.574275,-689.485948
59493.329840,0.000000,-11621.233289,1532.190996
59493.330150,2294.638420,-13027.624579,2374.896044
59493.330459,2294.638420,-11547.212695,-76.609550
59493.330769,0.000000,-8068.244768,0.000000
59493.331079,1702.473667,-10658.965565,2298.286494
59493.331389,-3108.864956,-5995.668130,-2068.457845
59493.331698,-74.020594,-8290.306550,-76.609550
59493.332008,-1110.308913,-7772.162391,0.000000
59493.332318,-1406.391290,-9474.636058,229.828649
59493.332627,-518.144159,-11103.089130,1608.800546
59493.332937,0.000000,-11917.315666,2451.505594
59493.333247,2664.741391,-10881.027347,5209.449386
59493.333557,3182.885551,-9474.636058,6665.030833
59493.333866,-1332.370696,-3923.091493,1838.629195
59493.334176,296.082377,-6735.874072,3677.258390
59493.334486,-2442.679609,-5329.482782,-689.485948
59493.334795,-1258.350101,-9178.553681,1149.143247
59493.335105,-3775.050304,-10510.924376,76.609550
59493.335415,-3330.926739,-12657.521608,842.705048
59493.335724,-1998.556043,-11621.233289,1685.410096
59493.336034,-2368.659014,-7179.997637,2451.505594
59493.336344,1184.329507,-5995.668130,3677.258390
59493.336654,3182.885551,-8882.471304,6052.154434
59493.336963,0.000000,-5403.503377,1838.629195
59493.337273,592.164754,-9400.615463,3983.696590
59493.337583,-74.020594,-11251.130318,2374.896044
59493.337892,-1258.350101,-11103.089130,2374.896044
59493.338202,-1628.453072,-10066.800811,2068.457845
59493.338512,-518.144159,-9844.739029,2757.943793
59493.338822,1332.370696,-8512.368333,3907.087040
59493.339131,296.082377,-6587.832884,3677.258390
59493.339441,2368.659014,-7179.997637,4903.011187
59493.339751,2368.659014,-7772.162391,6128.763984
59493.340060,2294.638420,-9474.636058,3600.648841
59493.340370,-3256.906145,-8364.327145,1838.629195
59493.340680,-666.185348,-11843.295072,3600.648841
59493.340989,-2072.576638,-9770.718434,2145.067394
59493.341299,-2146.597232,-7846.182985,1455.581446
59493.341609,-1110.308913,-9326.594869,1991.848295
59493.341919,-444.123565,-9104.533087,3064.381992
59493.342228,0.000000,-6587.832884,306.438199
59493.342538,0.000000,-7772.162391,2451.505594
59493.342848,0.000000,-7179.997637,2451.505594
59493.343157,1702.473667,-11843.295072,4213.525239
59493.343467,-3997.112087,-8068.244768,0.000000
59493.343777,-666.185348,-11251.130318,2374.896044
59493.344087,-2368.659014,-7772.162391,0.000000
59493.344396,-3034.844362,-7698.141797,-689.485948
59493.344706,0.000000,-8734.430116,153.219100
59493.345016,1924.535449,-8068.244768,1838.629195
59493.345325,1702.473667,-8142.265362,-689.485948
59493.345635,0.000000,-6661.853478,76.609550
59493.345945,0.000000,-7179.997637,0.000000
59493.346254,-74.020594,-11251.130318,-76.609550
59493.346564,-2960.823768,-8660.409521,-3064.381992
59493.346874,-740.205942,-11843.295072,-76.609550
59493.347184,-2368.659014,-8956.491898,-2451.505594
59493.347493,-740.205942,-11399.171507,-689.485948
59493.347803,-518.144159,-9918.759623,-842.705048
59493.348113,-592.164754,-8808.450710,-1149.143247
59493.348422,2886.803174,-9474.636058,-76.609550
59493.348732,3478.967927,-7105.977043,-76.609550
59493.349042,0.000000,-7179.997637,0.000000
59493.349351,3478.967927,-11843.295072,2374.896044
59493.349661,-2146.597232,-7994.224174,-3064.381992
59493.349971,-1480.411884,-9844.739029,-612.876398
59493.350281,-3552.988522,-8068.244768,-3677.258390
59493.350590,-2368.659014,-10436.903782,-2604.724693
59493.350900,-1258.350101,-10436.903782,-2374.896044
59493.351210,-222.061783,-11325.150913,-1072.533697
59493.351519,4663.297435,-11843.295072,-76.609550
59493.351829,2886.803174,-9474.636058,-76.609550
59493.352139,2294.638420,-8290.306550,-689.485948
59493.352449,0.000000,-7179.997637,-1838.629195
59493.352758,-74.020594,-9474.636058,-689.485948
59493.353068,-3552.988522,-8364.327145,0.000000
59493.353378,-2886.803174,-8956.491898,-2987.772442
59493.353687,-1776.494261,-10140.821405,-2145.067394
59493.353997,-518.144159,-8808.450710,-1532.190996
59493.354307,962.267725,-7328.038826,-842.705048
59493.354616,5551.544565,-9474.636058,3294.210641
59493.354926,4071.132681,-10658.965565,4826.401637
59493.355236,1702.473667,-10658.965565,-76.609550
59493.355546,-2368.659014,-11917.315666,0.000000
59493.355855,-1850.514855,-13027.624579,-76.609550
59493.356165,-5921.647536,-5995.668130,-2451.505594
59493.356475,-2442.679609,-5477.523971,-1991.848295
59493.356784,-1628.453072,-5551.544565,-612.876398
59493.357094,74.020594,-5551.544565,153.219100
59493.357404,1036.288319,-9252.574275,2221.676944
59493.357714,2886.803174,-12435.459826,4519.963438
59493.358023,2294.638420,-13027.624579,4826.401637
59493.358333,-74.020594,-10658.965565,2374.896044
59493.358643,-3182.885551,-5995.668130,0.000000
59493.358952,-592.164754,-7476.080014,2374.896044
59493.359262,-1554.432478,-4219.173869,0.000000
59493.359572,-666.185348,-7994.224174,842.705048
59493.359881,-888.247130,-9918.759623,1225.752797
59493.360191,-740.205942,-11769.274478,2451.505594
59493.360501,1110.308913,-10510.924376,3907.087040
59493.360811,2960.823768,-11029.068536,7354.516781
59493.361120,4515.256246,-9252.574275,6435.202183
59493.361430,5847.626942,-9474.636058,6052.154434
59493.361740,0.000000,-5403.503377,2451.505594
59493.362049,888.247130,-8364.327145,4443.353888
59493.362359,-1258.350101,-7402.059420,0.000000
59493.362669,-2442.679609,-10955.047942,1149.143247
59493.362979,-3256.906145,-12657.521608,1149.143247
59493.363288,-2886.803174,-12731.542202,1915.238745
59493.363598,-518.144159,-11399.171507,3830.477490
59493.363908,0.000000,-7772.162391,5209.449386
59493.364217,1776.494261,-6587.832884,4903.011187
59493.364527,3478.967927,-8290.306550,6052.154434
59493.364837,-370.102971,-5921.647536,1762.019645
59493.365146,-2368.659014,-9548.656652,2451.505594
59493.365456,-2442.679609,-9474.636058,-76.609550
59493.365766,-4219.173869,-11843.295072,-76.609550
59493.366076,-4663.297435,-10140.821405,-919.314598
59493.366385,-2516.700203,-9474.636058,459.657299
59493.366695,1184.329507,-7476.080014,2451.505594
59493.367005,0.000000,-5995.668130,2451.505594
59493.367314,0.000000,-7179.997637,1225.752797
59493.367624,0.000000,-7772.162391,2451.505594
59493.367934,-74.020594,-10658.965565,2374.896044
59493.368244,-2368.659014,-6069.688724,0.000000
59493.368553,-666.185348,-9474.636058,-1302.362347
59493.368863,-2294.638420,-10510.924376,689.485948
59493.369173,-444.123565,-9622.677246,-842.705048
59493.369482,-74.020594,-9178.553681,383.047749
59493.369792,2072.576638,-7994.224174,1915.238745
59493.370102,0.000000,-4811.338623,0.000000
59493.370411,0.000000,-5403.503377,0.000000
59493.370721,2664.741391,-9252.574275,3064.381992
59493.371031,-370.102971,-8438.347739,-383.047749
59493.371341,1924.535449,-11251.130318,995.924147
59493.371650,-74.020594,-11843.295072,-76.609550
59493.371960,-2368.659014,-11029.068536,-1072.533697
59493.372270,-888.247130,-9326.594869,-1532.190996
59493.372579,814.226536,-7846.182985,0.000000
59493.372889,3552.988522,-8068.244768,1455.581446
59493.373199,1850.514855,-7179.997637,0.000000
59493.373509,296.082377,-8882.471304,-689.485948
59493.373818,0.000000,-8364.327145,0.000000
59493.374128,-74.020594,-10658.965565,-1302.362347
59493.374438,-1776.494261,-9104.533087,-1225.752797
59493.374747,-1258.350101,-11843.295072,-1302.362347
59493.375057,-4589.276840,-11917.315666,-3524.039291
59493.375367,-2146.597232,-12879.583391,-2221.676944
59493.375676,-518.144159,-12139.377449,-536.266849
59493.375986,1332.370696,-10066.800811,1149.143247
59493.376296,1702.473667,-6513.812290,1149.143247
59493.376606,1110.308913,-6513.812290,-76.609550
59493.376915,0.000000,-4811.338623,0.000000
59493.377225,2294.638420,-9474.636058,-76.609550
59493.377535,-2368.659014,-8364.327145,0.000000
59493.377844,-3256.906145,-13323.706956,-76.609550
59493.378154,-5921.647536,-10140.821405,-3370.820191
59493.378464,-4071.132681,-10436.903782,-1455.581446
59493.378774,-814.226536,-8882.471304,76.609550
59493.379083,1924.535449,-7550.100608,1915.238745
59493.379393,2886.803174,-7994.224174,2987.772442
59493.379703,2294.638420,-9474.636058,3600.648841
59493.380012,-666.185348,-6217.729913,229.828649
59493.380322,0.000000,-5995.668130,612.876398
59493.380632,-74.020594,-6217.729913,-1302.362347
59493.380941,-4737.318029,-8364.327145,0.000000
59493.381251,-3404.947333,-9844.739029,-2221.676944
59493.381561,-2072.576638,-10955.047942,-459.657299
59493.381871,444.123565,-10140.821405,1149.143247
59493.382180,1110.308913,-8142.265362,1915.238745
59493.382490,3478.967927,-8290.306550,3294.210641
59493.382800,4071.132681,-9474.636058,4213.525239
59493.383109,370.102971,-5921.647536,459.657299
59493.383419,0.000000,-9548.656652,1378.971896
59493.383729,-370.102971,-11843.295072,-76.609550
59493.384038,-4737.318029,-10732.986159,0.000000
59493.384348,-2368.659014,-11399.171507,-536.266849
59493.384658,-444.123565,-9918.759623,1149.143247
59493.384968,2442.679609,-8438.347739,2834.553343
59493.385277,2960.823768,-7846.182985,3907.087040
59493.385587,4663.297435,-11251.130318,5975.544884
59493.385897,4663.297435,-11547.212695,6281.983084
59493.386206,2294.638420,-9474.636058,2374.896044
59493.386516,0.000000,-8364.327145,612.876398
59493.386826,-370.102971,-13027.624579,3600.648841
59493.387136,-4737.318029,-8364.327145,0.000000
59493.387445,-1702.473667,-10288.862594,1149.143247
59493.387755,-1924.535449,-9178.553681,1762.019645
59493.388065,0.000000,-9252.574275,3064.381992
59493.388374,222.061783,-7994.224174,3140.991542
59493.388684,1184.329507,-8956.491898,4903.011187
59493.388994,2368.659014,-8660.409521,6128.763984
59493.389303,-74.020594,-7105.977043,1762.019645
59493.389613,-2072.576638,-7179.997637,1532.190996
59493.389923,-1998.556043,-9474.636058,-76.609550
59493.390233,-7105.977043,-7772.162391,-2145.067394
59493.390542,-3034.844362,-11251.130318,-76.609550
59493.390852,-2368.659014,-9252.574275,1072.533697
59493.391162,814.226536,-7105.977043,2374.896044
59493.391471,2294.638420,-6513.812290,2987.772442
59493.391781,1480.411884,-5995.668130,3677.258390
59493.392091,0.000000,-4811.338623,1225.752797
59493.392401,3478.967927,-11843.295072,2374.896044
59493.392710,-2368.659014,-8364.327145,0.000000
59493.393020,-1258.350101,-14211.954086,-76.609550
59493.393330,-3034.844362,-9992.780217,-2987.772442
59493.393639,-1924.535449,-10288.862594,-306.438199
59493.393949,-370.102971,-8438.347739,0.000000
59493.394259,1184.329507,-7772.162391,1225.752797
59493.394568,2072.576638,-7402.059420,2068.457845
59493.394878,0.000000,-5995.668130,612.876398
59493.395188,0.000000,-5995.668130,0.000000
59493.395498,2294.638420,-11843.295072,2374.896044
59493.395807,-814.226536,-8956.491898,-1608.800546
59493.396117,-74.020594,-13619.789333,-76.609550
59493.396427,-1258.350101,-11251.130318,-3753.867940
59493.396736,-814.226536,-11251.130318,-1302.362347
59493.397046,-370.102971,-10732.986159,-766.095498
59493.397356,814.226536,-9918.759623,229.828649
59493.397666,1110.308913,-10436.903782,1225.752797
59493.397975,592.164754,-8364.327145,0.000000
59493.398285,0.000000,-5995.668130,0.000000
59493.398595,4071.132681,-9474.636058,1762.019645
59493.398904,-1480.411884,-5995.668130,-1838.629195
59493.399214,-962.267725,-9474.636058,-1302.362347
59493.399524,-2590.720797,-8734.430116,-2298.286494
59493.399834,-2442.679609,-11843.295072,-919.314598
59493.400143,-814.226536,-10732.986159,-306.438199
59493.400453,518.144159,-8882.471304,842.705048
59493.400763,962.267725,-7105.977043,1072.533697
59493.401072,1184.329507,-5921.647536,842.705048
59493.401382,2886.803174,-8364.327145,1762.019645
59493.401692,296.082377,-7031.956449,-689.485948
59493.402002,-2368.659014,-9548.656652,0.000000
59493.402311,-666.185348,-13619.789333,-76.609550
59493.402621,-4367.215058,-9548.656652,-3753.867940
59493.402931,-1258.350101,-11843.295072,-76.609550
59493.403240,-518.144159,-6661.853478,229.828649
59493.403550,1110.308913,-5329.482782,1149.143247
59493.403860,1850.514855,-5699.585753,2068.457845
59493.404170,3108.864956,-8882.471304,4136.915689
59493.404479,3182.885551,-11843.295072,4519.963438
59493.404789,-74.020594,-11251.130318,-76.609550
59493.405099,-2960.823768,-10140.821405,0.000000
59493.405408,-666.185348,-11843.295072,-76.609550
59493.405718,-4589.276840,-6291.750507,-3370.820191
59493.406028,-666.185348,-9474.636058,-76.609550
59493.406338,-296.082377,-9252.574275,995.924147
59493.406647,74.020594,-9474.636058,1685.410096
59493.406957,666.185348,-10362.883188,2451.505594
59493.407267,1184.329507,-9844.739029,4290.134789
59493.407576,2294.638420,-9104.533087,2451.505594
59493.407886,4367.215058,-9474.636058,3294.210641
59493.408196,-1776.494261,-6587.832884,0.000000
59493.408506,1110.308913,-10140.821405,1225.752797
59493.408815,-1554.432478,-9326.594869,-1072.533697
59493.409125,-2812.782580,-10288.862594,459.657299
59493.409435,-814.226536,-11769.274478,1608.800546
59493.409744,-370.102971,-10584.944971,2604.724693
59493.410054,296.082377,-9548.656652,2987.772442
59493.410364,592.164754,-9252.574275,4903.011187
59493.410674,1702.473667,-8586.388927,3677.258390
59493.410983,2294.638420,-7105.977043,-76.609550
59493.411293,-2368.659014,-7179.997637,0.000000
59493.411603,-74.020594,-10658.965565,-76.609550
59493.411912,-4663.297435,-8660.409521,-3064.381992
59493.412222,-2442.679609,-11843.295072,842.705048
59493.412532,-1406.391290,-10288.862594,919.314598
59493.412842,-740.205942,-8512.368333,2068.457845
59493.413151,296.082377,-7031.956449,1991.848295
59493.413461,0.000000,-4811.338623,2451.505594
59493.413771,1184.329507,-7179.997637,0.000000
59493.414080,1924.535449,-9326.594869,3217.601092
59493.414390,-74.020594,-10362.883188,-76.609550
59493.414700,-2368.659014,-11029.068536,1685.410096
59493.415010,-1258.350101,-10658.965565,-76.609550
59493.415319,-74.020594,-10955.047942,1762.019645
59493.415629,74.020594,-7994.224174,1838.629195
59493.415939,1036.288319,-6883.915261,2834.553343
59493.416249,2368.659014,-6513.812290,2757.943793
59493.416558,296.082377,-3627.009116,0.000000
59493.416868,0.000000,-4811.338623,0.000000
59493.417178,1184.329507,-8660.409521,2298.286494
59493.417487,-1258.350101,-10362.883188,-995.924147
59493.417797,-1702.473667,-14359.995275,-76.609550
59493.418107,-1258.350101,-15396.283594,-1302.362347
59493.418417,-1924.535449,-13841.851115,459.657299
59493.418726,-74.020594,-9474.636058,1149.143247
59493.419036,740.205942,-4811.338623,1072.533697
59493.419346,2664.741391,-4145.153275,1532.190996
59493.419655,0.000000,-3627.009116,0.000000
59493.419965,0.000000,-7179.997637,0.000000
59493.420275,1480.411884,-14730.098246,3370.820191
59493.420585,-2146.597232,-13323.706956,-689.485948
59493.420894,-1258.350101,-12435.459826,-76.609550
59493.421204,-74.020594,-9474.636058,-76.609550
59493.421514,-592.164754,-6883.915261,306.438199
59493.421823,0.000000,-7328.038826,536.266849
59493.422133,222.061783,-9474.636058,383.047749
59493.422443,-296.082377,-11621.233289,612.876398
59493.422753,-2368.659014,-9548.656652,-1762.019645
59493.423062,-1776.494261,-6587.832884,-1915.238745
59493.423372,0.000000,-6587.832884,612.876398
59493.423682,2294.638420,-7698.141797,-76.609550
59493.423991,0.000000,-8660.409521,0.000000
59493.424301,-74.020594,-13619.789333,2374.896044
59493.424611,-2072.576638,-10584.944971,0.000000
59493.424921,-1036.288319,-9992.780217,-76.609550
59493.425230,-444.123565,-8290.306550,76.609550
59493.425540,-444.123565,-6957.935855,0.000000
59493.425850,-74.020594,-6513.812290,-689.485948
59493.426159,74.020594,-7105.977043,-1302.362347
59493.426469,0.000000,-9548.656652,612.876398
59493.426779,-74.020594,-12435.459826,-76.609550
59493.427089,-3552.988522,-9548.656652,-3677.258390
59493.427398,-1332.370696,-12139.377449,3064.381992
59493.427708,-1480.411884,-8364.327145,306.438199
59493.428018,148.041188,-8216.285956,1762.019645
59493.428327,814.226536,-8068.244768,1685.410096
59493.428637,592.164754,-7402.059420,995.924147
59493.428947,2294.638420,-7994.224174,-76.609550
59493.429257,1110.308913,-9474.636058,-76.609550
59493.429566,-2368.659014,-7179.997637,0.000000
59493.429876,592.164754,-12213.398043,1838.629195
59493.430186,-1110.308913,-10732.986159,-1838.629195
59493.430495,0.000000,-12213.398043,3064.381992
59493.430805,0.000000,-9252.574275,1378.971896
59493.431115,444.123565,-7550.100608,2451.505594
59493.431425,1332.370696,-6587.832884,2451.505594
59493.431734,1258.350101,-5921.647536,2528.115143
59493.432044,4071.132681,-8290.306550,3600.648841
59493.432354,4663.297435,-11843.295072,4826.401637
59493.432663,-1036.288319,-8364.327145,0.000000
59493.432973,-592.164754,-11843.295072,2145.067394
59493.433283,-2146.597232,-9474.636058,-383.047749
59493.433593,-4737.318029,-8364.327145,1225.752797
59493.433902,-1406.391290,-8882.471304,536.266849
59493.434212,-666.185348,-9844.739029,1762.019645
59493.434522,-370.102971,-9918.759623,2068.457845
59493.434831,-1184.329507,-8068.244768,1149.143247
59493.435141,-74.020594,-9474.636058,2374.896044
59493.435451,2294.638420,-10658.965565,4213.525239
59493.435761,-1258.350101,-7254.018232,0.000000
59493.436070,592.164754,-10140.821405,2451.505594
59493.436380,-666.185348,-8956.491898,-1302.362347
59493.436690,-3552.988522,-7179.997637,612.876398
59493.436999,-814.226536,-8882.471304,1455.581446
59493.437309,-1776.494261,-7846.182985,995.924147
59493.437619,-1332.370696,-7624.121203,842.705048
59493.437929,-666.185348,-7920.203579,536.266849
59493.438238,2072.576638,-9844.739029,2145.067394
59493.438548,2072.576638,-9844.739029,3370.820191
59493.438858,-74.020594,-12435.459826,1762.019645
59493.439167,-2146.597232,-9992.780217,-919.314598
59493.439477,-296.082377,-12213.398043,3677.258390
59493.439787,-1036.288319,-7920.203579,612.876398
59493.440097,-74.020594,-8586.388927,1149.143247
59493.440406,-1184.329507,-7402.059420,689.485948
59493.440716,-370.102971,-6587.832884,153.219100
59493.441026,0.000000,-6661.853478,229.828649
59493.441335,0.000000,-7179.997637,612.876398
59493.441645,0.000000,-8364.327145,0.000000
59493.441955,1702.473667,-13619.789333,2374.896044
59493.442265,-518.144159,-10881.027347,-76.609550
59493.442574,-4737.318029,-8364.327145,0.000000
59493.442884,-370.102971,-7994.224174,0.000000
59493.443194,74.020594,-7994.224174,1072.533697
59493.443503,74.020594,-8364.327145,536.266849
59493.443813,-370.102971,-7846.182985,0.000000
59493.444123,888.247130,-8068.244768,0.000000
59493.444433,0.000000,-7179.997637,0.000000
59493.444742,-3552.988522,-7179.997637,0.000000
59493.445052,-74.020594,-13027.624579,-76.609550
59493.445362,-3256.906145,-9548.656652,-2145.067394
59493.445672,-74.020594,-9474.636058,-689.485948
59493.445981,-74.020594,-7698.141797,-1302.362347
59493.446291,-74.020594,-8882.471304,689.485948
59493.446601,-666.185348,-8734.430116,-459.657299
59493.446910,-592.164754,-9696.697840,689.485948
59493.447220,0.000000,-10510.924376,1072.533697
59493.447530,-2368.659014,-7772.162391,0.000000
59493.447840,-3552.988522,-5995.668130,0.000000
59493.448149,2294.638420,-9474.636058,2374.896044
59493.448459,0.000000,-5995.668130,0.000000
59493.448769,962.267725,-7105.977043,-76.609550
59493.449078,1998.556043,-8882.471304,-76.609550
59493.449388,-2072.576638,-8956.491898,0.000000
59493.449698,-2368.659014,-10881.027347,-383.047749
59493.450008,-2294.638420,-10140.821405,-383.047749
59493.450317,-592.164754,-10288.862594,306.438199
59493.450627,0.000000,-7994.224174,-689.485948
59493.450937,-74.020594,-7105.977043,-153.219100
59493.451246,0.000000,-7476.080014,612.876398
59493.451556,2146.597232,-9030.512492,2374.896044
59493.451866,592.164754,-5995.668130,2451.505594
59493.452176,3478.967927,-9474.636058,2374.896044
59493.452485,-1924.535449,-7994.224174,0.000000
59493.452795,-1776.494261,-10732.986159,0.000000
59493.453105,-2294.638420,-11251.130318,-766.095498
59493.453414,-962.267725,-10658.965565,-229.828649
59493.453724,-74.020594,-8882.471304,-76.609550
59493.454034,-74.020594,-6513.812290,-1302.362347
59493.454344,0.000000,-7179.997637,0.000000
59493.454653,2294.638420,-10658.965565,3600.648841
59493.454963,0.000000,-7772.162391,0.000000
59493.455273,2220.617826,-12435.459826,4519.963438
59493.455582,-1850.514855,-9474.636058,842.705048
59493.455892,-1702.473667,-8068.244768,612.876398
59493.456202,-740.205942,-6513.812290,689.485948
59493.456512,518.144159,-6365.771101,536.266849
59493.456821,1702.473667,-7994.224174,2068.457845
59493.457131,-74.020594,-11843.295072,-76.609550
59493.457441,-2368.659014,-10436.903782,0.000000
59493.457750,-74.020594,-12879.583391,3983.696590
59493.458060,-2294.638420,-8956.491898,0.000000
59493.458370,-1184.329507,-9844.739029,2145.067394
59493.458680,-1258.350101,-7994.224174,842.705048
59493.458989,-962.267725,-7698.141797,1072.533697
59493.459299,-1184.329507,-6883.915261,1072.533697
59493.459609,-740.205942,-7476.080014,766.095498
59493.459918,-74.020594,-9474.636058,1838.629195
59493.460228,-74.020594,-11547.212695,2374.896044
59493.460538,-666.185348,-8586.388927,-76.609550
59493.460848,0.000000,-9548.656652,3600.648841
59493.461157,2294.638420,-10658.965565,1762.019645
59493.461467,0.000000,-10140.821405,1838.629195
59493.461777,-1332.370696,-10807.006753,536.266849
59493.462086,-1924.535449,-8734.430116,0.000000
59493.462396,-1258.350101,-8882.471304,383.047749
59493.462706,370.102971,-8290.306550,1455.581446
59493.463016,592.164754,-8364.327145,1838.629195
59493.463325,1924.535449,-9474.636058,3370.820191
59493.463635,1110.308913,-6809.894666,1149.143247
59493.463945,1776.494261,-8068.244768,5515.887586
59493.464254,4663.297435,-9474.636058,2374.896044
59493.464564,0.000000,-8364.327145,2145.067394
59493.464874,-74.020594,-10214.842000,2068.457845
59493.465184,-740.205942,-9400.615463,1685.410096
59493.465493,-518.144159,-7550.100608,689.485948
59493.465803,0.000000,-7254.018232,383.047749
59493.466113,0.000000,-8956.491898,612.876398
59493.466422,0.000000,-10140.821405,1838.629195
59493.466732,2294.638420,-12435.459826,2374.896044
59493.467042,0.000000,-9548.656652,1532.190996
59493.467352,2294.638420,-9474.636058,2374.896044
59493.467661,-1702.473667,-6365.771101,0.000000
59493.467971,-814.226536,-7698.141797,229.828649
59493.468281,-1924.535449,-7105.977043,0.000000
59493.468590,-1628.453072,-8734.430116,-612.876398
59493.468900,-1184.329507,-9918.759623,-383.047749
59493.469210,-2368.659014,-9548.656652,0.000000
59493.469520,-4145.153275,-9548.656652,0.000000
59493.469829,-74.020594,-12435.459826,1608.800546
59493.470139,-1184.329507,-8364.327145,0.000000
59493.470449,2294.638420,-11843.295072,-76.609550
59493.470758,-1110.308913,-7920.203579,0.000000
59493.471068,-1258.350101,-10214.842000,536.266849
59493.471378,-1998.556043,-9104.533087,-153.219100
59493.471688,-1924.535449,-7994.224174,-842.705048
59493.471997,-1110.308913,-6513.812290,-229.828649
59493.472307,0.000000,-5107.421000,-1532.190996
59493.472617,0.000000,-5995.668130,0.000000
59493.472926,2294.638420,-11251.130318,2374.896044
59493.473236,518.144159,-9548.656652,-1685.410096
