#time,accel_x,accel_y,accel_z
59537.433200,-148.041188,-9252.574275,1149.143247
59537.433509,0.000000,-8364.327145,0.000000
59537.433819,-2220.617826,-7772.162391,0.000000
59537.434129,444.123565,-9918.759623,3447.429741
59537.434439,-2368.659014,-7179.997637,0.000000
59537.434749,1332.370696,-10584.944971,2374.896044
59537.435058,-888.247130,-7550.100608,1072.533697
59537.435368,370.102971,-9400.615463,1225.752797
59537.435678,-296.082377,-8882.471304,842.705048
59537.435988,-592.164754,-8882.471304,153.219100
59537.436298,-296.082377,-8956.491898,689.485948
59537.436608,-1184.329507,-7846.182985,229.828649
59537.436917,-2368.659014,-7179.997637,0.000000
59537.437227,740.205942,-9918.759623,3600.648841
59537.437537,-2368.659014,-6587.832884,0.000000
59537.437847,1110.308913,-10436.903782,2298.286494
59537.438157,-666.185348,-7105.977043,0.000000
59537.438467,0.000000,-9252.574275,1149.143247
59537.438776,-222.061783,-9178.553681,459.657299
59537.439086,-370.102971,-8882.471304,459.657299
59537.439396,-296.082377,-9252.574275,1378.971896
59537.439706,-74.020594,-9178.553681,-76.609550
59537.440016,-1036.288319,-8068.244768,76.609550
59537.440326,0.000000,-9474.636058,3294.210641
59537.440635,-1850.514855,-7179.997637,-1149.143247
59537.440945,0.000000,-9844.739029,2451.505594
59537.441255,-74.020594,-8882.471304,0.000000
59537.441565,0.000000,-9252.574275,1225.752797
59537.441875,-74.020594,-9474.636058,1149.143247
59537.442185,-148.041188,-8956.491898,612.876398
59537.442494,-296.082377,-9030.512492,1762.019645
59537.442804,1110.308913,-9474.636058,1762.019645
59537.443114,-74.020594,-9474.636058,-76.609550
59537.443424,-1184.329507,-8364.327145,612.876398
59537.443734,-74.020594,-9474.636058,-76.609550
59537.444044,-2368.659014,-7772.162391,0.000000
59537.444353,-74.020594,-9474.636058,-383.047749
59537.444663,-814.226536,-8364.327145,919.314598
59537.444973,-592.164754,-8956.491898,536.266849
59537.445283,-518.144159,-9104.533087,536.266849
59537.445593,-518.144159,-8956.491898,2221.676944
59537.445903,-74.020594,-10362.883188,2374.896044
59537.446212,-74.020594,-9474.636058,1149.143247
59537.446522,-1776.494261,-7772.162391,0.000000
59537.446832,-74.020594,-9474.636058,-76.609550
59537.447142,-1776.494261,-7772.162391,306.438199
59537.447452,1406.391290,-9474.636058,-76.609550
59537.447762,-740.205942,-8512.368333,536.266849
59537.448071,-370.102971,-9252.574275,1072.533697
59537.448381,-370.102971,-9178.553681,612.876398
59537.448691,-74.020594,-9252.574275,1532.190996
59537.449001,1110.308913,-9696.697840,2298.286494
59537.449311,-74.020594,-9918.759623,1455.581446
59537.449621,-370.102971,-7624.121203,-1302.362347
59537.449930,0.000000,-9548.656652,2451.505594
59537.450240,-74.020594,-8882.471304,536.266849
59537.450550,518.144159,-9474.636058,2068.457845
59537.450860,-296.082377,-8808.450710,919.314598
59537.451170,-296.082377,-8956.491898,766.095498
59537.451480,-222.061783,-9030.512492,689.485948
59537.451789,-296.082377,-8956.491898,612.876398
59537.452099,0.000000,-8660.409521,1838.629195
59537.452409,222.061783,-9992.780217,1532.190996
59537.452719,-74.020594,-7698.141797,-1302.362347
59537.453029,0.000000,-10140.821405,2451.505594
59537.453339,1110.308913,-10362.883188,1762.019645
59537.453648,0.000000,-9474.636058,2374.896044
59537.453958,-444.123565,-8882.471304,842.705048
59537.454268,-296.082377,-9030.512492,459.657299
59537.454578,-222.061783,-8734.430116,919.314598
59537.454888,-296.082377,-8438.347739,0.000000
59537.455198,-1776.494261,-7328.038826,1225.752797
59537.455507,-888.247130,-9104.533087,1532.190996
59537.455817,-74.020594,-8882.471304,-76.609550
59537.456127,0.000000,-9844.739029,2145.067394
59537.456437,-74.020594,-9474.636058,-76.609550
59537.456747,0.000000,-9992.780217,1915.238745
59537.457056,-74.020594,-9400.615463,1149.143247
59537.457366,-370.102971,-9326.594869,842.705048
59537.457676,-74.020594,-9252.574275,919.314598
59537.457986,-222.061783,-8364.327145,0.000000
59537.458296,-2072.576638,-7179.997637,0.000000
59537.458606,0.000000,-7772.162391,612.876398
59537.458915,1998.556043,-9474.636058,-76.609550
59537.459225,0.000000,-7179.997637,0.000000
59537.459535,2886.803174,-9474.636058,2374.896044
59537.459845,1184.329507,-8956.491898,1225.752797
59537.460155,1998.556043,-9178.553681,1149.143247
59537.460465,2072.576638,-8956.491898,766.095498
59537.460774,1998.556043,-9104.533087,766.095498
59537.461084,2960.823768,-8364.327145,229.828649
59537.461394,1628.453072,-7772.162391,0.000000
59537.461704,1184.329507,-8364.327145,0.000000
59537.462014,3923.091493,-11843.295072,2374.896044
59537.462324,2516.700203,-9548.656652,1225.752797
59537.462633,4663.297435,-9178.553681,2374.896044
59537.462943,3997.112087,-8068.244768,1225.752797
59537.463253,5107.421000,-8808.450710,1378.971896
59537.463563,5477.523971,-8512.368333,1225.752797
59537.463873,5699.585753,-8660.409521,1455.581446
59537.464183,5847.626942,-8882.471304,2068.457845
59537.464492,5255.462188,-7698.141797,-76.609550
59537.464802,4737.318029,-7328.038826,0.000000
59537.465112,8216.285956,-11843.295072,3370.820191
59537.465422,4367.215058,-7328.038826,-1455.581446
59537.465732,7476.080014,-11103.089130,1225.752797
59537.466042,4737.318029,-8660.409521,0.000000
59537.466351,4663.297435,-12065.356855,153.219100
59537.466661,3330.926739,-12509.480420,76.609550
59537.466971,2590.720797,-12435.459826,153.219100
59537.467281,2886.803174,-12879.583391,-76.609550
59537.467591,4515.256246,-9474.636058,-76.609550
59537.467901,3478.967927,-7105.977043,1149.143247
59537.468210,2368.659014,-3627.009116,1225.752797
59537.468520,8216.285956,-5921.647536,3600.648841
59537.468830,7105.977043,-3034.844362,1378.971896
59537.469140,8290.306550,-5181.441594,3907.087040
59537.469450,8290.306550,-7772.162391,3064.381992
59537.469760,5477.523971,-11103.089130,536.266849
59537.470069,740.205942,-14656.077652,-2145.067394
59537.470379,-1924.535449,-16580.613101,-2528.115143
59537.470689,-4811.338623,-16284.530724,-4060.306139
59537.470999,-4737.318029,-12213.398043,-3983.696590
59537.471309,-4145.153275,-9548.656652,0.000000
59537.471619,-74.020594,-8290.306550,1762.019645
59537.471928,1776.494261,-4811.338623,3064.381992
59537.472238,4737.318029,-3627.009116,4903.011187
59537.472548,4811.338623,-4663.297435,5592.497135
59537.472858,2886.803174,-4589.276840,4903.011187
59537.473168,2146.597232,-3923.091493,3524.039291
59537.473478,3034.844362,-4589.276840,3600.648841
59537.473787,4663.297435,-4145.153275,2374.896044
59537.474097,1554.432478,-5995.668130,-1302.362347
59537.474407,-2368.659014,-11917.315666,0.000000
59537.474717,-2442.679609,-18949.272115,-2834.553343
59537.475027,-8216.285956,-17987.004391,-4903.011187
59537.475337,-7698.141797,-15618.345376,-5515.887586
59537.475646,-4071.132681,-9992.780217,-3217.601092
59537.475956,0.000000,-6217.729913,-153.219100
59537.476266,2812.782580,-4071.132681,2911.162892
59537.476576,5699.585753,-4737.318029,6052.154434
59537.476886,7624.121203,-7105.977043,7277.907231
59537.477196,7031.956449,-4145.153275,5439.278036
59537.477505,4737.318029,-1258.350101,3677.258390
59537.477815,9400.615463,-5921.647536,6665.030833
59537.478125,3627.009116,-5995.668130,1532.190996
59537.478435,-148.041188,-11473.192101,-459.657299
59537.478745,-1776.494261,-14952.160028,-3524.039291
59537.479054,-1776.494261,-17542.880825,-4136.915689
59537.479364,-2442.679609,-14730.098246,-5056.230287
59537.479674,-4219.173869,-15766.386565,-3217.601092
59537.479984,-2886.803174,-14211.954086,-1455.581446
59537.480294,2294.638420,-9400.615463,-76.609550
59537.480604,4737.318029,-1258.350101,1225.752797
59537.480913,14137.933492,-2960.823768,7584.345430
59537.481223,11843.295072,-74.020594,5209.449386
59537.481533,11769.274478,-4737.318029,6971.469032
59537.481843,8660.409521,-7254.018232,4060.306139
59537.482153,5181.441594,-9030.512492,1991.848295
59537.482463,1406.391290,-10584.944971,-2145.067394
59537.482772,-1776.494261,-13693.809927,-3064.381992
59537.483082,-1184.329507,-17246.798449,-2451.505594
59537.483392,1628.453072,-14804.118840,-2528.115143
59537.483702,4663.297435,-9474.636058,-2528.115143
59537.484012,2368.659014,-7179.997637,0.000000
59537.484322,4071.132681,-9178.553681,-76.609550
59537.484631,6439.791695,-8882.471304,2374.896044
59537.484941,7994.224174,-3923.091493,3983.696590
59537.485251,6809.894666,-3330.926739,3753.867940
59537.485561,4145.153275,-3997.112087,1225.752797
59537.485871,2960.823768,-6587.832884,0.000000
59537.486181,8290.306550,-8364.327145,4903.011187
59537.486490,5921.647536,-10140.821405,3064.381992
59537.486800,-74.020594,-14211.954086,-76.609550
59537.487110,-4737.318029,-11917.315666,-5975.544884
59537.487420,-2294.638420,-16580.613101,-1302.362347
59537.487730,-74.020594,-14211.954086,-383.047749
59537.488040,222.061783,-10214.842000,383.047749
59537.488349,5847.626942,-6217.729913,2681.334243
59537.488659,8808.450710,-5773.606348,4366.744339
59537.488969,5329.482782,-4219.173869,2451.505594
59537.489279,0.000000,-4811.338623,2451.505594
59537.489589,592.164754,-6291.750507,1225.752797
59537.489899,4663.297435,-9474.636058,-76.609550
59537.490208,0.000000,-8364.327145,0.000000
59537.490518,1702.473667,-13619.789333,-76.609550
59537.490828,148.041188,-11917.315666,0.000000
59537.491138,-444.123565,-12583.501014,-1838.629195
59537.491448,-1924.535449,-13027.624579,-2068.457845
59537.491758,-2294.638420,-11251.130318,76.609550
59537.492067,814.226536,-6439.791695,842.705048
59537.492377,3034.844362,-3627.009116,1532.190996
59537.492687,4737.318029,-5403.503377,2451.505594
59537.492997,8216.285956,-8290.306550,6358.592633
59537.493307,2368.659014,-5995.668130,2451.505594
59537.493617,3552.988522,-8956.491898,3677.258390
59537.493926,1776.494261,-7179.997637,0.000000
59537.494236,2072.576638,-11547.212695,1225.752797
59537.494546,222.061783,-11251.130318,-229.828649
59537.494856,-1258.350101,-11843.295072,-1302.362347
59537.495166,-370.102971,-11843.295072,-2528.115143
59537.495476,-74.020594,-10066.800811,-2528.115143
59537.495785,1702.473667,-7179.997637,-1915.238745
59537.496095,2368.659014,-5995.668130,1225.752797
59537.496405,6735.874072,-10658.965565,3600.648841
59537.496715,5033.400406,-5995.668130,3064.381992
59537.497025,1776.494261,-7179.997637,612.876398
59537.497335,4885.359217,-6883.915261,1991.848295
59537.497644,3849.070898,-8438.347739,2911.162892
59537.497954,3923.091493,-8586.388927,1072.533697
59537.498264,2886.803174,-11843.295072,2374.896044
59537.498574,-74.020594,-11251.130318,-76.609550
59537.498884,-74.020594,-8290.306550,-3753.867940
59537.499193,0.000000,-9548.656652,612.876398
59537.499503,5847.626942,-7698.141797,1149.143247
59537.499813,1184.329507,-7179.997637,1225.752797
59537.500123,5625.565159,-5921.647536,1072.533697
59537.500433,4293.194464,-8808.450710,995.924147
59537.500743,5773.606348,-7550.100608,1302.362347
59537.501052,5477.523971,-8512.368333,612.876398
59537.501362,4071.132681,-10658.965565,-76.609550
59537.501672,518.144159,-7550.100608,-3140.991542
59537.501982,0.000000,-10732.986159,-4290.134789
59537.502292,4663.297435,-12879.583391,1762.019645
59537.502602,518.144159,-8364.327145,0.000000
59537.502911,4663.297435,-9844.739029,3064.381992
59537.503221,592.164754,-7179.997637,0.000000
59537.503531,2886.803174,-7105.977043,689.485948
59537.503841,5699.585753,-7402.059420,2911.162892
59537.504150,5847.626942,-6439.791695,3064.381992
59537.504460,5847.626942,-7105.977043,1762.019645
59537.504770,1184.329507,-6587.832884,0.000000
59537.505079,3775.050304,-9474.636058,1149.143247
59537.505389,3552.988522,-9548.656652,1225.752797
59537.505699,4663.297435,-11843.295072,1762.019645
59537.506008,0.000000,-10955.047942,-1762.019645
59537.506318,2294.638420,-15988.448347,-383.047749
59537.506628,0.000000,-8364.327145,0.000000
59537.506937,3997.112087,-10140.821405,2145.067394
59537.507247,1554.432478,-6809.894666,689.485948
59537.507557,0.000000,-5403.503377,-2451.505594
59537.507866,2664.741391,-9548.656652,3064.381992
59537.508176,7031.956449,-7994.224174,3600.648841
59537.508485,0.000000,-4811.338623,612.876398
59537.508795,2664.741391,-7179.997637,1532.190996
59537.509105,1480.411884,-8956.491898,229.828649
59537.509414,4663.297435,-10658.965565,2374.896044
59537.509724,1110.308913,-11843.295072,1149.143247
59537.510034,-1332.370696,-10140.821405,-612.876398
59537.510343,-1554.432478,-12361.439231,-1225.752797
59537.510653,4145.153275,-10288.862594,2451.505594
59537.510963,6143.709319,-11251.130318,4826.401637
59537.511272,4663.297435,-6513.812290,2374.896044
59537.511582,0.000000,-7179.997637,0.000000
59537.511892,4663.297435,-9474.636058,1762.019645
59537.512201,0.000000,-7772.162391,-2145.067394
59537.512511,-1554.432478,-10362.883188,-383.047749
59537.512821,-4737.318029,-9844.739029,-2221.676944
59537.513130,-2072.576638,-10140.821405,-1378.971896
59537.513440,0.000000,-10510.924376,1149.143247
59537.513750,0.000000,-8660.409521,2451.505594
59537.514059,592.164754,-11325.150913,4443.353888
59537.514369,2294.638420,-9474.636058,4213.525239
59537.514679,-74.020594,-7698.141797,842.705048
59537.514988,-4737.318029,-7772.162391,1225.752797
59537.515298,-5403.503377,-7698.141797,-1302.362347
59537.515608,-2442.679609,-7105.977043,-689.485948
59537.515917,-2146.597232,-7179.997637,-459.657299
59537.516227,-1554.432478,-6809.894666,76.609550
59537.516537,-2960.823768,-8364.327145,-229.828649
59537.516846,-3552.988522,-8660.409521,0.000000
59537.517156,-1776.494261,-11029.068536,1225.752797
59537.517466,-1554.432478,-12435.459826,2374.896044
59537.517775,-3627.009116,-9474.636058,-1455.581446
59537.518085,-2960.823768,-8660.409521,1225.752797
59537.518395,1110.308913,-9474.636058,2374.896044
59537.518704,2146.597232,-9178.553681,3907.087040
59537.519014,814.226536,-8882.471304,3294.210641
59537.519323,2072.576638,-7179.997637,3294.210641
59537.519633,1110.308913,-7550.100608,2374.896044
59537.519943,-3552.988522,-7179.997637,0.000000
59537.520252,-7105.977043,-7179.997637,0.000000
59537.520562,-5033.400406,-10140.821405,-76.609550
59537.520872,-1258.350101,-9178.553681,-1608.800546
59537.521181,-2368.659014,-8364.327145,0.000000
59537.521491,1110.308913,-11843.295072,2374.896044
59537.521801,2442.679609,-11843.295072,3600.648841
59537.522110,2146.597232,-10362.883188,2374.896044
59537.522420,-888.247130,-9548.656652,1378.971896
59537.522730,-3552.988522,-8808.450710,0.000000
59537.523039,-3552.988522,-6291.750507,-1838.629195
59537.523349,0.000000,-5403.503377,0.000000
59537.523659,1480.411884,-7772.162391,2451.505594
59537.523968,2294.638420,-8290.306550,-76.609550
59537.524278,1332.370696,-10140.821405,1838.629195
59537.524588,3478.967927,-11843.295072,2374.896044
59537.524897,0.000000,-11325.150913,1838.629195
59537.525207,-2220.617826,-10955.047942,-383.047749
59537.525517,-1628.453072,-10066.800811,0.000000
59537.525826,1554.432478,-8290.306550,919.314598
59537.526136,1702.473667,-7476.080014,842.705048
59537.526446,592.164754,-5995.668130,153.219100
59537.526755,3849.070898,-7476.080014,3064.381992
59537.527065,6439.791695,-8882.471304,2374.896044
59537.527375,0.000000,-7179.997637,1225.752797
59537.527684,-1258.350101,-11843.295072,-76.609550
59537.527994,-4145.153275,-9548.656652,-1838.629195
59537.528304,-962.267725,-9770.718434,-1378.971896
59537.528613,148.041188,-8882.471304,-689.485948
59537.528923,814.226536,-9844.739029,383.047749
59537.529233,3478.967927,-10362.883188,1149.143247
59537.529542,1406.391290,-5107.421000,76.609550
59537.529852,-1776.494261,-10732.986159,0.000000
59537.530162,2368.659014,-9252.574275,3217.601092
59537.530471,-1406.391290,-9326.594869,76.609550
59537.530781,1480.411884,-7179.997637,1532.190996
59537.531090,-2368.659014,-8364.327145,0.000000
59537.531400,814.226536,-7550.100608,1072.533697
59537.531710,2738.761985,-7476.080014,995.924147
59537.532019,1332.370696,-8216.285956,689.485948
59537.532329,-666.185348,-9474.636058,-689.485948
59537.532639,-5995.668130,-11547.212695,-2528.115143
59537.532948,-5921.647536,-10140.821405,-5822.325785
59537.533258,-2368.659014,-11325.150913,306.438199
59537.533568,1702.473667,-9178.553681,1149.143247
59537.533877,1776.494261,-7179.997637,3064.381992
59537.534187,1776.494261,-5995.668130,3064.381992
59537.534497,3256.906145,-7179.997637,3677.258390
59537.534806,222.061783,-9474.636058,3064.381992
59537.535116,-3330.926739,-8956.491898,459.657299
59537.535426,-3923.091493,-11843.295072,-76.609550
59537.535735,-2442.679609,-7105.977043,-2528.115143
59537.536045,-3923.091493,-6735.874072,-3294.210641
59537.536355,-592.164754,-9844.739029,2145.067394
59537.536664,1702.473667,-9474.636058,1149.143247
59537.536974,0.000000,-7179.997637,0.000000
59537.537284,-1554.432478,-9622.677246,612.876398
59537.537593,-2368.659014,-10066.800811,612.876398
59537.537903,-3108.864956,-10955.047942,995.924147
59537.538213,-592.164754,-7476.080014,229.828649
59537.538522,-74.020594,-11695.253884,3524.039291
59537.538832,2294.638420,-9474.636058,2374.896044
59537.539142,518.144159,-7772.162391,0.000000
59537.539451,5699.585753,-9178.553681,3907.087040
59537.539761,0.000000,-8068.244768,919.314598
59537.540071,-4737.318029,-7772.162391,0.000000
59537.540380,-5551.544565,-10807.006753,-1608.800546
59537.540690,-3552.988522,-8364.327145,-2145.067394
59537.541000,-1480.411884,-10510.924376,0.000000
59537.541309,666.185348,-7772.162391,995.924147
59537.541619,2664.741391,-11029.068536,4213.525239
59537.541929,7031.956449,-9474.636058,4826.401637
59537.542238,3478.967927,-9474.636058,2374.896044
59537.542548,-2368.659014,-7179.997637,612.876398
59537.542857,-1258.350101,-11843.295072,-76.609550
59537.543167,-4145.153275,-4811.338623,-3677.258390
59537.543477,-666.185348,-8290.306550,-689.485948
59537.543786,444.123565,-6587.832884,1149.143247
59537.544096,2294.638420,-8660.409521,2145.067394
59537.544406,4663.297435,-7105.977043,1762.019645
59537.544715,3701.029710,-10140.821405,4290.134789
59537.545025,1702.473667,-11843.295072,3140.991542
59537.545335,-1850.514855,-13027.624579,-76.609550
59537.545644,-4441.235652,-7476.080014,-3447.429741
59537.545954,-1332.370696,-11843.295072,-153.219100
59537.546264,-1998.556043,-7476.080014,-1225.752797
59537.546573,4071.132681,-9474.636058,2681.334243
59537.546883,5551.544565,-6143.709319,2757.943793
59537.547193,4219.173869,-7994.224174,2834.553343
59537.547502,666.185348,-8512.368333,2145.067394
59537.547812,-3552.988522,-9548.656652,0.000000
59537.548122,-1776.494261,-10732.986159,306.438199
59537.548431,-1258.350101,-11251.130318,-76.609550
59537.548741,-4737.318029,-8364.327145,-2451.505594
59537.549051,2294.638420,-11251.130318,-76.609550
59537.549360,4071.132681,-6217.729913,-76.609550
59537.549670,4071.132681,-10658.965565,2987.772442
59537.549980,0.000000,-9400.615463,1225.752797
59537.550289,-2960.823768,-10732.986159,0.000000
59537.550599,-3034.844362,-9252.574275,-1149.143247
59537.550909,-4737.318029,-9548.656652,0.000000
59537.551218,-2368.659014,-8364.327145,612.876398
59537.551528,2294.638420,-11695.253884,4749.792088
59537.551838,2590.720797,-4589.276840,995.924147
59537.552147,2664.741391,-7179.997637,3983.696590
59537.552457,2294.638420,-8290.306550,3600.648841
59537.552767,-2146.597232,-10658.965565,1762.019645
59537.553076,-4515.256246,-9770.718434,-1302.362347
59537.553386,-5107.421000,-10436.903782,-1608.800546
59537.553695,-4071.132681,-9770.718434,-689.485948
59537.554005,-3552.988522,-7772.162391,0.000000
59537.554315,0.000000,-7179.997637,1225.752797
59537.554624,5773.606348,-11843.295072,6358.592633
59537.554934,2294.638420,-7402.059420,2374.896044
59537.555244,-2368.659014,-9252.574275,3064.381992
59537.555553,-1258.350101,-9474.636058,-76.609550
59537.555863,-2960.823768,-9548.656652,306.438199
59537.556173,-1554.432478,-8216.285956,536.266849
59537.556482,148.041188,-8216.285956,1378.971896
59537.556792,2368.659014,-7031.956449,1762.019645
59537.557102,1924.535449,-6587.832884,0.000000
59537.557411,-2368.659014,-9548.656652,612.876398
59537.557721,-4737.318029,-9548.656652,0.000000
59537.558031,-3923.091493,-13027.624579,-383.047749
59537.558340,-5921.647536,-11325.150913,-2451.505594
59537.558650,2294.638420,-11251.130318,2374.896044
59537.558960,1776.494261,-9252.574275,3677.258390
59537.559269,4811.338623,-6069.688724,2681.334243
59537.559579,4885.359217,-7328.038826,3294.210641
59537.559889,4811.338623,-7476.080014,3524.039291
59537.560198,-74.020594,-7402.059420,76.609550
59537.560508,-5921.647536,-7179.997637,-1915.238745
59537.560818,-7105.977043,-7179.997637,-4903.011187
59537.561127,-1554.432478,-12435.459826,-689.485948
59537.561437,-2368.659014,-9622.677246,-2374.896044
59537.561747,3108.864956,-12287.418637,3600.648841
59537.562056,2368.659014,-8660.409521,1532.190996
59537.562366,2886.803174,-10214.842000,2451.505594
59537.562676,0.000000,-9178.553681,1455.581446
59537.562985,-2072.576638,-9548.656652,766.095498
59537.563295,-1258.350101,-8290.306550,-1302.362347
59537.563605,-2146.597232,-8142.265362,-1302.362347
59537.563914,-3552.988522,-5995.668130,0.000000
59537.564224,5255.462188,-9474.636058,4213.525239
59537.564534,4367.215058,-5403.503377,1685.410096
59537.564843,2960.823768,-8660.409521,4903.011187
59537.565153,-1184.329507,-9548.656652,0.000000
59537.565462,-3330.926739,-11103.089130,-919.314598
59537.565772,-3997.112087,-11103.089130,-1838.629195
59537.566082,-4885.359217,-11769.274478,-1915.238745
59537.566391,-666.185348,-11843.295072,-689.485948
59537.566701,3182.885551,-8290.306550,1762.019645
59537.567011,2368.659014,-3627.009116,1225.752797
59537.567320,5033.400406,-7476.080014,5822.325785
59537.567630,1702.473667,-8290.306550,2681.334243
59537.567940,-2368.659014,-7179.997637,0.000000
59537.568249,-3108.864956,-7772.162391,-1225.752797
59537.568559,-3404.947333,-9696.697840,-842.705048
59537.568869,-3627.009116,-9696.697840,-1149.143247
59537.569178,-1776.494261,-9918.759623,-689.485948
59537.569488,4663.297435,-9474.636058,2374.896044
59537.569798,4071.132681,-10658.965565,4826.401637
59537.570107,2294.638420,-9474.636058,2374.896044
59537.570417,-2960.823768,-7179.997637,612.876398
59537.570727,-518.144159,-9844.739029,3294.210641
59537.571036,-4441.235652,-8364.327145,306.438199
59537.571346,-2886.803174,-7698.141797,0.000000
59537.571656,592.164754,-8142.265362,1838.629195
59537.571965,4441.235652,-6513.812290,2834.553343
59537.572275,3182.885551,-7402.059420,3064.381992
59537.572585,2294.638420,-10658.965565,4826.401637
59537.572894,-74.020594,-11843.295072,2374.896044
59537.573204,-2442.679609,-9474.636058,-2528.115143
59537.573514,-7105.977043,-10732.986159,-2451.505594
59537.573823,-3923.091493,-11843.295072,-1302.362347
59537.574133,-4737.318029,-9548.656652,0.000000
59537.574443,2886.803174,-7698.141797,1455.581446
59537.574752,3108.864956,-7624.121203,3370.820191
59537.575062,1924.535449,-6735.874072,3677.258390
59537.575372,370.102971,-7476.080014,2451.505594
59537.575681,-74.020594,-9474.636058,2298.286494
59537.575991,-1258.350101,-11843.295072,2374.896044
59537.576301,-3627.009116,-8882.471304,-2528.115143
59537.576610,-3552.988522,-10732.986159,306.438199
59537.576920,2886.803174,-7105.977043,842.705048
59537.577229,0.000000,-5995.668130,0.000000
59537.577539,814.226536,-8290.306550,1608.800546
59537.577849,-2220.617826,-10140.821405,0.000000
59537.578158,-2368.659014,-9918.759623,-383.047749
59537.578468,-3404.947333,-11177.109724,-689.485948
59537.578778,-2368.659014,-10436.903782,306.438199
59537.579087,1258.350101,-9992.780217,1838.629195
59537.579397,6439.791695,-8882.471304,3600.648841
59537.579707,1776.494261,-5403.503377,1532.190996
59537.580016,2886.803174,-8290.306550,3600.648841
59537.580326,-962.267725,-6439.791695,0.000000
59537.580636,-74.020594,-9474.636058,1149.143247
59537.580945,-2664.741391,-10732.986159,-612.876398
59537.581255,-3849.070898,-11325.150913,-1225.752797
59537.581565,-2072.576638,-10658.965565,-1072.533697
59537.581874,1184.329507,-8364.327145,1838.629195
59537.582184,4737.318029,-9548.656652,1225.752797
59537.582494,5255.462188,-9474.636058,4826.401637
59537.582803,2294.638420,-9474.636058,1762.019645
59537.583113,0.000000,-7179.997637,0.000000
59537.583423,-666.185348,-9474.636058,-383.047749
59537.583732,-1554.432478,-8882.471304,-76.609550
59537.584042,-2442.679609,-9548.656652,-689.485948
59537.584352,1924.535449,-8290.306550,0.000000
59537.584661,2664.741391,-9326.594869,1838.629195
59537.584971,0.000000,-5995.668130,1225.752797
59537.585281,-1776.494261,-9548.656652,0.000000
59537.585590,1036.288319,-10732.986159,2298.286494
59537.585900,-1258.350101,-10658.965565,-383.047749
59537.586210,-3108.864956,-11917.315666,1149.143247
59537.586519,-2442.679609,-10658.965565,-689.485948
59537.586829,-74.020594,-9030.512492,1378.971896
59537.587139,4441.235652,-7402.059420,2911.162892
59537.587448,4293.194464,-5033.400406,4060.306139
59537.587758,666.185348,-8142.265362,3294.210641
59537.588067,-3552.988522,-5995.668130,0.000000
59537.588377,-4737.318029,-9548.656652,0.000000
59537.588687,-1554.432478,-12879.583391,-76.609550
59537.588996,-7994.224174,-11029.068536,-2681.334243
59537.589306,-1332.370696,-9992.780217,1762.019645
59537.589616,3478.967927,-11547.212695,2374.896044
59537.589925,2368.659014,-8068.244768,2145.067394
59537.590235,740.205942,-9252.574275,2681.334243
59537.590545,740.205942,-6365.771101,2298.286494
59537.590854,444.123565,-9252.574275,1225.752797
59537.591164,-3849.070898,-6587.832884,0.000000
59537.591474,-5773.606348,-7179.997637,-3140.991542
59537.591783,-2368.659014,-9548.656652,1532.190996
59537.592093,3478.967927,-9178.553681,2374.896044
59537.592403,592.164754,-5995.668130,0.000000
59537.592712,3256.906145,-9474.636058,4213.525239
59537.593022,592.164754,-7476.080014,1225.752797
59537.593332,-666.185348,-9474.636058,76.609550
59537.593641,-3627.009116,-11029.068536,-919.314598
59537.593951,-5255.462188,-11917.315666,-1378.971896
59537.594261,-3034.844362,-9178.553681,-1302.362347
59537.594570,370.102971,-7105.977043,-76.609550
59537.594880,0.000000,-5995.668130,1225.752797
59537.595190,3478.967927,-9474.636058,3294.210641
59537.595499,1184.329507,-5551.544565,0.000000
59537.595809,3478.967927,-11251.130318,3524.039291
59537.596119,-2368.659014,-9548.656652,0.000000
59537.596428,-4071.132681,-11473.192101,-689.485948
59537.596738,-1258.350101,-10436.903782,-995.924147
59537.597048,814.226536,-9696.697840,459.657299
59537.597357,2294.638420,-8882.471304,-76.609550
59537.597667,1702.473667,-8882.471304,-76.609550
59537.597977,0.000000,-5995.668130,0.000000
59537.598286,2886.803174,-10510.924376,2987.772442
59537.598596,-1554.432478,-8512.368333,-1915.238745
59537.598906,-2368.659014,-11325.150913,2451.505594
59537.599215,-1184.329507,-8364.327145,0.000000
59537.599525,1628.453072,-7772.162391,1072.533697
59537.599834,518.144159,-8512.368333,2068.457845
59537.600144,-814.226536,-7772.162391,1149.143247
59537.600454,2294.638420,-8882.471304,2374.896044
59537.600763,2294.638420,-9474.636058,-76.609550
59537.601073,-2442.679609,-7402.059420,-766.095498
59537.601383,-3404.947333,-10732.986159,0.000000
59537.601692,-2442.679609,-9474.636058,-1915.238745
59537.602002,0.000000,-9548.656652,0.000000
59537.602312,0.000000,-9548.656652,1225.752797
59537.602621,592.164754,-8216.285956,2298.286494
59537.602931,666.185348,-6661.853478,1225.752797
59537.603241,1406.391290,-7254.018232,919.314598
59537.603550,2294.638420,-10658.965565,3600.648841
59537.603860,-74.020594,-13027.624579,3600.648841
59537.604170,-2442.679609,-9178.553681,-1302.362347
59537.604480,0.000000,-9548.656652,0.000000
59537.604789,-74.020594,-9474.636058,-76.609550
59537.605099,0.000000,-7179.997637,612.876398
59537.605409,-222.061783,-7402.059420,1149.143247
59537.605718,2294.638420,-8290.306550,1149.143247
59537.606028,-1924.535449,-9696.697840,229.828649
59537.606338,-2220.617826,-10140.821405,459.657299
59537.606647,-370.102971,-12435.459826,1838.629195
59537.606957,-74.020594,-13027.624579,2987.772442
59537.607267,-666.185348,-8290.306550,-383.047749
59537.607576,0.000000,-8512.368333,2145.067394
59537.607886,2294.638420,-7105.977043,2374.896044
59537.608196,0.000000,-4811.338623,0.000000
59537.608506,370.102971,-9474.636058,1149.143247
59537.608815,-1924.535449,-10732.986159,0.000000
59537.609125,-1776.494261,-11547.212695,-842.705048
59537.609435,222.061783,-10584.944971,0.000000
59537.609744,888.247130,-11325.150913,2145.067394
59537.610054,3404.947333,-11177.109724,4826.401637
59537.610364,-74.020594,-7105.977043,-76.609550
59537.610673,0.000000,-6587.832884,612.876398
59537.610983,1702.473667,-13027.624579,3600.648841
59537.611293,-2738.761985,-7179.997637,0.000000
59537.611602,-1258.350101,-10658.965565,459.657299
59537.611912,-888.247130,-8956.491898,0.000000
59537.612222,-592.164754,-9104.533087,1225.752797
59537.612531,-518.144159,-7105.977043,1149.143247
59537.612841,0.000000,-6587.832884,1838.629195
59537.613151,1184.329507,-6587.832884,2451.505594
59537.613461,2294.638420,-11251.130318,2374.896044
59537.613770,-2368.659014,-9548.656652,0.000000
59537.614080,-74.020594,-13915.871710,2374.896044
59537.614390,-1850.514855,-7402.059420,-2451.505594
59537.614699,-74.020594,-10658.965565,1149.143247
59537.615009,-370.102971,-8216.285956,612.876398
59537.615319,-962.267725,-8734.430116,612.876398
59537.615628,592.164754,-7772.162391,919.314598
59537.615938,0.000000,-8364.327145,1225.752797
59537.616248,-3552.988522,-7179.997637,0.000000
59537.616557,-74.020594,-11843.295072,2374.896044
59537.616867,-1184.329507,-6291.750507,0.000000
59537.617177,-222.061783,-10066.800811,1762.019645
59537.617487,-74.020594,-7105.977043,0.000000
59537.617796,-888.247130,-9474.636058,1302.362347
59537.618106,740.205942,-8068.244768,153.219100
59537.618416,148.041188,-10510.924376,383.047749
59537.618725,-1110.308913,-9474.636058,229.828649
59537.619035,-4737.318029,-9844.739029,0.000000
59537.619345,-4145.153275,-7179.997637,-2451.505594
59537.619654,1554.432478,-11843.295072,2911.162892
59537.619964,-666.185348,-7550.100608,76.609550
59537.620274,-2146.597232,-11695.253884,2068.457845
59537.620583,2294.638420,-8882.471304,-76.609550
59537.620893,3552.988522,-7179.997637,2757.943793
59537.621203,2294.638420,-8216.285956,3524.039291
59537.621512,-814.226536,-8512.368333,919.314598
59537.621822,-1036.288319,-8956.491898,689.485948
59537.622132,-1776.494261,-8438.347739,-1225.752797
59537.622442,-3330.926739,-7179.997637,-1838.629195
59537.622751,-1776.494261,-10584.944971,1455.581446
59537.623061,-74.020594,-8882.471304,-689.485948
59537.623371,592.164754,-7179.997637,1225.752797
59537.623680,4071.132681,-11843.295072,2374.896044
59537.623990,-1480.411884,-9252.574275,1225.752797
59537.624300,-592.164754,-8364.327145,229.828649
59537.624609,-592.164754,-10436.903782,0.000000
59537.624919,-1702.473667,-9030.512492,153.219100
59537.625229,-3034.844362,-8586.388927,-842.705048
59537.625538,-2146.597232,-4811.338623,-2068.457845
59537.625848,1184.329507,-8364.327145,2451.505594
59537.626158,2294.638420,-8882.471304,1762.019645
59537.626468,-3552.988522,-7772.162391,0.000000
59537.626777,3478.967927,-9474.636058,2987.772442
59537.627087,0.000000,-8660.409521,1225.752797
59537.627397,-518.144159,-9104.533087,1225.752797
59537.627706,-2220.617826,-9696.697840,0.000000
59537.628016,-1406.391290,-7550.100608,-229.828649
59537.628326,-74.020594,-9474.636058,-76.609550
59537.628635,-74.020594,-9474.636058,-383.047749
59537.628945,-2368.659014,-9548.656652,0.000000
59537.629255,1998.556043,-9474.636058,1762.019645
59537.629564,0.000000,-7179.997637,0.000000
59537.629874,-74.020594,-10658.965565,2374.896044
59537.630184,-3182.885551,-9696.697840,-383.047749
59537.630493,-148.041188,-8734.430116,229.828649
59537.630803,1480.411884,-9252.574275,1915.238745
59537.631113,1406.391290,-8290.306550,2145.067394
59537.631423,1702.473667,-10362.883188,3600.648841
59537.631732,2294.638420,-9474.636058,-76.609550
59537.632042,-2960.823768,-8364.327145,0.000000
59537.632352,-370.102971,-10881.027347,2374.896044
59537.632661,-4145.153275,-7179.997637,0.000000
59537.632971,296.082377,-9104.533087,1838.629195
59537.633281,222.061783,-8808.450710,536.266849
59537.633590,222.061783,-7624.121203,1072.533697
59537.633900,0.000000,-9844.739029,919.314598
59537.634210,1258.350101,-8956.491898,459.657299
59537.634519,-74.020594,-10658.965565,1378.971896
59537.634829,-74.020594,-13027.624579,-76.609550
59537.635139,-4441.235652,-8660.409521,-1455.581446
59537.635449,-444.123565,-9104.533087,2374.896044
59537.635758,1110.308913,-7105.977043,-76.609550
59537.636068,592.164754,-7772.162391,3064.381992
59537.636378,1406.391290,-8586.388927,1762.019645
59537.636687,1184.329507,-8142.265362,1378.971896
59537.636997,1036.288319,-9400.615463,919.314598
59537.637307,-1924.535449,-9844.739029,-76.609550
59537.637616,-2442.679609,-13027.624579,-612.876398
59537.637926,-1258.350101,-9474.636058,-76.609550
59537.638236,-2442.679609,-10362.883188,-383.047749
59537.638545,2960.823768,-6587.832884,3524.039291
59537.638855,1110.308913,-9178.553681,1762.019645
59537.639165,0.000000,-6587.832884,2451.505594
59537.639474,-962.267725,-9474.636058,1455.581446
59537.639784,-1702.473667,-9326.594869,1072.533697
59537.640094,-1924.535449,-9474.636058,536.266849
59537.640404,-2516.700203,-8290.306550,229.828649
59537.640713,1184.329507,-7179.997637,0.000000
59537.641023,2664.741391,-10288.862594,4060.306139
59537.641333,1110.308913,-7698.141797,229.828649
59537.641642,0.000000,-10140.821405,2451.505594
59537.641952,-74.020594,-10658.965565,-76.609550
59537.642262,-2368.659014,-10436.903782,153.219100
59537.642571,-1258.350101,-10510.924376,1072.533697
59537.642881,-1480.411884,-9474.636058,-383.047749
59537.643191,444.123565,-7920.203579,229.828649
59537.643500,1036.288319,-8512.368333,1072.533697
59537.643810,1184.329507,-8660.409521,1838.629195
59537.644120,1184.329507,-8364.327145,3064.381992
59537.644430,2294.638420,-9474.636058,2374.896044
59537.644739,-3256.906145,-8956.491898,0.000000
59537.645049,-74.020594,-11843.295072,-76.609550
59537.645359,-2368.659014,-6587.832884,0.000000
59537.645668,-148.041188,-8216.285956,612.876398
59537.645978,0.000000,-8142.265362,536.266849
59537.646288,0.000000,-9104.533087,459.657299
59537.646597,148.041188,-9844.739029,919.314598
59537.646907,0.000000,-9548.656652,0.000000
59537.647217,-4737.318029,-9548.656652,0.000000
59537.647526,-666.185348,-11547.212695,1149.143247
59537.647836,-2368.659014,-7179.997637,0.000000
59537.648146,2294.638420,-8290.306550,-76.609550
59537.648455,0.000000,-6365.771101,1225.752797
59537.648765,1480.411884,-9326.594869,2451.505594
59537.649075,2516.700203,-9474.636058,2528.115143
59537.649385,2738.761985,-8364.327145,2451.505594
59537.649694,0.000000,-9326.594869,2068.457845
59537.650004,-4145.153275,-7772.162391,0.000000
59537.650314,-4737.318029,-9548.656652,0.000000
59537.650623,-74.020594,-9474.636058,-76.609550
59537.650933,-1776.494261,-8364.327145,612.876398
59537.651243,2294.638420,-9474.636058,1762.019645
59537.651552,-74.020594,-7698.141797,0.000000
59537.651862,592.164754,-8808.450710,1991.848295
59537.652172,-2146.597232,-9326.594869,612.876398
59537.652481,-4367.215058,-9474.636058,-536.266849
59537.652791,-4219.173869,-9104.533087,-76.609550
59537.653101,-3404.947333,-6809.894666,-1608.800546
59537.653411,-2220.617826,-6143.709319,0.000000
59537.653720,1480.411884,-9178.553681,2834.553343
59537.654030,1332.370696,-7105.977043,0.000000
59537.654340,5329.482782,-10362.883188,4366.744339
59537.654649,2294.638420,-10066.800811,383.047749
59537.654959,-2368.659014,-9696.697840,0.000000
59537.655269,-4145.153275,-10955.047942,-1455.581446
59537.655578,-2146.597232,-9696.697840,-1991.848295
59537.655888,-888.247130,-9548.656652,-76.609550
59537.656198,222.061783,-8882.471304,1762.019645
59537.656507,2294.638420,-7105.977043,842.705048
59537.656817,2368.659014,-8364.327145,2451.505594
59537.657127,2590.720797,-11251.130318,3600.648841
59537.657436,-4737.318029,-7772.162391,0.000000
59537.657746,-1850.514855,-10362.883188,-1302.362347
59537.658056,-3034.844362,-8882.471304,-1225.752797
59537.658366,-740.205942,-9474.636058,-153.219100
59537.658675,962.267725,-9030.512492,1302.362347
59537.658985,2368.659014,-9104.533087,3447.429741
59537.659295,4071.132681,-7698.141797,2987.772442
59537.659604,1110.308913,-8882.471304,995.924147
59537.659914,-3552.988522,-9548.656652,306.438199
59537.660224,-2516.700203,-10658.965565,-689.485948
59537.660533,-4737.318029,-7179.997637,0.000000
59537.660843,-74.020594,-11103.089130,-76.609550
59537.661153,-592.164754,-8068.244768,306.438199
59537.661462,1332.370696,-9104.533087,2068.457845
59537.661772,3997.112087,-7772.162391,2757.943793
59537.662082,3404.947333,-8660.409521,3677.258390
59537.662392,-74.020594,-9474.636058,2374.896044
59537.662701,-3627.009116,-11251.130318,-383.047749
59537.663011,-5921.647536,-8364.327145,-2451.505594
59537.663321,-666.185348,-11843.295072,-76.609550
59537.663630,-3552.988522,-5403.503377,0.000000
59537.663940,814.226536,-10510.924376,2374.896044
59537.664250,3478.967927,-6513.812290,1455.581446
59537.664559,3330.926739,-9696.697840,3064.381992
59537.664869,962.267725,-9104.533087,2451.505594
59537.665179,-4071.132681,-10140.821405,0.000000
59537.665488,-2442.679609,-9474.636058,-1302.362347
59537.665798,-1258.350101,-10658.965565,-229.828649
59537.666108,-2072.576638,-8364.327145,0.000000
59537.666417,1998.556043,-11843.295072,4826.401637
59537.666727,1406.391290,-5995.668130,842.705048
59537.667037,3552.988522,-8882.471304,4213.525239
59537.667347,0.000000,-9474.636058,2374.896044
59537.667656,-2590.720797,-8956.491898,-153.219100
59537.667966,-4293.194464,-10140.821405,-1302.362347
59537.668276,-2886.803174,-9104.533087,-3064.381992
59537.668585,-296.082377,-11177.109724,1225.752797
59537.668895,2294.638420,-11251.130318,2374.896044
59537.669205,1184.329507,-6587.832884,0.000000
59537.669514,4071.132681,-11843.295072,4826.401637
59537.669824,-370.102971,-7920.203579,842.705048
59537.670134,-2368.659014,-10955.047942,3140.991542
59537.670443,-1998.556043,-8808.450710,-229.828649
59537.670753,-2738.761985,-9770.718434,-766.095498
59537.671063,-888.247130,-9178.553681,689.485948
59537.671373,592.164754,-8364.327145,612.876398
59537.671682,3034.844362,-7772.162391,1532.190996
59537.671992,3701.029710,-10140.821405,3524.039291
59537.672302,-74.020594,-9178.553681,2068.457845
59537.672611,-4737.318029,-9548.656652,0.000000
59537.672921,-1258.350101,-10658.965565,-76.609550
59537.673231,-3552.988522,-9992.780217,153.219100
59537.673540,-2146.597232,-9104.533087,-689.485948
59537.673850,-1850.514855,-9400.615463,-689.485948
59537.674160,814.226536,-8364.327145,766.095498
59537.674469,2442.679609,-6883.915261,1149.143247
59537.674779,1480.411884,-8956.491898,1225.752797
59537.675089,-444.123565,-10436.903782,2451.505594
59537.675398,-1258.350101,-9474.636058,-76.609550
59537.675708,-3552.988522,-7179.997637,0.000000
59537.676018,-74.020594,-9474.636058,2374.896044
59537.676328,0.000000,-8364.327145,1838.629195
59537.676637,2886.803174,-8290.306550,2374.896044
59537.676947,3182.885551,-8586.388927,2374.896044
59537.677257,1480.411884,-10140.821405,3140.991542
59537.677566,-1924.535449,-9030.512492,-76.609550
59537.677876,-4737.318029,-8660.409521,-2451.505594
59537.678186,-4145.153275,-8364.327145,0.000000
59537.678495,-370.102971,-10658.965565,1149.143247
59537.678805,-3552.988522,-5995.668130,0.000000
59537.679115,2516.700203,-9474.636058,4826.401637
59537.679424,2368.659014,-7179.997637,2451.505594
59537.679734,2146.597232,-9918.759623,2757.943793
59537.680044,-666.185348,-8734.430116,1072.533697
59537.680354,-2146.597232,-8660.409521,0.000000
59537.680663,-1702.473667,-9474.636058,-76.609550
59537.680973,-2368.659014,-7772.162391,-1302.362347
59537.681283,-2960.823768,-8364.327145,0.000000
59537.681592,2590.720797,-10066.800811,2834.553343
59537.681902,296.082377,-5995.668130,0.000000
59537.682212,4441.235652,-10436.903782,5209.449386
59537.682521,296.082377,-7179.997637,1225.752797
59537.682831,-1554.432478,-9326.594869,459.657299
59537.683141,-2368.659014,-9400.615463,-766.095498
59537.683450,-3701.029710,-10066.800811,-689.485948
59537.683760,-1406.391290,-11251.130318,-76.609550
59537.684070,1110.308913,-5995.668130,1149.143247
59537.684379,1184.329507,-6587.832884,1225.752797
59537.684689,3775.050304,-9474.636058,4213.525239
59537.684999,-3775.050304,-6143.709319,0.000000
59537.685309,-2072.576638,-10140.821405,612.876398
59537.685618,-3552.988522,-7920.203579,-2451.505594
59537.685928,-2960.823768,-9548.656652,-1149.143247
59537.686238,-1924.535449,-9400.615463,-612.876398
59537.686547,888.247130,-9178.553681,919.314598
59537.686857,4367.215058,-9474.636058,2987.772442
59537.687167,1406.391290,-9474.636058,3600.648841
59537.687476,-1480.411884,-7328.038826,153.219100
59537.687786,-2368.659014,-9548.656652,0.000000
59537.688096,-74.020594,-10658.965565,-76.609550
59537.688405,-3552.988522,-7179.997637,0.000000
59537.688715,-2294.638420,-8142.265362,-1608.800546
59537.689025,-1184.329507,-9252.574275,0.000000
59537.689335,1554.432478,-8586.388927,689.485948
59537.689644,1702.473667,-9474.636058,1915.238745
59537.689954,1702.473667,-9992.780217,4213.525239
59537.690264,-1850.514855,-9474.636058,-76.609550
59537.690573,-2738.761985,-8882.471304,-1302.362347
59537.690883,-4145.153275,-10140.821405,1225.752797
59537.691193,-1258.350101,-7994.224174,-1302.362347
59537.691502,296.082377,-8956.491898,612.876398
59537.691812,4663.297435,-7105.977043,1762.019645
59537.692122,3182.885551,-8586.388927,2987.772442
59537.692431,1258.350101,-8290.306550,2681.334243
59537.692741,-1480.411884,-9178.553681,842.705048
59537.693051,-1628.453072,-9844.739029,306.438199
59537.693360,-1554.432478,-11843.295072,-76.609550
59537.693670,-2442.679609,-9474.636058,-1302.362347
59537.693980,-1184.329507,-9548.656652,0.000000
59537.694290,4663.297435,-11251.130318,3600.648841
59537.694599,3330.926739,-7772.162391,536.266849
59537.694909,2294.638420,-9326.594869,2374.896044
59537.695219,-1776.494261,-8734.430116,612.876398
59537.695528,-2368.659014,-9548.656652,0.000000
59537.695838,-2886.803174,-11029.068536,-459.657299
59537.696148,-2368.659014,-7179.997637,0.000000
59537.696457,-1850.514855,-12805.562797,2681.334243
59537.696767,4663.297435,-7105.977043,2068.457845
59537.697077,4737.318029,-5995.668130,4903.011187
59537.697386,3478.967927,-8290.306550,3600.648841
59537.697696,-2368.659014,-5995.668130,0.000000
59537.698006,-666.185348,-11843.295072,-76.609550
59537.698316,-2960.823768,-9548.656652,-1915.238745
59537.698625,-5995.668130,-12509.480420,-1225.752797
59537.698935,-3478.967927,-10066.800811,-1225.752797
59537.699245,0.000000,-7772.162391,1225.752797
59537.699554,5255.462188,-8364.327145,3677.258390
59537.699864,4071.132681,-9474.636058,3600.648841
59537.700174,-1998.556043,-6291.750507,0.000000
59537.700483,3182.885551,-10658.965565,2374.896044
59537.700793,-2442.679609,-8290.306550,-689.485948
59537.701103,-1924.535449,-9474.636058,-76.609550
59537.701412,-3034.844362,-10362.883188,-995.924147
59537.701722,2220.617826,-8068.244768,766.095498
59537.702032,3404.947333,-9030.512492,1991.848295
59537.702341,296.082377,-8068.244768,0.000000
59537.702651,0.000000,-10732.986159,1838.629195
59537.702961,-74.020594,-11843.295072,1455.581446
59537.703270,-2442.679609,-11251.130318,-1915.238745
59537.703580,-2960.823768,-11325.150913,1225.752797
59537.703890,-666.185348,-9474.636058,-76.609550
59537.704199,1776.494261,-7179.997637,2068.457845
59537.704509,3404.947333,-7624.121203,2374.896044
59537.704819,2886.803174,-7254.018232,3677.258390
59537.705128,2220.617826,-7994.224174,3294.210641
59537.705438,-2368.659014,-7179.997637,0.000000
59537.705748,-4589.276840,-9548.656652,-1915.238745
59537.706057,-5107.421000,-12435.459826,-689.485948
59537.706367,-4959.379811,-10955.047942,-2834.553343
59537.706677,0.000000,-9548.656652,0.000000
59537.706986,2886.803174,-10658.965565,2374.896044
59537.707296,2886.803174,-8290.306550,2681.334243
59537.707606,1184.329507,-8438.347739,2757.943793
59537.707915,1110.308913,-7698.141797,2374.896044
59537.708225,-1554.432478,-9252.574275,1149.143247
59537.708535,-3478.967927,-6587.832884,0.000000
59537.708844,-2960.823768,-7179.997637,0.000000
59537.709154,1776.494261,-6883.915261,1532.190996
59537.709463,2294.638420,-6217.729913,-689.485948
59537.709773,0.000000,-8512.368333,3064.381992
59537.710083,3478.967927,-13027.624579,3600.648841
59537.710392,0.000000,-10140.821405,1532.190996
59537.710702,-2664.741391,-11843.295072,-76.609550
59537.711012,-4663.297435,-11399.171507,-995.924147
59537.711321,-3108.864956,-10214.842000,-153.219100
59537.711631,518.144159,-8142.265362,-76.609550
59537.711941,0.000000,-4811.338623,612.876398
59537.712250,1480.411884,-6291.750507,3064.381992
59537.712560,4071.132681,-8290.306550,3600.648841
59537.712870,592.164754,-7179.997637,2451.505594
59537.713179,-74.020594,-11843.295072,3447.429741
59537.713489,-4737.318029,-9548.656652,-1225.752797
59537.713799,-3701.029710,-11251.130318,-1685.410096
59537.714108,-444.123565,-10066.800811,-1072.533697
59537.714418,592.164754,-9548.656652,76.609550
59537.714728,2294.638420,-10658.965565,2374.896044
59537.715037,-666.185348,-8438.347739,153.219100
59537.715347,0.000000,-8364.327145,612.876398
59537.715657,1110.308913,-13027.624579,3600.648841
59537.715966,-3552.988522,-5403.503377,0.000000
59537.716276,-592.164754,-10436.903782,2604.724693
59537.716586,-2368.659014,-7179.997637,-1225.752797
59537.716895,1184.329507,-8068.244768,766.095498
59537.717205,1480.411884,-8438.347739,2145.067394
59537.717515,814.226536,-9252.574275,2221.676944
59537.717824,2294.638420,-9474.636058,2374.896044
59537.718134,-74.020594,-9474.636058,-76.609550
59537.718444,-3552.988522,-9548.656652,0.000000
59537.718753,-1776.494261,-12731.542202,2145.067394
59537.719063,-2146.597232,-8956.491898,-1608.800546
59537.719373,1184.329507,-7179.997637,1225.752797
59537.719682,296.082377,-7179.997637,689.485948
59537.719992,814.226536,-8290.306550,2451.505594
59537.720301,888.247130,-9104.533087,2145.067394
59537.720611,1554.432478,-8364.327145,919.314598
59537.720921,1110.308913,-11251.130318,2374.896044
59537.721230,-74.020594,-9474.636058,-76.609550
59537.721540,-2072.576638,-8364.327145,-919.314598
59537.721850,1184.329507,-10658.965565,2374.896044
59537.722159,-2368.659014,-7772.162391,0.000000
59537.722469,-1776.494261,-9548.656652,1225.752797
59537.722779,-1110.308913,-8586.388927,536.266849
59537.723088,592.164754,-8734.430116,995.924147
59537.723398,-592.164754,-8734.430116,612.876398
59537.723708,-2960.823768,-8956.491898,0.000000
59537.724017,-74.020594,-11251.130318,1915.238745
59537.724327,3478.967927,-9474.636058,-76.609550
59537.724637,-1258.350101,-7179.997637,306.438199
59537.724946,-1776.494261,-11621.233289,4290.134789
59537.725256,1998.556043,-7105.977043,1149.143247
59537.725566,0.000000,-7179.997637,0.000000
59537.725875,-666.185348,-8290.306550,536.266849
59537.726185,-4663.297435,-9548.656652,-536.266849
59537.726495,-3108.864956,-9992.780217,-612.876398
59537.726804,-740.205942,-9326.594869,-459.657299
59537.727114,-888.247130,-10807.006753,2451.505594
59537.727424,-74.020594,-9474.636058,2374.896044
59537.727733,1110.308913,-8290.306550,2374.896044
59537.728043,2368.659014,-7772.162391,3064.381992
59537.728353,-74.020594,-8882.471304,-76.609550
59537.728662,-5773.606348,-6587.832884,-2451.505594
59537.728972,-666.185348,-10658.965565,-229.828649
59537.729282,370.102971,-8512.368333,0.000000
59537.729591,0.000000,-10436.903782,459.657299
59537.729901,222.061783,-9400.615463,1455.581446
59537.730211,1184.329507,-9548.656652,3064.381992
59537.730520,3627.009116,-10066.800811,3524.039291
59537.730830,-74.020594,-10658.965565,2068.457845
59537.731139,-6513.812290,-7179.997637,0.000000
59537.731449,-74.020594,-11547.212695,2374.896044
59537.731759,-962.267725,-5033.400406,-1608.800546
59537.732068,1110.308913,-9326.594869,1149.143247
59537.732378,-740.205942,-7328.038826,995.924147
59537.732688,0.000000,-8142.265362,612.876398
59537.732997,74.020594,-8068.244768,536.266849
59537.733307,0.000000,-8364.327145,1225.752797
59537.733617,0.000000,-10140.821405,1991.848295
59537.733926,-74.020594,-10955.047942,-76.609550
59537.734236,0.000000,-7179.997637,0.000000
59537.734546,-74.020594,-13027.624579,2068.457845
59537.734855,-1258.350101,-7476.080014,-1302.362347
59537.735165,1110.308913,-9474.636058,2068.457845
59537.735475,1702.473667,-7254.018232,1149.143247
59537.735784,888.247130,-8660.409521,2374.896044
59537.736094,-296.082377,-8364.327145,1762.019645
59537.736404,-3552.988522,-7772.162391,0.000000
59537.736713,0.000000,-8364.327145,612.876398
59537.737023,1110.308913,-9474.636058,1762.019645
59537.737333,-2368.659014,-7179.997637,1225.752797
59537.737642,-74.020594,-10362.883188,-76.609550
59537.737952,-74.020594,-8290.306550,-76.609550
59537.738262,-74.020594,-11843.295072,1915.238745
59537.738571,-1036.288319,-10658.965565,612.876398
59537.738881,-1554.432478,-10584.944971,229.828649
59537.739191,370.102971,-8882.471304,612.876398
59537.739500,-2368.659014,-7179.997637,0.000000
59537.739810,0.000000,-7772.162391,1225.752797
59537.740120,-666.185348,-9474.636058,2987.772442
59537.740429,-2294.638420,-4885.359217,-2068.457845
59537.740739,1998.556043,-10658.965565,1762.019645
59537.741049,-74.020594,-9474.636058,2374.896044
59537.741358,-1184.329507,-11325.150913,1838.629195
59537.741668,-74.020594,-10140.821405,536.266849
59537.741977,0.000000,-10214.842000,612.876398
59537.742287,-888.247130,-8734.430116,919.314598
59537.742597,-2220.617826,-6587.832884,-2298.286494
59537.742906,0.000000,-6587.832884,0.000000
59537.743216,1258.350101,-9548.656652,3217.601092
59537.743526,-666.185348,-7105.977043,0.000000
59537.743835,-370.102971,-11547.212695,2068.457845
59537.744145,-74.020594,-9474.636058,-76.609550
59537.744455,-1480.411884,-8956.491898,459.657299
59537.744764,-296.082377,-9104.533087,1762.019645
59537.745074,814.226536,-7846.182985,842.705048
59537.745384,1184.329507,-8216.285956,1455.581446
59537.745693,1110.308913,-8142.265362,-1302.362347
59537.746003,-2960.823768,-8364.327145,0.000000
59537.746313,-1184.329507,-11029.068536,2987.772442
59537.746622,-74.020594,-8882.471304,-76.609550
59537.746932,0.000000,-9548.656652,612.876398
59537.747242,2886.803174,-11843.295072,4213.525239
59537.747551,0.000000,-7772.162391,919.314598
59537.747861,2590.720797,-6957.935855,1915.238745
59537.748171,2516.700203,-7624.121203,2374.896044
59537.748480,1036.288319,-8364.327145,1991.848295
59537.748790,-74.020594,-9474.636058,-76.609550
59537.749100,-2294.638420,-8068.244768,-1838.629195
59537.749409,-2368.659014,-11325.150913,0.000000
59537.749719,-74.020594,-11843.295072,-76.609550
59537.750029,-3552.988522,-8364.327145,0.000000
59537.750338,2146.597232,-10288.862594,3524.039291
59537.750648,0.000000,-7772.162391,306.438199
59537.750958,888.247130,-8956.491898,2068.457845
59537.751267,-296.082377,-9622.677246,1532.190996
59537.751577,-296.082377,-8882.471304,1225.752797
59537.751886,-74.020594,-9326.594869,-76.609550
59537.752196,-962.267725,-7698.141797,229.828649
59537.752506,-2368.659014,-6587.832884,0.000000
59537.752815,-74.020594,-9474.636058,-76.609550
59537.753125,-2368.659014,-7179.997637,-1838.629195
59537.753435,-1776.494261,-8956.491898,1225.752797
59537.753744,-4737.318029,-10436.903782,-919.314598
59537.754054,-1110.308913,-11029.068536,306.438199
59537.754364,1406.391290,-9844.739029,1378.971896
59537.754673,-222.061783,-10214.842000,2374.896044
59537.754983,-74.020594,-8290.306550,2374.896044
59537.755293,-74.020594,-8290.306550,1149.143247
59537.755602,1184.329507,-5995.668130,0.000000
59537.755912,4071.132681,-11843.295072,4213.525239
59537.756222,0.000000,-7476.080014,1225.752797
59537.756531,0.000000,-9548.656652,2451.505594
59537.756841,962.267725,-7994.224174,0.000000
59537.757151,-2146.597232,-10140.821405,0.000000
59537.757460,-4071.132681,-9400.615463,-995.924147
59537.757770,-2368.659014,-10066.800811,-842.705048
59537.758080,1258.350101,-11251.130318,2374.896044
59537.758389,-74.020594,-10362.883188,1762.019645
59537.758699,74.020594,-7254.018232,-76.609550
59537.759009,1184.329507,-8956.491898,3064.381992
59537.759318,370.102971,-7698.141797,536.266849
59537.759628,-4737.318029,-7179.997637,0.000000
59537.759938,-1258.350101,-8882.471304,383.047749
59537.760247,0.000000,-8142.265362,995.924147
59537.760557,2442.679609,-7550.100608,1455.581446
59537.760867,1406.391290,-8142.265362,1378.971896
59537.761176,592.164754,-11103.089130,2911.162892
59537.761486,2294.638420,-11547.212695,1762.019645
59537.761796,-74.020594,-8290.306550,-2528.115143
59537.762105,-3552.988522,-11325.150913,612.876398
59537.762415,-2442.679609,-11251.130318,-76.609550
59537.762724,-4145.153275,-6587.832884,0.000000
59537.763034,2294.638420,-8586.388927,1762.019645
59537.763344,74.020594,-8216.285956,1378.971896
59537.763653,-666.185348,-7994.224174,1225.752797
59537.763963,74.020594,-9326.594869,1455.581446
59537.764273,0.000000,-8364.327145,3064.381992
59537.764582,-740.205942,-11695.253884,1762.019645
59537.764892,-2442.679609,-9474.636058,-76.609550
59537.765202,-4737.318029,-7179.997637,0.000000
59537.765511,3478.967927,-9474.636058,1762.019645
59537.765821,518.144159,-6217.729913,-1072.533697
59537.766131,1702.473667,-9178.553681,1685.410096
59537.766440,740.205942,-10807.006753,995.924147
59537.766750,1406.391290,-10288.862594,612.876398
59537.767060,-1776.494261,-11547.212695,536.266849
59537.767369,-4737.318029,-8364.327145,0.000000
59537.767679,-2072.576638,-9844.739029,306.438199
59537.767989,3330.926739,-8882.471304,-76.609550
59537.768298,592.164754,-7179.997637,2451.505594
59537.768608,2146.597232,-7105.977043,2374.896044
59537.768918,1110.308913,-8142.265362,1762.019645
59537.769227,2590.720797,-9178.553681,2221.676944
59537.769537,-1702.473667,-10807.006753,689.485948
59537.769847,-3701.029710,-9178.553681,-536.266849
59537.770156,-3552.988522,-9104.533087,-1532.190996
59537.770466,-2368.659014,-6291.750507,0.000000
59537.770776,0.000000,-9548.656652,612.876398
59537.771085,2294.638420,-11843.295072,4213.525239
59537.771395,0.000000,-7476.080014,536.266849
59537.771705,4145.153275,-9400.615463,3907.087040
59537.772014,2294.638420,-9474.636058,2374.896044
59537.772324,-1036.288319,-8882.471304,1378.971896
59537.772634,-1628.453072,-9474.636058,459.657299
59537.772943,222.061783,-7920.203579,153.219100
59537.773253,-296.082377,-8956.491898,306.438199
59537.773562,-2368.659014,-5995.668130,0.000000
59537.773872,-1776.494261,-9548.656652,1225.752797
59537.774182,4663.297435,-11695.253884,4826.401637
59537.774491,0.000000,-7476.080014,306.438199
59537.774801,-1258.350101,-10658.965565,1762.019645
59537.775111,-2442.679609,-9474.636058,-76.609550
59537.775420,-1776.494261,-8364.327145,-612.876398
59537.775730,148.041188,-9326.594869,383.047749
59537.776040,148.041188,-8068.244768,689.485948
59537.776349,0.000000,-9178.553681,1149.143247
59537.776659,296.082377,-7254.018232,0.000000
59537.776969,0.000000,-9548.656652,0.000000
59537.777278,-1258.350101,-13027.624579,2374.896044
59537.777588,-5921.647536,-7772.162391,0.000000
59537.777898,-74.020594,-9474.636058,-76.609550
59537.778207,1702.473667,-11251.130318,2374.896044
59537.778517,0.000000,-8068.244768,1838.629195
59537.778827,1776.494261,-9474.636058,2681.334243
59537.779136,3849.070898,-7254.018232,2068.457845
59537.779446,2072.576638,-9104.533087,2298.286494
59537.779756,-1258.350101,-9178.553681,0.000000
59537.780065,-4737.318029,-8882.471304,-1762.019645
59537.780375,-2960.823768,-9548.656652,612.876398
59537.780685,-3923.091493,-8068.244768,-2298.286494
59537.780994,-2516.700203,-10881.027347,995.924147
59537.781304,-74.020594,-10214.842000,3447.429741
59537.781614,1184.329507,-7179.997637,2451.505594
59537.781923,3256.906145,-7254.018232,3370.820191
59537.782233,-888.247130,-9030.512492,2068.457845
59537.782543,-1702.473667,-9030.512492,689.485948
59537.782852,-74.020594,-8290.306550,-689.485948
59537.783162,-666.185348,-8808.450710,0.000000
59537.783471,0.000000,-9548.656652,2451.505594
59537.783781,-74.020594,-9770.718434,-76.609550
59537.784091,2368.659014,-8364.327145,1225.752797
59537.784400,1036.288319,-9696.697840,1532.190996
59537.784710,518.144159,-9474.636058,1149.143247
59537.785020,-2368.659014,-11029.068536,306.438199
59537.785329,-1628.453072,-7328.038826,-1225.752797
59537.785639,-1998.556043,-10436.903782,-689.485948
59537.785949,-1628.453072,-9030.512492,2451.505594
59537.786258,222.061783,-10288.862594,2145.067394
59537.786568,4663.297435,-8290.306550,1762.019645
59537.786878,1184.329507,-6587.832884,2451.505594
59537.787187,-74.020594,-9474.636058,2374.896044
59537.787497,-1702.473667,-10658.965565,-76.609550
59537.787807,-3849.070898,-9548.656652,-1455.581446
59537.788116,-3182.885551,-9918.759623,-1991.848295
59537.788426,-3330.926739,-10288.862594,-689.485948
59537.788736,-1258.350101,-8882.471304,-76.609550
59537.789045,2294.638420,-7994.224174,1455.581446
59537.789355,3701.029710,-6735.874072,689.485948
59537.789665,2368.659014,-9844.739029,4903.011187
59537.789974,-74.020594,-8882.471304,1762.019645
59537.790284,-3404.947333,-8364.327145,1072.533697
59537.790594,-1776.494261,-7920.203579,-306.438199
59537.790903,-370.102971,-9474.636058,995.924147
59537.791213,-592.164754,-9252.574275,536.266849
59537.791523,740.205942,-9030.512492,229.828649
59537.791832,962.267725,-9252.574275,842.705048
59537.792142,1258.350101,-11843.295072,1991.848295
59537.792452,-740.205942,-11769.274478,3140.991542
59537.792761,-2442.679609,-9474.636058,-689.485948
59537.793071,-3256.906145,-7772.162391,0.000000
59537.793381,1702.473667,-9474.636058,2374.896044
59537.793690,2812.782580,-7624.121203,1225.752797
59537.794000,3552.988522,-7179.997637,3064.381992
59537.794309,3775.050304,-6883.915261,2145.067394
59537.794619,1110.308913,-8956.491898,1685.410096
59537.794929,-2368.659014,-10140.821405,995.924147
59537.795238,-3849.070898,-9548.656652,-1225.752797
59537.795548,-4737.318029,-9548.656652,-2451.505594
59537.795858,-666.185348,-13027.624579,-76.609550
59537.796167,-2072.576638,-7328.038826,-842.705048
59537.796477,2220.617826,-10436.903782,4596.572988
59537.796787,4515.256246,-6957.935855,4213.525239
59537.797096,2294.638420,-7698.141797,3294.210641
59537.797406,-222.061783,-8956.491898,2911.162892
59537.797716,-1258.350101,-7994.224174,0.000000
59537.798025,-518.144159,-8068.244768,0.000000
59537.798335,-666.185348,-9474.636058,-689.485948
59537.798645,-666.185348,-7698.141797,-689.485948
59537.798954,0.000000,-8364.327145,1225.752797
59537.799264,3478.967927,-10362.883188,2987.772442
59537.799574,-2146.597232,-7328.038826,76.609550
59537.799883,-2294.638420,-12435.459826,1762.019645
59537.800193,-3627.009116,-10362.883188,-1302.362347
59537.800503,-2368.659014,-9548.656652,-612.876398
59537.800812,-1628.453072,-9622.677246,0.000000
59537.801122,-1406.391290,-8364.327145,0.000000
59537.801432,1702.473667,-8808.450710,2145.067394
59537.801741,4663.297435,-9474.636058,4213.525239
59537.802051,592.164754,-7772.162391,2451.505594
59537.802361,-370.102971,-8290.306550,2374.896044
59537.802670,-7031.956449,-8364.327145,-3677.258390
59537.802980,-5477.523971,-7179.997637,-4596.572988
59537.803290,-3182.885551,-11621.233289,0.000000
59537.803599,814.226536,-7994.224174,459.657299
59537.803905,0.000000,-8660.409521,919.314598
59537.804215,2886.803174,-8882.471304,2374.896044
59537.804525,1184.329507,-8364.327145,1455.581446
59537.804834,0.000000,-7179.997637,612.876398
59537.805144,-740.205942,-11251.130318,1455.581446
59537.805453,-3182.885551,-8660.409521,-4290.134789
59537.805763,-1184.329507,-9844.739029,153.219100
59537.806073,888.247130,-9474.636058,2374.896044
59537.806382,518.144159,-6365.771101,-383.047749
59537.806692,3478.967927,-7402.059420,689.485948
59537.807001,2886.803174,-8660.409521,2604.724693
59537.807311,1332.370696,-10436.903782,1532.190996
59537.807620,-1258.350101,-10362.883188,1762.019645
59537.807930,-1258.350101,-8882.471304,-689.485948
59537.808240,-3552.988522,-9548.656652,0.000000
59537.808549,-1258.350101,-8882.471304,-76.609550
59537.808859,0.000000,-8364.327145,2757.943793
59537.809168,3997.112087,-8660.409521,4596.572988
59537.809478,2146.597232,-7179.997637,2068.457845
59537.809788,296.082377,-8660.409521,1532.190996
59537.810097,-2368.659014,-10362.883188,383.047749
59537.810407,-2368.659014,-7772.162391,-2298.286494
59537.810716,-2072.576638,-11769.274478,-612.876398
59537.811026,-74.020594,-11843.295072,1762.019645
59537.811336,1110.308913,-8586.388927,229.828649
59537.811645,3552.988522,-6735.874072,3064.381992
59537.811955,5847.626942,-10658.965565,3294.210641
59537.812264,518.144159,-6809.894666,536.266849
59537.812574,-2368.659014,-9548.656652,536.266849
59537.812884,-1998.556043,-9030.512492,-153.219100
59537.813193,-3182.885551,-9696.697840,-1225.752797
59537.813503,-1850.514855,-11399.171507,1149.143247
59537.813812,-2072.576638,-7772.162391,-383.047749
59537.814122,0.000000,-5995.668130,0.000000
59537.814432,2220.617826,-10066.800811,3370.820191
59537.814741,-74.020594,-9474.636058,-76.609550
59537.815051,-4737.318029,-8808.450710,0.000000
59537.815360,-1258.350101,-11251.130318,842.705048
59537.815670,-3330.926739,-10510.924376,-459.657299
59537.815980,-2738.761985,-9474.636058,-612.876398
59537.816289,-444.123565,-9696.697840,995.924147
59537.816599,1184.329507,-5995.668130,0.000000
59537.816908,4663.297435,-9252.574275,4903.011187
59537.817218,3478.967927,-7698.141797,3294.210641
59537.817528,-3256.906145,-7772.162391,612.876398
59537.817837,-370.102971,-9474.636058,-76.609550
59537.818147,-5921.647536,-9548.656652,0.000000
59537.818456,-4737.318029,-7772.162391,-1838.629195
59537.818766,-2368.659014,-10584.944971,-689.485948
59537.819076,1184.329507,-9400.615463,919.314598
59537.819385,2220.617826,-9400.615463,2068.457845
59537.819695,2886.803174,-10658.965565,4826.401637
59537.820004,-1554.432478,-7772.162391,689.485948
59537.820314,-2368.659014,-7179.997637,0.000000
59537.820624,-666.185348,-11547.212695,-76.609550
59537.820933,-5921.647536,-5995.668130,-2451.505594
59537.821243,-74.020594,-10362.883188,1149.143247
59537.821552,3182.885551,-9178.553681,2068.457845
59537.821862,3404.947333,-7994.224174,2757.943793
59537.822171,3330.926739,-7031.956449,3064.381992
59537.822481,1036.288319,-8734.430116,2145.067394
59537.822791,-3552.988522,-6587.832884,0.000000
59537.823100,-2738.761985,-12435.459826,-383.047749
59537.823410,-4219.173869,-10955.047942,-1915.238745
59537.823719,-4589.276840,-10140.821405,0.000000
59537.824029,3478.967927,-11843.295072,-76.609550
59537.824339,1480.411884,-7476.080014,1838.629195
59537.824648,1184.329507,-7179.997637,2757.943793
59537.824958,2442.679609,-8438.347739,2987.772442
59537.825267,1406.391290,-7994.224174,1762.019645
59537.825577,-296.082377,-9474.636058,766.095498
59537.825887,-666.185348,-10658.965565,-76.609550
59537.826196,-4145.153275,-9548.656652,0.000000
59537.826506,0.000000,-9844.739029,1225.752797
59537.826815,2294.638420,-9474.636058,-76.609550
59537.827125,0.000000,-5995.668130,0.000000
59537.827435,148.041188,-6883.915261,612.876398
59537.827744,1998.556043,-9030.512492,2374.896044
59537.828054,-1702.473667,-9770.718434,383.047749
59537.828363,-4293.194464,-9844.739029,-919.314598
59537.828673,-4071.132681,-9770.718434,-1072.533697
59537.828983,0.000000,-8364.327145,1225.752797
59537.829292,4663.297435,-7994.224174,2834.553343
59537.829602,2294.638420,-5625.565159,2221.676944
59537.829911,2072.576638,-8660.409521,4290.134789
59537.830221,0.000000,-6291.750507,-689.485948
59537.830531,1998.556043,-13027.624579,2834.553343
59537.830840,-4145.153275,-10436.903782,-1149.143247
59537.831150,-4071.132681,-11917.315666,-1838.629195
59537.831459,-1036.288319,-10436.903782,-459.657299
59537.831769,1702.473667,-9918.759623,1149.143247
59537.832079,2886.803174,-8290.306550,1455.581446
59537.832388,2368.659014,-7328.038826,2757.943793
59537.832698,1184.329507,-7920.203579,2298.286494
59537.833007,-814.226536,-9104.533087,1225.752797
59537.833317,-4441.235652,-10658.965565,0.000000
59537.833627,-5847.626942,-12435.459826,-76.609550
59537.833936,-3627.009116,-10955.047942,-76.609550
59537.834246,-4737.318029,-7179.997637,0.000000
59537.834555,-74.020594,-9474.636058,2987.772442
59537.834865,-4737.318029,-5995.668130,919.314598
59537.835175,-1850.514855,-8290.306550,536.266849
59537.835484,-2072.576638,-7846.182985,1225.752797
59537.835794,-5699.585753,-10584.944971,689.485948
59537.836103,-7550.100608,-8586.388927,-1608.800546
59537.836413,-7254.018232,-10140.821405,-1072.533697
59537.836722,-3108.864956,-9548.656652,919.314598
59537.837032,-2442.679609,-8734.430116,1762.019645
59537.837342,-7105.977043,-5403.503377,0.000000
59537.837651,-4293.194464,-10066.800811,995.924147
59537.837961,-6291.750507,-10066.800811,-383.047749
59537.838270,-4811.338623,-10658.965565,-76.609550
59537.838580,-9474.636058,-11917.315666,612.876398
59537.838890,-8290.306550,-7550.100608,-229.828649
59537.839199,-5551.544565,-9918.759623,2374.896044
59537.839509,0.000000,-4885.359217,4136.915689
59537.839818,-2072.576638,-7772.162391,7507.735880
59537.840128,-2516.700203,-5033.400406,4826.401637
59537.840438,-7179.997637,-5033.400406,-689.485948
59537.840747,-6513.812290,-8364.327145,306.438199
59537.841057,-4811.338623,-10658.965565,-76.609550
59537.841366,-7772.162391,-12435.459826,-1302.362347
59537.841676,-11251.130318,-10140.821405,-4596.572988
59537.841986,-10584.944971,-13841.851115,-3064.381992
59537.842295,-4441.235652,-10288.862594,-76.609550
59537.842605,-2368.659014,-9548.656652,3447.429741
59537.842914,296.082377,-6883.915261,6128.763984
59537.843224,-74.020594,-6439.791695,6665.030833
59537.843534,-666.185348,-5921.647536,2374.896044
59537.843843,0.000000,-7179.997637,3677.258390
59537.844153,-370.102971,-8290.306550,3600.648841
59537.844462,-1258.350101,-9474.636058,-76.609550
59537.844772,-6513.812290,-9548.656652,-1685.410096
59537.845082,-5995.668130,-11177.109724,-2298.286494
59537.845391,-4219.173869,-12805.562797,-459.657299
59537.845701,-3034.844362,-10288.862594,0.000000
59537.846010,-2960.823768,-9548.656652,1225.752797
59537.846320,-1998.556043,-9696.697840,2374.896044
59537.846630,-1258.350101,-7105.977043,-76.609550
59537.846939,-3256.906145,-7772.162391,1378.971896
59537.847249,3108.864956,-7772.162391,3677.258390
59537.847558,4663.297435,-8290.306550,4213.525239
59537.847868,0.000000,-8068.244768,1149.143247
59537.848178,-3552.988522,-7772.162391,0.000000
59537.848487,-1850.514855,-13027.624579,-76.609550
59537.848797,-4515.256246,-10510.924376,-2221.676944
59537.849106,-1998.556043,-8438.347739,-2451.505594
59537.849416,-74.020594,-10955.047942,1149.143247
59537.849726,-814.226536,-9770.718434,995.924147
59537.850035,-1110.308913,-9696.697840,842.705048
59537.850345,-1406.391290,-9992.780217,766.095498
59537.850654,-3552.988522,-8364.327145,1225.752797
59537.850964,962.267725,-7698.141797,1149.143247
59537.851274,-740.205942,-8734.430116,1225.752797
59537.851583,-3627.009116,-9474.636058,536.266849
59537.851893,-5403.503377,-10140.821405,-919.314598
59537.852202,-5995.668130,-10955.047942,-1915.238745
59537.852512,-5477.523971,-9548.656652,-2451.505594
59537.852821,-1554.432478,-10658.965565,2834.553343
59537.853131,-2590.720797,-6217.729913,1225.752797
59537.853441,-2368.659014,-7254.018232,2451.505594
59537.853750,-4737.318029,-8068.244768,1225.752797
59537.854060,-4811.338623,-10066.800811,-76.609550
59537.854369,-5995.668130,-8660.409521,-459.657299
59537.854679,-4885.359217,-7179.997637,-383.047749
59537.854989,-2368.659014,-7254.018232,689.485948
59537.855298,-666.185348,-7698.141797,842.705048
59537.855608,-4515.256246,-9474.636058,-76.609550
59537.855917,-9474.636058,-10732.986159,0.000000
59537.856227,-6587.832884,-13027.624579,-76.609550
59537.856537,-7031.956449,-10732.986159,459.657299
59537.856846,-6513.812290,-7772.162391,1838.629195
59537.857156,-3775.050304,-8364.327145,3064.381992
59537.857465,-592.164754,-5921.647536,3830.477490
59537.857775,518.144159,-5551.544565,3983.696590
59537.858085,-3256.906145,-6809.894666,1838.629195
59537.858394,-3627.009116,-9474.636058,-76.609550
59537.858704,-5699.585753,-7179.997637,-3140.991542
59537.859013,-5921.647536,-9844.739029,0.000000
59537.859323,-7179.997637,-10362.883188,-1915.238745
59537.859633,-7105.977043,-8956.491898,-1532.190996
59537.859942,-2368.659014,-7994.224174,612.876398
59537.860252,-2072.576638,-11621.233289,1991.848295
59537.860561,-5625.565159,-12361.439231,1149.143247
59537.860871,-4737.318029,-11251.130318,1685.410096
59537.861181,-370.102971,-8882.471304,3140.991542
59537.861490,814.226536,-8290.306550,4826.401637
59537.861800,-2738.761985,-9474.636058,4826.401637
59537.862109,-6513.812290,-5107.421000,0.000000
59537.862419,2294.638420,-8290.306550,2374.896044
59537.862729,1258.350101,-5329.482782,1225.752797
59537.863038,-3330.926739,-6735.874072,0.000000
59537.863348,-6365.771101,-11029.068536,-919.314598
59537.863657,-6365.771101,-11621.233289,-3217.601092
59537.863967,-5181.441594,-12657.521608,-2374.896044
59537.864277,-4589.276840,-11843.295072,-383.047749
59537.864586,-3256.906145,-11843.295072,-76.609550
59537.864896,-3404.947333,-10658.965565,-76.609550
59537.865205,0.000000,-6587.832884,612.876398
59537.865515,6291.750507,-6735.874072,7507.735880
59537.865825,7624.121203,-3552.988522,6665.030833
59537.866134,3182.885551,-3552.988522,2145.067394
59537.866444,-2664.741391,-8956.491898,612.876398
59537.866753,-5403.503377,-13841.851115,-2298.286494
59537.867063,-5921.647536,-12731.542202,-3140.991542
59537.867372,-6439.791695,-10955.047942,-3140.991542
59537.867682,-7994.224174,-12213.398043,-2834.553343
59537.867992,-7920.203579,-13619.789333,-1302.362347
59537.868301,-7846.182985,-10732.986159,0.000000
59537.868611,-1776.494261,-8956.491898,3677.258390
59537.868920,-74.020594,-5921.647536,4519.963438
59537.869230,3182.885551,-3256.906145,4826.401637
59537.869540,4737.318029,-2516.700203,6435.202183
59537.869849,2960.823768,-5551.544565,4903.011187
59537.870159,-2886.803174,-9252.574275,1149.143247
59537.870468,-8734.430116,-13175.665768,-1302.362347
59537.870778,-9474.636058,-14434.015869,-3677.258390
59537.871088,-7846.182985,-14211.954086,-2757.943793
59537.871397,-9548.656652,-9178.553681,-5592.497135
59537.871707,-9474.636058,-10140.821405,-4136.915689
59537.872016,-7105.977043,-12583.501014,-306.438199
59537.872326,-4219.173869,-12435.459826,1149.143247
59537.872636,-3256.906145,-8956.491898,4749.792088
59537.872945,518.144159,-4737.318029,7124.688131
59537.873255,4071.132681,-518.144159,9116.536426
59537.873564,6883.915261,1480.411884,8886.707777
59537.873874,4737.318029,-74.020594,6741.640382
59537.874184,3404.947333,-7476.080014,4826.401637
59537.874493,-4811.338623,-9844.739029,-3140.991542
59537.874803,-10658.965565,-16950.716072,-5515.887586
59537.875112,-14285.974681,-21317.931130,-7431.126331
59537.875422,-14582.057057,-21688.034101,-6205.373534
59537.875732,-12065.356855,-16580.613101,-5669.106685
59537.876041,-6957.935855,-11251.130318,-1915.238745
59537.876351,-2442.679609,-7179.997637,2757.943793
59537.876660,1036.288319,-3997.112087,6128.763984
59537.876970,3552.988522,-74.020594,9806.022374
59537.877280,7105.977043,1702.473667,9806.022374
59537.877589,7031.956449,-1776.494261,8503.660028
59537.877899,592.164754,-3034.844362,5209.449386
59537.878208,-2368.659014,-9104.533087,3830.477490
59537.878518,-6069.688724,-13619.789333,-689.485948
59537.878828,-11843.295072,-16654.633695,-6205.373534
59537.879137,-14804.118840,-20429.683999,-7967.393179
59537.879447,-14063.912898,-18875.251521,-7124.688131
59537.879756,-11473.192101,-16654.633695,-4903.011187
59537.880066,-7105.977043,-9548.656652,-1838.629195
59537.880376,-2368.659014,-4811.338623,1532.190996
59537.880685,6217.729913,-4589.276840,8273.831378
59537.880995,7624.121203,888.247130,7584.345430
59537.881304,7105.977043,-370.102971,9193.145976
59537.881614,5329.482782,-3552.988522,9116.536426
59537.881923,3701.029710,-3997.112087,3907.087040
59537.882233,-1406.391290,-9252.574275,766.095498
59537.882543,-6365.771101,-11621.233289,-4903.011187
59537.882852,-10807.006753,-15026.180623,-8580.269578
59537.883162,-13767.830521,-18431.127956,-9193.145976
59537.883471,-14211.954086,-19023.292709,-8580.269578
59537.883781,-6735.874072,-21317.931130,-1915.238745
59537.884091,-4219.173869,-11991.336260,-1149.143247
59537.884400,0.000000,-7772.162391,4443.353888
59537.884710,4737.318029,-5847.626942,9576.193725
59537.885019,6587.832884,888.247130,8810.098227
59537.885329,4145.153275,814.226536,9576.193725
59537.885639,3404.947333,-444.123565,7660.954980
59537.885948,1554.432478,-2442.679609,3064.381992
59537.886258,-3627.009116,-6217.729913,1455.581446
59537.886567,-7105.977043,-9548.656652,-2451.505594
59537.886877,-6291.750507,-17616.901420,-2528.115143
59537.887187,-10288.862594,-17172.777854,-5362.668486
59537.887496,-8882.471304,-16950.716072,-4213.525239
59537.887806,-7105.977043,-17987.004391,-1225.752797
59537.888115,-2146.597232,-12879.583391,536.266849
59537.888425,814.226536,-12435.459826,5286.058936
59537.888735,6957.935855,-5329.482782,8273.831378
59537.889044,9326.594869,-74.020594,10342.289223
59537.889354,9992.780217,1184.329507,11568.042020
59537.889663,7105.977043,3182.885551,8580.269578
59537.889973,6513.812290,-4071.132681,9193.145976
59537.890283,1110.308913,-7105.977043,4826.401637
59537.890592,-4145.153275,-11029.068536,2911.162892
59537.890902,-8290.306550,-13397.727550,0.000000
59537.891211,-7179.997637,-17024.736666,-1915.238745
59537.891521,-5107.421000,-17320.819043,-536.266849
59537.891831,-3627.009116,-15396.283594,1072.533697
59537.892140,-2146.597232,-14137.933492,4826.401637
59537.892450,3478.967927,-9474.636058,6435.202183
59537.892759,5847.626942,-5625.565159,8197.221829
59537.893069,4737.318029,-2442.679609,10418.898773
59537.893379,8142.265362,-2368.659014,15858.176809
59537.893688,5551.544565,-4589.276840,12793.794817
59537.893998,4145.153275,-74.020594,7967.393179
59537.894307,1332.370696,-5847.626942,7737.564530
59537.894617,-1480.411884,-9474.636058,4519.963438
59537.894927,-1776.494261,-14656.077652,4213.525239
59537.895236,-3627.009116,-18949.272115,4826.401637
59537.895546,-5995.668130,-20133.601622,2068.457845
59537.895855,-9548.656652,-18949.272115,1762.019645
59537.896165,-8882.471304,-10140.821405,2451.505594
59537.896474,-518.144159,-4737.318029,9422.974625
59537.896784,5847.626942,4145.153275,8886.707777
59537.897094,4737.318029,7624.121203,11031.775171
59537.897403,6513.812290,4959.379811,12257.527968
59537.897713,4663.297435,592.164754,12257.527968
59537.898022,1554.432478,-1184.329507,9652.803275
59537.898332,-1850.514855,-5921.647536,4826.401637
59537.898642,-2886.803174,-8290.306550,3370.820191
59537.898951,-1258.350101,-9474.636058,2374.896044
59537.899261,-4737.318029,-10732.986159,0.000000
59537.899570,-3552.988522,-13693.809927,2451.505594
59537.899880,-4811.338623,-17764.942608,919.314598
59537.900190,-7698.141797,-18431.127956,3064.381992
59537.900499,-3330.926739,-13545.768739,3677.258390
59537.900809,296.082377,-7105.977043,5745.716235
59537.901118,4589.276840,-1554.432478,9039.926876
59537.901428,6291.750507,0.000000,10648.727422
59537.901738,4959.379811,-2368.659014,8580.269578
59537.902047,7624.121203,-3404.947333,7890.783629
59537.902357,1406.391290,-4589.276840,2987.772442
59537.902666,0.000000,-15174.221811,6435.202183
59537.902976,-2146.597232,-16580.613101,459.657299
59537.903286,-8660.409521,-20133.601622,-1608.800546
59537.903595,-10436.903782,-21021.848753,-3217.601092
59537.903905,-8956.491898,-19023.292709,-3600.648841
59537.904214,-4589.276840,-14656.077652,-1455.581446
59537.904524,1110.308913,-8956.491898,2604.724693
59537.904833,1184.329507,-6513.812290,3064.381992
59537.905143,8068.244768,-4737.318029,7277.907231
59537.905453,7031.956449,-444.123565,4826.401637
59537.905762,6513.812290,-1258.350101,6128.763984
59537.906072,4367.215058,-5181.441594,2987.772442
59537.906381,1110.308913,-7105.977043,2374.896044
59537.906691,1628.453072,-10658.965565,2068.457845
59537.907001,-592.164754,-9474.636058,-1302.362347
59537.907310,-3552.988522,-10436.903782,-2451.505594
59537.907620,-4737.318029,-13101.645173,-2451.505594
59537.907929,-4145.153275,-14285.974681,-2374.896044
59537.908239,-1776.494261,-14285.974681,-1225.752797
59537.908548,-74.020594,-15840.407159,-76.609550
59537.908858,-1776.494261,-9548.656652,0.000000
59537.909168,1924.535449,-5995.668130,1455.581446
59537.909477,7031.956449,-4737.318029,4826.401637
59537.909787,5107.421000,-888.247130,4903.011187
59537.910096,3552.988522,-1702.473667,4749.792088
59537.910406,2590.720797,-3923.091493,3600.648841
59537.910715,592.164754,-4811.338623,0.000000
59537.911025,-1480.411884,-7254.018232,-76.609550
59537.911335,-4737.318029,-15470.304188,612.876398
59537.911644,-3627.009116,-18949.272115,-76.609550
59537.911954,-6513.812290,-14285.974681,-4903.011187
59537.912263,-3997.112087,-14804.118840,-689.485948
59537.912573,-74.020594,-10658.965565,2374.896044
59537.912883,2220.617826,-6661.853478,3600.648841
59537.913192,3701.029710,-4811.338623,4519.963438
59537.913502,1776.494261,-6365.771101,4903.011187
59537.913811,0.000000,-8364.327145,4290.134789
59537.914121,0.000000,-8290.306550,7277.907231
59537.914430,0.000000,-5995.668130,4903.011187
59537.914740,-74.020594,-6809.894666,4826.401637
59537.915050,-1480.411884,-4811.338623,3677.258390
59537.915359,1702.473667,-8290.306550,6052.154434
59537.915669,1480.411884,-11695.253884,5439.278036
59537.915978,-3330.926739,-11251.130318,1149.143247
59537.916288,-5033.400406,-12657.521608,1532.190996
59537.916597,-1332.370696,-10436.903782,4366.744339
59537.916907,0.000000,-6069.688724,3600.648841
59537.917217,-1554.432478,-7698.141797,6435.202183
59537.917526,-2368.659014,-6291.750507,4903.011187
59537.917836,2294.638420,-11251.130318,8503.660028
59537.918145,888.247130,-8068.244768,4903.011187
59537.918455,-1110.308913,-9474.636058,8197.221829
59537.918765,-2368.659014,-7772.162391,7048.078582
59537.919074,-296.082377,-7624.121203,6128.763984
59537.919384,-1554.432478,-11695.253884,6741.640382
59537.919693,-1628.453072,-7920.203579,5515.887586
59537.920003,-2738.761985,-6735.874072,4060.306139
59537.920312,-666.185348,-9326.594869,6588.421283
59537.920622,296.082377,-4219.173869,4060.306139
59537.920932,0.000000,-8956.491898,6435.202183
59537.921241,-74.020594,-13027.624579,7277.907231
59537.921551,-1258.350101,-13027.624579,6052.154434
59537.921860,0.000000,-9548.656652,6128.763984
59537.922170,-74.020594,-10066.800811,6358.592633
59537.922479,-814.226536,-7402.059420,6894.859482
59537.922789,148.041188,-8216.285956,6435.202183
59537.923099,518.144159,-7105.977043,5439.278036
59537.923408,-1850.514855,-8364.327145,4443.353888
59537.923718,-1776.494261,-8364.327145,3064.381992
59537.924027,296.082377,-6587.832884,4443.353888
59537.924337,-74.020594,-9474.636058,4826.401637
59537.924647,-74.020594,-7698.141797,4213.525239
59537.924956,0.000000,-7179.997637,2451.505594
59537.925266,0.000000,-11103.089130,4673.182538
59537.925575,518.144159,-11325.150913,4826.401637
59537.925885,-962.267725,-10658.965565,4596.572988
59537.926194,-74.020594,-10658.965565,4826.401637
59537.926504,1702.473667,-7031.956449,4979.620737
59537.926814,2886.803174,-8882.471304,4826.401637
59537.927123,0.000000,-5403.503377,2757.943793
59537.927433,1702.473667,-11547.212695,5898.935335
59537.927742,592.164754,-8660.409521,3370.820191
59537.928052,-2368.659014,-9548.656652,1225.752797
59537.928361,-962.267725,-9992.780217,2374.896044
59537.928671,-740.205942,-8660.409521,1762.019645
59537.928981,-2368.659014,-10066.800811,2068.457845
59537.929290,-74.020594,-9474.636058,3447.429741
59537.929600,2886.803174,-11251.130318,6052.154434
59537.929909,222.061783,-5847.626942,2145.067394
59537.930219,1184.329507,-8438.347739,4366.744339
59537.930529,1110.308913,-9474.636058,4213.525239
59537.930838,0.000000,-7772.162391,2451.505594
59537.931148,0.000000,-9548.656652,1991.848295
59537.931457,74.020594,-9770.718434,3064.381992
59537.931767,-1628.453072,-11695.253884,2681.334243
59537.932076,-962.267725,-7254.018232,766.095498
59537.932386,-74.020594,-9252.574275,2451.505594
59537.932696,0.000000,-4811.338623,766.095498
59537.933005,-74.020594,-9474.636058,1762.019645
59537.933315,-1998.556043,-8216.285956,383.047749
59537.933624,0.000000,-11917.315666,3677.258390
59537.933934,-1776.494261,-11917.315666,1225.752797
59537.934243,-962.267725,-9918.759623,2757.943793
59537.934553,-2072.576638,-10732.986159,3677.258390
59537.934863,148.041188,-6883.915261,2911.162892
59537.935172,444.123565,-6883.915261,3830.477490
59537.935482,2960.823768,-4071.132681,4290.134789
59537.935791,0.000000,-7476.080014,3677.258390
59537.936101,2294.638420,-9474.636058,3294.210641
59537.936411,-3552.988522,-12509.480420,919.314598
59537.936720,-2442.679609,-16580.613101,4826.401637
59537.937030,-5181.441594,-11917.315666,383.047749
59537.937339,-1258.350101,-7105.977043,2068.457845
59537.937649,592.164754,-3256.906145,2451.505594
59537.937958,2442.679609,-1184.329507,3600.648841
59537.938268,1924.535449,-3701.029710,3447.429741
59537.938578,592.164754,-8660.409521,3677.258390
59537.938887,1110.308913,-14508.036463,3600.648841
59537.939197,-1776.494261,-16062.468941,3677.258390
59537.939506,-1258.350101,-16284.530724,4213.525239
59537.939816,-4737.318029,-4811.338623,0.000000
59537.940125,-518.144159,-1258.350101,0.000000
59537.940435,1702.473667,-1776.494261,1149.143247
59537.940745,-296.082377,-3404.947333,536.266849
59537.941054,370.102971,-7772.162391,306.438199
59537.941364,-518.144159,-13027.624579,842.705048
59537.941673,-4145.153275,-13101.645173,0.000000
59537.941983,-3923.091493,-13915.871710,-76.609550
59537.942293,-3552.988522,-7179.997637,0.000000
59537.942602,1702.473667,-5921.647536,-76.609550
59537.942912,0.000000,-74.020594,-3983.696590
59537.943221,1998.556043,-6217.729913,-1302.362347
59537.943531,4071.132681,-11251.130318,-76.609550
59537.943840,1184.329507,-15988.448347,-76.609550
59537.944150,-814.226536,-15692.365970,-1762.019645
59537.944460,-3627.009116,-16728.654289,-2221.676944
59537.944769,-3256.906145,-8956.491898,-2911.162892
59537.945079,1406.391290,-4737.318029,-1838.629195
59537.945388,0.000000,-74.020594,-2451.505594
59537.945698,3182.885551,-6365.771101,-76.609550
59537.946007,2886.803174,-6069.688724,-2528.115143
59537.946317,1998.556043,-13915.871710,-76.609550
59537.946627,-74.020594,-16580.613101,-76.609550
59537.946936,-3627.009116,-15988.448347,-842.705048
59537.947246,-2368.659014,-10732.986159,-306.438199
59537.947555,1110.308913,-6365.771101,-689.485948
59537.947865,1184.329507,-74.020594,-1302.362347
59537.948175,1332.370696,-5329.482782,-1378.971896
59537.948484,0.000000,-6217.729913,-2451.505594
59537.948794,888.247130,-14285.974681,0.000000
59537.949103,-74.020594,-16580.613101,-76.609550
59537.949413,-3034.844362,-16580.613101,-689.485948
59537.949722,-2664.741391,-10881.027347,-306.438199
59537.950032,148.041188,-7031.956449,-536.266849
59537.950342,1776.494261,-2442.679609,0.000000
59537.950651,666.185348,-4885.359217,76.609550
59537.950961,1702.473667,-5921.647536,-76.609550
59537.951270,1776.494261,-13027.624579,1302.362347
59537.951580,-2072.576638,-12657.521608,0.000000
59537.951889,-3552.988522,-16062.468941,2145.067394
59537.952199,-1258.350101,-11843.295072,-76.609550
59537.952509,-666.185348,-8290.306550,-76.609550
59537.952818,-888.247130,-1850.514855,0.000000
59537.953128,-74.020594,-3108.864956,-153.219100
59537.953437,1110.308913,-5699.585753,306.438199
59537.953747,1702.473667,-11029.068536,1302.362347
59537.954057,-74.020594,-15100.201217,1072.533697
59537.954366,-2960.823768,-17468.860231,1455.581446
59537.954676,-2442.679609,-13619.789333,842.705048
59537.954985,-2368.659014,-8364.327145,1225.752797
59537.955295,3478.967927,-4737.318029,2374.896044
59537.955604,2664.741391,-4737.318029,4136.915689
59537.955914,2960.823768,-4219.173869,3677.258390
59537.956224,4293.194464,-8142.265362,4213.525239
59537.956533,2146.597232,-11473.192101,4443.353888
59537.956843,-1110.308913,-13397.727550,2604.724693
59537.957152,-1258.350101,-14211.954086,2374.896044
59537.957462,-2294.638420,-9252.574275,1685.410096
59537.957771,-1998.556043,-3923.091493,0.000000
59537.958081,888.247130,-4959.379811,3907.087040
59537.958391,2294.638420,-4737.318029,1762.019645
59537.958700,2368.659014,-9548.656652,3677.258390
59537.959010,0.000000,-11917.315666,2451.505594
59537.959319,-1924.535449,-15026.180623,2068.457845
59537.959629,-3256.906145,-13471.748144,2298.286494
59537.959939,-2960.823768,-8956.491898,1838.629195
59537.960248,-814.226536,-4737.318029,1762.019645
59537.960558,-74.020594,-4145.153275,2374.896044
59537.960867,1110.308913,-3256.906145,1149.143247
59537.961177,592.164754,-5403.503377,0.000000
59537.961486,2368.659014,-11917.315666,4290.134789
59537.961796,-1184.329507,-13101.645173,1225.752797
59537.962106,-3478.967927,-14878.139434,1149.143247
59537.962415,-2590.720797,-12879.583391,1455.581446
59537.962725,-1702.473667,-9178.553681,612.876398
59537.963034,-1406.391290,-7105.977043,995.924147
59537.963344,1110.308913,-5847.626942,2374.896044
59537.963653,1184.329507,-5477.523971,2681.334243
59537.963963,2886.803174,-8290.306550,3600.648841
59537.964273,-666.185348,-9104.533087,0.000000
59537.964582,-148.041188,-15396.283594,4826.401637
59537.964892,-4737.318029,-9548.656652,1225.752797
59537.965201,-4071.132681,-6365.771101,-536.266849
59537.965511,-2368.659014,-4441.235652,0.000000
59537.965821,0.000000,-4737.318029,1378.971896
59537.966130,2516.700203,-5847.626942,2374.896044
59537.966440,2664.741391,-8660.409521,3140.991542
59537.966749,296.082377,-10955.047942,2145.067394
59537.967059,-1628.453072,-15470.304188,3140.991542
59537.967368,-666.185348,-13619.789333,-76.609550
59537.967678,-4737.318029,-5995.668130,0.000000
59537.967988,-3552.988522,-2442.679609,0.000000
59537.968297,962.267725,-4145.153275,-76.609550
59537.968607,2960.823768,-5403.503377,1225.752797
59537.968916,2886.803174,-9696.697840,1685.410096
59537.969226,962.267725,-12731.542202,1302.362347
59537.969535,-2220.617826,-14285.974681,766.095498
59537.969845,-2072.576638,-11843.295072,-536.266849
59537.970155,-1776.494261,-8438.347739,0.000000
59537.970464,-74.020594,-4441.235652,-3140.991542
59537.970774,1184.329507,-7179.997637,1225.752797
59537.971083,1184.329507,-5995.668130,-1532.190996
59537.971393,2590.720797,-10362.883188,995.924147
59537.971703,296.082377,-10510.924376,-229.828649
59537.972012,-2220.617826,-13175.665768,-689.485948
59537.972322,-1998.556043,-11251.130318,-1225.752797
59537.972631,-3256.906145,-8660.409521,-2068.457845
59537.972941,-3552.988522,-5995.668130,-2451.505594
59537.973250,-74.020594,-9474.636058,-689.485948
59537.973560,0.000000,-5995.668130,-4903.011187
59537.973870,2368.659014,-10140.821405,1225.752797
59537.974179,814.226536,-8290.306550,-2451.505594
59537.974489,-370.102971,-13915.871710,842.705048
59537.974798,-1110.308913,-12361.439231,0.000000
59537.975108,-1332.370696,-11769.274478,-612.876398
59537.975417,-1406.391290,-8290.306550,-1149.143247
59537.975727,-3552.988522,-7179.997637,-1455.581446
59537.976037,962.267725,-5551.544565,-995.924147
59537.976346,1184.329507,-6587.832884,306.438199
59537.976656,3478.967927,-9474.636058,3600.648841
59537.976965,-1258.350101,-11029.068536,-689.485948
59537.977275,-1850.514855,-10955.047942,-1302.362347
59537.977585,-1258.350101,-10658.965565,-76.609550
59537.977894,-2886.803174,-6069.688724,-2068.457845
59537.978204,-3701.029710,-6365.771101,-1685.410096
59537.978513,-222.061783,-5477.523971,-1149.143247
59537.978823,0.000000,-9326.594869,536.266849
59537.979132,1702.473667,-10362.883188,842.705048
59537.979442,-2368.659014,-13101.645173,766.095498
59537.979752,-74.020594,-14211.954086,3600.648841
59537.980061,-1258.350101,-7105.977043,-995.924147
59537.980371,-74.020594,-4145.153275,-383.047749
59537.980680,592.164754,-7105.977043,1685.410096
59537.980990,2516.700203,-5921.647536,2528.115143
59537.981299,4293.194464,-9992.780217,3524.039291
59537.981609,3182.885551,-10214.842000,3830.477490
59537.981919,518.144159,-11251.130318,3907.087040
59537.982228,1110.308913,-10066.800811,3600.648841
59537.982538,0.000000,-8808.450710,1225.752797
59537.982847,0.000000,-6587.832884,2451.505594
59537.983157,-1258.350101,-9474.636058,-76.609550
59537.983467,1702.473667,-9474.636058,2374.896044
59537.983776,1850.514855,-10881.027347,3447.429741
59537.984086,1924.535449,-9030.512492,4136.915689
59537.984395,-222.061783,-10658.965565,4060.306139
59537.984705,0.000000,-8586.388927,3753.867940
59537.985014,-74.020594,-9474.636058,3447.429741
59537.985324,-1258.350101,-5329.482782,1455.581446
59537.985634,-4737.318029,-5995.668130,0.000000
59537.985943,-296.082377,-8512.368333,3677.258390
59537.986253,-74.020594,-9474.636058,2374.896044
59537.986562,2294.638420,-11843.295072,3600.648841
59537.986872,-1480.411884,-13397.727550,2757.943793
59537.987181,-962.267725,-11843.295072,2374.896044
59537.987491,-1554.432478,-10955.047942,1685.410096
59537.987801,-2368.659014,-6735.874072,612.876398
59537.988110,-3034.844362,-7698.141797,1378.971896
59537.988420,-74.020594,-7105.977043,1149.143247
59537.988729,0.000000,-7179.997637,612.876398
59537.989039,4441.235652,-9474.636058,5822.325785
59537.989349,1110.308913,-8882.471304,1149.143247
59537.989658,1184.329507,-11251.130318,4749.792088
59537.989968,-1184.329507,-9844.739029,766.095498
59537.990277,-2072.576638,-8586.388927,-383.047749
59537.990587,-3627.009116,-9474.636058,-1915.238745
59537.990896,-1776.494261,-9104.533087,-689.485948
59537.991206,1406.391290,-10658.965565,306.438199
59537.991516,3478.967927,-11251.130318,1762.019645
59537.991825,-74.020594,-9770.718434,536.266849
59537.992135,0.000000,-9548.656652,2451.505594
59537.992444,2294.638420,-9474.636058,1762.019645
59537.992754,1184.329507,-6439.791695,1838.629195
59537.993063,-2812.782580,-7179.997637,-1225.752797
59537.993373,-1110.308913,-9326.594869,-383.047749
59537.993683,888.247130,-11547.212695,0.000000
59537.993992,1998.556043,-11029.068536,842.705048
59537.994302,1702.473667,-9844.739029,0.000000
59537.994611,3478.967927,-10362.883188,2374.896044
59537.994921,1702.473667,-7254.018232,76.609550
59537.995231,592.164754,-7772.162391,2451.505594
59537.995540,-74.020594,-11843.295072,-689.485948
59537.995850,-4145.153275,-10732.986159,0.000000
59537.996159,-1776.494261,-10732.986159,-1225.752797
59537.996469,1110.308913,-9104.533087,229.828649
59537.996778,74.020594,-6291.750507,-153.219100
59537.997088,444.123565,-6143.709319,766.095498
59537.997398,814.226536,-8216.285956,-1225.752797
59537.997707,296.082377,-10807.006753,1149.143247
59537.998017,-3627.009116,-11843.295072,-1302.362347
59537.998326,-8290.306550,-7772.162391,-4290.134789
59537.998636,-74.020594,-11251.130318,-76.609550
59537.998945,0.000000,-5995.668130,1225.752797
59537.999255,1110.308913,-6661.853478,459.657299
59537.999565,1924.535449,-8586.388927,1915.238745
59537.999874,2220.617826,-10214.842000,1915.238745
59538.000184,962.267725,-9992.780217,1608.800546
59538.000493,-2812.782580,-8512.368333,-1302.362347
59538.000803,-3478.967927,-8438.347739,-612.876398
59538.001113,814.226536,-9474.636058,2374.896044
59538.001422,1110.308913,-7105.977043,0.000000
59538.001732,0.000000,-9548.656652,2451.505594
59538.002041,-2368.659014,-8364.327145,2451.505594
59538.002351,666.185348,-9474.636058,1762.019645
59538.002660,0.000000,-7772.162391,1532.190996
59538.002970,-2516.700203,-7920.203579,76.609550
59538.003280,-3849.070898,-8882.471304,-689.485948
59538.003589,-2072.576638,-9548.656652,-995.924147
59538.003899,0.000000,-10732.986159,1838.629195
59538.004208,1850.514855,-10362.883188,2374.896044
59538.004518,-3552.988522,-4811.338623,0.000000
59538.004827,2368.659014,-8734.430116,3447.429741
59538.005137,0.000000,-5403.503377,919.314598
59538.005447,-1258.350101,-8882.471304,842.705048
59538.005756,-3404.947333,-10807.006753,153.219100
59538.006066,-814.226536,-10584.944971,229.828649
59538.006375,1036.288319,-9770.718434,1762.019645
59538.006685,888.247130,-7550.100608,1762.019645
59538.006995,0.000000,-7179.997637,1225.752797
59538.007304,1776.494261,-6143.709319,0.000000
59538.007614,4663.297435,-9474.636058,3600.648841
59538.007923,-2960.823768,-7772.162391,0.000000
59538.008233,-5255.462188,-9548.656652,-2451.505594
59538.008543,-2442.679609,-8882.471304,-2528.115143
59538.008852,-2368.659014,-8364.327145,0.000000
59538.009162,814.226536,-8290.306550,995.924147
59538.009471,370.102971,-8734.430116,1685.410096
59538.009781,1924.535449,-7328.038826,2068.457845
59538.010091,296.082377,-9548.656652,2451.505594
59538.010400,-666.185348,-11029.068536,2987.772442
59538.010710,-4219.173869,-9326.594869,-2528.115143
59538.011019,-2368.659014,-8956.491898,-459.657299
59538.011329,-1776.494261,-5995.668130,-1838.629195
59538.011639,1110.308913,-7105.977043,536.266849
59538.011948,1110.308913,-9252.574275,2298.286494
59538.012258,2590.720797,-9252.574275,2374.896044
59538.012567,1406.391290,-11103.089130,2221.676944
59538.012877,-1776.494261,-9030.512492,536.266849
59538.013187,-3923.091493,-10658.965565,-306.438199
59538.013496,-1628.453072,-9178.553681,1762.019645
59538.013806,-2146.597232,-8142.265362,-1302.362347
59538.014115,0.000000,-8956.491898,2451.505594
59538.014425,-1998.556043,-8660.409521,306.438199
59538.014735,1702.473667,-8290.306550,2374.896044
59538.015044,592.164754,-7624.121203,1991.848295
59538.015354,-592.164754,-6661.853478,1149.143247
59538.015663,-3034.844362,-9770.718434,383.047749
59538.015973,-2072.576638,-9474.636058,842.705048
59538.016283,-3256.906145,-8956.491898,0.000000
59538.016592,-592.164754,-7179.997637,1532.190996
59538.016902,-74.020594,-7105.977043,-76.609550
59538.017211,592.164754,-4811.338623,1532.190996
59538.017521,3478.967927,-8882.471304,842.705048
59538.017831,1924.535449,-11251.130318,1608.800546
59538.018140,-2368.659014,-13397.727550,766.095498
59538.018450,-2368.659014,-11695.253884,229.828649
59538.018759,-1110.308913,-9770.718434,0.000000
59538.019069,370.102971,-6513.812290,383.047749
59538.019379,1628.453072,-7476.080014,2068.457845
59538.019688,3552.988522,-6587.832884,4060.306139
59538.019998,3478.967927,-9474.636058,1762.019645
59538.020307,0.000000,-8660.409521,612.876398
59538.020617,-2442.679609,-11843.295072,-995.924147
59538.020927,-2960.823768,-11325.150913,0.000000
59538.021236,-1406.391290,-10510.924376,-229.828649
59538.021546,370.102971,-7772.162391,153.219100
59538.021855,814.226536,-9844.739029,1762.019645
59538.022165,3478.967927,-9474.636058,3600.648841
59538.022475,1998.556043,-9178.553681,1608.800546
59538.022784,0.000000,-7179.997637,0.000000
59538.023094,-74.020594,-11843.295072,-76.609550
59538.023403,-3775.050304,-8438.347739,-1608.800546
59538.023713,-74.020594,-9474.636058,-229.828649
59538.024023,-1776.494261,-7772.162391,0.000000
59538.024332,-962.267725,-9326.594869,536.266849
59538.024642,814.226536,-7550.100608,842.705048
59538.024951,1480.411884,-7994.224174,1302.362347
59538.025261,1998.556043,-8734.430116,2528.115143
59538.025571,-1554.432478,-11547.212695,-383.047749
59538.025880,-2812.782580,-8956.491898,-2451.505594
59538.026190,-74.020594,-14211.954086,2298.286494
59538.026499,-1258.350101,-6957.935855,-1608.800546
59538.026809,-74.020594,-9474.636058,-76.609550
59538.027119,888.247130,-7179.997637,1225.752797
59538.027428,2072.576638,-8586.388927,1685.410096
59538.027738,888.247130,-8290.306550,1072.533697
59538.028047,-1850.514855,-12361.439231,536.266849
59538.028357,-444.123565,-10436.903782,153.219100
59538.028667,-1258.350101,-10658.965565,-383.047749
59538.028976,-2368.659014,-5107.421000,0.000000
59538.029286,-74.020594,-8290.306550,-76.609550
59538.029595,0.000000,-4811.338623,306.438199
59538.029905,4589.276840,-9474.636058,3600.648841
59538.030215,888.247130,-7846.182985,612.876398
59538.030524,-1480.411884,-11843.295072,153.219100
59538.030834,-1850.514855,-11325.150913,153.219100
59538.031143,-1332.370696,-11029.068536,-306.438199
59538.031453,-1184.329507,-7476.080014,0.000000
59538.031763,1110.308913,-8882.471304,1149.143247
59538.032072,1406.391290,-6587.832884,0.000000
59538.032382,5847.626942,-11547.212695,4213.525239
59538.032691,518.144159,-8586.388927,842.705048
59538.033001,-1184.329507,-12435.459826,2757.943793
59538.033311,-1850.514855,-10658.965565,612.876398
59538.033620,-1628.453072,-10288.862594,612.876398
59538.033930,-666.185348,-7994.224174,459.657299
59538.034239,-296.082377,-7105.977043,1149.143247
59538.034549,0.000000,-4811.338623,1225.752797
59538.034859,3478.967927,-7698.141797,2374.896044
59538.035168,0.000000,-5107.421000,-2298.286494
59538.035478,-1184.329507,-11325.150913,1838.629195
59538.035787,-1258.350101,-13915.871710,-76.609550
59538.036097,-2960.823768,-13841.851115,1532.190996
59538.036407,-2442.679609,-10658.965565,-689.485948
59538.036716,-2886.803174,-9030.512492,-766.095498
59538.037026,-592.164754,-7105.977043,689.485948
59538.037335,1776.494261,-6809.894666,1762.019645
59538.037645,0.000000,-4219.173869,0.000000
59538.037955,888.247130,-9252.574275,2451.505594
59538.038264,-74.020594,-13027.624579,3600.648841
59538.038574,-3552.988522,-9844.739029,0.000000
59538.038883,-74.020594,-11547.212695,1762.019645
59538.039193,-2368.659014,-8364.327145,766.095498
59538.039503,-74.020594,-7624.121203,1532.190996
59538.039812,1480.411884,-6661.853478,1838.629195
59538.040122,1998.556043,-7031.956449,2068.457845
59538.040431,-740.205942,-8808.450710,1225.752797
59538.040741,-3330.926739,-9844.739029,0.000000
59538.041051,-2368.659014,-11917.315666,612.876398
59538.041360,-74.020594,-14211.954086,3600.648841
59538.041670,-4737.318029,-6291.750507,0.000000
59538.041979,-74.020594,-8882.471304,2987.772442
59538.042289,1036.288319,-4811.338623,2145.067394
59538.042599,3478.967927,-5477.523971,2757.943793
59538.042908,666.185348,-6291.750507,1455.581446
59538.043218,-592.164754,-9622.677246,1225.752797
59538.043527,0.000000,-11843.295072,536.266849
59538.043837,-1850.514855,-10807.006753,-689.485948
59538.044147,-3552.988522,-11029.068536,0.000000
59538.044456,-74.020594,-14211.954086,2374.896044
59538.044766,0.000000,-5403.503377,0.000000
59538.045075,3627.009116,-6957.935855,2911.162892
59538.045385,592.164754,-4811.338623,0.000000
59538.045695,222.061783,-10362.883188,1072.533697
59538.046004,222.061783,-12213.398043,842.705048
59538.046314,-592.164754,-13397.727550,919.314598
59538.046623,-2442.679609,-10436.903782,-612.876398
59538.046933,-1850.514855,-8882.471304,-76.609550
59538.047243,0.000000,-4219.173869,0.000000
59538.047552,3849.070898,-8216.285956,4060.306139
59538.047862,-666.185348,-5773.606348,-1302.362347
59538.048171,-2368.659014,-11917.315666,612.876398
59538.048481,-1036.288319,-12435.459826,306.438199
59538.048791,-1406.391290,-12435.459826,76.609550
59538.049100,-3108.864956,-8068.244768,-1455.581446
59538.049410,-2738.761985,-6587.832884,-842.705048
59538.049719,1332.370696,-5181.441594,689.485948
59538.050029,3478.967927,-8290.306550,2374.896044
59538.050339,0.000000,-7772.162391,0.000000
59538.050648,-74.020594,-14804.118840,4213.525239
59538.050958,-1258.350101,-9474.636058,-383.047749
59538.051267,-1776.494261,-8364.327145,0.000000
59538.051577,-1554.432478,-5921.647536,-1225.752797
59538.051887,-1480.411884,-8882.471304,306.438199
59538.052196,1036.288319,-8882.471304,536.266849
59538.052506,740.205942,-10214.842000,1072.533697
59538.052815,-740.205942,-8290.306550,229.828649
59538.053125,-74.020594,-11251.130318,-76.609550
59538.053435,518.144159,-8586.388927,-76.609550
59538.053744,-2960.823768,-7179.997637,0.000000
59538.054054,-74.020594,-11547.212695,1608.800546
59538.054363,-3034.844362,-10066.800811,-1302.362347
59538.054673,-222.061783,-6957.935855,-1838.629195
59538.054983,740.205942,-6513.812290,536.266849
59538.055292,1110.308913,-4885.359217,153.219100
59538.055602,-370.102971,-8512.368333,0.000000
59538.055911,814.226536,-11547.212695,1149.143247
59538.056221,2294.638420,-15988.448347,2987.772442
59538.056531,-666.185348,-13027.624579,-76.609550
59538.056840,-4737.318029,-9548.656652,0.000000
59538.057150,-74.020594,-8290.306550,-76.609550
59538.057459,0.000000,-4811.338623,0.000000
59538.057769,1702.473667,-5847.626942,-919.314598
59538.058079,0.000000,-9104.533087,919.314598
59538.058388,1110.308913,-10584.944971,1378.971896
59538.058698,1332.370696,-11843.295072,2221.676944
59538.059007,0.000000,-9918.759623,2987.772442
59538.059317,-296.082377,-11399.171507,3294.210641
59538.059627,-74.020594,-7105.977043,1149.143247
59538.059936,0.000000,-4811.338623,0.000000
59538.060246,3182.885551,-8142.265362,3064.381992
59538.060555,-962.267725,-9474.636058,536.266849
59538.060865,-74.020594,-10658.965565,-76.609550
59538.061174,-888.247130,-12213.398043,1072.533697
59538.061484,-1036.288319,-11473.192101,1225.752797
59538.061794,-2590.720797,-11029.068536,1532.190996
59538.062103,-370.102971,-7698.141797,2221.676944
59538.062413,296.082377,-7846.182985,3677.258390
59538.062722,1702.473667,-5033.400406,3600.648841
59538.063032,-74.020594,-5921.647536,842.705048
59538.063342,0.000000,-7179.997637,1225.752797
59538.063651,814.226536,-12287.418637,1991.848295
59538.063961,-666.185348,-11843.295072,-76.609550
59538.064270,-4441.235652,-11917.315666,0.000000
59538.064580,-2442.679609,-9844.739029,612.876398
59538.064890,-1184.329507,-8660.409521,229.828649
59538.065199,-1480.411884,-6291.750507,0.000000
59538.065509,-2960.823768,-7179.997637,1225.752797
59538.065818,2146.597232,-8882.471304,3600.648841
59538.066128,2294.638420,-9178.553681,1762.019645
59538.066438,0.000000,-9548.656652,2451.505594
59538.066747,-370.102971,-13323.706956,2681.334243
59538.067057,222.061783,-10510.924376,2987.772442
59538.067366,0.000000,-7105.977043,383.047749
59538.067676,222.061783,-3404.947333,153.219100
59538.067986,0.000000,-5477.523971,153.219100
59538.068295,888.247130,-8512.368333,612.876398
59538.068605,0.000000,-11917.315666,1838.629195
59538.068914,-74.020594,-14730.098246,3907.087040
59538.069224,-2442.679609,-13619.789333,-689.485948
59538.069534,-2368.659014,-7772.162391,612.876398
59538.069843,2294.638420,-7105.977043,2068.457845
59538.070153,2072.576638,-4737.318029,2374.896044
59538.070462,1110.308913,-6069.688724,229.828649
59538.070772,2146.597232,-8956.491898,1455.581446
59538.071082,2146.597232,-12361.439231,2145.067394
59538.071391,222.061783,-11695.253884,612.876398
59538.071701,-4441.235652,-9548.656652,0.000000
59538.072010,-1184.329507,-9104.533087,1225.752797
59538.072320,-370.102971,-6661.853478,-1302.362347
59538.072630,592.164754,-6661.853478,153.219100
59538.072939,-1554.432478,-6513.812290,-1608.800546
59538.073249,148.041188,-9474.636058,766.095498
59538.073558,2590.720797,-10214.842000,229.828649
59538.073868,148.041188,-11621.233289,842.705048
59538.074178,-2146.597232,-13249.686362,229.828649
59538.074487,-2220.617826,-11325.150913,-1838.629195
59538.074797,-3108.864956,-9548.656652,0.000000
59538.075106,-1776.494261,-6587.832884,0.000000
59538.075416,-74.020594,-7105.977043,-1302.362347
59538.075726,-2368.659014,-2738.761985,0.000000
59538.076035,2294.638420,-8882.471304,1762.019645
59538.076345,592.164754,-11621.233289,2451.505594
59538.076654,-1480.411884,-15396.283594,1455.581446
59538.076964,-3478.967927,-13989.892304,919.314598
59538.077274,-2368.659014,-10955.047942,-76.609550
59538.077583,-1332.370696,-2812.782580,-383.047749
59538.077893,-666.185348,-740.205942,-2451.505594
59538.078202,0.000000,-3923.091493,1225.752797
59538.078512,5847.626942,-10658.965565,2987.772442
59538.078822,666.185348,-12361.439231,766.095498
59538.079131,-2368.659014,-15914.427753,2987.772442
59538.079441,-3478.967927,-13101.645173,1532.190996
59538.079750,-1110.308913,-8586.388927,995.924147
59538.080060,0.000000,-4737.318029,306.438199
59538.080370,0.000000,-3034.844362,-153.219100
59538.080679,740.205942,-5921.647536,1149.143247
59538.080989,3478.967927,-9030.512492,-76.609550
59538.081298,1480.411884,-9548.656652,229.828649
59538.081608,0.000000,-11917.315666,1225.752797
59538.081918,-74.020594,-13619.789333,2374.896044
59538.082227,-1850.514855,-7031.956449,842.705048
59538.082537,-1924.535449,-5403.503377,0.000000
59538.082846,-1184.329507,-6365.771101,-612.876398
59538.083156,-370.102971,-7994.224174,0.000000
59538.083466,2146.597232,-8512.368333,1072.533697
59538.083775,1702.473667,-11251.130318,2068.457845
59538.084085,-74.020594,-13027.624579,-76.609550
59538.084394,-2368.659014,-12583.501014,536.266849
59538.084704,0.000000,-11917.315666,1838.629195
59538.085014,-370.102971,-9474.636058,-76.609550
59538.085323,-3478.967927,-4811.338623,0.000000
59538.085633,-2368.659014,-3627.009116,0.000000
59538.085942,2294.638420,-6587.832884,1608.800546
59538.086252,2220.617826,-9400.615463,2221.676944
59538.086562,74.020594,-11843.295072,1762.019645
59538.086871,-1258.350101,-15396.283594,3600.648841
59538.087181,-74.020594,-13027.624579,2374.896044
59538.087490,-2738.761985,-9474.636058,-76.609550
59538.087800,-5921.647536,-3627.009116,0.000000
59538.088110,-74.020594,-7994.224174,1762.019645
59538.088419,740.205942,-4811.338623,0.000000
59538.088729,888.247130,-7476.080014,1225.752797
59538.089038,0.000000,-10140.821405,1532.190996
59538.089348,-2146.597232,-12583.501014,1608.800546
59538.089658,-2072.576638,-11029.068536,1072.533697
59538.089967,-1554.432478,-9474.636058,1149.143247
59538.090277,-74.020594,-8290.306550,-76.609550
59538.090586,-666.185348,-7105.977043,-76.609550
59538.090896,0.000000,-5995.668130,1225.752797
59538.091206,3478.967927,-9474.636058,2374.896044
59538.091515,0.000000,-7772.162391,0.000000
59538.091825,-2368.659014,-10140.821405,0.000000
59538.092134,-518.144159,-11029.068536,1838.629195
59538.092444,-1184.329507,-9918.759623,459.657299
59538.092754,-1258.350101,-6735.874072,-689.485948
59538.093063,-666.185348,-8290.306550,1149.143247
59538.093373,3478.967927,-8290.306550,3600.648841
59538.093682,2886.803174,-7105.977043,-76.609550
59538.093992,0.000000,-5403.503377,0.000000
59538.094302,1554.432478,-13027.624579,2987.772442
59538.094611,-592.164754,-11029.068536,0.000000
59538.094921,-3552.988522,-10140.821405,0.000000
59538.095230,-2590.720797,-9622.677246,-1455.581446
59538.095540,-2738.761985,-9474.636058,-995.924147
59538.095850,888.247130,-6809.894666,612.876398
59538.096159,3256.906145,-8290.306550,2374.896044
59538.096469,4663.297435,-8290.306550,3600.648841
59538.096778,0.000000,-9770.718434,842.705048
59538.097088,0.000000,-11917.315666,2451.505594
59538.097398,-370.102971,-13027.624579,1762.019645
59538.097707,-4515.256246,-7698.141797,-2451.505594
59538.098017,-4737.318029,-6587.832884,-3600.648841
59538.098326,-740.205942,-5995.668130,0.000000
59538.098636,1998.556043,-7846.182985,536.266849
59538.098946,1480.411884,-8808.450710,1532.190996
59538.099255,-74.020594,-13915.871710,2987.772442
59538.099565,-74.020594,-13619.789333,3600.648841
59538.099874,-1850.514855,-11843.295072,-76.609550
59538.100184,-4737.318029,-4811.338623,-2451.505594
59538.100494,-1258.350101,-8290.306550,-76.609550
59538.100803,0.000000,-5107.421000,0.000000
59538.101113,1702.473667,-6957.935855,229.828649
59538.101422,1480.411884,-7772.162391,1608.800546
59538.101732,-592.164754,-11103.089130,1915.238745
59538.102042,-148.041188,-11251.130318,1685.410096
59538.102351,-370.102971,-12287.418637,2987.772442
59538.102661,-1332.370696,-9474.636058,-76.609550
59538.102970,-3034.844362,-9474.636058,-76.609550
59538.103280,-3552.988522,-4811.338623,0.000000
59538.103590,3182.885551,-9030.512492,2681.334243
59538.103899,2294.638420,-6513.812290,612.876398
59538.104209,-666.185348,-8586.388927,1149.143247
59538.104518,296.082377,-10732.986159,2451.505594
59538.104828,-296.082377,-11029.068536,1685.410096
59538.105138,-1110.308913,-8808.450710,229.828649
59538.105447,-1850.514855,-10362.883188,1149.143247
59538.105757,1702.473667,-8882.471304,-76.609550
59538.106066,2886.803174,-9474.636058,-76.609550
59538.106376,0.000000,-5403.503377,0.000000
59538.106686,2516.700203,-11843.295072,3524.039291
59538.106995,2294.638420,-10362.883188,2451.505594
59538.107305,-962.267725,-9770.718434,0.000000
59538.107614,-2960.823768,-9844.739029,-536.266849
59538.107924,-4441.235652,-10288.862594,-2221.676944
59538.108234,-2664.741391,-8364.327145,-1149.143247
59538.108543,2294.638420,-9474.636058,2068.457845
59538.108853,2886.803174,-5995.668130,1685.410096
59538.109162,2294.638420,-9178.553681,1762.019645
59538.109472,0.000000,-9696.697840,1225.752797
59538.109782,3478.967927,-15396.283594,3600.648841
59538.110091,-3923.091493,-8808.450710,-1762.019645
59538.110401,-3923.091493,-9918.759623,-76.609550
59538.110710,-2442.679609,-7105.977043,-689.485948
59538.111020,518.144159,-6957.935855,153.219100
59538.111330,2072.576638,-6291.750507,1532.190996
59538.111639,518.144159,-9548.656652,2757.943793
59538.111949,592.164754,-11325.150913,4290.134789
59538.112259,-74.020594,-12435.459826,2374.896044
59538.112568,-1850.514855,-7105.977043,-1608.800546
59538.112878,-4145.153275,-7772.162391,153.219100
59538.113187,-74.020594,-7994.224174,-76.609550
59538.113497,1702.473667,-7698.141797,-76.609550
59538.113807,962.267725,-7328.038826,536.266849
59538.114116,0.000000,-9548.656652,1838.629195
59538.114426,74.020594,-10584.944971,2374.896044
59538.114735,74.020594,-11029.068536,2451.505594
59538.115045,-2368.659014,-8364.327145,2451.505594
59538.115355,-3034.844362,-10288.862594,-76.609550
59538.115664,-3034.844362,-6809.894666,-1915.238745
59538.115974,0.000000,-7476.080014,1225.752797
59538.116283,2886.803174,-7105.977043,1149.143247
59538.116593,2072.576638,-9326.594869,3600.648841
59538.116903,1110.308913,-9474.636058,2451.505594
59538.117212,740.205942,-11325.150913,2298.286494
59538.117522,-1406.391290,-9844.739029,536.266849
59538.117831,-3627.009116,-8956.491898,-1838.629195
59538.118141,-4145.153275,-5995.668130,0.000000
59538.118451,444.123565,-9326.594869,2374.896044
59538.118760,518.144159,-6217.729913,-1302.362347
59538.119070,2960.823768,-11621.233289,3524.039291
59538.119379,1998.556043,-11547.212695,1762.019645
59538.119689,1776.494261,-12731.542202,3907.087040
59538.119999,-74.020594,-9178.553681,995.924147
59538.120308,-2812.782580,-8734.430116,-766.095498
59538.120618,-2294.638420,-7254.018232,-842.705048
59538.120927,-74.020594,-7179.997637,-1838.629195
59538.121237,0.000000,-5995.668130,0.000000
59538.121547,740.205942,-10140.821405,2451.505594
59538.121856,3478.967927,-13027.624579,2374.896044
59538.122166,0.000000,-9548.656652,1225.752797
59538.122476,666.185348,-9474.636058,2374.896044
59538.122785,-2664.741391,-9252.574275,536.266849
59538.123095,-1850.514855,-7624.121203,-153.219100
59538.123404,740.205942,-7698.141797,536.266849
59538.123714,1924.535449,-9178.553681,2068.457845
59538.124024,1110.308913,-9548.656652,612.876398
59538.124333,-1406.391290,-9548.656652,0.000000
59538.124643,296.082377,-9548.656652,1225.752797
59538.124952,2294.638420,-9474.636058,3600.648841
59538.125262,-4071.132681,-4663.297435,-1608.800546
59538.125572,-4145.153275,-5995.668130,-1072.533697
59538.125881,-2960.823768,-9252.574275,0.000000
59538.126191,-222.061783,-10658.965565,383.047749
59538.126500,-1036.288319,-11325.150913,919.314598
59538.126810,-518.144159,-11103.089130,2451.505594
59538.127120,1924.535449,-7179.997637,2374.896044
59538.127429,962.267725,-5255.462188,459.657299
59538.127739,-2368.659014,-4811.338623,0.000000
59538.128048,-1332.370696,-11103.089130,1685.410096
59538.128358,-2738.761985,-9770.718434,-2068.457845
59538.128668,-1184.329507,-11621.233289,1762.019645
59538.128977,-1258.350101,-8956.491898,612.876398
59538.129287,740.205942,-9474.636058,2221.676944
59538.129596,1850.514855,-7105.977043,2145.067394
59538.129906,1406.391290,-6809.894666,1225.752797
59538.130216,-1776.494261,-7105.977043,-689.485948
59538.130525,-2442.679609,-9326.594869,-2528.115143
59538.130835,-2368.659014,-8364.327145,-3677.258390
59538.131144,1184.329507,-11621.233289,2451.505594
59538.131454,2294.638420,-10658.965565,1149.143247
59538.131764,296.082377,-10436.903782,3677.258390
59538.132073,2960.823768,-8364.327145,3064.381992
59538.132383,2368.659014,-9030.512492,2374.896044
59538.132693,-740.205942,-7328.038826,383.047749
59538.133002,-2664.741391,-8882.471304,-919.314598
59538.133312,-1406.391290,-9474.636058,-1302.362347
59538.133621,1702.473667,-11843.295072,-76.609550
59538.133931,0.000000,-8364.327145,-1455.581446
59538.134241,0.000000,-11325.150913,3677.258390
59538.134550,2294.638420,-9326.594869,2374.896044
59538.134860,0.000000,-7179.997637,2451.505594
59538.135169,-1776.494261,-4811.338623,0.000000
59538.135479,-1776.494261,-8660.409521,689.485948
59538.135789,-518.144159,-9030.512492,229.828649
59538.136098,-444.123565,-10732.986159,842.705048
59538.136408,-74.020594,-11251.130318,1762.019645
59538.136717,1998.556043,-11843.295072,3600.648841
59538.137027,666.185348,-7179.997637,0.000000
59538.137337,2442.679609,-10288.862594,4213.525239
59538.137646,-1850.514855,-6513.812290,-229.828649
59538.137956,-4145.153275,-9548.656652,0.000000
59538.138265,-3256.906145,-6661.853478,-1762.019645
59538.138575,-2294.638420,-9548.656652,-536.266849
59538.138885,-1258.350101,-8882.471304,306.438199
59538.139194,-740.205942,-10436.903782,2298.286494
59538.139504,2294.638420,-10955.047942,4213.525239
59538.139813,3923.091493,-11251.130318,4826.401637
59538.140123,-74.020594,-7105.977043,-76.609550
59538.140433,-5921.647536,-5995.668130,0.000000
59538.140742,-592.164754,-9252.574275,612.876398
59538.141052,-1850.514855,-9252.574275,-2451.505594
59538.141361,-2146.597232,-8512.368333,-1302.362347
59538.141671,-962.267725,-12509.480420,1225.752797
59538.141981,2220.617826,-10140.821405,2451.505594
59538.142290,2072.576638,-9844.739029,1991.848295
59538.142600,1332.370696,-7624.121203,2221.676944
59538.142909,-1184.329507,-10362.883188,2374.896044
59538.143219,-74.020594,-10658.965565,2374.896044
59538.143529,-1258.350101,-8586.388927,-1302.362347
59538.143838,0.000000,-9548.656652,612.876398
59538.144148,814.226536,-11917.315666,536.266849
59538.144458,2886.803174,-10066.800811,2374.896044
59538.144767,2146.597232,-9548.656652,2145.067394
59538.145077,888.247130,-6143.709319,689.485948
59538.145386,-1628.453072,-7772.162391,-536.266849
59538.145696,-592.164754,-7772.162391,459.657299
59538.146006,-1184.329507,-12509.480420,1838.629195
59538.146315,-74.020594,-13619.789333,-76.609550
59538.146625,-666.185348,-10955.047942,76.609550
59538.146934,1184.329507,-9548.656652,3064.381992
59538.147244,2886.803174,-7328.038826,1762.019645
59538.147554,2294.638420,-5329.482782,1762.019645
59538.147863,-1628.453072,-7105.977043,383.047749
59538.148173,-1776.494261,-8512.368333,-153.219100
59538.148482,-2220.617826,-11621.233289,-842.705048
59538.148792,-2960.823768,-9548.656652,0.000000
59538.149102,-2368.659014,-11029.068536,1838.629195
59538.149411,3478.967927,-11843.295072,4826.401637
59538.149721,1998.556043,-6957.935855,1149.143247
59538.150030,592.164754,-5995.668130,1838.629195
59538.150340,-666.185348,-9474.636058,-76.609550
59538.150650,-74.020594,-10658.965565,-76.609550
59538.150959,-2590.720797,-10955.047942,-383.047749
59538.151269,-2368.659014,-8808.450710,-612.876398
59538.151578,-1924.535449,-10140.821405,612.876398
59538.151888,0.000000,-7476.080014,1225.752797
59538.152198,0.000000,-7772.162391,2451.505594
59538.152507,2294.638420,-8956.491898,4749.792088
59538.152817,-1258.350101,-8290.306550,-76.609550
59538.153126,-2960.823768,-7179.997637,0.000000
59538.153436,-222.061783,-9474.636058,1762.019645
59538.153746,1110.308913,-9474.636058,1762.019645
59538.154055,-370.102971,-9400.615463,1149.143247
59538.154365,814.226536,-10288.862594,2528.115143
59538.154675,1702.473667,-10140.821405,2451.505594
59538.154984,0.000000,-6587.832884,0.000000
59538.155294,-2368.659014,-5995.668130,306.438199
59538.155603,0.000000,-7179.997637,1225.752797
59538.155913,-74.020594,-11547.212695,1762.019645
59538.156223,-2368.659014,-8364.327145,0.000000
59538.156532,-74.020594,-13027.624579,2374.896044
59538.156842,1480.411884,-11843.295072,3677.258390
59538.157151,1850.514855,-9474.636058,2374.896044
59538.157461,1850.514855,-6957.935855,2298.286494
59538.157771,666.185348,-6587.832884,1455.581446
59538.158080,-1036.288319,-5477.523971,0.000000
59538.158390,-3997.112087,-6291.750507,-2145.067394
59538.158699,-3552.988522,-9548.656652,0.000000
59538.159009,-74.020594,-14211.954086,-76.609550
59538.159319,-2368.659014,-10732.986159,612.876398
59538.159628,2294.638420,-11843.295072,3600.648841
59538.159938,1480.411884,-6587.832884,1838.629195
59538.160247,666.185348,-7105.977043,842.705048
59538.160557,-518.144159,-8586.388927,1378.971896
59538.160867,-1036.288319,-10436.903782,612.876398
59538.161176,-1850.514855,-10066.800811,-689.485948
59538.161486,-3034.844362,-7994.224174,-2068.457845
59538.161795,-2368.659014,-7179.997637,1225.752797
59538.162105,3478.967927,-9474.636058,4213.525239
59538.162415,148.041188,-5773.606348,919.314598
59538.162724,1184.329507,-9400.615463,2451.505594
59538.163034,-2368.659014,-9548.656652,612.876398
59538.163343,-1554.432478,-9992.780217,76.609550
59538.163653,-1554.432478,-10288.862594,-383.047749
59538.163963,-1554.432478,-9474.636058,0.000000
59538.164272,-74.020594,-11251.130318,1149.143247
59538.164582,1702.473667,-8290.306550,1149.143247
59538.164892,0.000000,-4811.338623,0.000000
59538.165201,2294.638420,-7698.141797,2068.457845
59538.165511,-814.226536,-6809.894666,-229.828649
59538.165820,0.000000,-7179.997637,1532.190996
59538.166130,-2368.659014,-9548.656652,0.000000
59538.166440,-1332.370696,-11695.253884,0.000000
59538.166749,-1110.308913,-12953.603985,1072.533697
59538.167059,1036.288319,-9548.656652,1608.800546
59538.167368,3182.885551,-8882.471304,2374.896044
59538.167678,3478.967927,-5921.647536,2374.896044
59538.167988,1110.308913,-6513.812290,-383.047749
59538.168297,0.000000,-7772.162391,0.000000
59538.168607,-74.020594,-14063.912898,1149.143247
59538.168916,-3552.988522,-10732.986159,0.000000
59538.169226,-3256.906145,-11029.068536,0.000000
59538.169536,592.164754,-8586.388927,1685.410096
59538.169845,1406.391290,-5995.668130,1378.971896
59538.170155,1258.350101,-4663.297435,612.876398
59538.170464,1998.556043,-9474.636058,2374.896044
59538.170774,3478.967927,-11251.130318,3600.648841
59538.171084,-74.020594,-11843.295072,-1302.362347
59538.171393,-4737.318029,-11029.068536,0.000000
59538.171703,-1258.350101,-14063.912898,1762.019645
59538.172012,-2368.659014,-7772.162391,0.000000
59538.172322,222.061783,-6365.771101,1149.143247
59538.172632,888.247130,-4219.173869,1302.362347
59538.172941,-370.102971,-6513.812290,1532.190996
59538.173251,222.061783,-7254.018232,995.924147
59538.173560,518.144159,-12361.439231,2834.553343
59538.173870,-74.020594,-14137.933492,2068.457845
59538.174180,-1258.350101,-14211.954086,-76.609550
59538.174489,-2368.659014,-9548.656652,919.314598
59538.174799,2294.638420,-8290.306550,2374.896044
59538.175108,-2368.659014,-1850.514855,0.000000
59538.175418,-370.102971,-5921.647536,842.705048
59538.175728,444.123565,-6883.915261,612.876398
59538.176037,-962.267725,-11917.315666,612.876398
59538.176347,-2590.720797,-11917.315666,383.047749
59538.176657,-2368.659014,-14285.974681,2451.505594
59538.176966,1036.288319,-11547.212695,3677.258390
59538.177276,3478.967927,-8290.306550,2374.896044
59538.177585,0.000000,-1258.350101,0.000000
59538.177895,814.226536,-7402.059420,2374.896044
59538.178205,-814.226536,-6291.750507,-842.705048
59538.178514,814.226536,-13027.624579,995.924147
