#time,accel_x,accel_y,accel_z
59512.847610,0.000000,-8364.327145,1838.629195
59512.847919,-1110.308913,-8216.285956,0.000000
59512.848228,-444.123565,-9178.553681,612.876398
59512.848538,-370.102971,-8808.450710,842.705048
59512.848847,-296.082377,-9030.512492,536.266849
59512.849157,-74.020594,-11251.130318,2374.896044
59512.849466,-74.020594,-9474.636058,-76.609550
59512.849775,-814.226536,-8216.285956,0.000000
59512.850085,1110.308913,-11547.212695,3140.991542
59512.850394,-1258.350101,-7920.203579,-229.828649
59512.850704,-2368.659014,-7179.997637,0.000000
59512.851013,-74.020594,-8586.388927,536.266849
59512.851322,0.000000,-8808.450710,766.095498
59512.851632,-296.082377,-9030.512492,689.485948
59512.851941,-370.102971,-8734.430116,689.485948
59512.852251,962.267725,-10436.903782,2604.724693
59512.852560,1998.556043,-10658.965565,2374.896044
59512.852869,-74.020594,-9474.636058,1149.143247
59512.853179,-2368.659014,-7179.997637,0.000000
59512.853488,-74.020594,-10658.965565,1762.019645
59512.853798,-3256.906145,-6143.709319,-2451.505594
59512.854107,-74.020594,-9178.553681,-76.609550
59512.854416,-296.082377,-8660.409521,612.876398
59512.854726,-370.102971,-8660.409521,536.266849
59512.855035,-444.123565,-8956.491898,612.876398
59512.855345,0.000000,-8660.409521,2451.505594
59512.855654,1036.288319,-10658.965565,2374.896044
59512.855963,-74.020594,-9474.636058,-76.609550
59512.856273,-4145.153275,-5995.668130,0.000000
59512.856582,2294.638420,-11251.130318,2374.896044
59512.856892,-1850.514855,-7179.997637,-1455.581446
59512.857201,-74.020594,-10066.800811,1149.143247
59512.857510,-518.144159,-8734.430116,229.828649
59512.857820,-148.041188,-9326.594869,842.705048
59512.858129,-370.102971,-9400.615463,536.266849
59512.858439,-2368.659014,-7772.162391,1225.752797
59512.858748,296.082377,-9548.656652,2145.067394
59512.859057,370.102971,-9992.780217,2374.896044
59512.859367,-2738.761985,-6587.832884,-1532.190996
59512.859676,888.247130,-10807.006753,2374.896044
59512.859986,-74.020594,-8290.306550,-76.609550
59512.860295,962.267725,-10584.944971,1915.238745
59512.860604,-222.061783,-8956.491898,612.876398
59512.860914,-296.082377,-8882.471304,536.266849
59512.861223,-370.102971,-9104.533087,689.485948
59512.861533,-2368.659014,-6587.832884,0.000000
59512.861842,0.000000,-8364.327145,1225.752797
59512.862151,814.226536,-10584.944971,2374.896044
59512.862461,-1258.350101,-7105.977043,-1302.362347
59512.862770,0.000000,-9548.656652,1532.190996
59512.863080,2294.638420,-11251.130318,-76.609550
59512.863389,296.082377,-9474.636058,1608.800546
59512.863698,-74.020594,-9400.615463,536.266849
59512.864008,-296.082377,-8956.491898,689.485948
59512.864317,-296.082377,-8956.491898,689.485948
59512.864627,-2368.659014,-6883.915261,0.000000
59512.864936,-2368.659014,-7772.162391,0.000000
59512.865245,-296.082377,-9696.697840,2451.505594
59512.865555,-74.020594,-7698.141797,-689.485948
59512.865864,0.000000,-9548.656652,1225.752797
59512.866174,-74.020594,-11843.295072,-76.609550
59512.866483,0.000000,-8956.491898,1225.752797
59512.866792,-74.020594,-9326.594869,842.705048
59512.867102,-296.082377,-9252.574275,842.705048
59512.867411,-296.082377,-9252.574275,842.705048
59512.867721,-74.020594,-8438.347739,-995.924147
59512.868030,-1776.494261,-7476.080014,0.000000
59512.868339,-1480.411884,-8364.327145,612.876398
59512.868649,-74.020594,-9474.636058,-76.609550
59512.868958,-2368.659014,-7772.162391,0.000000
59512.869268,2220.617826,-11843.295072,4213.525239
59512.869577,-1628.453072,-8364.327145,612.876398
59512.869886,-74.020594,-9400.615463,1455.581446
59512.870196,-592.164754,-8956.491898,766.095498
59512.870505,-148.041188,-8808.450710,995.924147
59512.870815,-74.020594,-8882.471304,-76.609550
59512.871124,-1258.350101,-7550.100608,-612.876398
59512.871433,-1776.494261,-7772.162391,0.000000
59512.871743,2294.638420,-11843.295072,2987.772442
59512.872052,-2146.597232,-7476.080014,0.000000
59512.872362,1184.329507,-9844.739029,3677.258390
59512.872671,-1776.494261,-7772.162391,153.219100
59512.872980,148.041188,-8956.491898,1225.752797
59512.873290,518.144159,-8364.327145,766.095498
59512.873599,518.144159,-8808.450710,1072.533697
59512.873909,3182.885551,-9474.636058,1762.019645
59512.874218,1702.473667,-8882.471304,536.266849
59512.874527,1110.308913,-7179.997637,0.000000
59512.874837,3256.906145,-10584.944971,2451.505594
59512.875146,1406.391290,-7994.224174,-383.047749
59512.875456,1184.329507,-9548.656652,2451.505594
59512.875765,2072.576638,-8586.388927,383.047749
59512.876074,2812.782580,-9548.656652,459.657299
59512.876384,2664.741391,-9030.512492,612.876398
59512.876693,2812.782580,-9400.615463,229.828649
59512.877003,6439.791695,-10658.965565,2374.896044
59512.877312,5551.544565,-9474.636058,1762.019645
59512.877621,4959.379811,-7994.224174,-76.609550
59512.877931,4737.318029,-7772.162391,2451.505594
59512.878240,5847.626942,-8586.388927,1149.143247
59512.878550,2368.659014,-5403.503377,0.000000
59512.878859,5847.626942,-8586.388927,536.266849
59512.879168,5033.400406,-8586.388927,0.000000
59512.879478,5847.626942,-9252.574275,0.000000
59512.879787,5921.647536,-9474.636058,0.000000
59512.880097,7402.059420,-11695.253884,1302.362347
59512.880406,7624.121203,-11547.212695,1149.143247
59512.880715,5699.585753,-10066.800811,-1915.238745
59512.881025,3552.988522,-11917.315666,612.876398
59512.881334,4663.297435,-13027.624579,-76.609550
59512.881644,0.000000,-8364.327145,0.000000
59512.881953,3182.885551,-10066.800811,842.705048
59512.882262,2886.803174,-7476.080014,612.876398
59512.882572,3256.906145,-5995.668130,995.924147
59512.882881,5033.400406,-4515.256246,1685.410096
59512.883191,5921.647536,-3923.091493,2757.943793
59512.883500,9400.615463,-4515.256246,3140.991542
59512.883809,10510.924376,-6513.812290,2374.896044
59512.884119,4737.318029,-5995.668130,0.000000
59512.884428,4663.297435,-13619.789333,766.095498
59512.884738,-1258.350101,-14063.912898,-4826.401637
59512.885047,-1850.514855,-17764.942608,-2528.115143
59512.885356,-4219.173869,-15544.324782,-2757.943793
59512.885666,-2886.803174,-10436.903782,-2681.334243
59512.885975,-1406.391290,-7550.100608,-995.924147
59512.886285,0.000000,-4811.338623,1838.629195
59512.886594,3552.988522,-6143.709319,4903.011187
59512.886903,7031.956449,-7698.141797,8197.221829
59512.887213,4071.132681,-4145.153275,4213.525239
59512.887522,1184.329507,-4811.338623,4903.011187
59512.887832,3478.967927,-4737.318029,2374.896044
59512.888141,3849.070898,-5033.400406,2911.162892
59512.888450,3701.029710,-5847.626942,1072.533697
59512.888760,1036.288319,-9992.780217,-612.876398
59512.889069,-2664.741391,-14952.160028,-2451.505594
59512.889379,-7105.977043,-17838.963202,-3677.258390
59512.889688,-7698.141797,-17246.798449,-4903.011187
59512.889997,-6809.894666,-14285.974681,-3677.258390
59512.890307,-74.020594,-7994.224174,-2528.115143
59512.890616,592.164754,-5995.668130,2451.505594
59512.890926,7031.956449,-7105.977043,6052.154434
59512.891235,4145.153275,-5403.503377,5515.887586
59512.891544,6735.874072,-5625.565159,5975.544884
59512.891854,7105.977043,-4145.153275,5286.058936
59512.892163,8142.265362,-3627.009116,5745.716235
59512.892473,4811.338623,-1850.514855,1838.629195
59512.892782,1776.494261,-7772.162391,612.876398
59512.893091,0.000000,-13693.809927,0.000000
59512.893401,-74.020594,-16580.613101,-3140.991542
59512.893710,-3256.906145,-15470.304188,-4903.011187
59512.894020,-74.020594,-16580.613101,-3140.991542
59512.894329,-3552.988522,-13841.851115,-3677.258390
59512.894638,-2146.597232,-13619.789333,-1302.362347
59512.894948,4071.132681,-7328.038826,1838.629195
59512.895257,9400.615463,-4293.194464,5132.839837
59512.895567,11325.150913,1110.308913,6128.763984
59512.895876,12435.459826,-2442.679609,7507.735880
59512.896185,14137.933492,-8882.471304,9652.803275
59512.896495,7031.956449,-6661.853478,2374.896044
59512.896804,4663.297435,-10066.800811,1149.143247
59512.897114,-74.020594,-11843.295072,-3140.991542
59512.897423,-2738.761985,-14878.139434,-3983.696590
59512.897732,-2220.617826,-17024.736666,-3447.429741
59512.898042,1998.556043,-13027.624579,-3370.820191
59512.898351,3404.947333,-10955.047942,0.000000
59512.898661,1776.494261,-6587.832884,-1838.629195
59512.898970,2294.638420,-9474.636058,-76.609550
59512.899279,8068.244768,-7105.977043,3294.210641
59512.899589,7698.141797,-2442.679609,3524.039291
59512.899898,7698.141797,-5551.544565,6281.983084
59512.900208,4293.194464,-3552.988522,1762.019645
59512.900517,4737.318029,-4811.338623,612.876398
59512.900826,7846.182985,-8290.306550,2987.772442
59512.901136,3182.885551,-10362.883188,1608.800546
59512.901445,-1924.535449,-11843.295072,-1378.971896
59512.901755,-1258.350101,-15396.283594,-3140.991542
59512.902064,-666.185348,-11843.295072,-2528.115143
59512.902373,-1406.391290,-7772.162391,-3600.648841
59512.902683,3404.947333,-9474.636058,2374.896044
59512.902992,4663.297435,-4589.276840,536.266849
59512.903302,5329.482782,-4811.338623,4903.011187
59512.903611,5551.544565,-5625.565159,3294.210641
59512.903920,1998.556043,-7328.038826,2987.772442
59512.904230,2886.803174,-6217.729913,1149.143247
59512.904539,2886.803174,-8290.306550,-76.609550
59512.904849,4589.276840,-10658.965565,-76.609550
59512.905158,1702.473667,-11843.295072,1149.143247
59512.905467,-74.020594,-10362.883188,-2834.553343
59512.905777,-3552.988522,-12509.480420,-2451.505594
59512.906086,-666.185348,-16284.530724,-76.609550
59512.906396,-4737.318029,-7772.162391,0.000000
59512.906705,2294.638420,-7402.059420,2298.286494
59512.907014,4811.338623,-5847.626942,3370.820191
59512.907324,5995.668130,-6291.750507,4749.792088
59512.907633,5255.462188,-5329.482782,3447.429741
59512.907943,4367.215058,-9474.636058,4826.401637
59512.908252,2294.638420,-9326.594869,1149.143247
59512.908561,1702.473667,-8290.306550,-1302.362347
59512.908871,0.000000,-10140.821405,612.876398
59512.909180,-74.020594,-13027.624579,-383.047749
59512.909490,-4737.318029,-9548.656652,-4290.134789
59512.909799,1110.308913,-11843.295072,-1302.362347
59512.910108,1998.556043,-9918.759623,-153.219100
59512.910418,5107.421000,-7698.141797,1762.019645
59512.910727,7179.997637,-7476.080014,3064.381992
59512.911037,8808.450710,-9474.636058,4826.401637
59512.911346,6439.791695,-8290.306550,2834.553343
59512.911655,3478.967927,-8364.327145,0.000000
59512.911965,5847.626942,-11547.212695,3294.210641
59512.912274,1554.432478,-7179.997637,0.000000
59512.912584,0.000000,-9548.656652,1225.752797
59512.912893,-370.102971,-10214.842000,-995.924147
59512.913202,-2664.741391,-9696.697840,-1685.410096
59512.913512,-148.041188,-10732.986159,-1072.533697
59512.913821,2960.823768,-7476.080014,459.657299
59512.914131,5773.606348,-9474.636058,3294.210641
59512.914440,5847.626942,-7105.977043,2374.896044
59512.914749,2590.720797,-4219.173869,-1915.238745
59512.915059,7105.977043,-11621.233289,3064.381992
59512.915368,6439.791695,-7179.997637,842.705048
59512.915678,2960.823768,-7179.997637,0.000000
59512.915987,3478.967927,-9474.636058,-76.609550
59512.916296,888.247130,-11325.150913,-306.438199
59512.916606,2664.741391,-11029.068536,0.000000
59512.916916,2368.659014,-10140.821405,383.047749
59512.917225,0.000000,-9548.656652,1532.190996
59512.917535,1702.473667,-12139.377449,1608.800546
59512.917845,4663.297435,-7105.977043,-76.609550
59512.918154,2368.659014,-7772.162391,3064.381992
59512.918464,8216.285956,-4737.318029,3294.210641
59512.918774,1184.329507,-4811.338623,0.000000
59512.919083,4071.132681,-7698.141797,-76.609550
59512.919393,-222.061783,-10288.862594,-1072.533697
59512.919703,962.267725,-11917.315666,-1149.143247
59512.920012,2220.617826,-11843.295072,-229.828649
59512.920322,1184.329507,-10732.986159,919.314598
59512.920632,4737.318029,-13397.727550,1455.581446
59512.920941,3478.967927,-13471.748144,3140.991542
59512.921251,4663.297435,-6587.832884,0.000000
59512.921561,2368.659014,-10732.986159,3677.258390
59512.921870,-74.020594,-8290.306550,-76.609550
59512.922180,-2294.638420,-11251.130318,842.705048
59512.922489,592.164754,-7254.018232,1455.581446
59512.922799,1850.514855,-6143.709319,1991.848295
59512.923109,1110.308913,-7254.018232,2987.772442
59512.923418,-2368.659014,-4811.338623,306.438199
59512.923728,-1776.494261,-10140.821405,2451.505594
59512.924038,2294.638420,-11251.130318,4519.963438
59512.924347,-3627.009116,-11103.089130,-76.609550
59512.924657,-6809.894666,-8364.327145,-1838.629195
59512.924967,-4811.338623,-13619.789333,-1302.362347
59512.925276,-3552.988522,-9474.636058,-76.609550
59512.925586,-2738.761985,-9178.553681,766.095498
59512.925896,-2664.741391,-6809.894666,842.705048
59512.926205,-3701.029710,-6735.874072,306.438199
59512.926515,-4737.318029,-7179.997637,612.876398
59512.926825,-1776.494261,-5995.668130,1225.752797
59512.927134,-2368.659014,-10732.986159,4903.011187
59512.927444,-3627.009116,-7105.977043,-689.485948
59512.927754,-7105.977043,-9844.739029,0.000000
59512.928063,-74.020594,-9474.636058,2374.896044
59512.928373,-148.041188,-9992.780217,3370.820191
59512.928683,-888.247130,-7402.059420,2528.115143
59512.928992,-3256.906145,-8956.491898,919.314598
59512.929302,-2294.638420,-10658.965565,1532.190996
59512.929612,-2368.659014,-7179.997637,0.000000
59512.929921,-5329.482782,-8364.327145,306.438199
59512.930231,-4737.318029,-5995.668130,0.000000
59512.930541,-5107.421000,-9178.553681,-1455.581446
59512.930850,0.000000,-7179.997637,0.000000
59512.931160,2294.638420,-13027.624579,4213.525239
59512.931470,0.000000,-7179.997637,1225.752797
59512.931779,-370.102971,-9992.780217,229.828649
59512.932089,1628.453072,-10510.924376,2374.896044
59512.932399,2886.803174,-9326.594869,1532.190996
59512.932708,518.144159,-9474.636058,1378.971896
59512.933018,0.000000,-7476.080014,0.000000
59512.933328,-74.020594,-13323.706956,2681.334243
59512.933637,518.144159,-6217.729913,-2068.457845
59512.933947,2368.659014,-9178.553681,2298.286494
59512.934257,1332.370696,-5107.421000,459.657299
59512.934566,2146.597232,-7698.141797,76.609550
59512.934876,3256.906145,-9844.739029,1991.848295
59512.935186,4737.318029,-8290.306550,1378.971896
59512.935495,2368.659014,-10510.924376,2221.676944
59512.935805,1036.288319,-10066.800811,-76.609550
59512.936114,-1406.391290,-14137.933492,-76.609550
59512.936424,-74.020594,-8882.471304,-2834.553343
59512.936734,1776.494261,-11917.315666,1225.752797
59512.937043,3478.967927,-7698.141797,842.705048
59512.937353,3775.050304,-9178.553681,536.266849
59512.937663,3256.906145,-8956.491898,2451.505594
59512.937972,4663.297435,-7254.018232,2298.286494
59512.938282,2738.761985,-9104.533087,2987.772442
59512.938592,1332.370696,-5477.523971,0.000000
59512.938901,-2294.638420,-10140.821405,0.000000
59512.939211,296.082377,-7179.997637,-3370.820191
59512.939521,2886.803174,-12435.459826,2987.772442
59512.939830,-1258.350101,-7624.121203,-766.095498
59512.940140,-1184.329507,-11029.068536,306.438199
59512.940450,0.000000,-10732.986159,1225.752797
59512.940759,1110.308913,-10066.800811,689.485948
59512.941069,-962.267725,-9770.718434,2068.457845
59512.941379,-2368.659014,-7772.162391,0.000000
59512.941688,-3849.070898,-9992.780217,-689.485948
59512.941998,-666.185348,-7994.224174,-76.609550
59512.942308,-666.185348,-10658.965565,2374.896044
59512.942617,-3552.988522,-4811.338623,0.000000
59512.942927,-740.205942,-10066.800811,1378.971896
59512.943237,-74.020594,-9474.636058,1149.143247
59512.943546,370.102971,-8290.306550,612.876398
59512.943856,-1776.494261,-10362.883188,2604.724693
59512.944166,-4811.338623,-8586.388927,-229.828649
59512.944475,-6365.771101,-11177.109724,-459.657299
59512.944785,-2072.576638,-8142.265362,536.266849
59512.945095,-1776.494261,-7772.162391,1378.971896
59512.945404,-2368.659014,-4811.338623,1225.752797
59512.945714,-1258.350101,-9474.636058,-76.609550
59512.946024,-1480.411884,-8438.347739,919.314598
59512.946333,4663.297435,-9474.636058,4826.401637
59512.946643,518.144159,-11251.130318,4826.401637
59512.946953,-3478.967927,-6513.812290,-1608.800546
59512.947262,-6217.729913,-12953.603985,-1072.533697
59512.947572,-1702.473667,-8512.368333,-1455.581446
59512.947882,-3330.926739,-12139.377449,0.000000
59512.948191,-666.185348,-8882.471304,1762.019645
59512.948501,-74.020594,-10658.965565,-76.609550
59512.948811,2368.659014,-7179.997637,3677.258390
59512.949120,7031.956449,-8882.471304,5439.278036
59512.949430,0.000000,-5403.503377,3677.258390
59512.949739,-2960.823768,-5403.503377,-2145.067394
59512.950049,-4293.194464,-11843.295072,-1608.800546
59512.950359,-888.247130,-8216.285956,-2068.457845
59512.950668,-1554.432478,-11399.171507,0.000000
59512.950978,222.061783,-9178.553681,1149.143247
59512.951288,0.000000,-9844.739029,0.000000
59512.951597,2368.659014,-9548.656652,3064.381992
59512.951907,5847.626942,-9474.636058,3600.648841
59512.952217,2368.659014,-8956.491898,3677.258390
59512.952526,3478.967927,-7994.224174,-76.609550
59512.952836,-74.020594,-11843.295072,1762.019645
59512.953146,1110.308913,-6883.915261,0.000000
59512.953455,444.123565,-8660.409521,1455.581446
59512.953765,518.144159,-5773.606348,-229.828649
59512.954075,0.000000,-7179.997637,0.000000
59512.954384,1702.473667,-9474.636058,1762.019645
59512.954694,2886.803174,-7994.224174,-76.609550
59512.955004,0.000000,-9844.739029,1838.629195
59512.955313,-3182.885551,-9400.615463,-4903.011187
59512.955623,-74.020594,-15396.283594,2374.896044
59512.955933,0.000000,-8364.327145,0.000000
59512.956242,1110.308913,-10066.800811,2068.457845
59512.956552,518.144159,-6883.915261,1225.752797
59512.956862,-666.185348,-9326.594869,306.438199
59512.957171,4071.132681,-8882.471304,2374.896044
59512.957481,2368.659014,-7179.997637,1532.190996
59512.957791,2368.659014,-9474.636058,4136.915689
59512.958100,-3478.967927,-6587.832884,-2374.896044
59512.958410,-2738.761985,-13619.789333,-76.609550
59512.958720,-2886.803174,-5995.668130,-4826.401637
59512.959029,-666.185348,-11843.295072,-76.609550
59512.959339,-1480.411884,-8660.409521,-612.876398
59512.959649,-2590.720797,-11843.295072,-536.266849
59512.959958,2072.576638,-9104.533087,1915.238745
59512.960268,3552.988522,-8660.409521,4903.011187
59512.960578,2886.803174,-8882.471304,4519.963438
59512.960887,-2960.823768,-6143.709319,-612.876398
59512.961197,-3478.967927,-10436.903782,1762.019645
59512.961507,-3775.050304,-5107.421000,-2451.505594
59512.961816,-3256.906145,-10362.883188,2757.943793
59512.962126,-2368.659014,-6735.874072,0.000000
59512.962435,-3034.844362,-9844.739029,-153.219100
59512.962745,592.164754,-7550.100608,919.314598
59512.963055,3256.906145,-9178.553681,3907.087040
59512.963364,1702.473667,-6809.894666,1762.019645
59512.963674,-2368.659014,-8660.409521,0.000000
59512.963984,-2442.679609,-13027.624579,-76.609550
59512.964293,-2960.823768,-8660.409521,0.000000
59512.964603,-74.020594,-13619.789333,3600.648841
59512.964913,-2590.720797,-5477.523971,459.657299
59512.965222,-1850.514855,-8512.368333,0.000000
59512.965532,1924.535449,-7402.059420,2145.067394
59512.965842,3775.050304,-7550.100608,3753.867940
59512.966151,2072.576638,-7105.977043,3600.648841
59512.966461,-1258.350101,-9474.636058,1072.533697
59512.966771,-3627.009116,-11843.295072,-1302.362347
59512.967080,-4071.132681,-8068.244768,-2911.162892
59512.967390,-2146.597232,-13619.789333,-76.609550
59512.967700,-2368.659014,-5995.668130,0.000000
59512.968009,2294.638420,-12435.459826,2374.896044
59512.968319,4515.256246,-8216.285956,2374.896044
59512.968629,4293.194464,-8956.491898,3677.258390
59512.968938,2664.741391,-8216.285956,4136.915689
59512.969248,-370.102971,-8216.285956,229.828649
59512.969558,-4737.318029,-8364.327145,-2145.067394
59512.969867,-2368.659014,-8364.327145,-1838.629195
59512.970177,-1406.391290,-11843.295072,1149.143247
59512.970487,-4737.318029,-4811.338623,-3677.258390
59512.970796,-74.020594,-11843.295072,1378.971896
59512.971106,2368.659014,-6883.915261,1532.190996
59512.971416,3552.988522,-9548.656652,2604.724693
59512.971725,2664.741391,-8068.244768,3677.258390
59512.972035,-1258.350101,-10066.800811,-76.609550
59512.972345,-2886.803174,-10584.944971,-1302.362347
59512.972654,-74.020594,-9474.636058,-76.609550
59512.972964,-1702.473667,-9548.656652,0.000000
59512.973274,-740.205942,-7254.018232,-1072.533697
59512.973583,-1480.411884,-10436.903782,-612.876398
59512.973893,3182.885551,-7920.203579,536.266849
59512.974203,3552.988522,-8364.327145,2451.505594
59512.974512,2146.597232,-7254.018232,4826.401637
59512.974822,-666.185348,-8882.471304,-689.485948
59512.975132,-3552.988522,-9844.739029,0.000000
59512.975441,1702.473667,-10955.047942,-76.609550
59512.975751,1702.473667,-12731.542202,3600.648841
59512.976060,-74.020594,-7550.100608,-76.609550
59512.976370,-1184.329507,-8512.368333,0.000000
59512.976680,5773.606348,-10066.800811,4213.525239
59512.976989,4663.297435,-9474.636058,3600.648841
59512.977299,2886.803174,-6513.812290,1915.238745
59512.977609,-2072.576638,-8956.491898,153.219100
59512.977918,-2812.782580,-10140.821405,-842.705048
59512.978228,-2516.700203,-9030.512492,-995.924147
59512.978538,-3256.906145,-9918.759623,306.438199
59512.978847,-4737.318029,-7179.997637,0.000000
59512.979157,-3330.926739,-9474.636058,229.828649
59512.979467,1776.494261,-9326.594869,2451.505594
59512.979776,6365.771101,-6513.812290,5132.839837
59512.980086,2294.638420,-7920.203579,5439.278036
59512.980396,-74.020594,-7994.224174,-689.485948
59512.980705,-4367.215058,-13027.624579,-76.609550
59512.981015,-4737.318029,-7179.997637,-3064.381992
59512.981325,-1850.514855,-12731.542202,1608.800546
59512.981634,-5551.544565,-7254.018232,-2911.162892
59512.981944,-4737.318029,-9548.656652,-2145.067394
59512.982254,2738.761985,-9400.615463,2834.553343
59512.982563,4959.379811,-8290.306550,3907.087040
59512.982873,1628.453072,-7254.018232,5132.839837
59512.983183,-1406.391290,-7105.977043,536.266849
59512.983492,-74.020594,-13027.624579,-76.609550
59512.983802,222.061783,-8882.471304,-689.485948
59512.984112,-3552.988522,-11029.068536,1838.629195
59512.984421,-1258.350101,-8882.471304,-689.485948
59512.984731,-4589.276840,-9548.656652,-2145.067394
59512.985041,962.267725,-6513.812290,306.438199
59512.985350,1998.556043,-9548.656652,3064.381992
59512.985660,518.144159,-7254.018232,3064.381992
59512.985970,-2072.576638,-7846.182985,0.000000
59512.986279,-1776.494261,-9474.636058,-153.219100
59512.986589,-74.020594,-9474.636058,-76.609550
59512.986899,-3627.009116,-10510.924376,-76.609550
59512.987208,-4737.318029,-6587.832884,-2451.505594
59512.987518,-74.020594,-12435.459826,-76.609550
59512.987828,2590.720797,-7402.059420,689.485948
59512.988137,3034.844362,-8734.430116,1532.190996
59512.988447,2368.659014,-7179.997637,3370.820191
59512.988757,296.082377,-9030.512492,689.485948
59512.989066,-814.226536,-9548.656652,-536.266849
59512.989376,-1850.514855,-9696.697840,-1302.362347
59512.989685,-2738.761985,-11843.295072,1915.238745
59512.989995,-1406.391290,-11843.295072,-76.609550
59512.990305,-3108.864956,-8660.409521,-2451.505594
59512.990614,5847.626942,-8882.471304,3600.648841
59512.990924,3552.988522,-7179.997637,3677.258390
59512.991234,4071.132681,-6513.812290,2451.505594
59512.991543,296.082377,-9030.512492,919.314598
59512.991853,-296.082377,-9622.677246,689.485948
59512.992163,-814.226536,-9622.677246,0.000000
59512.992472,-2664.741391,-10510.924376,1455.581446
59512.992782,-3256.906145,-10436.903782,-612.876398
59512.993092,-370.102971,-13619.789333,1455.581446
59512.993401,1776.494261,-5403.503377,153.219100
59512.993711,4663.297435,-9844.739029,5286.058936
59512.994021,2590.720797,-6809.894666,2374.896044
59512.994330,-74.020594,-10066.800811,-76.609550
59512.994640,148.041188,-9548.656652,612.876398
59512.994950,444.123565,-9400.615463,612.876398
59512.995259,-2220.617826,-9844.739029,612.876398
59512.995569,-3552.988522,-8734.430116,-612.876398
59512.995879,-4145.153275,-10140.821405,153.219100
59512.996188,2294.638420,-10658.965565,3600.648841
59512.996498,0.000000,-7179.997637,2451.505594
59512.996808,2294.638420,-8290.306550,4213.525239
59512.997117,-74.020594,-9474.636058,1072.533697
59512.997427,814.226536,-9474.636058,1762.019645
59512.997737,-1110.308913,-8364.327145,766.095498
59512.998046,-3182.885551,-8660.409521,306.438199
59512.998356,-4589.276840,-8512.368333,-2374.896044
59512.998666,-3923.091493,-11251.130318,-1838.629195
59512.998975,0.000000,-7179.997637,1838.629195
59512.999285,2664.741391,-11029.068536,5515.887586
59512.999595,222.061783,-5329.482782,1149.143247
59512.999904,-1184.329507,-9992.780217,1608.800546
59513.000214,-666.185348,-9474.636058,842.705048
59513.000524,-1110.308913,-10362.883188,1762.019645
59513.000833,-2886.803174,-9474.636058,459.657299
59513.001143,-3478.967927,-8512.368333,-1302.362347
59513.001453,-2368.659014,-10214.842000,0.000000
59513.001762,1406.391290,-7476.080014,0.000000
59513.002072,0.000000,-7179.997637,3370.820191
59513.002382,2368.659014,-7179.997637,4596.572988
59513.002691,-74.020594,-10658.965565,-76.609550
59513.003001,-2072.576638,-8364.327145,0.000000
59513.003310,-74.020594,-11251.130318,842.705048
59513.003620,-1776.494261,-11843.295072,1762.019645
59513.003930,-3330.926739,-10658.965565,-2221.676944
59513.004239,-2368.659014,-10955.047942,-1072.533697
59513.004549,2072.576638,-8364.327145,1149.143247
59513.004859,2960.823768,-8216.285956,1838.629195
59513.005168,222.061783,-4219.173869,1838.629195
59513.005478,-2368.659014,-7772.162391,0.000000
59513.005788,3478.967927,-10658.965565,2374.896044
59513.006097,0.000000,-8364.327145,229.828649
59513.006407,-888.247130,-9252.574275,1149.143247
59513.006717,-2368.659014,-10584.944971,-459.657299
59513.007026,-962.267725,-11177.109724,-383.047749
59513.007336,2368.659014,-9474.636058,1149.143247
59513.007646,2368.659014,-9474.636058,3064.381992
59513.007955,1036.288319,-6291.750507,0.000000
59513.008265,-1850.514855,-8290.306550,0.000000
59513.008575,-2368.659014,-6587.832884,0.000000
59513.008884,1184.329507,-9992.780217,2451.505594
59513.009194,-1258.350101,-8882.471304,-76.609550
59513.009504,-3256.906145,-8364.327145,-1302.362347
59513.009813,-2220.617826,-10732.986159,0.000000
59513.010123,2442.679609,-8586.388927,1149.143247
59513.010433,2146.597232,-8808.450710,2987.772442
59513.010742,1332.370696,-7179.997637,1991.848295
59513.011052,-1184.329507,-9548.656652,-76.609550
59513.011362,1702.473667,-8882.471304,76.609550
59513.011671,-2368.659014,-7476.080014,0.000000
59513.011981,-1184.329507,-10140.821405,1991.848295
59513.012291,-4219.173869,-8290.306550,-2374.896044
59513.012600,-2664.741391,-10807.006753,1149.143247
59513.012910,1258.350101,-7772.162391,1225.752797
59513.013220,2516.700203,-8586.388927,3140.991542
59513.013529,1702.473667,-6439.791695,2451.505594
59513.013839,-666.185348,-8956.491898,919.314598
59513.014149,296.082377,-7698.141797,1149.143247
59513.014458,-74.020594,-10362.883188,-76.609550
59513.014768,-3034.844362,-7698.141797,-2068.457845
59513.015078,-5921.647536,-10140.821405,-2451.505594
59513.015387,-2442.679609,-13027.624579,-689.485948
59513.015697,-1184.329507,-8364.327145,1378.971896
59513.016007,1184.329507,-7476.080014,2451.505594
59513.016316,1776.494261,-6217.729913,2451.505594
59513.016626,-666.185348,-8808.450710,1455.581446
59513.016935,1406.391290,-7772.162391,1532.190996
59513.017245,1110.308913,-9474.636058,3294.210641
59513.017555,-74.020594,-9474.636058,2374.896044
59513.017864,-2442.679609,-9474.636058,-1915.238745
59513.018174,-4737.318029,-9548.656652,-2451.505594
59513.018484,2294.638420,-10362.883188,1149.143247
59513.018793,1998.556043,-12139.377449,3677.258390
59513.019103,0.000000,-5107.421000,0.000000
59513.019413,-4071.132681,-11325.150913,-766.095498
59513.019722,740.205942,-9992.780217,919.314598
59513.020032,2960.823768,-7772.162391,2604.724693
59513.020342,1110.308913,-11251.130318,4213.525239
59513.020652,-296.082377,-7624.121203,-689.485948
59513.020961,-3552.988522,-11325.150913,1225.752797
59513.021271,3478.967927,-6809.894666,-76.609550
59513.021581,0.000000,-9548.656652,3677.258390
59513.021890,1110.308913,-6513.812290,1149.143247
59513.022200,-2442.679609,-9696.697840,-76.609550
59513.022510,2886.803174,-9474.636058,1149.143247
59513.022819,888.247130,-9770.718434,1302.362347
59513.023129,-1480.411884,-8956.491898,1685.410096
59513.023439,-1998.556043,-9474.636058,-1685.410096
59513.023748,-74.020594,-12435.459826,-689.485948
59513.024058,3034.844362,-7031.956449,-766.095498
59513.024368,1184.329507,-10140.821405,4290.134789
59513.024677,2294.638420,-6513.812290,1149.143247
59513.024987,-2368.659014,-9548.656652,0.000000
59513.025297,814.226536,-6291.750507,459.657299
59513.025606,1258.350101,-9474.636058,1838.629195
59513.025916,-962.267725,-8660.409521,1149.143247
59513.026226,-3701.029710,-9474.636058,-1302.362347
59513.026535,-3478.967927,-11843.295072,-1149.143247
59513.026845,2886.803174,-10658.965565,1762.019645
59513.027155,1258.350101,-9548.656652,919.314598
59513.027464,2664.741391,-7994.224174,3830.477490
59513.027774,-1850.514855,-7698.141797,-76.609550
59513.028084,0.000000,-6883.915261,306.438199
59513.028393,518.144159,-7846.182985,1225.752797
59513.028703,-444.123565,-9252.574275,2298.286494
59513.029013,-3330.926739,-9548.656652,-2221.676944
59513.029323,-3552.988522,-11251.130318,-1762.019645
59513.029632,296.082377,-9030.512492,-76.609550
59513.029942,1702.473667,-12435.459826,3600.648841
59513.030252,-666.185348,-8290.306550,-76.609550
59513.030561,-4145.153275,-9548.656652,0.000000
59513.030871,2294.638420,-8290.306550,-76.609550
59513.031181,1332.370696,-8364.327145,2221.676944
59513.031490,814.226536,-6809.894666,612.876398
59513.031800,-1924.535449,-8216.285956,-459.657299
59513.032110,-1776.494261,-9992.780217,-306.438199
59513.032419,888.247130,-9474.636058,612.876398
59513.032729,0.000000,-10140.821405,2681.334243
59513.033039,-74.020594,-9474.636058,2374.896044
59513.033348,-2738.761985,-9474.636058,-1915.238745
59513.033658,0.000000,-7179.997637,0.000000
59513.033968,3182.885551,-11843.295072,3294.210641
59513.034277,0.000000,-7179.997637,842.705048
59513.034587,-1258.350101,-9474.636058,-2145.067394
59513.034897,-962.267725,-10214.842000,0.000000
59513.035206,2072.576638,-9474.636058,1532.190996
59513.035516,814.226536,-9992.780217,2987.772442
59513.035826,-444.123565,-7031.956449,1149.143247
59513.036135,-1480.411884,-10288.862594,1608.800546
59513.036445,2294.638420,-9474.636058,2374.896044
59513.036755,814.226536,-8438.347739,1149.143247
59513.037064,592.164754,-8660.409521,3064.381992
59513.037374,-2442.679609,-10066.800811,-842.705048
59513.037684,-1258.350101,-11843.295072,-1915.238745
59513.037994,296.082377,-9696.697840,919.314598
59513.038303,592.164754,-9844.739029,3753.867940
59513.038613,-296.082377,-6513.812290,919.314598
59513.038923,-1406.391290,-8808.450710,1838.629195
59513.039232,1480.411884,-6587.832884,1838.629195
59513.039542,3478.967927,-11251.130318,4826.401637
59513.039852,-3256.906145,-5995.668130,0.000000
59513.040161,-3552.988522,-10732.986159,-153.219100
59513.040471,-2442.679609,-12435.459826,-995.924147
59513.040781,1702.473667,-11251.130318,-76.609550
59513.041090,-1184.329507,-8068.244768,1532.190996
59513.041400,-4293.194464,-8586.388927,-995.924147
59513.041710,-2590.720797,-10584.944971,-995.924147
59513.042019,3034.844362,-6809.894666,2451.505594
59513.042329,2368.659014,-8364.327145,4903.011187
59513.042639,0.000000,-5995.668130,2451.505594
59513.042948,-1258.350101,-11843.295072,-76.609550
59513.043258,0.000000,-8068.244768,0.000000
59513.043568,1184.329507,-10510.924376,1915.238745
59513.043877,-74.020594,-10214.842000,3600.648841
59513.044187,-2886.803174,-7550.100608,-995.924147
59513.044497,-1258.350101,-9918.759623,-842.705048
59513.044806,2368.659014,-8882.471304,536.266849
59513.045116,296.082377,-10288.862594,2451.505594
59513.045426,-2072.576638,-6291.750507,0.000000
59513.045735,-3552.988522,-9548.656652,0.000000
59513.046045,-74.020594,-11695.253884,-76.609550
59513.046355,296.082377,-9548.656652,766.095498
59513.046665,1776.494261,-9474.636058,3907.087040
59513.046974,740.205942,-8290.306550,2068.457845
59513.047284,-888.247130,-9474.636058,0.000000
59513.047594,1776.494261,-6439.791695,306.438199
59513.047903,1554.432478,-9104.533087,3447.429741
59513.048213,1480.411884,-6587.832884,0.000000
59513.048523,-3256.906145,-9548.656652,-1838.629195
59513.048832,-3256.906145,-7772.162391,0.000000
59513.049142,2072.576638,-11325.150913,2451.505594
59513.049452,-666.185348,-9474.636058,536.266849
59513.049761,-3552.988522,-7476.080014,-1225.752797
59513.050071,-3182.885551,-11843.295072,1455.581446
59513.050381,2738.761985,-7328.038826,1762.019645
59513.050690,2590.720797,-8512.368333,3907.087040
59513.051000,1036.288319,-6439.791695,1149.143247
59513.051310,-2368.659014,-8956.491898,-1225.752797
59513.051619,-666.185348,-8216.285956,-689.485948
59513.051929,0.000000,-7476.080014,0.000000
59513.052239,-74.020594,-11843.295072,3600.648841
59513.052548,-4737.318029,-7179.997637,-2451.505594
59513.052858,-3108.864956,-12435.459826,-76.609550
59513.053168,444.123565,-8660.409521,2145.067394
59513.053477,1110.308913,-9400.615463,2528.115143
59513.053787,-666.185348,-6513.812290,612.876398
59513.054097,-2516.700203,-10066.800811,-306.438199
59513.054406,-592.164754,-9548.656652,0.000000
59513.054716,-1258.350101,-8956.491898,-76.609550
59513.055026,-4145.153275,-8956.491898,689.485948
59513.055336,0.000000,-5995.668130,0.000000
59513.055645,-666.185348,-12731.542202,1762.019645
59513.055955,592.164754,-4811.338623,1149.143247
59513.056265,-1406.391290,-9844.739029,3983.696590
59513.056574,370.102971,-6217.729913,1302.362347
59513.056884,-3404.947333,-10881.027347,-306.438199
59513.057194,-2072.576638,-10288.862594,76.609550
59513.057503,-666.185348,-8882.471304,-76.609550
59513.057813,-666.185348,-9474.636058,1762.019645
59513.058123,-1850.514855,-7698.141797,-2528.115143
59513.058432,-2960.823768,-10732.986159,612.876398
59513.058742,2886.803174,-8290.306550,1149.143247
59513.059052,0.000000,-8956.491898,3217.601092
59513.059361,0.000000,-3627.009116,612.876398
59513.059671,-1850.514855,-11843.295072,766.095498
59513.059981,1628.453072,-8586.388927,919.314598
59513.060290,1036.288319,-10436.903782,1685.410096
59513.060600,-962.267725,-9474.636058,2068.457845
59513.060910,-666.185348,-9474.636058,-76.609550
59513.061219,-666.185348,-9474.636058,-383.047749
59513.061529,1184.329507,-6291.750507,1225.752797
59513.061839,3478.967927,-9474.636058,4826.401637
59513.062148,814.226536,-5921.647536,612.876398
59513.062458,-2072.576638,-8364.327145,0.000000
59513.062768,1628.453072,-9474.636058,842.705048
59513.063077,222.061783,-10584.944971,1149.143247
59513.063387,-1998.556043,-9696.697840,229.828649
59513.063697,-2442.679609,-10658.965565,-995.924147
59513.064007,-74.020594,-11547.212695,2374.896044
59513.064316,4071.132681,-7105.977043,-76.609550
59513.064626,0.000000,-7179.997637,2451.505594
59513.064936,2146.597232,-7994.224174,2374.896044
59513.065245,-814.226536,-9992.780217,0.000000
59513.065555,1184.329507,-6735.874072,0.000000
59513.065865,1480.411884,-9548.656652,1915.238745
59513.066174,-1332.370696,-9104.533087,919.314598
59513.066484,-3256.906145,-9326.594869,-1762.019645
59513.066794,-1554.432478,-12435.459826,-76.609550
59513.067103,1332.370696,-8882.471304,0.000000
59513.067413,-74.020594,-10658.965565,2374.896044
59513.067723,-2368.659014,-5403.503377,0.000000
59513.068032,-74.020594,-11843.295072,2068.457845
59513.068342,1480.411884,-7179.997637,0.000000
59513.068652,1702.473667,-8586.388927,1378.971896
59513.068961,-444.123565,-7920.203579,1378.971896
59513.069271,-2368.659014,-8956.491898,-229.828649
59513.069581,-2146.597232,-10584.944971,153.219100
59513.069890,2294.638420,-8808.450710,2374.896044
59513.070200,-444.123565,-9326.594869,2068.457845
59513.070510,962.267725,-8586.388927,1455.581446
59513.070819,-2442.679609,-9918.759623,-1762.019645
59513.071129,0.000000,-9548.656652,1532.190996
59513.071439,-74.020594,-11029.068536,0.000000
59513.071748,-1554.432478,-9474.636058,-76.609550
59513.072058,-4145.153275,-9844.739029,-1225.752797
59513.072368,-2294.638420,-10955.047942,383.047749
59513.072678,1480.411884,-5995.668130,612.876398
59513.072987,1776.494261,-8660.409521,4903.011187
59513.073297,1184.329507,-5107.421000,2298.286494
59513.073607,2294.638420,-11843.295072,3600.648841
59513.073916,1998.556043,-7550.100608,1072.533697
59513.074226,1184.329507,-9548.656652,3677.258390
59513.074536,-370.102971,-8956.491898,-383.047749
59513.074845,-1850.514855,-10658.965565,-1608.800546
59513.075155,-3849.070898,-11473.192101,-1838.629195
59513.075465,-740.205942,-9844.739029,-459.657299
59513.075774,-1702.473667,-9622.677246,1225.752797
59513.076084,-2368.659014,-5995.668130,0.000000
59513.076394,-2368.659014,-9548.656652,0.000000
59513.076703,4737.318029,-8068.244768,4290.134789
59513.077013,2886.803174,-8290.306550,3294.210641
59513.077323,-1184.329507,-7179.997637,2451.505594
59513.077632,-1258.350101,-8882.471304,-383.047749
59513.077942,1702.473667,-11251.130318,1149.143247
59513.078252,1406.391290,-7994.224174,995.924147
59513.078561,-296.082377,-8956.491898,2374.896044
59513.078871,-296.082377,-7698.141797,-612.876398
59513.079181,-2368.659014,-10436.903782,0.000000
59513.079490,1184.329507,-8882.471304,1762.019645
59513.079800,-2072.576638,-9548.656652,612.876398
59513.080110,-1184.329507,-9252.574275,1225.752797
59513.080419,-2590.720797,-9474.636058,-2528.115143
59513.080729,-3108.864956,-10066.800811,-76.609550
59513.081039,2294.638420,-9178.553681,1762.019645
59513.081349,222.061783,-7698.141797,2374.896044
59513.081658,814.226536,-5847.626942,689.485948
59513.081968,222.061783,-9918.759623,1685.410096
59513.082278,1776.494261,-6587.832884,1378.971896
59513.082587,1184.329507,-10658.965565,3600.648841
59513.082897,-2368.659014,-7179.997637,0.000000
59513.083207,-2738.761985,-11843.295072,-76.609550
59513.083516,-4219.173869,-9548.656652,-4673.182538
59513.083826,-888.247130,-9474.636058,-76.609550
59513.084136,-888.247130,-10881.027347,2145.067394
59513.084445,-1258.350101,-7105.977043,-1302.362347
59513.084755,-1776.494261,-10214.842000,0.000000
59513.085065,3404.947333,-7105.977043,1608.800546
59513.085374,1406.391290,-6883.915261,2374.896044
59513.085684,-370.102971,-8290.306550,1685.410096
59513.085994,-4737.318029,-7179.997637,0.000000
59513.086303,-666.185348,-12287.418637,1149.143247
59513.086613,0.000000,-7476.080014,-2451.505594
59513.086923,-74.020594,-10658.965565,3600.648841
59513.087232,0.000000,-6883.915261,919.314598
59513.087542,518.144159,-10066.800811,1915.238745
59513.087852,3478.967927,-8438.347739,2221.676944
59513.088161,2294.638420,-9844.739029,2911.162892
59513.088471,-962.267725,-8290.306550,-76.609550
59513.088781,-4811.338623,-11843.295072,-1302.362347
59513.089090,-5773.606348,-9548.656652,-3677.258390
59513.089400,-1184.329507,-8956.491898,0.000000
59513.089710,-666.185348,-9474.636058,-76.609550
59513.090019,-74.020594,-7772.162391,1532.190996
59513.090329,0.000000,-10732.986159,1532.190996
59513.090639,4663.297435,-8808.450710,3600.648841
59513.090949,3404.947333,-9474.636058,4443.353888
59513.091258,1184.329507,-7031.956449,2221.676944
59513.091568,-1850.514855,-9474.636058,-76.609550
59513.091878,-2220.617826,-9548.656652,0.000000
59513.092187,-1258.350101,-8290.306550,-1302.362347
59513.092497,-4145.153275,-8660.409521,0.000000
59513.092807,-666.185348,-8290.306550,-76.609550
59513.093116,-2072.576638,-10140.821405,1532.190996
59513.093426,1184.329507,-6291.750507,1225.752797
59513.093736,1702.473667,-10584.944971,3600.648841
59513.094045,-222.061783,-7920.203579,995.924147
59513.094355,-4367.215058,-10214.842000,-995.924147
59513.094665,-1258.350101,-11547.212695,-76.609550
59513.094974,2294.638420,-10658.965565,2911.162892
59513.095284,1110.308913,-8290.306550,1762.019645
59513.095594,0.000000,-5403.503377,766.095498
59513.095903,1702.473667,-9474.636058,3600.648841
59513.096213,2664.741391,-5995.668130,2451.505594
59513.096523,740.205942,-8364.327145,2451.505594
59513.096832,-666.185348,-8808.450710,153.219100
59513.097142,-5033.400406,-11029.068536,-2145.067394
59513.097452,-5329.482782,-11843.295072,-2987.772442
59513.097761,-1850.514855,-12139.377449,-919.314598
59513.098071,-74.020594,-10732.986159,1838.629195
59513.098381,2294.638420,-8882.471304,-76.609550
59513.098690,0.000000,-8364.327145,1685.410096
59513.099000,7994.224174,-8660.409521,6971.469032
59513.099310,3552.988522,-7179.997637,3677.258390
59513.099620,518.144159,-6291.750507,1608.800546
59513.099929,-3478.967927,-10140.821405,-842.705048
59513.100239,-4293.194464,-9104.533087,-2068.457845
59513.100549,-3182.885551,-11325.150913,-459.657299
59513.100858,1998.556043,-8364.327145,1532.190996
59513.101168,-1924.535449,-8660.409521,-1225.752797
59513.101478,-74.020594,-10658.965565,-76.609550
59513.101787,0.000000,-7179.997637,0.000000
59513.102097,2368.659014,-9548.656652,3677.258390
59513.102407,-1184.329507,-7179.997637,0.000000
59513.102716,-3627.009116,-10584.944971,-689.485948
59513.103026,-2072.576638,-9400.615463,-1455.581446
59513.103336,518.144159,-9400.615463,1378.971896
59513.103645,1406.391290,-7994.224174,2298.286494
59513.103955,0.000000,-6883.915261,1225.752797
59513.104265,518.144159,-7846.182985,766.095498
59513.104574,7624.121203,-10510.924376,4213.525239
59513.104884,4071.132681,-7994.224174,3600.648841
59513.105194,0.000000,-7179.997637,1225.752797
59513.105503,-5699.585753,-9992.780217,-3140.991542
59513.105813,-3627.009116,-11251.130318,-2528.115143
59513.106123,-3182.885551,-11473.192101,-1149.143247
59513.106432,-1924.535449,-9030.512492,612.876398
59513.106742,-1332.370696,-7105.977043,76.609550
59513.107052,0.000000,-8364.327145,612.876398
59513.107361,5255.462188,-7402.059420,3524.039291
59513.107671,3552.988522,-9548.656652,5209.449386
59513.107981,1110.308913,-7105.977043,1149.143247
59513.108291,-4145.153275,-10732.986159,612.876398
59513.108600,-3627.009116,-10658.965565,-2528.115143
59513.108910,-666.185348,-10955.047942,-76.609550
59513.109220,-2368.659014,-9622.677246,766.095498
59513.109529,-1776.494261,-7105.977043,-995.924147
59513.109839,-888.247130,-10510.924376,919.314598
59513.110149,2664.741391,-6735.874072,612.876398
59513.110458,3775.050304,-10362.883188,4519.963438
59513.110768,0.000000,-6587.832884,612.876398
59513.111078,-2442.679609,-11473.192101,1149.143247
59513.111387,-4663.297435,-7994.224174,-2987.772442
59513.111697,-370.102971,-10066.800811,-76.609550
59513.112007,-1258.350101,-9474.636058,1762.019645
59513.112316,-1406.391290,-6809.894666,-1149.143247
59513.112626,740.205942,-9622.677246,2068.457845
59513.112936,4737.318029,-7105.977043,2604.724693
59513.113245,1184.329507,-8512.368333,3447.429741
59513.113555,370.102971,-7994.224174,1225.752797
59513.113865,-4737.318029,-9548.656652,0.000000
59513.114174,-74.020594,-11547.212695,-76.609550
59513.114484,-3552.988522,-7772.162391,-2451.505594
59513.114794,-74.020594,-10658.965565,1762.019645
59513.115103,-518.144159,-8660.409521,229.828649
59513.115413,444.123565,-9770.718434,995.924147
59513.115723,3701.029710,-7476.080014,1915.238745
59513.116032,2516.700203,-9252.574275,3294.210641
59513.116342,518.144159,-6513.812290,1149.143247
59513.116652,-2368.659014,-11029.068536,612.876398
59513.116962,-2368.659014,-8660.409521,-1225.752797
59513.117271,-888.247130,-10732.986159,1762.019645
59513.117581,-3627.009116,-6587.832884,-1302.362347
59513.117890,-74.020594,-9474.636058,1149.143247
59513.118200,592.164754,-9548.656652,1838.629195
59513.118510,4367.215058,-8216.285956,2528.115143
59513.118819,2664.741391,-10436.903782,5056.230287
59513.119129,1110.308913,-6809.894666,1149.143247
59513.119438,-2738.761985,-9474.636058,-459.657299
59513.119748,-2960.823768,-9104.533087,-766.095498
59513.120057,-1554.432478,-10362.883188,-536.266849
59513.120367,-3256.906145,-8660.409521,0.000000
59513.120677,-74.020594,-9474.636058,-689.485948
59513.120986,1702.473667,-10658.965565,2374.896044
59513.121296,5551.544565,-8216.285956,1225.752797
59513.121605,3478.967927,-9326.594869,3907.087040
59513.121915,1406.391290,-7550.100608,1532.190996
59513.122224,-2590.720797,-10955.047942,-76.609550
59513.122534,-3923.091493,-9474.636058,-383.047749
59513.122844,-2442.679609,-9474.636058,-689.485948
59513.123153,-3552.988522,-8068.244768,0.000000
59513.123463,666.185348,-8142.265362,2374.896044
59513.123772,1702.473667,-8290.306550,-76.609550
59513.124082,3775.050304,-9474.636058,3294.210641
59513.124391,2368.659014,-10436.903782,3524.039291
59513.124701,-296.082377,-7846.182985,459.657299
59513.125011,-3552.988522,-10807.006753,-919.314598
59513.125320,-2146.597232,-9918.759623,-689.485948
59513.125630,-962.267725,-9474.636058,-76.609550
59513.125939,-1332.370696,-9104.533087,306.438199
59513.126249,-2442.679609,-7254.018232,-2221.676944
59513.126558,0.000000,-10732.986159,3524.039291
59513.126868,5847.626942,-8290.306550,1762.019645
59513.127178,3775.050304,-11251.130318,5669.106685
59513.127487,592.164754,-7179.997637,766.095498
59513.127797,-1924.535449,-10732.986159,459.657299
59513.128106,-1110.308913,-8882.471304,-995.924147
59513.128416,-2220.617826,-10140.821405,-306.438199
59513.128725,-1850.514855,-9474.636058,-153.219100
59513.129035,-888.247130,-10140.821405,0.000000
59513.129345,814.226536,-8882.471304,1302.362347
59513.129654,4293.194464,-8364.327145,4903.011187
59513.129964,7031.956449,-8290.306550,4826.401637
59513.130273,2368.659014,-6587.832884,4443.353888
59513.130583,-2368.659014,-9548.656652,0.000000
59513.130893,-2516.700203,-9622.677246,-1225.752797
59513.131202,-4293.194464,-11621.233289,-612.876398
59513.131512,-3330.926739,-8956.491898,-1762.019645
59513.131821,-2738.761985,-11547.212695,-1072.533697
59513.132131,-592.164754,-8808.450710,0.000000
59513.132440,3478.967927,-8290.306550,2374.896044
59513.132750,1776.494261,-7772.162391,2451.505594
59513.133060,4663.297435,-9474.636058,3600.648841
59513.133369,-1776.494261,-10140.821405,2145.067394
59513.133679,-1776.494261,-7846.182985,0.000000
59513.133988,-2368.659014,-10881.027347,689.485948
59513.134298,-1850.514855,-9178.553681,0.000000
59513.134607,-1184.329507,-8808.450710,0.000000
59513.134917,2294.638420,-9992.780217,2068.457845
59513.135227,5847.626942,-9474.636058,4213.525239
59513.135536,1702.473667,-7994.224174,2681.334243
59513.135846,-1776.494261,-7179.997637,0.000000
59513.136155,-1258.350101,-13027.624579,2374.896044
59513.136465,-2960.823768,-8364.327145,0.000000
59513.136774,-3849.070898,-9696.697840,-919.314598
59513.137084,-3775.050304,-8364.327145,-1149.143247
59513.137394,-3404.947333,-9400.615463,-1072.533697
59513.137703,-666.185348,-9474.636058,995.924147
59513.138013,3552.988522,-7772.162391,3217.601092
59513.138322,2960.823768,-9844.739029,5209.449386
59513.138632,2294.638420,-7105.977043,1762.019645
59513.138941,-2960.823768,-9548.656652,0.000000
59513.139251,-74.020594,-11843.295072,2374.896044
59513.139561,-4145.153275,-8364.327145,0.000000
59513.139870,-1554.432478,-7920.203579,-1302.362347
59513.140180,-2072.576638,-8808.450710,-1149.143247
59513.140489,296.082377,-9992.780217,1378.971896
59513.140799,3330.926739,-8512.368333,2145.067394
59513.141108,1332.370696,-9548.656652,3064.381992
59513.141418,222.061783,-7328.038826,383.047749
59513.141728,-444.123565,-12139.377449,1378.971896
59513.142037,518.144159,-7698.141797,-689.485948
59513.142347,-4737.318029,-8364.327145,0.000000
59513.142656,-4737.318029,-6291.750507,-2451.505594
59513.142966,-2442.679609,-10066.800811,-1302.362347
59513.143275,444.123565,-9992.780217,1455.581446
59513.143585,3849.070898,-7328.038826,2987.772442
59513.143895,2590.720797,-8216.285956,4136.915689
59513.144204,592.164754,-5625.565159,1685.410096
59513.144514,-74.020594,-10807.006753,1149.143247
59513.144823,0.000000,-8660.409521,612.876398
59513.145133,-1258.350101,-11843.295072,-76.609550
59513.145442,-5921.647536,-7179.997637,0.000000
59513.145752,-3627.009116,-8512.368333,-3064.381992
59513.146062,-74.020594,-11251.130318,1762.019645
59513.146371,1850.514855,-7994.224174,2068.457845
59513.146681,1554.432478,-8068.244768,3217.601092
59513.146990,0.000000,-7031.956449,1149.143247
59513.147300,-3404.947333,-10140.821405,689.485948
59513.147609,740.205942,-8882.471304,536.266849
59513.147919,-1184.329507,-10140.821405,1225.752797
59513.148229,-74.020594,-11843.295072,-76.609550
59513.148538,-4737.318029,-7476.080014,0.000000
59513.148848,1110.308913,-8290.306550,536.266849
59513.149157,3478.967927,-9474.636058,2681.334243
59513.149467,740.205942,-9474.636058,2374.896044
59513.149776,-518.144159,-8586.388927,383.047749
59513.150086,-1110.308913,-11473.192101,995.924147
59513.150396,666.185348,-7698.141797,1608.800546
59513.150705,-1258.350101,-10066.800811,1378.971896
59513.151015,-4145.153275,-7179.997637,-1838.629195
59513.151324,-3034.844362,-13027.624579,-76.609550
59513.151634,-1258.350101,-10362.883188,-689.485948
59513.151943,3478.967927,-9474.636058,1762.019645
59513.152253,3330.926739,-8290.306550,3907.087040
59513.152563,888.247130,-6365.771101,842.705048
59513.152872,-1258.350101,-9992.780217,536.266849
59513.153182,888.247130,-8290.306550,0.000000
59513.153491,-222.061783,-10066.800811,1762.019645
59513.153801,-1702.473667,-9104.533087,-919.314598
59513.154110,-4737.318029,-10732.986159,-2145.067394
59513.154420,1110.308913,-14211.954086,2374.896044
59513.154730,1702.473667,-7402.059420,1149.143247
59513.155039,4663.297435,-9474.636058,4826.401637
59513.155349,518.144159,-6587.832884,1762.019645
59513.155658,-666.185348,-9326.594869,612.876398
59513.155968,2442.679609,-8068.244768,1608.800546
59513.156277,518.144159,-9252.574275,1685.410096
59513.156587,-1258.350101,-8660.409521,-383.047749
59513.156897,-3997.112087,-11547.212695,-1762.019645
59513.157206,-1850.514855,-10436.903782,-1455.581446
59513.157516,3701.029710,-12509.480420,4596.572988
59513.157825,2294.638420,-9474.636058,1762.019645
59513.158135,2072.576638,-9474.636058,3600.648841
59513.158444,-1184.329507,-9548.656652,1532.190996
59513.158754,2960.823768,-7994.224174,2298.286494
59513.159064,888.247130,-9030.512492,2528.115143
59513.159373,-962.267725,-6513.812290,0.000000
59513.159683,-2442.679609,-9400.615463,0.000000
59513.159992,1702.473667,-10658.965565,1149.143247
59513.160302,666.185348,-7772.162391,1072.533697
59513.160611,1702.473667,-11843.295072,4826.401637
59513.160921,-666.185348,-7105.977043,-1302.362347
59513.161231,-1776.494261,-12583.501014,1532.190996
59513.161540,0.000000,-8808.450710,306.438199
59513.161850,-1258.350101,-11029.068536,995.924147
59513.162159,-2294.638420,-7772.162391,-383.047749
59513.162469,-3552.988522,-9918.759623,-1072.533697
59513.162778,444.123565,-9178.553681,0.000000
59513.163088,2590.720797,-10066.800811,3907.087040
59513.163398,222.061783,-7550.100608,1915.238745
59513.163707,814.226536,-10658.965565,3600.648841
59513.164017,-1406.391290,-7920.203579,76.609550
59513.164326,1184.329507,-7772.162391,2451.505594
59513.164636,-2072.576638,-9252.574275,1532.190996
59513.164945,-2072.576638,-8290.306550,-536.266849
59513.165255,-4293.194464,-11769.274478,-1455.581446
59513.165565,-1332.370696,-11473.192101,-612.876398
59513.165874,-740.205942,-8956.491898,0.000000
59513.166184,-2368.659014,-9844.739029,2145.067394
59513.166493,1998.556043,-7105.977043,1149.143247
59513.166803,-2146.597232,-7179.997637,0.000000
59513.167112,3256.906145,-7476.080014,3064.381992
59513.167422,-2072.576638,-8660.409521,2451.505594
59513.167732,-2368.659014,-7031.956449,-1378.971896
59513.168041,-2812.782580,-9252.574275,-1685.410096
59513.168351,-1480.411884,-10584.944971,229.828649
59513.168660,592.164754,-9030.512492,1378.971896
59513.168970,0.000000,-9548.656652,2145.067394
59513.169280,0.000000,-7031.956449,0.000000
59513.169589,1110.308913,-11251.130318,1762.019645
59513.169899,0.000000,-3627.009116,0.000000
59513.170208,3330.926739,-12435.459826,3600.648841
59513.170518,-1776.494261,-5995.668130,-1225.752797
59513.170827,-3923.091493,-10658.965565,-2221.676944
59513.171137,296.082377,-9548.656652,0.000000
59513.171447,1332.370696,-9400.615463,1532.190996
59513.171756,296.082377,-8808.450710,1532.190996
59513.172066,-1184.329507,-7105.977043,-689.485948
59513.172375,-74.020594,-9992.780217,1532.190996
59513.172685,4367.215058,-8364.327145,4826.401637
59513.172994,2294.638420,-7994.224174,1149.143247
59513.173304,0.000000,-7179.997637,612.876398
59513.173614,-4145.153275,-7772.162391,-1838.629195
59513.173923,1110.308913,-10658.965565,-76.609550
59513.174233,0.000000,-10140.821405,1225.752797
59513.174542,-740.205942,-9474.636058,612.876398
59513.174852,-2146.597232,-8364.327145,-995.924147
59513.175161,-1184.329507,-9474.636058,842.705048
59513.175471,2664.741391,-6883.915261,1915.238745
59513.175781,1850.514855,-9548.656652,4213.525239
59513.176090,-2368.659014,-5107.421000,-2145.067394
59513.176400,-4145.153275,-12213.398043,76.609550
59513.176709,-1998.556043,-8956.491898,-1838.629195
59513.177019,1554.432478,-10658.965565,2068.457845
59513.177328,0.000000,-7846.182985,1225.752797
59513.177638,-1554.432478,-7328.038826,383.047749
59513.177948,-888.247130,-9252.574275,1072.533697
59513.178257,2146.597232,-8586.388927,2987.772442
59513.178567,-592.164754,-9474.636058,2145.067394
59513.178876,-3256.906145,-6883.915261,0.000000
59513.179186,-2442.679609,-11843.295072,-689.485948
59513.179495,-2368.659014,-7179.997637,-1838.629195
59513.179805,-370.102971,-9474.636058,0.000000
59513.180115,-1184.329507,-8734.430116,612.876398
59513.180424,-2146.597232,-8364.327145,-306.438199
59513.180734,148.041188,-9178.553681,1225.752797
59513.181043,2590.720797,-7476.080014,1991.848295
59513.181353,-74.020594,-10658.965565,3600.648841
59513.181662,-74.020594,-7550.100608,-76.609550
59513.181972,-3552.988522,-10732.986159,0.000000
59513.182282,4071.132681,-11843.295072,2374.896044
59513.182591,-1628.453072,-8364.327145,459.657299
59513.182901,-74.020594,-7698.141797,-689.485948
59513.183210,-3108.864956,-8808.450710,-1225.752797
59513.183520,-1258.350101,-9992.780217,76.609550
59513.183829,814.226536,-9030.512492,1149.143247
59513.184139,-296.082377,-9770.718434,1532.190996
59513.184449,-74.020594,-8882.471304,1149.143247
59513.184758,-2146.597232,-10955.047942,306.438199
59513.185068,1184.329507,-7920.203579,1225.752797
59513.185377,2294.638420,-9474.636058,1149.143247
59513.185687,0.000000,-7179.997637,1225.752797
59513.185996,-74.020594,-11843.295072,-76.609550
59513.186306,0.000000,-9252.574275,153.219100
59513.186616,2072.576638,-8068.244768,1378.971896
59513.186925,1110.308913,-8956.491898,2298.286494
59513.187235,296.082377,-7624.121203,0.000000
59513.187544,-666.185348,-11843.295072,1762.019645
59513.187854,-74.020594,-9474.636058,-76.609550
59513.188163,-1480.411884,-9548.656652,0.000000
59513.188473,3478.967927,-9474.636058,2374.896044
59513.188783,-2442.679609,-7772.162391,-842.705048
59513.189092,3182.885551,-9474.636058,2374.896044
59513.189402,2072.576638,-7328.038826,1991.848295
59513.189711,1924.535449,-8512.368333,2757.943793
59513.190021,74.020594,-7254.018232,536.266849
59513.190330,-2146.597232,-10955.047942,229.828649
59513.190640,1924.535449,-9696.697840,1225.752797
59513.190950,-74.020594,-11843.295072,2374.896044
59513.191259,-2368.659014,-7179.997637,0.000000
59513.191569,-3627.009116,-8882.471304,-2528.115143
59513.191878,-2368.659014,-8660.409521,0.000000
59513.192188,3849.070898,-10362.883188,3600.648841
59513.192497,148.041188,-7179.997637,919.314598
59513.192807,0.000000,-7179.997637,536.266849
59513.193117,-814.226536,-11103.089130,1225.752797
59513.193426,1702.473667,-8660.409521,1378.971896
59513.193736,148.041188,-10732.986159,2451.505594
59513.194045,-666.185348,-8290.306550,-76.609550
59513.194355,-4219.173869,-8364.327145,-4290.134789
59513.194664,962.267725,-11621.233289,2374.896044
59513.194974,148.041188,-6957.935855,459.657299
59513.195284,888.247130,-9474.636058,4060.306139
59513.195593,-2812.782580,-5625.565159,-1302.362347
59513.195903,-3552.988522,-11251.130318,0.000000
59513.196212,1110.308913,-9104.533087,919.314598
59513.196522,518.144159,-9400.615463,2528.115143
59513.196831,0.000000,-5995.668130,1532.190996
59513.197141,-1258.350101,-10066.800811,-76.609550
59513.197451,-2442.679609,-8956.491898,-3370.820191
59513.197760,-2072.576638,-9844.739029,1072.533697
59513.198070,-2442.679609,-11251.130318,-76.609550
59513.198379,1184.329507,-7105.977043,1685.410096
59513.198689,-370.102971,-12509.480420,2681.334243
59513.198998,3775.050304,-6661.853478,2298.286494
59513.199308,-370.102971,-10658.965565,2834.553343
59513.199618,74.020594,-6661.853478,459.657299
59513.199927,-3256.906145,-8364.327145,0.000000
59513.200237,-74.020594,-10066.800811,1149.143247
59513.200546,1702.473667,-7105.977043,-76.609550
59513.200856,0.000000,-9844.739029,2451.505594
59513.201165,3182.885551,-8882.471304,-76.609550
59513.201475,0.000000,-11917.315666,1532.190996
59513.201785,1036.288319,-7772.162391,0.000000
59513.202094,-1628.453072,-11917.315666,612.876398
59513.202404,-1998.556043,-8364.327145,-842.705048
59513.202713,-3701.029710,-11917.315666,-1455.581446
59513.203023,0.000000,-9548.656652,612.876398
59513.203332,2590.720797,-8438.347739,2681.334243
59513.203642,1406.391290,-6513.812290,2374.896044
59513.203952,0.000000,-3034.844362,306.438199
59513.204261,1998.556043,-11843.295072,3600.648841
59513.204571,2960.823768,-7994.224174,3294.210641
59513.204880,-444.123565,-10584.944971,1072.533697
59513.205190,-2294.638420,-9104.533087,-1072.533697
59513.205499,-4515.256246,-10214.842000,-2374.896044
59513.205809,-2368.659014,-10140.821405,-1225.752797
59513.206119,0.000000,-8956.491898,0.000000
59513.206428,-74.020594,-11251.130318,2068.457845
59513.206738,-962.267725,-5403.503377,-2528.115143
59513.207047,592.164754,-12805.562797,4290.134789
59513.207357,4071.132681,-7105.977043,2374.896044
59513.207667,1258.350101,-10658.965565,3600.648841
59513.207976,0.000000,-5699.585753,612.876398
59513.208286,-1998.556043,-9474.636058,0.000000
59513.208595,740.205942,-9474.636058,919.314598
59513.208905,0.000000,-8216.285956,1225.752797
59513.209214,-1184.329507,-7476.080014,1225.752797
59513.209524,-1776.494261,-8660.409521,0.000000
59513.209834,-1258.350101,-13027.624579,-76.609550
59513.210143,0.000000,-7772.162391,0.000000
59513.210453,-666.185348,-13027.624579,1762.019645
59513.210762,-3108.864956,-9252.574275,-383.047749
59513.211072,-4515.256246,-10658.965565,-1302.362347
59513.211381,-444.123565,-7254.018232,459.657299
59513.211691,1998.556043,-7772.162391,2604.724693
59513.212001,2664.741391,-5477.523971,3294.210641
59513.212310,0.000000,-5403.503377,1225.752797
59513.212620,1184.329507,-9770.718434,2528.115143
59513.212929,2886.803174,-7476.080014,0.000000
59513.213239,-74.020594,-12583.501014,2987.772442
59513.213548,-2738.761985,-7698.141797,-2528.115143
59513.213858,-5921.647536,-11917.315666,-1225.752797
59513.214168,-1258.350101,-11103.089130,-383.047749
59513.214477,-592.164754,-10362.883188,919.314598
59513.214787,0.000000,-8956.491898,1455.581446
59513.215096,444.123565,-7920.203579,1302.362347
59513.215406,296.082377,-6587.832884,612.876398
59513.215715,4367.215058,-5699.585753,2681.334243
59513.216025,3478.967927,-11399.171507,5975.544884
59513.216335,-370.102971,-5625.565159,-1302.362347
59513.216644,-4441.235652,-11325.150913,-1225.752797
59513.216954,-2368.659014,-10140.821405,-1225.752797
59513.217263,-370.102971,-10510.924376,842.705048
59513.217573,-296.082377,-8734.430116,612.876398
59513.217882,-222.061783,-9400.615463,306.438199
59513.218192,592.164754,-10955.047942,1762.019645
59513.218502,1998.556043,-7846.182985,0.000000
59513.218811,0.000000,-9548.656652,2451.505594
59513.219121,-74.020594,-9474.636058,2987.772442
59513.219430,-3923.091493,-9030.512492,-1915.238745
59513.219740,0.000000,-7328.038826,0.000000
59513.220050,-1702.473667,-7179.997637,1225.752797
59513.220359,-666.185348,-7105.977043,536.266849
59513.220669,-1184.329507,-7846.182985,-383.047749
59513.220979,1036.288319,-10140.821405,1838.629195
59513.221288,2886.803174,-9548.656652,1685.410096
59513.221598,-666.185348,-10955.047942,842.705048
59513.221908,-4737.318029,-7772.162391,-1838.629195
59513.222217,-7105.977043,-9844.739029,-3370.820191
59513.222527,-74.020594,-11399.171507,1685.410096
59513.222837,-444.123565,-8438.347739,1149.143247
59513.223146,0.000000,-5033.400406,2145.067394
59513.223456,0.000000,-4811.338623,612.876398
59513.223766,3552.988522,-9474.636058,4519.963438
59513.224075,3478.967927,-7105.977043,2834.553343
59513.224385,-1184.329507,-8882.471304,1225.752797
59513.224695,-4737.318029,-5995.668130,-4290.134789
59513.225004,-6809.894666,-11917.315666,-2451.505594
59513.225314,-1258.350101,-13027.624579,-689.485948
59513.225624,-4737.318029,-9844.739029,0.000000
59513.225934,-74.020594,-10362.883188,1532.190996
59513.226243,-1480.411884,-8660.409521,1378.971896
59513.226553,2886.803174,-9474.636058,3447.429741
59513.226863,6143.709319,-7031.956449,4903.011187
59513.227172,4367.215058,-8290.306550,5515.887586
59513.227482,1110.308913,-5107.421000,1838.629195
59513.227792,-4219.173869,-8808.450710,-1608.800546
59513.228101,-4145.153275,-7772.162391,-2145.067394
59513.228411,-2442.679609,-11843.295072,-689.485948
59513.228721,-2368.659014,-7179.997637,0.000000
59513.229030,1554.432478,-10658.965565,-76.609550
59513.229340,148.041188,-8364.327145,0.000000
59513.229650,3775.050304,-8882.471304,1991.848295
59513.229959,74.020594,-10955.047942,2298.286494
59513.230269,-2294.638420,-8364.327145,-536.266849
59513.230579,-5773.606348,-12657.521608,-689.485948
59513.230888,-74.020594,-7994.224174,-1302.362347
59513.231198,0.000000,-7772.162391,1838.629195
59513.231508,4663.297435,-7994.224174,6052.154434
59513.231818,74.020594,-3849.070898,229.828649
59513.232127,296.082377,-7179.997637,1838.629195
59513.232437,2368.659014,-6291.750507,612.876398
59513.232747,-962.267725,-11843.295072,2068.457845
59513.233056,-3849.070898,-9030.512492,-2374.896044
59513.233366,-5625.565159,-13841.851115,-2298.286494
59513.233676,-1036.288319,-10881.027347,-1455.581446
59513.233985,-74.020594,-11843.295072,-76.609550
59513.234295,-2368.659014,-6587.832884,0.000000
59513.234605,-74.020594,-11251.130318,3600.648841
59513.234914,2294.638420,-8882.471304,2068.457845
59513.235224,3552.988522,-6291.750507,3064.381992
59513.235534,2294.638420,-9474.636058,3677.258390
59513.235843,-74.020594,-5773.606348,919.314598
59513.236153,-4367.215058,-10732.986159,-1149.143247
59513.236463,-1258.350101,-7179.997637,-1072.533697
59513.236772,-1924.535449,-9622.677246,383.047749
59513.237082,-74.020594,-9474.636058,-76.609550
59513.237392,-3034.844362,-10288.862594,-2068.457845
59513.237702,0.000000,-10140.821405,0.000000
59513.238011,5255.462188,-11547.212695,3907.087040
59513.238321,-666.185348,-9178.553681,2068.457845
59513.238631,-1406.391290,-5181.441594,-1838.629195
59513.238940,-3330.926739,-10436.903782,0.000000
59513.239250,1258.350101,-7994.224174,536.266849
59513.239560,296.082377,-9104.533087,2374.896044
59513.239869,0.000000,-6587.832884,2374.896044
59513.240179,-74.020594,-9474.636058,-76.609550
59513.240489,1110.308913,-8882.471304,842.705048
59513.240798,2368.659014,-7179.997637,3064.381992
59513.241108,3478.967927,-10658.965565,3294.210641
59513.241418,-3552.988522,-7179.997637,-2451.505594
59513.241727,-3627.009116,-13619.789333,-2528.115143
59513.242037,-1776.494261,-11177.109724,-1378.971896
59513.242347,-2294.638420,-11843.295072,842.705048
59513.242656,148.041188,-7994.224174,842.705048
59513.242966,-148.041188,-7772.162391,2987.772442
59513.243276,4071.132681,-10066.800811,4596.572988
59513.243586,6735.874072,-7698.141797,6052.154434
59513.243895,1628.453072,-4959.379811,3064.381992
59513.244205,2294.638420,-7994.224174,2374.896044
59513.244515,-5107.421000,-10436.903782,-1302.362347
59513.244824,-962.267725,-9474.636058,-1302.362347
59513.245134,-3552.988522,-11917.315666,0.000000
59513.245444,-2516.700203,-8956.491898,-919.314598
59513.245753,-4441.235652,-10732.986159,-2145.067394
59513.246063,0.000000,-9918.759623,1225.752797
59513.246373,4737.318029,-8364.327145,3677.258390
59513.246682,2886.803174,-10362.883188,6052.154434
59513.246992,-74.020594,-6809.894666,-383.047749
59513.247302,-5921.647536,-10732.986159,0.000000
59513.247611,-74.020594,-9178.553681,-76.609550
59513.247921,-74.020594,-9178.553681,2374.896044
59513.248231,296.082377,-4663.297435,459.657299
59513.248540,-592.164754,-7846.182985,229.828649
59513.248850,1998.556043,-9474.636058,1455.581446
59513.249160,3330.926739,-9696.697840,2451.505594
59513.249470,0.000000,-11029.068536,2451.505594
59513.249779,-2590.720797,-9474.636058,-689.485948
59513.250089,-5995.668130,-11843.295072,-4060.306139
59513.250399,-2960.823768,-9548.656652,-1838.629195
59513.250708,-1554.432478,-11843.295072,-76.609550
59513.251018,-2220.617826,-7105.977043,-76.609550
59513.251328,-2516.700203,-8512.368333,383.047749
59513.251637,3478.967927,-6735.874072,3294.210641
59513.251947,6069.688724,-6587.832884,4903.011187
59513.252257,3256.906145,-6217.729913,2451.505594
59513.252566,-2368.659014,-4811.338623,0.000000
59513.252876,-3849.070898,-12657.521608,-76.609550
59513.253186,-3627.009116,-8660.409521,-4213.525239
59513.253495,-2664.741391,-13693.809927,766.095498
59513.253805,-1554.432478,-8142.265362,-1608.800546
59513.254115,-2368.659014,-11843.295072,1915.238745
59513.254425,2886.803174,-9770.718434,2221.676944
59513.254734,4367.215058,-8290.306550,4060.306139
59513.255044,2516.700203,-7698.141797,4366.744339
59513.255354,-296.082377,-5403.503377,0.000000
59513.255663,-4737.318029,-7328.038826,0.000000
59513.255973,0.000000,-7772.162391,0.000000
59513.256283,-74.020594,-12731.542202,3600.648841
59513.256592,-2960.823768,-4811.338623,-2145.067394
59513.256902,-1184.329507,-10584.944971,919.314598
59513.257212,2368.659014,-10288.862594,2757.943793
59513.257521,5107.421000,-9474.636058,3294.210641
59513.257831,2442.679609,-9326.594869,2911.162892
59513.258141,-962.267725,-8882.471304,-306.438199
59513.258450,-3478.967927,-11917.315666,-2757.943793
59513.258760,-2146.597232,-8364.327145,-3677.258390
59513.259070,-3552.988522,-10140.821405,0.000000
59513.259379,592.164754,-8068.244768,2145.067394
59513.259689,-1554.432478,-7105.977043,-229.828649
59513.259999,3701.029710,-7550.100608,4213.525239
59513.260309,4145.153275,-8364.327145,4903.011187
59513.260618,2146.597232,-8586.388927,4213.525239
59513.260928,-1110.308913,-6587.832884,-306.438199
59513.261238,-4071.132681,-12213.398043,-995.924147
59513.261547,-2220.617826,-8438.347739,-1608.800546
59513.261857,-4811.338623,-11251.130318,-2221.676944
59513.262167,-4145.153275,-7179.997637,-4290.134789
59513.262476,-74.020594,-13027.624579,1762.019645
59513.262786,962.267725,-7254.018232,689.485948
59513.263096,2368.659014,-7920.203579,5362.668486
59513.263405,888.247130,-7179.997637,3064.381992
59513.263715,-444.123565,-6587.832884,612.876398
59513.264025,-3034.844362,-11769.274478,0.000000
59513.264334,-740.205942,-7994.224174,-842.705048
59513.264644,-3627.009116,-11843.295072,1149.143247
59513.264954,-1258.350101,-7105.977043,-1302.362347
59513.265263,-4663.297435,-8364.327145,-4136.915689
59513.265573,2368.659014,-9548.656652,3064.381992
59513.265883,4663.297435,-9474.636058,3600.648841
59513.266193,592.164754,-7476.080014,3064.381992
59513.266502,0.000000,-5995.668130,0.000000
59513.266812,-1258.350101,-12065.356855,1225.752797
59513.267122,222.061783,-8142.265362,-76.609550
59513.267431,-3923.091493,-10955.047942,76.609550
59513.267741,-3034.844362,-8882.471304,-383.047749
59513.268051,-1258.350101,-11547.212695,-76.609550
59513.268360,1998.556043,-6439.791695,229.828649
59513.268670,1184.329507,-8660.409521,4903.011187
59513.268980,3182.885551,-8882.471304,2987.772442
59513.269289,370.102971,-6513.812290,0.000000
59513.269599,0.000000,-9548.656652,0.000000
59513.269909,74.020594,-7698.141797,-459.657299
59513.270218,-3627.009116,-11843.295072,-153.219100
59513.270528,-2368.659014,-8808.450710,-1915.238745
59513.270838,-2442.679609,-13619.789333,-76.609550
59513.271147,3478.967927,-10658.965565,2374.896044
59513.271457,1998.556043,-8290.306550,1149.143247
59513.271767,0.000000,-5995.668130,2451.505594
59513.272077,3034.844362,-9474.636058,2068.457845
59513.272386,-74.020594,-10510.924376,306.438199
59513.272696,0.000000,-7105.977043,-1225.752797
59513.273006,-3182.885551,-11251.130318,229.828649
59513.273315,-2294.638420,-7624.121203,-1455.581446
59513.273625,-2220.617826,-11473.192101,689.485948
59513.273935,4663.297435,-9474.636058,4519.963438
59513.274244,4663.297435,-9474.636058,6665.030833
59513.274554,2886.803174,-7105.977043,2374.896044
59513.274864,-2368.659014,-6587.832884,0.000000
59513.275173,-74.020594,-13619.789333,2374.896044
59513.275483,-74.020594,-8364.327145,-3064.381992
59513.275793,-3627.009116,-11843.295072,-1302.362347
59513.276102,-4071.132681,-8364.327145,-2604.724693
59513.276412,-2812.782580,-11325.150913,-459.657299
59513.276722,2664.741391,-8216.285956,2298.286494
59513.277031,4145.153275,-8364.327145,5515.887586
59513.277341,2516.700203,-8216.285956,6052.154434
59513.277651,1702.473667,-9474.636058,3600.648841
59513.277961,-1258.350101,-9474.636058,229.828649
59513.278270,0.000000,-8364.327145,1225.752797
59513.278580,-2442.679609,-10732.986159,-383.047749
59513.278890,-2442.679609,-8290.306550,-1915.238745
59513.279199,-4737.318029,-11325.150913,-1838.629195
59513.279509,592.164754,-8364.327145,612.876398
59513.279819,1406.391290,-8882.471304,2298.286494
59513.280128,1184.329507,-5995.668130,2451.505594
59513.280438,0.000000,-8364.327145,2757.943793
59513.280748,0.000000,-9548.656652,2451.505594
59513.281057,2886.803174,-10658.965565,-76.609550
59513.281367,-5329.482782,-9548.656652,0.000000
59513.281677,-3627.009116,-9770.718434,-1302.362347
59513.281986,-666.185348,-13027.624579,-76.609550
59513.282296,3330.926739,-7402.059420,2068.457845
59513.282606,3478.967927,-7402.059420,3983.696590
59513.282915,2072.576638,-5551.544565,2757.943793
59513.283225,0.000000,-5995.668130,0.000000
59513.283535,-1776.494261,-9548.656652,612.876398
59513.283845,-1184.329507,-10732.986159,1225.752797
59513.284154,-2738.761985,-11843.295072,-1302.362347
59513.284464,-4145.153275,-8956.491898,-2145.067394
59513.284774,-666.185348,-11843.295072,-76.609550
59513.285083,4663.297435,-9474.636058,3447.429741
59513.285393,3034.844362,-8586.388927,4060.306139
59513.285703,3404.947333,-6217.729913,3064.381992
59513.286012,1258.350101,-8290.306550,2068.457845
59513.286322,0.000000,-9548.656652,0.000000
59513.286632,0.000000,-5995.668130,0.000000
59513.286941,-4737.318029,-9548.656652,0.000000
59513.287251,-666.185348,-9474.636058,-383.047749
59513.287561,-4737.318029,-10732.986159,-2451.505594
59513.287870,2072.576638,-9474.636058,1762.019645
59513.288180,2072.576638,-10214.842000,3064.381992
59513.288490,962.267725,-7105.977043,1225.752797
59513.288799,-1332.370696,-8808.450710,0.000000
59513.289109,-962.267725,-10807.006753,612.876398
59513.289419,-962.267725,-7476.080014,0.000000
59513.289729,-5921.647536,-8364.327145,0.000000
59513.290038,-7105.977043,-5995.668130,0.000000
59513.290348,-3034.844362,-14211.954086,-76.609550
59513.290658,0.000000,-7476.080014,1225.752797
59513.290967,1702.473667,-11251.130318,6052.154434
59513.291277,-1184.329507,-5995.668130,3677.258390
59513.291587,-4811.338623,-8290.306550,383.047749
59513.291896,-5181.441594,-9474.636058,153.219100
59513.292206,-3775.050304,-8438.347739,229.828649
59513.292516,-6587.832884,-9474.636058,-76.609550
59513.292825,-8364.327145,-6513.812290,-3447.429741
59513.293135,-10658.965565,-9548.656652,0.000000
59513.293445,-2442.679609,-11251.130318,-76.609550
59513.293754,-4145.153275,-7179.997637,1838.629195
59513.294064,-1924.535449,-9474.636058,4826.401637
59513.294374,-5329.482782,-5995.668130,612.876398
59513.294683,-5403.503377,-9770.718434,919.314598
59513.294993,-3108.864956,-8660.409521,1302.362347
59513.295303,-4071.132681,-9548.656652,1991.848295
59513.295613,-4219.173869,-9474.636058,-76.609550
59513.295922,-7476.080014,-10362.883188,-1302.362347
59513.296232,-9844.739029,-8068.244768,-3140.991542
59513.296542,-7105.977043,-11473.192101,1838.629195
59513.296851,-3627.009116,-8290.306550,2068.457845
59513.297161,-3552.988522,-5403.503377,3370.820191
59513.297471,-4441.235652,-6587.832884,1838.629195
59513.297780,-3330.926739,-6735.874072,2451.505594
59513.298090,-4367.215058,-8956.491898,2221.676944
59513.298400,-3701.029710,-8660.409521,766.095498
59513.298709,-2442.679609,-9474.636058,-76.609550
59513.299019,-3034.844362,-10658.965565,-76.609550
59513.299329,-7772.162391,-7994.224174,-3140.991542
59513.299638,-7698.141797,-11325.150913,-919.314598
59513.299948,-4811.338623,-11843.295072,-76.609550
59513.300258,-4737.318029,-7179.997637,0.000000
59513.300567,-2072.576638,-6587.832884,1532.190996
59513.300877,814.226536,-7105.977043,3907.087040
59513.301187,740.205942,-7402.059420,2987.772442
59513.301497,-666.185348,-8734.430116,1838.629195
59513.301806,-1258.350101,-11843.295072,2987.772442
59513.302116,-74.020594,-9474.636058,-76.609550
59513.302426,-74.020594,-11843.295072,-76.609550
59513.302735,-5921.647536,-8364.327145,-2374.896044
59513.303045,-4811.338623,-11843.295072,-1302.362347
59513.303355,-7698.141797,-10881.027347,-2451.505594
59513.303664,-5995.668130,-9696.697840,-689.485948
59513.303974,-2072.576638,-8512.368333,1225.752797
59513.304284,1184.329507,-7476.080014,3064.381992
59513.304593,2220.617826,-6587.832884,4443.353888
59513.304903,3404.947333,-8882.471304,5592.497135
59513.305213,2886.803174,-11251.130318,3447.429741
59513.305522,-74.020594,-9474.636058,-76.609550
59513.305832,-4663.297435,-7179.997637,-2834.553343
59513.306142,-1628.453072,-10140.821405,1685.410096
59513.306452,-3330.926739,-8068.244768,-2451.505594
59513.306761,-3627.009116,-10955.047942,-1915.238745
59513.307071,-6809.894666,-12213.398043,-2681.334243
59513.307381,-6883.915261,-12805.562797,-1072.533697
59513.307690,-4441.235652,-11917.315666,766.095498
59513.308000,-2368.659014,-9548.656652,3370.820191
59513.308310,740.205942,-8660.409521,4903.011187
59513.308619,4663.297435,-7994.224174,7277.907231
59513.308929,1480.411884,-1850.514855,3677.258390
59513.309239,740.205942,-6365.771101,4826.401637
59513.309548,-6439.791695,-6439.791695,-1915.238745
59513.309858,-5403.503377,-9474.636058,-2528.115143
59513.310168,-8142.265362,-10732.986159,-4826.401637
59513.310477,-10362.883188,-12213.398043,-4136.915689
59513.310787,-8956.491898,-12213.398043,-3140.991542
59513.311097,-4441.235652,-10140.821405,0.000000
59513.311406,-1776.494261,-11029.068536,0.000000
59513.311716,-3256.906145,-13249.686362,4519.963438
59513.312026,-1850.514855,-9474.636058,2987.772442
59513.312336,0.000000,-5995.668130,4903.011187
59513.312645,2294.638420,-5921.647536,4826.401637
59513.312955,-1258.350101,-6513.812290,6052.154434
59513.313265,-5033.400406,-7476.080014,2911.162892
59513.313574,-1776.494261,-6217.729913,995.924147
59513.313884,-1258.350101,-6809.894666,383.047749
59513.314194,-7105.977043,-5995.668130,0.000000
59513.314503,-11843.295072,-9548.656652,-4903.011187
59513.314813,-9474.636058,-14878.139434,-3064.381992
59513.315123,-5995.668130,-15100.201217,-3447.429741
59513.315432,-8586.388927,-10140.821405,-4366.744339
59513.315742,-5107.421000,-11251.130318,-76.609550
59513.316052,-3627.009116,-10362.883188,2987.772442
59513.316361,-666.185348,-6809.894666,4060.306139
59513.316671,5551.544565,-4293.194464,7737.564530
59513.316981,7476.080014,-1702.473667,8656.879127
59513.317290,1480.411884,-2442.679609,3983.696590
59513.317600,-5921.647536,-6587.832884,-995.924147
59513.317910,-9474.636058,-11917.315666,-2451.505594
59513.318220,-5403.503377,-14804.118840,-2528.115143
59513.318529,-8734.430116,-11325.150913,-7354.516781
59513.318839,-7179.997637,-13027.624579,-4979.620737
59513.319149,-10066.800811,-13767.830521,-2987.772442
59513.319458,-6735.874072,-13619.789333,229.828649
59513.319768,-1998.556043,-8956.491898,2757.943793
59513.320078,740.205942,-5403.503377,5132.839837
59513.320387,1480.411884,-74.020594,4673.182538
59513.320697,3849.070898,518.144159,6665.030833
59513.321007,4515.256246,-2590.720797,5286.058936
59513.321317,0.000000,-7476.080014,3677.258390
59513.321626,-4811.338623,-13027.624579,-76.609550
59513.321936,-6883.915261,-16284.530724,-3753.867940
59513.322246,-8142.265362,-13101.645173,-4903.011187
59513.322555,-7328.038826,-11325.150913,-4903.011187
59513.322865,-7698.141797,-11251.130318,-3983.696590
59513.323175,-6883.915261,-13619.789333,-2451.505594
59513.323484,-4219.173869,-12583.501014,-689.485948
59513.323794,-3923.091493,-10658.965565,2374.896044
59513.324104,-2960.823768,-4811.338623,3677.258390
59513.324414,4737.318029,-3627.009116,8580.269578
59513.324723,5847.626942,2368.659014,6052.154434
59513.325033,7698.141797,0.000000,8503.660028
59513.325343,2664.741391,-2442.679609,4443.353888
59513.325652,-1332.370696,-8586.388927,0.000000
59513.325962,-6957.935855,-14730.098246,-4749.792088
59513.326272,-13693.809927,-19319.375086,-8733.488677
59513.326582,-15766.386565,-21762.054695,-8656.879127
59513.326891,-14285.974681,-18949.272115,-7431.126331
59513.327201,-11473.192101,-12065.356855,-5975.544884
59513.327511,-4737.318029,-7772.162391,612.876398
59513.327820,2886.803174,-4737.318029,4826.401637
59513.328130,5329.482782,-2442.679609,9806.022374
59513.328440,7105.977043,-74.020594,9806.022374
59513.328749,7031.956449,-592.164754,10035.851024
59513.329059,3404.947333,-2294.638420,6971.469032
59513.329369,-1776.494261,-5773.606348,3370.820191
59513.329679,-4811.338623,-11843.295072,-383.047749
59513.329988,-7772.162391,-16580.613101,-2528.115143
59513.330298,-16580.613101,-17024.736666,-8503.660028
59513.330608,-14804.118840,-18431.127956,-7048.078582
59513.330917,-13101.645173,-15988.448347,-6205.373534
59513.331227,-9474.636058,-11917.315666,0.000000
59513.331537,-3849.070898,-8364.327145,1991.848295
59513.331846,2146.597232,-4663.297435,6128.763984
59513.332156,6069.688724,0.000000,7507.735880
59513.332466,6809.894666,592.164754,8580.269578
59513.332776,9400.615463,-2368.659014,9729.412825
59513.333085,6439.791695,-4737.318029,6971.469032
59513.333395,-2442.679609,-5921.647536,383.047749
59513.333705,-6513.812290,-11917.315666,-1838.629195
59513.334014,-9548.656652,-15988.448347,-6205.373534
59513.334324,-15396.283594,-17838.963202,-7354.516781
59513.334634,-13027.624579,-18579.169144,-8886.707777
59513.334944,-10140.821405,-18949.272115,-4903.011187
59513.335253,-4811.338623,-12805.562797,-689.485948
59513.335563,518.144159,-8660.409521,5132.839837
59513.335873,6735.874072,-4145.153275,8197.221829
59513.336182,8142.265362,-2886.803174,12410.747068
59513.336492,7031.956449,888.247130,9729.412825
59513.336802,3552.988522,814.226536,7967.393179
59513.337111,1702.473667,-74.020594,2374.896044
59513.337421,-3552.988522,-4811.338623,2451.505594
59513.337731,-4219.173869,-10214.842000,-76.609550
59513.338041,-7550.100608,-13249.686362,-4749.792088
59513.338350,-10436.903782,-17098.757260,-5286.058936
59513.338660,-9844.739029,-16802.674883,-5286.058936
59513.338970,-5255.462188,-16654.633695,-2451.505594
59513.339279,-2072.576638,-16654.633695,3064.381992
59513.339589,4071.132681,-9474.636058,4826.401637
59513.339899,5107.421000,-4811.338623,6128.763984
59513.340209,11843.295072,-2738.761985,13483.280765
59513.340518,8512.368333,2294.638420,9806.022374
59513.340828,9104.533087,0.000000,10648.727422
59513.341138,6439.791695,-1406.391290,7507.735880
59513.341447,2442.679609,-7994.224174,5592.497135
59513.341757,-1776.494261,-10807.006753,2987.772442
59513.342067,-5329.482782,-13101.645173,0.000000
59513.342376,-7105.977043,-14878.139434,-2451.505594
59513.342686,-3627.009116,-17764.942608,-76.609550
59513.342996,-3034.844362,-16580.613101,2068.457845
59513.343306,-4737.318029,-10732.986159,1225.752797
59513.343615,814.226536,-8438.347739,4060.306139
59513.343925,5403.503377,-7105.977043,9116.536426
59513.344235,6587.832884,-4737.318029,10801.946522
59513.344544,6439.791695,-3552.988522,11568.042020
59513.344854,6069.688724,-296.082377,10342.289223
59513.345164,3552.988522,-1258.350101,8580.269578
59513.345474,0.000000,-2442.679609,6128.763984
59513.345783,1480.411884,-11029.068536,9729.412825
59513.346093,-1258.350101,-13915.871710,6052.154434
59513.346403,-6513.812290,-11917.315666,612.876398
59513.346712,-6587.832884,-20133.601622,3600.648841
59513.347022,-8364.327145,-18949.272115,4213.525239
59513.347332,-8438.347739,-14730.098246,3983.696590
59513.347641,-2442.679609,-7994.224174,6894.859482
59513.347951,3923.091493,-1406.391290,10189.070123
59513.348261,4737.318029,2886.803174,11031.775171
59513.348571,4145.153275,2886.803174,12410.747068
59513.348880,3552.988522,-3034.844362,14709.033562
59513.349190,2294.638420,-5773.606348,10342.289223
59513.349500,-3256.906145,-5995.668130,6128.763984
59513.349809,-3627.009116,-10658.965565,4826.401637
59513.350119,-4367.215058,-10066.800811,4213.525239
59513.350429,-3034.844362,-12657.521608,2834.553343
59513.350738,-3330.926739,-13915.871710,2757.943793
59513.351048,-4219.173869,-14804.118840,1302.362347
59513.351358,-7772.162391,-17246.798449,689.485948
59513.351668,-4219.173869,-13323.706956,1762.019645
59513.351977,0.000000,-9548.656652,6128.763984
59513.352287,4219.173869,-4589.276840,9729.412825
59513.352597,2294.638420,3182.885551,6358.592633
59513.352906,5847.626942,0.000000,9729.412825
59513.353216,5033.400406,-518.144159,7431.126331
59513.353526,2886.803174,-3997.112087,5439.278036
59513.353836,0.000000,-9030.512492,3600.648841
59513.354145,-2590.720797,-14285.974681,842.705048
59513.354455,-7179.997637,-17468.860231,-1915.238745
59513.354765,-9548.656652,-20725.766376,-3753.867940
59513.355074,-10362.883188,-16062.468941,-4903.011187
59513.355384,-5921.647536,-12509.480420,-4290.134789
59513.355694,2294.638420,-9474.636058,2374.896044
59513.356003,4367.215058,-7105.977043,4826.401637
59513.356313,4737.318029,-2738.761985,4903.011187
59513.356623,6809.894666,-3923.091493,5975.544884
59513.356933,7550.100608,-2812.782580,5286.058936
59513.357242,3997.112087,-5181.441594,2528.115143
59513.357552,2294.638420,-9474.636058,3600.648841
59513.357862,2294.638420,-8290.306550,-76.609550
59513.358171,-1776.494261,-7772.162391,-1838.629195
59513.358481,-1998.556043,-11843.295072,-76.609550
59513.358791,-2442.679609,-10658.965565,-3753.867940
59513.359101,-3552.988522,-15840.407159,-1072.533697
59513.359410,-2368.659014,-12509.480420,-2451.505594
59513.359720,-74.020594,-12509.480420,-1455.581446
59513.360030,-222.061783,-10955.047942,612.876398
59513.360339,1776.494261,-8512.368333,1991.848295
59513.360649,7031.956449,-5921.647536,4213.525239
59513.360959,9400.615463,-4145.153275,4826.401637
59513.361268,2368.659014,-74.020594,3064.381992
59513.361578,3404.947333,-4515.256246,4826.401637
59513.361888,370.102971,-3775.050304,0.000000
59513.362198,1776.494261,-10140.821405,2451.505594
59513.362507,-3256.906145,-13101.645173,0.000000
59513.362817,-6143.709319,-17690.922014,-306.438199
59513.363127,-3775.050304,-15914.427753,-1149.143247
59513.363436,-2886.803174,-13027.624579,-383.047749
59513.363746,-74.020594,-11251.130318,2068.457845
59513.364056,4071.132681,-9474.636058,4826.401637
59513.364365,3775.050304,-4737.318029,4213.525239
59513.364675,592.164754,-5995.668130,5515.887586
59513.364985,-666.185348,-8290.306550,4519.963438
59513.365295,0.000000,-9548.656652,6128.763984
59513.365604,-740.205942,-8216.285956,5362.668486
59513.365914,-1850.514855,-7772.162391,4903.011187
59513.366224,-1332.370696,-6069.688724,4290.134789
59513.366533,148.041188,-7179.997637,4979.620737
59513.366843,1628.453072,-9326.594869,5975.544884
59513.367153,-518.144159,-11547.212695,4596.572988
59513.367463,-3627.009116,-14211.954086,2374.896044
59513.367772,-3108.864956,-10140.821405,1225.752797
59513.368082,2368.659014,-9844.739029,7354.516781
59513.368392,0.000000,-3627.009116,3677.258390
59513.368701,-1554.432478,-6217.729913,4519.963438
59513.369011,814.226536,-7105.977043,6205.373534
59513.369321,1702.473667,-9104.533087,7584.345430
59513.369630,-1110.308913,-7994.224174,6971.469032
59513.369940,-2812.782580,-8364.327145,6128.763984
59513.370250,-1184.329507,-8660.409521,7354.516781
59513.370560,-74.020594,-9178.553681,6052.154434
59513.370869,-2368.659014,-6291.750507,4903.011187
59513.371179,-74.020594,-8290.306550,6358.592633
59513.371489,-2072.576638,-5403.503377,3217.601092
59513.371798,2294.638420,-7105.977043,6052.154434
59513.372108,1184.329507,-7476.080014,4979.620737
59513.372418,-1776.494261,-9474.636058,4979.620737
59513.372728,-1628.453072,-10066.800811,4903.011187
59513.373037,0.000000,-10140.821405,4903.011187
59513.373347,-2368.659014,-10140.821405,6128.763984
59513.373657,-74.020594,-10658.965565,7277.907231
59513.373966,-222.061783,-5403.503377,2451.505594
59513.374276,0.000000,-9548.656652,7354.516781
59513.374586,-1850.514855,-6513.812290,3677.258390
59513.374895,-74.020594,-8882.471304,4826.401637
59513.375205,740.205942,-7179.997637,4826.401637
59513.375515,0.000000,-6217.729913,3677.258390
59513.375825,-592.164754,-8068.244768,3217.601092
59513.376134,-2368.659014,-6587.832884,2681.334243
59513.376444,-2368.659014,-7772.162391,3064.381992
59513.376754,2294.638420,-11843.295072,5515.887586
59513.377063,-666.185348,-8364.327145,1762.019645
59513.377373,0.000000,-11917.315666,6128.763984
59513.377683,-74.020594,-9178.553681,3600.648841
59513.377993,1110.308913,-9030.512492,5209.449386
59513.378302,1332.370696,-7254.018232,4136.915689
59513.378612,-370.102971,-7550.100608,3217.601092
59513.378922,370.102971,-9104.533087,2528.115143
59513.379231,-1554.432478,-9178.553681,2987.772442
59513.379541,-3256.906145,-8364.327145,1532.190996
59513.379851,148.041188,-10362.883188,4213.525239
59513.380160,-1850.514855,-7772.162391,76.609550
59513.380470,0.000000,-8660.409521,4903.011187
59513.380780,-74.020594,-8290.306550,2374.896044
59513.381090,1184.329507,-5995.668130,3983.696590
59513.381399,1184.329507,-7772.162391,3677.258390
59513.381709,0.000000,-10362.883188,4290.134789
59513.382019,222.061783,-11029.068536,3830.477490
59513.382328,-1850.514855,-11843.295072,4213.525239
59513.382638,-666.185348,-7105.977043,1532.190996
59513.382948,-3552.988522,-8364.327145,1838.629195
59513.383257,-74.020594,-8290.306550,-76.609550
59513.383567,-3552.988522,-3627.009116,0.000000
59513.383877,2294.638420,-7105.977043,-76.609550
59513.384187,-1776.494261,-7328.038826,153.219100
59513.384496,-2368.659014,-10510.924376,536.266849
59513.384806,-1036.288319,-9474.636058,0.000000
59513.385116,-1110.308913,-12139.377449,1532.190996
59513.385425,1702.473667,-10658.965565,2374.896044
59513.385735,-2442.679609,-11843.295072,536.266849
59513.386045,0.000000,-7772.162391,0.000000
59513.386355,-74.020594,-9474.636058,-76.609550
59513.386664,0.000000,-1554.432478,-1838.629195
59513.386974,2886.803174,-5625.565159,-76.609550
59513.387284,0.000000,-7105.977043,-1455.581446
59513.387593,518.144159,-9326.594869,-2528.115143
59513.387903,-592.164754,-14730.098246,-842.705048
59513.388213,-666.185348,-12139.377449,-2528.115143
59513.388522,-1850.514855,-15396.283594,-689.485948
59513.388832,-1258.350101,-8586.388927,-4060.306139
59513.389142,-2368.659014,-8364.327145,-3524.039291
59513.389452,2886.803174,-7105.977043,-689.485948
59513.389761,0.000000,-4811.338623,-3677.258390
59513.390071,2812.782580,-12287.418637,-76.609550
59513.390381,888.247130,-10732.986159,-2451.505594
59513.390690,0.000000,-15692.365970,-459.657299
59513.391000,740.205942,-10510.924376,-1685.410096
59513.391310,-2590.720797,-11917.315666,-2298.286494
59513.391620,-74.020594,-7105.977043,-2068.457845
59513.391929,-74.020594,-8290.306550,-1915.238745
59513.392239,370.102971,-3034.844362,-3064.381992
59513.392549,592.164754,-7179.997637,0.000000
59513.392858,-74.020594,-11843.295072,-383.047749
59513.393168,1184.329507,-12213.398043,-766.095498
59513.393478,518.144159,-14804.118840,0.000000
59513.393787,1184.329507,-10140.821405,0.000000
59513.394097,-1406.391290,-12139.377449,229.828649
59513.394407,1110.308913,-6217.729913,-1378.971896
59513.394717,1036.288319,-7105.977043,0.000000
59513.395026,3478.967927,-7105.977043,-76.609550
59513.395336,-1258.350101,-6513.812290,-1455.581446
59513.395646,-3552.988522,-7179.997637,0.000000
59513.395955,1998.556043,-11843.295072,1072.533697
59513.396265,0.000000,-13693.809927,2451.505594
59513.396575,518.144159,-8882.471304,1149.143247
59513.396885,-1998.556043,-11103.089130,1762.019645
59513.397194,444.123565,-6883.915261,919.314598
59513.397504,-222.061783,-8068.244768,1532.190996
59513.397814,296.082377,-5403.503377,612.876398
59513.398123,2294.638420,-9474.636058,3600.648841
59513.398433,-1628.453072,-8512.368333,612.876398
59513.398743,592.164754,-11325.150913,3064.381992
59513.399052,-74.020594,-14211.954086,2987.772442
59513.399362,-2368.659014,-8956.491898,612.876398
59513.399672,-2738.761985,-13619.789333,2374.896044
59513.399982,-962.267725,-8216.285956,1915.238745
59513.400291,-1258.350101,-8808.450710,2528.115143
59513.400601,0.000000,-6143.709319,3064.381992
59513.400911,-2072.576638,-4811.338623,1302.362347
59513.401220,0.000000,-8364.327145,4903.011187
59513.401530,3182.885551,-8882.471304,4213.525239
59513.401840,0.000000,-10732.986159,6128.763984
59513.402149,2294.638420,-10658.965565,4826.401637
59513.402459,-2812.782580,-12065.356855,3983.696590
59513.402769,-222.061783,-7698.141797,3140.991542
59513.403079,-2590.720797,-6957.935855,2068.457845
59513.403388,-1110.308913,-3330.926739,1915.238745
59513.403698,-1554.432478,-5107.421000,1455.581446
59513.404008,-2072.576638,-7476.080014,2374.896044
59513.404317,0.000000,-9548.656652,2451.505594
59513.404627,-74.020594,-14211.954086,4519.963438
59513.404937,-2960.823768,-7772.162391,0.000000
59513.405247,-1776.494261,-12805.562797,5132.839837
59513.405556,0.000000,-4811.338623,1225.752797
59513.405866,444.123565,-6661.853478,1915.238745
59513.406176,222.061783,-5329.482782,2068.457845
59513.406485,592.164754,-6735.874072,1072.533697
59513.406795,-444.123565,-10214.842000,2681.334243
59513.407105,296.082377,-8734.430116,995.924147
59513.407414,-2368.659014,-9548.656652,1225.752797
59513.407724,3330.926739,-8586.388927,4213.525239
59513.408034,-1554.432478,-8512.368333,76.609550
59513.408344,592.164754,-7920.203579,1378.971896
59513.408653,-2146.597232,-9770.718434,-2451.505594
59513.408963,-592.164754,-8660.409521,0.000000
59513.409273,-962.267725,-9992.780217,0.000000
59513.409582,444.123565,-9548.656652,1302.362347
59513.409892,296.082377,-8660.409521,1225.752797
59513.410202,1110.308913,-9474.636058,1762.019645
59513.410512,0.000000,-5995.668130,0.000000
59513.410821,-222.061783,-12879.583391,4213.525239
59513.411131,-1850.514855,-5921.647536,-3447.429741
59513.411441,-5921.647536,-10140.821405,-1838.629195
59513.411750,-666.185348,-6809.894666,-3217.601092
59513.412060,-2072.576638,-8808.450710,-612.876398
59513.412370,444.123565,-7698.141797,-229.828649
59513.412679,370.102971,-8808.450710,-842.705048
59513.412989,1258.350101,-10955.047942,1608.800546
59513.413299,3182.885551,-11547.212695,2374.896044
59513.413609,0.000000,-9770.718434,536.266849
59513.413918,296.082377,-7179.997637,306.438199
59513.414228,-3034.844362,-8586.388927,-2221.676944
59513.414538,1184.329507,-8512.368333,-153.219100
59513.414847,-74.020594,-11843.295072,-76.609550
59513.415157,0.000000,-7846.182985,-842.705048
59513.415467,74.020594,-8586.388927,-995.924147
59513.415777,1480.411884,-8660.409521,995.924147
59513.416086,2146.597232,-7624.121203,2374.896044
59513.416396,1110.308913,-13915.871710,2987.772442
59513.416706,-370.102971,-9474.636058,-1608.800546
59513.417015,-4737.318029,-10732.986159,-4290.134789
59513.417325,-592.164754,-8956.491898,-153.219100
59513.417635,-2442.679609,-7476.080014,-1532.190996
59513.417944,2294.638420,-5107.421000,-76.609550
59513.418254,370.102971,-7920.203579,0.000000
59513.418564,1406.391290,-10732.986159,995.924147
59513.418874,2294.638420,-13027.624579,1149.143247
59513.419183,-2072.576638,-13545.768739,612.876398
59513.419493,-370.102971,-9474.636058,-1072.533697
59513.419803,-2442.679609,-10658.965565,-1302.362347
59513.420112,-2368.659014,-3034.844362,-4903.011187
59513.420422,-148.041188,-10732.986159,1991.848295
59513.420732,1110.308913,-8290.306550,-76.609550
59513.421041,1702.473667,-9992.780217,2374.896044
59513.421351,1850.514855,-9992.780217,2911.162892
59513.421661,2590.720797,-9030.512492,3677.258390
59513.421970,814.226536,-11325.150913,3830.477490
59513.422280,148.041188,-7402.059420,612.876398
59513.422589,-222.061783,-11547.212695,2298.286494
59513.422899,-74.020594,-4737.318029,-1302.362347
59513.423209,-3552.988522,-7772.162391,0.000000
59513.423518,1998.556043,-9474.636058,3600.648841
59513.423828,-666.185348,-8882.471304,-383.047749
59513.424137,296.082377,-11547.212695,3524.039291
59513.424447,1998.556043,-11547.212695,3600.648841
59513.424757,-1702.473667,-10881.027347,2604.724693
59513.425066,-1184.329507,-6291.750507,612.876398
59513.425376,-2886.803174,-7476.080014,0.000000
59513.425685,-74.020594,-6365.771101,689.485948
59513.425995,-74.020594,-9474.636058,-76.609550
59513.426305,-2072.576638,-7179.997637,-842.705048
59513.426614,518.144159,-13619.789333,4213.525239
59513.426924,1110.308913,-8586.388927,2374.896044
59513.427233,3552.988522,-8142.265362,5669.106685
59513.427543,666.185348,-8216.285956,3140.991542
59513.427852,222.061783,-6513.812290,766.095498
59513.428162,-1554.432478,-11029.068536,459.657299
59513.428472,148.041188,-9622.677246,306.438199
59513.428781,-740.205942,-13841.851115,2451.505594
59513.429091,1998.556043,-11843.295072,2987.772442
59513.429400,814.226536,-10066.800811,1762.019645
59513.429710,0.000000,-5995.668130,3677.258390
59513.430020,4663.297435,-9474.636058,6052.154434
59513.430329,296.082377,-9548.656652,6128.763984
59513.430639,-370.102971,-7105.977043,1915.238745
59513.430948,-3478.967927,-10436.903782,1225.752797
59513.431258,-2294.638420,-7476.080014,76.609550
59513.431568,-4441.235652,-11029.068536,1072.533697
59513.431877,-2368.659014,-7772.162391,0.000000
59513.432187,-222.061783,-10658.965565,2374.896044
59513.432496,814.226536,-7105.977043,2374.896044
59513.432806,592.164754,-8364.327145,5209.449386
59513.433116,-74.020594,-10658.965565,4213.525239
59513.433425,-3552.988522,-6587.832884,919.314598
59513.433735,-3627.009116,-10658.965565,-76.609550
59513.434044,-1850.514855,-9104.533087,-612.876398
59513.434354,-3404.947333,-11843.295072,306.438199
59513.434663,-1036.288319,-7698.141797,-459.657299
59513.434973,0.000000,-7476.080014,0.000000
59513.435283,2960.823768,-7402.059420,3370.820191
59513.435592,4515.256246,-8142.265362,2987.772442
59513.435902,0.000000,-7179.997637,612.876398
59513.436211,2220.617826,-11251.130318,1762.019645
59513.436521,-2812.782580,-11621.233289,306.438199
59513.436831,-74.020594,-7994.224174,-76.609550
59513.437140,-2146.597232,-8512.368333,-689.485948
59513.437450,148.041188,-5107.421000,-1532.190996
59513.437759,74.020594,-8808.450710,76.609550
59513.438069,2664.741391,-7772.162391,0.000000
59513.438379,3552.988522,-10436.903782,3064.381992
59513.438688,2294.638420,-11843.295072,2374.896044
59513.438998,-3552.988522,-5403.503377,-3064.381992
59513.439307,-888.247130,-11769.274478,459.657299
59513.439617,-1184.329507,-4811.338623,-2298.286494
59513.439927,-1998.556043,-11843.295072,-689.485948
59513.440236,-370.102971,-8808.450710,-1915.238745
59513.440546,-592.164754,-11547.212695,-459.657299
59513.440855,2590.720797,-8734.430116,1532.190996
59513.441165,1184.329507,-6735.874072,459.657299
59513.441475,0.000000,-7179.997637,306.438199
59513.441784,1110.308913,-9474.636058,-76.609550
59513.442094,-3552.988522,-10140.821405,-2145.067394
59513.442403,592.164754,-11769.274478,612.876398
59513.442713,-4071.132681,-11103.089130,-1225.752797
59513.443022,-1998.556043,-7550.100608,-2374.896044
59513.443332,-1110.308913,-8808.450710,-766.095498
59513.443642,1554.432478,-6661.853478,1072.533697
59513.443951,962.267725,-9548.656652,1762.019645
59513.444261,-370.102971,-10658.965565,1149.143247
59513.444570,-3552.988522,-9548.656652,0.000000
59513.444880,-3256.906145,-11917.315666,612.876398
59513.445190,-1258.350101,-6513.812290,-1302.362347
59513.445499,-5921.647536,-7179.997637,0.000000
59513.445809,-814.226536,-4145.153275,-2451.505594
59513.446118,0.000000,-8660.409521,919.314598
59513.446428,2368.659014,-8364.327145,2145.067394
59513.446738,1036.288319,-10362.883188,2451.505594
59513.447047,0.000000,-9844.739029,2681.334243
59513.447357,-74.020594,-8290.306550,-76.609550
59513.447666,-2220.617826,-6365.771101,-1302.362347
59513.447976,-1184.329507,-4959.379811,0.000000
59513.448286,-666.185348,-11843.295072,-76.609550
59513.448595,-2368.659014,-6587.832884,-2451.505594
59513.448905,1406.391290,-13027.624579,76.609550
59513.449214,2664.741391,-9548.656652,2681.334243
59513.449524,2590.720797,-10436.903782,3600.648841
59513.449833,2664.741391,-8882.471304,4060.306139
59513.450143,2886.803174,-6883.915261,4213.525239
59513.450453,2886.803174,-9474.636058,4213.525239
59513.450762,-1036.288319,-5551.544565,-919.314598
59513.451072,-2886.803174,-12509.480420,2451.505594
59513.451381,-74.020594,-9474.636058,-1302.362347
59513.451691,-3552.988522,-11029.068536,306.438199
59513.452001,2294.638420,-9474.636058,2068.457845
59513.452310,370.102971,-8882.471304,2681.334243
59513.452620,740.205942,-7772.162391,3140.991542
59513.452929,0.000000,-7254.018232,842.705048
59513.453239,-1924.535449,-9178.553681,2451.505594
59513.453549,-370.102971,-10066.800811,1762.019645
59513.453858,-3627.009116,-13027.624579,-76.609550
59513.454168,-4145.153275,-7772.162391,-4903.011187
59513.454477,-74.020594,-13619.789333,2987.772442
59513.454787,1110.308913,-5329.482782,1455.581446
59513.455097,2738.761985,-7402.059420,3600.648841
59513.455406,888.247130,-6587.832884,2834.553343
59513.455716,0.000000,-7994.224174,1378.971896
59513.456025,-962.267725,-10807.006753,1762.019645
59513.456335,-1110.308913,-8734.430116,612.876398
59513.456644,-3849.070898,-11695.253884,1991.848295
59513.456954,-1258.350101,-7698.141797,-1302.362347
59513.457264,-2368.659014,-8364.327145,1225.752797
59513.457573,6439.791695,-7105.977043,2987.772442
59513.457883,0.000000,-6291.750507,1378.971896
59513.458192,2368.659014,-8734.430116,4213.525239
59513.458502,740.205942,-8734.430116,842.705048
59513.458812,-962.267725,-10362.883188,919.314598
59513.459121,-2368.659014,-8586.388927,-1378.971896
59513.459431,-4737.318029,-11621.233289,0.000000
59513.459740,-1776.494261,-8364.327145,0.000000
59513.460050,1998.556043,-11843.295072,2374.896044
59513.460360,1850.514855,-5329.482782,536.266849
59513.460669,0.000000,-8364.327145,3677.258390
59513.460979,4071.132681,-8882.471304,3600.648841
59513.461288,1776.494261,-9474.636058,2374.896044
59513.461598,-518.144159,-8290.306550,76.609550
59513.461908,-2146.597232,-7179.997637,-1838.629195
59513.462217,-3923.091493,-12953.603985,-1072.533697
59513.462527,-1480.411884,-11621.233289,-2451.505594
59513.462836,-2368.659014,-11917.315666,0.000000
59513.463146,2072.576638,-9844.739029,1991.848295
59513.463455,1998.556043,-8882.471304,2374.896044
59513.463765,1184.329507,-5403.503377,2451.505594
59513.464075,3478.967927,-9474.636058,2374.896044
59513.464384,0.000000,-10066.800811,1762.019645
59513.464694,-1850.514855,-9770.718434,-995.924147
59513.465003,-3997.112087,-12953.603985,-383.047749
59513.465313,-2738.761985,-9326.594869,-1685.410096
59513.465623,-2220.617826,-9548.656652,-1838.629195
59513.465932,0.000000,-3627.009116,0.000000
59513.466242,1184.329507,-7476.080014,3064.381992
59513.466551,2886.803174,-8290.306550,-76.609550
59513.466861,-3552.988522,-7179.997637,0.000000
59513.467171,-296.082377,-12435.459826,1149.143247
59513.467480,-2368.659014,-11325.150913,-612.876398
59513.467790,-3923.091493,-12139.377449,-1225.752797
59513.468099,-2220.617826,-7328.038826,-2757.943793
59513.468409,-1036.288319,-8512.368333,0.000000
59513.468719,3701.029710,-2812.782580,536.266849
59513.469028,666.185348,-5995.668130,0.000000
59513.469338,1184.329507,-6587.832884,612.876398
59513.469647,2294.638420,-14211.954086,3294.210641
59513.469957,-1702.473667,-9844.739029,-1608.800546
59513.470266,-1184.329507,-11917.315666,2068.457845
59513.470576,-3330.926739,-10140.821405,0.000000
59513.470886,-370.102971,-7105.977043,-1762.019645
59513.471195,592.164754,-9252.574275,1455.581446
59513.471505,3552.988522,-5107.421000,2221.676944
59513.471814,1036.288319,-9178.553681,2374.896044
59513.472124,1110.308913,-6661.853478,-383.047749
59513.472434,0.000000,-9548.656652,0.000000
59513.472743,1776.494261,-12065.356855,3753.867940
59513.473053,-3034.844362,-7846.182985,-1762.019645
59513.473362,-3849.070898,-11621.233289,919.314598
59513.473672,-2368.659014,-7179.997637,-2451.505594
59513.473982,-1628.453072,-11177.109724,612.876398
59513.474291,962.267725,-7105.977043,842.705048
59513.474601,-370.102971,-11251.130318,2298.286494
59513.474910,1406.391290,-9474.636058,2374.896044
59513.475220,-74.020594,-10510.924376,2374.896044
59513.475530,-1776.494261,-7772.162391,1838.629195
59513.475839,-74.020594,-9474.636058,4519.963438
59513.476149,-2442.679609,-7105.977043,-383.047749
59513.476458,-1184.329507,-5107.421000,0.000000
59513.476768,-2368.659014,-7328.038826,0.000000
59513.477077,740.205942,-7179.997637,1225.752797
59513.477387,-296.082377,-12583.501014,2145.067394
59513.477697,1480.411884,-9400.615463,1838.629195
59513.478006,-370.102971,-11843.295072,2987.772442
59513.478316,1702.473667,-8882.471304,2374.896044
59513.478625,-2368.659014,-6069.688724,0.000000
59513.478935,-2368.659014,-9548.656652,1225.752797
59513.479245,-74.020594,-8882.471304,-689.485948
59513.479554,-3404.947333,-9548.656652,0.000000
59513.479864,814.226536,-6217.729913,0.000000
59513.480173,666.185348,-9696.697840,3524.039291
59513.480483,2368.659014,-6069.688724,2834.553343
59513.480793,1036.288319,-8734.430116,2374.896044
59513.481102,2294.638420,-8586.388927,4213.525239
59513.481412,-74.020594,-11251.130318,2374.896044
59513.481721,-1850.514855,-9474.636058,-689.485948
59513.482031,-296.082377,-10362.883188,612.876398
59513.482341,-1258.350101,-11547.212695,-76.609550
59513.482650,1184.329507,-9548.656652,0.000000
59513.482960,1110.308913,-13323.706956,2987.772442
59513.483269,1258.350101,-8660.409521,1915.238745
59513.483579,370.102971,-8882.471304,1915.238745
59513.483889,1480.411884,-5625.565159,1762.019645
59513.484198,1036.288319,-7179.997637,2451.505594
59513.484508,-74.020594,-11251.130318,2987.772442
59513.484817,-1258.350101,-9326.594869,-1608.800546
59513.485127,-4737.318029,-12213.398043,612.876398
59513.485436,-74.020594,-11251.130318,-76.609550
59513.485746,-2368.659014,-9548.656652,0.000000
59513.486056,2294.638420,-7105.977043,1762.019645
59513.486365,-1110.308913,-6291.750507,459.657299
59513.486675,-370.102971,-6365.771101,153.219100
59513.486984,-1258.350101,-9918.759623,689.485948
59513.487294,-3552.988522,-11325.150913,0.000000
59513.487604,-3552.988522,-11029.068536,0.000000
59513.487913,-2442.679609,-13027.624579,-76.609550
59513.488223,0.000000,-4811.338623,0.000000
59513.488532,2294.638420,-9474.636058,2987.772442
59513.488842,1110.308913,-1332.370696,-689.485948
59513.489152,2294.638420,-8882.471304,1149.143247
59513.489461,1850.514855,-8512.368333,536.266849
59513.489771,-444.123565,-12065.356855,306.438199
59513.490080,-3108.864956,-11843.295072,-1149.143247
59513.490390,-4737.318029,-9548.656652,-3677.258390
59513.490700,-2368.659014,-9548.656652,1225.752797
59513.491009,3478.967927,-7698.141797,2374.896044
59513.491319,1110.308913,-6513.812290,536.266849
59513.491628,3552.988522,-4811.338623,2451.505594
59513.491938,2294.638420,-9474.636058,1762.019645
59513.492247,3256.906145,-10510.924376,2374.896044
59513.492557,-666.185348,-10436.903782,919.314598
59513.492867,-1406.391290,-11325.150913,0.000000
59513.493176,-592.164754,-10140.821405,-919.314598
59513.493486,-2368.659014,-9548.656652,0.000000
59513.493795,0.000000,-5995.668130,1225.752797
59513.494105,1924.535449,-11621.233289,4826.401637
59513.494415,1110.308913,-4589.276840,-689.485948
59513.494724,0.000000,-10140.821405,2451.505594
59513.495034,2294.638420,-8290.306550,-76.609550
59513.495343,-148.041188,-11843.295072,1762.019645
59513.495653,-1702.473667,-9400.615463,-536.266849
59513.495963,-2738.761985,-9622.677246,-1378.971896
59513.496272,-2738.761985,-10288.862594,-153.219100
59513.496582,-2368.659014,-6143.709319,-1532.190996
59513.496891,-1184.329507,-10732.986159,2757.943793
59513.497201,2294.638420,-8290.306550,3294.210641
59513.497511,-1258.350101,-8142.265362,-229.828649
59513.497820,1184.329507,-7624.121203,1455.581446
59513.498130,-74.020594,-10658.965565,-76.609550
59513.498439,-74.020594,-10955.047942,1762.019645
59513.498749,-2368.659014,-8956.491898,-1225.752797
59513.499058,-1332.370696,-10584.944971,536.266849
59513.499368,518.144159,-8142.265362,612.876398
59513.499678,-2368.659014,-8660.409521,0.000000
59513.499987,0.000000,-4811.338623,306.438199
59513.500297,-962.267725,-11473.192101,2451.505594
59513.500606,2294.638420,-8290.306550,-76.609550
59513.500916,-3552.988522,-9548.656652,0.000000
59513.501226,-74.020594,-9474.636058,1762.019645
59513.501535,-2220.617826,-10732.986159,612.876398
59513.501845,-740.205942,-9030.512492,842.705048
59513.502154,814.226536,-6513.812290,1532.190996
59513.502464,814.226536,-9474.636058,2987.772442
59513.502774,444.123565,-5403.503377,0.000000
59513.503083,0.000000,-9548.656652,612.876398
59513.503393,2368.659014,-8660.409521,3217.601092
59513.503702,-74.020594,-9474.636058,-76.609550
59513.504012,-592.164754,-8068.244768,612.876398
59513.504322,-666.185348,-9474.636058,-383.047749
59513.504631,0.000000,-11621.233289,1302.362347
59513.504941,518.144159,-9622.677246,689.485948
59513.505250,-1184.329507,-12139.377449,1685.410096
59513.505560,0.000000,-8364.327145,0.000000
59513.505869,-2368.659014,-8364.327145,0.000000
59513.506179,0.000000,-2442.679609,0.000000
59513.506489,1258.350101,-9474.636058,4826.401637
59513.506798,-370.102971,-5995.668130,-995.924147
59513.507108,518.144159,-12435.459826,1532.190996
59513.507417,-1258.350101,-11843.295072,1149.143247
59513.507727,-74.020594,-10584.944971,1608.800546
59513.508037,-1850.514855,-10362.883188,842.705048
59513.508346,-444.123565,-5847.626942,-842.705048
59513.508656,-2146.597232,-8512.368333,536.266849
59513.508965,0.000000,-5403.503377,0.000000
59513.509275,-2368.659014,-9548.656652,612.876398
59513.509585,962.267725,-10658.965565,2374.896044
59513.509894,-3849.070898,-9548.656652,-2451.505594
59513.510204,-74.020594,-11843.295072,2374.896044
59513.510513,0.000000,-8290.306550,842.705048
59513.510823,0.000000,-10436.903782,3370.820191
59513.511133,962.267725,-5921.647536,536.266849
59513.511442,-296.082377,-8956.491898,1225.752797
59513.511752,1480.411884,-6143.709319,995.924147
59513.512061,-1480.411884,-7772.162391,229.828649
59513.512371,-4145.153275,-5403.503377,-2451.505594
59513.512680,-2368.659014,-10732.986159,0.000000
59513.512990,-74.020594,-13619.789333,-76.609550
59513.513300,-3552.988522,-9548.656652,0.000000
59513.513609,-74.020594,-14211.954086,3600.648841
59513.513919,0.000000,-6735.874072,0.000000
59513.514228,-74.020594,-9104.533087,2068.457845
59513.514538,2294.638420,-3627.009116,919.314598
59513.514848,370.102971,-8512.368333,1838.629195
59513.515157,1702.473667,-6957.935855,-76.609550
59513.515467,-1998.556043,-9696.697840,-1455.581446
59513.515776,0.000000,-10732.986159,1225.752797
59513.516086,-74.020594,-11843.295072,-76.609550
59513.516396,-4145.153275,-9548.656652,0.000000
59513.516705,2072.576638,-9474.636058,1762.019645
59513.517015,-1480.411884,-8364.327145,0.000000
59513.517324,1258.350101,-6217.729913,0.000000
59513.517634,-1628.453072,-11695.253884,766.095498
59513.517944,-370.102971,-9400.615463,0.000000
59513.518253,-74.020594,-11843.295072,-76.609550
59513.518563,-74.020594,-8290.306550,-76.609550
59513.518872,0.000000,-7772.162391,0.000000
59513.519182,-74.020594,-12435.459826,3600.648841
59513.519491,-1554.432478,-5995.668130,-1838.629195
59513.519801,592.164754,-10436.903782,3064.381992
59513.520111,0.000000,-4811.338623,-1532.190996
59513.520420,-1036.288319,-9844.739029,842.705048
59513.520730,666.185348,-7254.018232,-459.657299
59513.521039,-888.247130,-12287.418637,153.219100
59513.521349,-74.020594,-14211.954086,2374.896044
59513.521659,-74.020594,-13027.624579,-76.609550
59513.521968,-3552.988522,-9548.656652,-2451.505594
59513.522278,1998.556043,-8290.306550,-76.609550
59513.522587,0.000000,-3034.844362,0.000000
59513.522897,3552.988522,-1850.514855,1838.629195
59513.523206,592.164754,-9178.553681,3600.648841
59513.523516,0.000000,-7772.162391,76.609550
59513.523826,-1036.288319,-12953.603985,1225.752797
59513.524135,148.041188,-11695.253884,1455.581446
59513.524445,-666.185348,-8882.471304,-76.609550
59513.524754,-666.185348,-8290.306550,-689.485948
59513.525064,0.000000,-3923.091493,-2145.067394
59513.525373,0.000000,-7179.997637,0.000000
59513.525683,2294.638420,-9474.636058,-76.609550
59513.525993,-4145.153275,-11917.315666,0.000000
59513.526302,-2368.659014,-9548.656652,0.000000
59513.526612,-962.267725,-12435.459826,1225.752797
59513.526921,666.185348,-8808.450710,2374.896044
59513.527231,296.082377,-7105.977043,1915.238745
59513.527540,-74.020594,-9474.636058,2987.772442
59513.527850,1702.473667,-7105.977043,-76.609550
59513.528160,-2960.823768,-7920.203579,0.000000
59513.528469,0.000000,-7772.162391,2451.505594
59513.528779,-1850.514855,-10658.965565,-383.047749
59513.529088,0.000000,-7772.162391,0.000000
59513.529398,-1998.556043,-10140.821405,-842.705048
59513.529707,0.000000,-8956.491898,612.876398
59513.530017,-1776.494261,-11029.068536,306.438199
59513.530327,-2590.720797,-11325.150913,536.266849
59513.530636,-666.185348,-10658.965565,1149.143247
59513.530946,-74.020594,-13027.624579,3600.648841
59513.531255,1110.308913,-5625.565159,1149.143247
59513.531565,0.000000,-5995.668130,2451.505594
59513.531874,3478.967927,-6513.812290,2374.896044
59513.532184,0.000000,-7179.997637,1225.752797
59513.532494,1110.308913,-7402.059420,1762.019645
59513.532803,-1480.411884,-10584.944971,689.485948
59513.533113,-2368.659014,-12213.398043,536.266849
59513.533422,-1702.473667,-10066.800811,-995.924147
59513.533732,-518.144159,-11473.192101,1532.190996
59513.534041,1998.556043,-7105.977043,-76.609550
59513.534351,-666.185348,-8882.471304,842.705048
59513.534661,0.000000,-5995.668130,612.876398
59513.534970,3478.967927,-13027.624579,3600.648841
59513.535280,666.185348,-7179.997637,612.876398
59513.535589,1406.391290,-10658.965565,3294.210641
59513.535899,222.061783,-9548.656652,2298.286494
59513.536208,888.247130,-7328.038826,919.314598
59513.536518,0.000000,-7698.141797,1532.190996
59513.536828,592.164754,-4219.173869,153.219100
59513.537137,-148.041188,-11769.274478,2911.162892
59513.537447,2294.638420,-8882.471304,-76.609550
59513.537756,-1258.350101,-10955.047942,-1302.362347
59513.538066,0.000000,-11325.150913,1838.629195
59513.538375,-1258.350101,-12435.459826,-76.609550
59513.538685,-74.020594,-11843.295072,1149.143247
59513.538995,-1406.391290,-7920.203579,-306.438199
59513.539304,-1036.288319,-7476.080014,995.924147
59513.539614,444.123565,-4737.318029,0.000000
59513.539923,0.000000,-8364.327145,612.876398
59513.540233,1480.411884,-7179.997637,1532.190996
59513.540543,1110.308913,-12731.542202,3600.648841
59513.540852,-1554.432478,-7179.997637,0.000000
59513.541162,-296.082377,-13471.748144,2145.067394
59513.541471,-1850.514855,-10658.965565,-76.609550
59513.541781,-962.267725,-9474.636058,-383.047749
59513.542090,-3182.885551,-8586.388927,-842.705048
59513.542400,-1406.391290,-6439.791695,-842.705048
59513.542710,-1776.494261,-9474.636058,536.266849
59513.543019,0.000000,-5403.503377,-2451.505594
59513.543329,-1776.494261,-9548.656652,1838.629195
59513.543638,1628.453072,-8660.409521,3064.381992
59513.543948,-1258.350101,-7698.141797,383.047749
59513.544257,1036.288319,-9474.636058,2374.896044
59513.544567,-666.185348,-7105.977043,-689.485948
59513.544877,-740.205942,-9326.594869,1302.362347
59513.545186,-74.020594,-7402.059420,-459.657299
59513.545496,-1776.494261,-10584.944971,0.000000
59513.545805,592.164754,-8660.409521,-919.314598
59513.546115,-1184.329507,-11325.150913,0.000000
59513.546424,0.000000,-7179.997637,0.000000
59513.546734,0.000000,-11029.068536,0.000000
59513.547044,2294.638420,-11251.130318,2374.896044
59513.547353,-2368.659014,-5995.668130,0.000000
59513.547663,1702.473667,-8882.471304,3600.648841
59513.547972,888.247130,-4219.173869,1838.629195
59513.548282,222.061783,-7698.141797,1915.238745
59513.548591,2442.679609,-8068.244768,1378.971896
59513.548901,1036.288319,-12731.542202,2451.505594
59513.549211,1702.473667,-10214.842000,536.266849
59513.549520,-3256.906145,-10140.821405,0.000000
59513.549830,-1184.329507,-8956.491898,1225.752797
59513.550139,-74.020594,-9474.636058,-76.609550
59513.550449,-2368.659014,-8364.327145,153.219100
59513.550758,-74.020594,-8882.471304,-76.609550
59513.551068,-2072.576638,-10732.986159,1225.752797
59513.551378,962.267725,-9252.574275,1149.143247
59513.551687,-74.020594,-10658.965565,2528.115143
59513.551997,2220.617826,-6883.915261,2528.115143
59513.552306,1110.308913,-9474.636058,2374.896044
59513.552616,-666.185348,-6291.750507,0.000000
59513.552925,-2368.659014,-7179.997637,0.000000
59513.553235,-74.020594,-10658.965565,-76.609550
59513.553545,-2738.761985,-5329.482782,-2681.334243
59513.553854,-2368.659014,-9548.656652,612.876398
59513.554164,-1480.411884,-7179.997637,0.000000
59513.554473,-222.061783,-13915.871710,1838.629195
59513.554783,1480.411884,-11473.192101,1838.629195
59513.555092,-222.061783,-13101.645173,2681.334243
59513.555402,-74.020594,-9474.636058,-76.609550
59513.555712,-1554.432478,-4737.318029,-1915.238745
59513.556021,-2590.720797,-2442.679609,-3447.429741
59513.556331,0.000000,-5403.503377,612.876398
59513.556640,-1258.350101,-10362.883188,-76.609550
59513.556950,0.000000,-9548.656652,1225.752797
59513.557259,-1776.494261,-12361.439231,919.314598
59513.557569,1406.391290,-9548.656652,2221.676944
59513.557879,-296.082377,-9474.636058,1838.629195
59513.558188,-148.041188,-6809.894666,306.438199
59513.558498,-74.020594,-9474.636058,-76.609550
59513.558807,-74.020594,-9474.636058,-383.047749
59513.559117,-2294.638420,-7476.080014,-2834.553343
59513.559426,-2368.659014,-11029.068536,2451.505594
59513.559736,2294.638420,-8290.306550,-76.609550
59513.560046,0.000000,-7772.162391,612.876398
59513.560355,2220.617826,-5699.585753,1762.019645
59513.560665,1850.514855,-10807.006753,3447.429741
59513.560974,2368.659014,-8956.491898,2068.457845
59513.561284,-962.267725,-10140.821405,306.438199
59513.561593,-666.185348,-11843.295072,2374.896044
59513.561903,-74.020594,-11251.130318,-76.609550
59513.562213,-1998.556043,-8586.388927,-1608.800546
59513.562522,1998.556043,-9844.739029,2451.505594
59513.562832,814.226536,-9030.512492,1762.019645
59513.563141,592.164754,-4811.338623,0.000000
59513.563451,518.144159,-9030.512492,2374.896044
59513.563761,-518.144159,-6735.874072,459.657299
59513.564070,-2960.823768,-9548.656652,-459.657299
59513.564380,-2368.659014,-9992.780217,-689.485948
59513.564689,-1776.494261,-11325.150913,1838.629195
59513.564999,-666.185348,-13027.624579,2987.772442
59513.565308,1110.308913,-8882.471304,-76.609550
59513.565618,-2220.617826,-5995.668130,612.876398
59513.565928,4145.153275,-6957.935855,3830.477490
59513.566237,518.144159,-9030.512492,1762.019645
59513.566547,1702.473667,-9474.636058,1149.143247
59513.566856,-2664.741391,-11917.315666,612.876398
59513.567166,-3182.885551,-10066.800811,-306.438199
59513.567475,-3627.009116,-7772.162391,-1072.533697
59513.567785,-2960.823768,-6587.832884,306.438199
59513.568095,888.247130,-6069.688724,1378.971896
59513.568404,2294.638420,-11843.295072,4213.525239
59513.568714,2294.638420,-7402.059420,1149.143247
59513.569023,0.000000,-13101.645173,3677.258390
59513.569333,-74.020594,-10658.965565,-76.609550
59513.569642,-1850.514855,-12435.459826,-76.609550
59513.569952,-2886.803174,-7328.038826,-919.314598
59513.570262,-1776.494261,-6883.915261,-536.266849
59513.570571,-740.205942,-8068.244768,153.219100
59513.570881,0.000000,-5995.668130,0.000000
59513.571190,1184.329507,-11325.150913,2451.505594
59513.571500,3997.112087,-11769.274478,4826.401637
59513.571809,-74.020594,-12731.542202,1762.019645
59513.572119,-2368.659014,-9548.656652,0.000000
59513.572429,-74.020594,-11843.295072,-76.609550
59513.572738,-74.020594,-8586.388927,-76.609550
59513.573048,-2368.659014,-6735.874072,-612.876398
59513.573357,-1554.432478,-7476.080014,-306.438199
59513.573667,518.144159,-6513.812290,-459.657299
59513.573976,0.000000,-7179.997637,612.876398
59513.574286,1184.329507,-7772.162391,2451.505594
59513.574596,2664.741391,-14878.139434,6281.983084
59513.574905,1110.308913,-8586.388927,229.828649
59513.575215,-1036.288319,-11029.068536,1225.752797
59513.575524,-74.020594,-8290.306550,-76.609550
59513.575834,-2146.597232,-8438.347739,-612.876398
59513.576143,-1406.391290,-8290.306550,-766.095498
59513.576453,148.041188,-8438.347739,-76.609550
59513.576763,1554.432478,-10584.944971,2604.724693
59513.577072,1406.391290,-6587.832884,612.876398
59513.577382,0.000000,-9548.656652,3064.381992
59513.577691,592.164754,-8364.327145,3677.258390
59513.578001,-74.020594,-9474.636058,-76.609550
59513.578310,-2368.659014,-6587.832884,0.000000
59513.578620,-74.020594,-11251.130318,2374.896044
59513.578930,-1184.329507,-8956.491898,306.438199
59513.579239,-148.041188,-8438.347739,153.219100
59513.579549,296.082377,-11177.109724,1838.629195
59513.579858,1554.432478,-9400.615463,1991.848295
59513.580168,-962.267725,-11251.130318,536.266849
59513.580477,-2368.659014,-6587.832884,0.000000
59513.580787,-2072.576638,-10140.821405,3064.381992
59513.581097,-74.020594,-8290.306550,-76.609550
59513.581406,-4737.318029,-7179.997637,0.000000
59513.581716,-74.020594,-11547.212695,2374.896044
59513.582025,-1184.329507,-8956.491898,612.876398
59513.582335,1702.473667,-11177.109724,3600.648841
59513.582644,2960.823768,-8068.244768,3294.210641
59513.582954,1332.370696,-9622.677246,3294.210641
59513.583264,1110.308913,-5921.647536,1149.143247
59513.583573,-3034.844362,-7476.080014,-995.924147
59513.583883,-3552.988522,-7179.997637,0.000000
59513.584192,-2442.679609,-13027.624579,-689.485948
59513.584502,-5773.606348,-9844.739029,-2451.505594
59513.584811,-592.164754,-11473.192101,1532.190996
59513.585121,0.000000,-9548.656652,1225.752797
59513.585431,1776.494261,-7105.977043,1915.238745
59513.585740,518.144159,-9326.594869,2987.772442
59513.586050,2664.741391,-6587.832884,1762.019645
59513.586359,-74.020594,-10658.965565,2374.896044
59513.586669,-74.020594,-6513.812290,-76.609550
59513.586979,-5551.544565,-7179.997637,-2911.162892
59513.587288,-2368.659014,-9844.739029,306.438199
59513.587598,-74.020594,-9474.636058,-689.485948
59513.587907,0.000000,-9548.656652,1225.752797
59513.588217,1184.329507,-7179.997637,1225.752797
59513.588526,962.267725,-10732.986159,2451.505594
59513.588836,1480.411884,-7179.997637,306.438199
59513.589146,-1628.453072,-10584.944971,612.876398
59513.589455,-74.020594,-9178.553681,-76.609550
59513.589765,-1258.350101,-11251.130318,-76.609550
59513.590074,-4441.235652,-7179.997637,-2987.772442
59513.590384,1036.288319,-10510.924376,1991.848295
59513.590693,1480.411884,-7920.203579,2374.896044
59513.591003,2368.659014,-5403.503377,3677.258390
59513.591313,2146.597232,-7550.100608,2834.553343
59513.591622,2072.576638,-6291.750507,1225.752797
