#time,accel_x,accel_y,accel_z
163423.472419,0.000000,-7179.997637,0.000000
163423.472739,370.102971,-9622.677246,-76.609550
163423.473058,444.123565,-9548.656652,0.000000
163423.473377,0.000000,-9326.594869,0.000000
163423.473697,0.000000,-7846.182985,-995.924147
163423.474016,-74.020594,-8882.471304,-76.609550
163423.474336,-666.185348,-9178.553681,-76.609550
163423.474655,-2368.659014,-7179.997637,0.000000
163423.474974,370.102971,-9474.636058,842.705048
163423.475294,-74.020594,-10658.965565,1762.019645
163423.475613,-2368.659014,-8364.327145,0.000000
163423.475933,-666.185348,-9474.636058,-536.266849
163423.476252,-444.123565,-9548.656652,-383.047749
163423.476571,-592.164754,-9548.656652,-689.485948
163423.476891,-666.185348,-8512.368333,-1302.362347
163423.477210,0.000000,-9548.656652,0.000000
163423.477530,-74.020594,-8882.471304,-842.705048
163423.477849,0.000000,-9548.656652,0.000000
163423.478168,1110.308913,-11843.295072,-76.609550
163423.478488,962.267725,-10658.965565,1149.143247
163423.478807,0.000000,-8586.388927,-612.876398
163423.479127,-222.061783,-9326.594869,-459.657299
163423.479446,-74.020594,-9252.574275,-689.485948
163423.479765,-296.082377,-9178.553681,0.000000
163423.480085,814.226536,-8586.388927,0.000000
163423.480404,0.000000,-8956.491898,612.876398
163423.480724,444.123565,-9548.656652,306.438199
163423.481043,2294.638420,-10658.965565,-76.609550
163423.481362,-1184.329507,-7179.997637,-689.485948
163423.481682,2294.638420,-11547.212695,1762.019645
163423.482001,-444.123565,-8956.491898,0.000000
163423.482321,-740.205942,-9104.533087,-153.219100
163423.482640,-740.205942,-8956.491898,153.219100
163423.482959,-2368.659014,-8364.327145,0.000000
163423.483279,-1776.494261,-9548.656652,0.000000
163423.483598,-1184.329507,-8956.491898,-2451.505594
163423.483918,296.082377,-10881.027347,1302.362347
163423.484237,-1258.350101,-9178.553681,-1302.362347
163423.484556,-74.020594,-8882.471304,-1608.800546
163423.484876,-74.020594,-10436.903782,-76.609550
163423.485195,0.000000,-8882.471304,-612.876398
163423.485515,-666.185348,-10066.800811,-536.266849
163423.485834,-518.144159,-10584.944971,-536.266849
163423.486153,-2368.659014,-8364.327145,0.000000
163423.486473,-592.164754,-8142.265362,-1915.238745
163423.486792,0.000000,-9548.656652,306.438199
163423.487112,1702.473667,-10658.965565,-76.609550
163423.487431,-74.020594,-10658.965565,-76.609550
163423.487751,1184.329507,-11547.212695,2374.896044
163423.488070,0.000000,-8956.491898,0.000000
163423.488389,222.061783,-9400.615463,536.266849
163423.488709,-74.020594,-9104.533087,766.095498
163423.489028,0.000000,-7772.162391,0.000000
163423.489348,-74.020594,-9548.656652,766.095498
163423.489667,148.041188,-9992.780217,995.924147
163423.489986,-74.020594,-9770.718434,1762.019645
163423.490306,-74.020594,-8808.450710,-383.047749
163423.490625,0.000000,-9548.656652,1225.752797
163423.490945,-1776.494261,-8956.491898,0.000000
163423.491264,-666.185348,-9474.636058,-153.219100
163423.491583,-814.226536,-9400.615463,-229.828649
163423.491903,-888.247130,-9326.594869,-459.657299
163423.492222,-666.185348,-7698.141797,-2681.334243
163423.492542,-296.082377,-9992.780217,-689.485948
163423.492861,-888.247130,-9252.574275,-766.095498
163423.493180,-518.144159,-10140.821405,-995.924147
163423.493500,-370.102971,-10140.821405,-842.705048
163423.493819,592.164754,-11029.068536,1762.019645
163423.494139,1554.432478,-11251.130318,1915.238745
163423.494458,1702.473667,-9474.636058,-689.485948
163423.494777,0.000000,-8364.327145,0.000000
163423.495097,1480.411884,-9104.533087,0.000000
163423.495416,1110.308913,-6661.853478,-1608.800546
163423.495736,2590.720797,-9326.594869,229.828649
163423.496055,2072.576638,-9474.636058,153.219100
163423.496374,1406.391290,-9474.636058,0.000000
163423.496694,3478.967927,-10658.965565,995.924147
163423.497013,3775.050304,-9474.636058,-76.609550
163423.497333,2368.659014,-8364.327145,306.438199
163423.497652,3849.070898,-8808.450710,0.000000
163423.497971,2960.823768,-7920.203579,1225.752797
163423.498291,2960.823768,-7179.997637,0.000000
163423.498610,5255.462188,-7994.224174,76.609550
163423.498930,5477.523971,-8956.491898,612.876398
163423.499249,4737.318029,-9104.533087,153.219100
163423.499568,4219.173869,-9548.656652,-689.485948
163423.499888,4663.297435,-10066.800811,-1302.362347
163423.500207,4367.215058,-9770.718434,-1455.581446
163423.500527,3849.070898,-8364.327145,-4290.134789
163423.500846,6513.812290,-11325.150913,766.095498
163423.501165,7031.956449,-10658.965565,-689.485948
163423.501485,5329.482782,-7476.080014,0.000000
163423.501804,7476.080014,-10066.800811,-459.657299
163423.502124,5625.565159,-11473.192101,-459.657299
163423.502443,3701.029710,-12139.377449,-383.047749
163423.502763,2368.659014,-10732.986159,-1455.581446
163423.503082,3478.967927,-11103.089130,-383.047749
163423.503401,3923.091493,-10658.965565,-76.609550
163423.503721,2368.659014,-6587.832884,0.000000
163423.504040,5551.544565,-7105.977043,1455.581446
163423.504360,5847.626942,-6735.874072,2374.896044
163423.504679,2368.659014,-4811.338623,-1838.629195
163423.504998,4663.297435,-6661.853478,-2221.676944
163423.505318,3701.029710,-8808.450710,-1608.800546
163423.505637,3404.947333,-11399.171507,-1149.143247
163423.505957,2886.803174,-13915.871710,-383.047749
163423.506276,2590.720797,-15618.345376,919.314598
163423.506595,3478.967927,-15100.201217,3294.210641
163423.506915,2738.761985,-10658.965565,3600.648841
163423.507234,4071.132681,-7105.977043,-76.609550
163423.507554,2664.741391,-6587.832884,1149.143247
163423.507873,0.000000,-4219.173869,-1838.629195
163423.508192,1480.411884,-6439.791695,-689.485948
163423.508512,666.185348,-8068.244768,-1302.362347
163423.508831,-1184.329507,-9474.636058,-1302.362347
163423.509151,-2738.761985,-9622.677246,-2451.505594
163423.509470,-2368.659014,-10732.986159,-612.876398
163423.509789,888.247130,-10658.965565,0.000000
163423.510109,2368.659014,-10732.986159,919.314598
163423.510428,2294.638420,-11843.295072,1149.143247
163423.510748,3108.864956,-13323.706956,2987.772442
163423.511067,2812.782580,-9844.739029,919.314598
163423.511386,2294.638420,-8512.368333,-995.924147
163423.511706,0.000000,-7698.141797,-3983.696590
163423.512025,-2368.659014,-7179.997637,-4903.011187
163423.512345,0.000000,-9548.656652,-3677.258390
163423.512664,1924.535449,-11843.295072,-76.609550
163423.512983,0.000000,-10732.986159,2451.505594
163423.513303,2664.741391,-9104.533087,3064.381992
163423.513622,2886.803174,-7105.977043,-76.609550
163423.513942,5181.441594,-9030.512492,2374.896044
163423.514261,6217.729913,-8142.265362,4136.915689
163423.514580,6217.729913,-7476.080014,5439.278036
163423.514900,4145.153275,-5699.585753,1302.362347
163423.515219,-2368.659014,-4811.338623,-6128.763984
163423.515539,-3627.009116,-11843.295072,-6205.373534
163423.515858,-3034.844362,-12213.398043,-7048.078582
163423.516177,-1776.494261,-14508.036463,-3217.601092
163423.516497,-74.020594,-14285.974681,-612.876398
163423.516816,-74.020594,-11843.295072,-2528.115143
163423.517136,5107.421000,-9918.759623,1072.533697
163423.517455,11473.192101,-8142.265362,6128.763984
163423.517774,13545.768739,-5033.400406,9576.193725
163423.518094,10140.821405,-1480.411884,7584.345430
163423.518413,5847.626942,-2146.597232,2068.457845
163423.518733,7031.956449,-9474.636058,-229.828649
163423.519052,2812.782580,-11917.315666,-459.657299
163423.519372,-1776.494261,-11325.150913,-3370.820191
163423.519691,-2960.823768,-12805.562797,-6128.763984
163423.520010,-74.020594,-14211.954086,-7737.564530
163423.520330,-740.205942,-13397.727550,-5209.449386
163423.520649,2886.803174,-11843.295072,-1225.752797
163423.520969,4811.338623,-8882.471304,1072.533697
163423.521288,6883.915261,-9252.574275,4213.525239
163423.521607,6661.853478,-5847.626942,3370.820191
163423.521927,6291.750507,-6217.729913,4290.134789
163423.522246,6291.750507,-7920.203579,6052.154434
163423.522566,4959.379811,-7402.059420,4826.401637
163423.522885,3552.988522,-5403.503377,612.876398
163423.523204,3478.967927,-8290.306550,-76.609550
163423.523524,-2294.638420,-10436.903782,-3677.258390
163423.523843,-4515.256246,-13175.665768,-5669.106685
163423.524163,-6587.832884,-14434.015869,-6358.592633
163423.524482,-6439.791695,-15988.448347,-3753.867940
163423.524801,-6513.812290,-12213.398043,-7354.516781
163423.525121,-4145.153275,-11621.233289,-766.095498
163423.525440,-962.267725,-8142.265362,1149.143247
163423.525760,-148.041188,-7105.977043,3600.648841
163423.526079,2294.638420,-4737.318029,3600.648841
163423.526398,2368.659014,-5107.421000,5132.839837
163423.526718,814.226536,-5181.441594,4136.915689
163423.527037,-2294.638420,-8364.327145,1532.190996
163423.527357,-2442.679609,-11843.295072,612.876398
163423.527676,-5477.523971,-10955.047942,-1608.800546
163423.527995,-5403.503377,-11843.295072,-3294.210641
163423.528315,-9104.533087,-11695.253884,-4979.620737
163423.528634,-7179.997637,-13027.624579,-4979.620737
163423.528954,-5551.544565,-11843.295072,-1302.362347
163423.529273,-1184.329507,-10732.986159,2451.505594
163423.529592,666.185348,-7328.038826,3677.258390
163423.529912,1702.473667,-4737.318029,5745.716235
163423.530231,222.061783,-3182.885551,4290.134789
163423.530551,-3552.988522,-3627.009116,0.000000
163423.530870,-2294.638420,-8734.430116,919.314598
163423.531189,-3256.906145,-9548.656652,0.000000
163423.531509,-4737.318029,-10436.903782,-1225.752797
163423.531828,-5403.503377,-11843.295072,-4979.620737
163423.532148,-7105.977043,-12065.356855,-4290.134789
163423.532467,-4515.256246,-10955.047942,-4979.620737
163423.532786,-1184.329507,-10066.800811,-3064.381992
163423.533106,-74.020594,-10436.903782,-1455.581446
163423.533425,1702.473667,-8808.450710,612.876398
163423.533745,4663.297435,-6513.812290,2374.896044
163423.534064,5329.482782,-6587.832884,4060.306139
163423.534384,7254.018232,-8068.244768,4213.525239
163423.534703,6513.812290,-8512.368333,4213.525239
163423.535022,4441.235652,-8290.306550,2604.724693
163423.535342,814.226536,-10658.965565,-1685.410096
163423.535661,-2368.659014,-11917.315666,-4596.572988
163423.535981,-666.185348,-14211.954086,-3370.820191
163423.536300,-74.020594,-13915.871710,-2528.115143
163423.536619,-4145.153275,-9548.656652,-6435.202183
163423.536939,1110.308913,-9474.636058,-1608.800546
163423.537258,3552.988522,-7179.997637,842.705048
163423.537578,6217.729913,-5403.503377,2528.115143
163423.537897,6513.812290,-6439.791695,3294.210641
163423.538216,6291.750507,-7698.141797,5745.716235
163423.538536,5255.462188,-7846.182985,3907.087040
163423.538855,2368.659014,-7772.162391,0.000000
163423.539175,1184.329507,-11917.315666,612.876398
163423.539494,1110.308913,-13027.624579,-689.485948
163423.539813,-3552.988522,-9548.656652,-4903.011187
163423.540133,-3330.926739,-12139.377449,-5592.497135
163423.540452,-4737.318029,-11547.212695,-5515.887586
163423.540772,-3108.864956,-10436.903782,-4366.744339
163423.541091,-1184.329507,-8882.471304,-1915.238745
163423.541411,1110.308913,-8882.471304,-76.609550
163423.541730,2294.638420,-8956.491898,4136.915689
163423.542050,2368.659014,-5107.421000,3677.258390
163423.542369,4663.297435,-5329.482782,4519.963438
163423.542689,5847.626942,-9178.553681,5439.278036
163423.543008,0.000000,-7476.080014,2451.505594
163423.543328,-148.041188,-10436.903782,0.000000
163423.543647,-1850.514855,-12435.459826,-459.657299
163423.543967,-3108.864956,-12361.439231,-2451.505594
163423.544286,-4145.153275,-10732.986159,-3447.429741
163423.544605,-4219.173869,-11029.068536,-2451.505594
163423.544925,-3627.009116,-11769.274478,-3140.991542
163423.545244,-3923.091493,-10214.842000,-1302.362347
163423.545564,-2442.679609,-8290.306550,-1915.238745
163423.545883,-740.205942,-9474.636058,2374.896044
163423.546203,-2368.659014,-6587.832884,1225.752797
163423.546522,74.020594,-6513.812290,2911.162892
163423.546842,148.041188,-6217.729913,2757.943793
163423.547161,-1184.329507,-8364.327145,842.705048
163423.547481,-2664.741391,-9326.594869,-612.876398
163423.547800,-2442.679609,-11547.212695,-689.485948
163423.548120,-4589.276840,-9770.718434,-1762.019645
163423.548439,-2442.679609,-11251.130318,-2834.553343
163423.548759,-2146.597232,-11917.315666,-1991.848295
163423.549078,2294.638420,-12435.459826,-76.609550
163423.549397,-1184.329507,-8808.450710,-766.095498
163423.549717,-1776.494261,-9178.553681,-1915.238745
163423.550036,-1258.350101,-9696.697840,-995.924147
163423.550356,0.000000,-9252.574275,2451.505594
163423.550675,888.247130,-8364.327145,2451.505594
163423.550995,2738.761985,-9178.553681,2451.505594
163423.551314,5847.626942,-9474.636058,3600.648841
163423.551634,2146.597232,-6291.750507,1455.581446
163423.551953,0.000000,-5551.544565,-1302.362347
163423.552273,1702.473667,-10658.965565,-383.047749
163423.552592,-592.164754,-9474.636058,-919.314598
163423.552912,0.000000,-10214.842000,-1072.533697
163423.553231,518.144159,-10658.965565,-306.438199
163423.553551,2368.659014,-11325.150913,2145.067394
163423.553870,1776.494261,-8068.244768,-1149.143247
163423.554190,0.000000,-7772.162391,-1225.752797
163423.554509,-370.102971,-10658.965565,-2834.553343
163423.554828,-1406.391290,-11251.130318,-2528.115143
163423.555148,-1258.350101,-9548.656652,-2451.505594
163423.555467,1554.432478,-10510.924376,306.438199
163423.555787,888.247130,-9548.656652,0.000000
163423.556106,1850.514855,-8660.409521,842.705048
163423.556426,2886.803174,-6735.874072,919.314598
163423.556745,1184.329507,-5995.668130,0.000000
163423.557065,1110.308913,-7550.100608,-1455.581446
163423.557384,296.082377,-8364.327145,0.000000
163423.557704,1184.329507,-9548.656652,1225.752797
163423.558023,3330.926739,-11843.295072,1149.143247
163423.558343,0.000000,-7772.162391,0.000000
163423.558662,1776.494261,-10066.800811,383.047749
163423.558982,-888.247130,-9844.739029,-2298.286494
163423.559301,-2960.823768,-10807.006753,-3217.601092
163423.559620,-1554.432478,-11843.295072,-1302.362347
163423.559940,-74.020594,-11251.130318,-76.609550
163423.560259,-1258.350101,-8586.388927,229.828649
163423.560579,-2664.741391,-5995.668130,0.000000
163423.560898,0.000000,-6735.874072,2911.162892
163423.561218,592.164754,-4811.338623,2757.943793
163423.561537,-1184.329507,-5477.523971,0.000000
163423.561857,-1036.288319,-8438.347739,306.438199
163423.562176,-1998.556043,-8660.409521,689.485948
163423.562496,-2368.659014,-10436.903782,-153.219100
163423.562815,-74.020594,-11843.295072,-1302.362347
163423.563135,-1702.473667,-12139.377449,-76.609550
163423.563454,-666.185348,-11843.295072,-383.047749
163423.563774,-3775.050304,-10732.986159,-3140.991542
163423.564093,-5329.482782,-9548.656652,-5592.497135
163423.564413,-4737.318029,-9548.656652,-4903.011187
163423.564732,-1554.432478,-9474.636058,229.828649
163423.565051,-148.041188,-8142.265362,459.657299
163423.565371,370.102971,-7402.059420,1838.629195
163423.565690,814.226536,-6513.812290,3294.210641
163423.566010,1184.329507,-5995.668130,1838.629195
163423.566329,0.000000,-5699.585753,0.000000
163423.566649,-296.082377,-9326.594869,919.314598
163423.566968,-74.020594,-10140.821405,2757.943793
163423.567288,-1184.329507,-9548.656652,0.000000
163423.567607,1702.473667,-12731.542202,-76.609550
163423.567927,1184.329507,-11621.233289,153.219100
163423.568246,-296.082377,-9548.656652,-766.095498
163423.568566,-2368.659014,-9252.574275,-2451.505594
163423.568885,-2812.782580,-11695.253884,-1378.971896
163423.569205,-1036.288319,-11177.109724,-1455.581446
163423.569524,-370.102971,-9770.718434,-76.609550
163423.569843,-2368.659014,-6587.832884,0.000000
163423.570163,1702.473667,-9474.636058,1762.019645
163423.570482,4071.132681,-7994.224174,2374.896044
163423.570802,1924.535449,-6143.709319,1838.629195
163423.571121,1406.391290,-6883.915261,-306.438199
163423.571441,888.247130,-8808.450710,-383.047749
163423.571760,370.102971,-9474.636058,1149.143247
163423.572080,0.000000,-7772.162391,0.000000
163423.572399,1702.473667,-11991.336260,-995.924147
163423.572719,1332.370696,-11769.274478,-1302.362347
163423.573038,148.041188,-10140.821405,-2068.457845
163423.573358,-2146.597232,-9474.636058,-3753.867940
163423.573677,-74.020594,-11843.295072,-2221.676944
163423.573997,1702.473667,-12879.583391,-383.047749
163423.574316,2294.638420,-9622.677246,536.266849
163423.574636,0.000000,-5995.668130,0.000000
163423.574955,3108.864956,-9104.533087,4213.525239
163423.575274,592.164754,-5995.668130,2451.505594
163423.575594,2960.823768,-6217.729913,2298.286494
163423.575913,1258.350101,-6365.771101,459.657299
163423.576233,74.020594,-7920.203579,0.000000
163423.576552,-296.082377,-8512.368333,0.000000
163423.576872,148.041188,-10066.800811,229.828649
163423.577191,-74.020594,-12139.377449,-76.609550
163423.577511,-74.020594,-13027.624579,-689.485948
163423.577830,-2146.597232,-9326.594869,-3447.429741
163423.578150,-3627.009116,-12731.542202,-2221.676944
163423.578469,-5847.626942,-11621.233289,-4903.011187
163423.578789,-3627.009116,-11103.089130,-2757.943793
163423.579108,-2664.741391,-10362.883188,-459.657299
163423.579428,-518.144159,-9474.636058,612.876398
163423.579747,0.000000,-5403.503377,1225.752797
163423.580066,888.247130,-4811.338623,0.000000
163423.580386,1776.494261,-7105.977043,3524.039291
163423.580705,814.226536,-6957.935855,-76.609550
163423.581025,-888.247130,-7402.059420,-383.047749
163423.581344,1480.411884,-11103.089130,2374.896044
163423.581664,-1776.494261,-10732.986159,-995.924147
163423.581983,-740.205942,-12213.398043,-536.266849
163423.582303,-592.164754,-11177.109724,-536.266849
163423.582622,-4737.318029,-9548.656652,0.000000
163423.582942,-6513.812290,-9548.656652,-3140.991542
163423.583261,-4737.318029,-9548.656652,-3983.696590
163423.583581,-1776.494261,-9548.656652,612.876398
163423.583900,1332.370696,-8068.244768,3064.381992
163423.584220,1110.308913,-7994.224174,-76.609550
163423.584539,1036.288319,-8734.430116,2757.943793
163423.584858,-296.082377,-6365.771101,1608.800546
163423.585178,-592.164754,-5995.668130,306.438199
163423.585497,-1702.473667,-8068.244768,-1302.362347
163423.585817,-3256.906145,-9252.574275,-766.095498
163423.586136,-1258.350101,-10066.800811,-689.485948
163423.586456,-888.247130,-9918.759623,-995.924147
163423.586775,74.020594,-10140.821405,-1838.629195
163423.587095,0.000000,-9548.656652,-1149.143247
163423.587414,-666.185348,-9178.553681,-4366.744339
163423.587734,-1998.556043,-10288.862594,-2987.772442
163423.588053,-1036.288319,-11325.150913,-2911.162892
163423.588373,222.061783,-10658.965565,0.000000
163423.588692,1406.391290,-10658.965565,1149.143247
163423.589012,2220.617826,-11547.212695,1762.019645
163423.589331,2294.638420,-8290.306550,2987.772442
163423.589651,2886.803174,-7105.977043,1149.143247
163423.589970,1184.329507,-5995.668130,0.000000
163423.590289,0.000000,-5403.503377,0.000000
163423.590609,814.226536,-7698.141797,-689.485948
163423.590928,1480.411884,-9474.636058,1302.362347
163423.591248,1480.411884,-9770.718434,536.266849
163423.591567,1110.308913,-10658.965565,383.047749
163423.591887,1998.556043,-11843.295072,-76.609550
163423.592206,-370.102971,-10510.924376,-3677.258390
163423.592526,-4737.318029,-10436.903782,-3677.258390
163423.592845,-1258.350101,-12435.459826,-2834.553343
163423.593165,-666.185348,-13027.624579,-76.609550
163423.593484,0.000000,-9548.656652,0.000000
163423.593804,-370.102971,-8734.430116,-383.047749
163423.594123,-444.123565,-7550.100608,536.266849
163423.594443,222.061783,-6513.812290,766.095498
163423.594762,0.000000,-7179.997637,-536.266849
163423.595081,-74.020594,-9474.636058,-383.047749
163423.595401,-2368.659014,-7772.162391,612.876398
163423.595720,1110.308913,-10066.800811,1149.143247
163423.596040,2294.638420,-11843.295072,2374.896044
163423.596359,2294.638420,-10658.965565,536.266849
163423.596679,0.000000,-9548.656652,2451.505594
163423.596998,-296.082377,-9696.697840,-1762.019645
163423.597318,-2220.617826,-11399.171507,-3294.210641
163423.597637,-2294.638420,-12361.439231,-2451.505594
163423.597957,-3256.906145,-10140.821405,-1838.629195
163423.598276,-2738.761985,-9548.656652,-1685.410096
163423.598596,-1184.329507,-9548.656652,153.219100
163423.598915,2294.638420,-10658.965565,3907.087040
163423.599235,518.144159,-5033.400406,842.705048
163423.599554,814.226536,-7698.141797,2374.896044
163423.599874,0.000000,-7179.997637,1225.752797
163423.600193,-666.185348,-7402.059420,1455.581446
163423.600512,0.000000,-7698.141797,1838.629195
163423.600832,0.000000,-9844.739029,383.047749
163423.601151,-2294.638420,-8660.409521,-2451.505594
163423.601471,-1406.391290,-10436.903782,-536.266849
163423.601790,-3627.009116,-8660.409521,-4213.525239
163423.602110,-4737.318029,-9844.739029,-4903.011187
163423.602429,-2146.597232,-12953.603985,-3064.381992
163423.602749,-2368.659014,-11917.315666,-1072.533697
163423.603068,-1184.329507,-10436.903782,-995.924147
163423.603388,0.000000,-9992.780217,0.000000
163423.603707,1628.453072,-8660.409521,1762.019645
163423.604027,2368.659014,-5107.421000,153.219100
163423.604346,4663.297435,-6513.812290,1915.238745
163423.604666,2368.659014,-7624.121203,2757.943793
163423.604985,2294.638420,-7994.224174,2068.457845
163423.605304,1554.432478,-9474.636058,3600.648841
163423.605624,592.164754,-9548.656652,0.000000
163423.605943,-2368.659014,-9844.739029,-2451.505594
163423.606263,-1850.514855,-11251.130318,-1915.238745
163423.606582,-3034.844362,-11547.212695,-3370.820191
163423.606902,-3478.967927,-11325.150913,-3677.258390
163423.607221,-666.185348,-11843.295072,-3140.991542
163423.607541,-1480.411884,-10510.924376,-1608.800546
163423.607860,-1776.494261,-8660.409521,-612.876398
163423.608180,0.000000,-8364.327145,2451.505594
163423.608499,4071.132681,-8290.306550,2987.772442
163423.608819,222.061783,-2442.679609,0.000000
163423.609138,1628.453072,-6365.771101,1072.533697
163423.609458,-444.123565,-7476.080014,229.828649
163423.609777,0.000000,-8734.430116,1225.752797
163423.610097,-74.020594,-9400.615463,-383.047749
163423.610416,-888.247130,-12213.398043,1149.143247
163423.610735,-1998.556043,-10732.986159,-2834.553343
163423.611055,-2368.659014,-10807.006753,-3140.991542
163423.611374,-2516.700203,-11621.233289,-3447.429741
163423.611694,-3552.988522,-10732.986159,-4136.915689
163423.612013,0.000000,-10732.986159,-1838.629195
163423.612333,1702.473667,-10214.842000,-76.609550
163423.612652,518.144159,-8734.430116,919.314598
163423.612972,0.000000,-7179.997637,612.876398
163423.613291,3478.967927,-8290.306550,3600.648841
163423.613611,2368.659014,-7254.018232,3753.867940
163423.613930,0.000000,-7179.997637,383.047749
163423.614250,-1702.473667,-7994.224174,306.438199
163423.614569,-1554.432478,-8586.388927,919.314598
163423.614889,-222.061783,-8660.409521,1072.533697
163423.615208,-1110.308913,-9548.656652,-1225.752797
163423.615527,-814.226536,-10362.883188,-76.609550
163423.615847,-666.185348,-9178.553681,-1915.238745
163423.616166,-3701.029710,-9548.656652,-3370.820191
163423.616486,-1258.350101,-11843.295072,-2528.115143
163423.616805,-2220.617826,-11251.130318,-1838.629195
163423.617125,-1554.432478,-10584.944971,-1149.143247
163423.617444,-1036.288319,-9770.718434,-383.047749
163423.617764,-370.102971,-9992.780217,842.705048
163423.618083,592.164754,-9104.533087,2451.505594
163423.618403,1110.308913,-7402.059420,1225.752797
163423.618722,-74.020594,-8290.306550,-76.609550
163423.619042,-1776.494261,-6661.853478,0.000000
163423.619361,888.247130,-7476.080014,1225.752797
163423.619681,3478.967927,-8290.306550,1149.143247
163423.620000,2072.576638,-9030.512492,1225.752797
163423.620320,1628.453072,-9252.574275,689.485948
163423.620639,-370.102971,-9178.553681,-383.047749
163423.620958,-888.247130,-10658.965565,-383.047749
163423.621278,-1036.288319,-11177.109724,-4060.306139
163423.621597,-2368.659014,-11473.192101,-2451.505594
163423.621917,-148.041188,-11769.274478,153.219100
163423.622236,-74.020594,-13027.624579,1762.019645
163423.622556,-1776.494261,-6587.832884,-2451.505594
163423.622875,2146.597232,-7698.141797,-76.609550
163423.623195,296.082377,-6513.812290,919.314598
163423.623514,-962.267725,-7772.162391,229.828649
163423.623834,-1480.411884,-8364.327145,842.705048
163423.624153,0.000000,-7328.038826,2451.505594
163423.624473,-1184.329507,-6957.935855,153.219100
163423.624792,148.041188,-9104.533087,306.438199
163423.625112,1110.308913,-11843.295072,-76.609550
163423.625431,-74.020594,-8512.368333,-1762.019645
163423.625750,-4145.153275,-7772.162391,-4290.134789
163423.626070,-1850.514855,-12435.459826,-4290.134789
163423.626389,-1998.556043,-12953.603985,-3140.991542
163423.626709,-1924.535449,-12731.542202,-2298.286494
163423.627028,-1554.432478,-11251.130318,-1608.800546
163423.627348,-74.020594,-10362.883188,-76.609550
163423.627667,518.144159,-7698.141797,842.705048
163423.627987,0.000000,-4219.173869,0.000000
163423.628306,2664.741391,-7328.038826,3294.210641
163423.628626,3478.967927,-8068.244768,4213.525239
163423.628945,0.000000,-4811.338623,2451.505594
163423.629265,2886.803174,-7179.997637,2834.553343
163423.629584,1332.370696,-8290.306550,1225.752797
163423.629904,-666.185348,-9474.636058,306.438199
163423.630223,-1850.514855,-9474.636058,-1915.238745
163423.630543,-2442.679609,-10658.965565,-3294.210641
163423.630862,-2590.720797,-14211.954086,-3830.477490
163423.631181,-3627.009116,-12731.542202,-4366.744339
163423.631501,-5181.441594,-11843.295072,-3753.867940
163423.631820,-3256.906145,-12953.603985,-76.609550
163423.632140,-2368.659014,-9548.656652,-1225.752797
163423.632459,962.267725,-7105.977043,1302.362347
163423.632779,1480.411884,-5107.421000,1762.019645
163423.633098,1480.411884,-5329.482782,1685.410096
163423.633418,2294.638420,-7105.977043,2681.334243
163423.633737,3552.988522,-7920.203579,4136.915689
163423.634057,2886.803174,-8290.306550,1149.143247
163423.634376,0.000000,-8882.471304,-1915.238745
163423.634696,-2516.700203,-9548.656652,-3064.381992
163423.635015,-592.164754,-13915.871710,-689.485948
163423.635335,-2368.659014,-11991.336260,-4136.915689
163423.635654,-2146.597232,-12657.521608,-3983.696590
163423.635973,-1554.432478,-11917.315666,-3140.991542
163423.636293,-2368.659014,-9548.656652,-2451.505594
163423.636612,0.000000,-9548.656652,-1225.752797
163423.636932,2516.700203,-10362.883188,3217.601092
163423.637251,3478.967927,-8882.471304,4826.401637
163423.637571,962.267725,-3923.091493,995.924147
163423.637890,518.144159,-5033.400406,1149.143247
163423.638210,1258.350101,-8142.265362,3524.039291
163423.638529,444.123565,-7179.997637,2221.676944
163423.638849,666.185348,-8068.244768,459.657299
163423.639168,-296.082377,-9548.656652,-1149.143247
163423.639487,-3552.988522,-9548.656652,0.000000
163423.639807,-3849.070898,-9548.656652,-3600.648841
163423.640126,-5921.647536,-9844.739029,-6128.763984
163423.640445,-3256.906145,-13693.809927,-3677.258390
163423.640765,-2146.597232,-12435.459826,-2757.943793
163423.641084,-1554.432478,-11251.130318,-2834.553343
163423.641403,-1110.308913,-10362.883188,-306.438199
163423.641723,1628.453072,-9992.780217,1149.143247
163423.642042,3330.926739,-7179.997637,2987.772442
163423.642362,1628.453072,-5329.482782,1762.019645
163423.642681,0.000000,-5995.668130,0.000000
163423.643000,2294.638420,-9178.553681,2374.896044
163423.643320,2368.659014,-7772.162391,3677.258390
163423.643639,2886.803174,-9474.636058,1762.019645
163423.643958,-962.267725,-9474.636058,-76.609550
163423.644278,-1258.350101,-10066.800811,-1302.362347
163423.644597,-2294.638420,-9918.759623,-1991.848295
163423.644916,-2738.761985,-10066.800811,-3217.601092
163423.645236,-1998.556043,-11325.150913,-2911.162892
163423.645555,-888.247130,-11325.150913,-766.095498
163423.645875,-1184.329507,-11103.089130,-76.609550
163423.646194,-666.185348,-10066.800811,-689.485948
163423.646513,0.000000,-8068.244768,0.000000
163423.646833,3478.967927,-9474.636058,2374.896044
163423.647152,2294.638420,-8882.471304,-76.609550
163423.647471,-1184.329507,-8068.244768,919.314598
163423.647791,-962.267725,-7550.100608,766.095498
163423.648110,296.082377,-8734.430116,1225.752797
163423.648429,370.102971,-8882.471304,153.219100
163423.648749,-3256.906145,-6291.750507,-2451.505594
163423.649068,-222.061783,-9178.553681,-766.095498
163423.649388,-1332.370696,-9178.553681,-2451.505594
163423.649707,-888.247130,-10732.986159,-3294.210641
163423.650026,-1258.350101,-11251.130318,-3753.867940
163423.650346,-74.020594,-11843.295072,-76.609550
163423.650665,-1036.288319,-12583.501014,-306.438199
163423.650984,-74.020594,-11547.212695,-1302.362347
163423.651304,296.082377,-8660.409521,0.000000
163423.651623,3849.070898,-8808.450710,4596.572988
163423.651942,0.000000,-4811.338623,612.876398
163423.652262,1998.556043,-7698.141797,2145.067394
163423.652581,1184.329507,-7179.997637,2374.896044
163423.652901,444.123565,-7105.977043,1991.848295
163423.653220,-74.020594,-8586.388927,536.266849
163423.653539,-148.041188,-9252.574275,306.438199
163423.653859,-222.061783,-9474.636058,-76.609550
163423.654178,-1554.432478,-9474.636058,-1302.362347
163423.654497,-2886.803174,-9548.656652,-4290.134789
163423.654817,-2368.659014,-12213.398043,-1838.629195
163423.655136,-4737.318029,-10436.903782,-4290.134789
163423.655455,-3701.029710,-11843.295072,-2528.115143
163423.655775,-2220.617826,-11399.171507,-1685.410096
163423.656094,518.144159,-9474.636058,689.485948
163423.656414,592.164754,-5551.544565,0.000000
163423.656733,1628.453072,-6735.874072,2451.505594
163423.657052,3182.885551,-10362.883188,4213.525239
163423.657372,-370.102971,-6661.853478,0.000000
163423.657691,-1480.411884,-7179.997637,153.219100
163423.658010,148.041188,-11103.089130,-76.609550
163423.658330,-814.226536,-9548.656652,-995.924147
163423.658649,-222.061783,-9474.636058,-76.609550
163423.658968,-666.185348,-9326.594869,-842.705048
163423.659288,-2368.659014,-8660.409521,-2451.505594
163423.659607,-4145.153275,-7772.162391,-4290.134789
163423.659927,-2442.679609,-9622.677246,-2451.505594
163423.660246,-3552.988522,-10140.821405,-1225.752797
163423.660565,-148.041188,-11103.089130,1072.533697
163423.660885,2294.638420,-9474.636058,-76.609550
163423.661204,2590.720797,-8882.471304,2374.896044
163423.661523,0.000000,-7328.038826,229.828649
163423.661843,-1628.453072,-8216.285956,0.000000
163423.662162,-1480.411884,-8216.285956,612.876398
163423.662481,-2368.659014,-7476.080014,0.000000
163423.662801,-74.020594,-8882.471304,-689.485948
163423.663120,-1702.473667,-8364.327145,0.000000
163423.663440,-888.247130,-7994.224174,0.000000
163423.663759,74.020594,-9844.739029,-76.609550
163423.664078,-74.020594,-9474.636058,-3753.867940
163423.664398,-888.247130,-10807.006753,-1838.629195
163423.664717,-2294.638420,-10881.027347,-2374.896044
163423.665036,-2220.617826,-11621.233289,-2221.676944
163423.665356,-592.164754,-11547.212695,-689.485948
163423.665675,2146.597232,-10881.027347,459.657299
163423.665994,2294.638420,-8290.306550,229.828649
163423.666314,0.000000,-8364.327145,0.000000
163423.666633,1702.473667,-11547.212695,1762.019645
163423.666952,518.144159,-8290.306550,0.000000
163423.667272,2294.638420,-7105.977043,842.705048
163423.667591,2368.659014,-8364.327145,2068.457845
163423.667911,1258.350101,-7698.141797,2451.505594
163423.668230,740.205942,-7476.080014,2068.457845
163423.668549,2886.803174,-9326.594869,1762.019645
163423.668869,444.123565,-10066.800811,-766.095498
163423.669188,-2368.659014,-10732.986159,-1838.629195
163423.669507,-3108.864956,-12435.459826,-1915.238745
163423.669827,-3627.009116,-12435.459826,-2528.115143
163423.670146,-4737.318029,-9548.656652,-4903.011187
163423.670465,-74.020594,-10066.800811,-1302.362347
163423.670785,0.000000,-8512.368333,-766.095498
163423.671104,-370.102971,-8068.244768,76.609550
163423.671424,74.020594,-8216.285956,612.876398
163423.671743,3478.967927,-9474.636058,3294.210641
163423.672062,0.000000,-5995.668130,1838.629195
163423.672382,3478.967927,-9474.636058,2374.896044
163423.672701,1406.391290,-8586.388927,1762.019645
163423.673020,1110.308913,-8586.388927,-229.828649
163423.673340,-3552.988522,-7476.080014,-3677.258390
163423.673659,-1998.556043,-11843.295072,-3753.867940
163423.673978,-2220.617826,-11991.336260,-3294.210641
163423.674298,-1258.350101,-11843.295072,-1532.190996
163423.674617,74.020594,-9696.697840,-1915.238745
163423.674937,1332.370696,-10584.944971,-689.485948
163423.675256,296.082377,-8364.327145,0.000000
163423.675575,1554.432478,-8068.244768,612.876398
163423.675895,-74.020594,-9474.636058,-76.609550
163423.676214,-814.226536,-9474.636058,2068.457845
163423.676533,0.000000,-7476.080014,1225.752797
163423.676853,1702.473667,-8734.430116,2374.896044
163423.677172,1480.411884,-9030.512492,2298.286494
163423.677491,-370.102971,-8142.265362,1378.971896
163423.677811,-666.185348,-7698.141797,-689.485948
163423.678130,-1258.350101,-8290.306550,-2145.067394
163423.678450,-2368.659014,-10658.965565,-2528.115143
163423.678769,-2146.597232,-10362.883188,-2528.115143
163423.679088,-2960.823768,-10732.986159,-919.314598
163423.679408,-962.267725,-13619.789333,-76.609550
163423.679727,-3552.988522,-9548.656652,-3677.258390
163423.680046,296.082377,-10584.944971,-1302.362347
163423.680366,-740.205942,-9178.553681,-919.314598
163423.680685,-1184.329507,-9252.574275,0.000000
163423.681004,-74.020594,-9104.533087,-76.609550
163423.681324,3923.091493,-11251.130318,4826.401637
163423.681643,4071.132681,-7698.141797,2987.772442
163423.681963,1702.473667,-6809.894666,2604.724693
163423.682282,1110.308913,-5921.647536,1762.019645
163423.682601,0.000000,-4811.338623,0.000000
163423.682921,-1258.350101,-8512.368333,-1762.019645
163423.683240,-2220.617826,-9770.718434,-2757.943793
163423.683559,-2812.782580,-11103.089130,-2528.115143
163423.683879,-2442.679609,-10362.883188,-2528.115143
163423.684198,-1406.391290,-11177.109724,-2068.457845
163423.684517,-1628.453072,-10732.986159,-1225.752797
163423.684837,1110.308913,-10066.800811,-76.609550
163423.685156,-74.020594,-8290.306550,-1302.362347
163423.685476,-4737.318029,-6587.832884,-3064.381992
163423.685795,-1702.473667,-8364.327145,0.000000
163423.686114,1850.514855,-9400.615463,2757.943793
163423.686434,2442.679609,-7328.038826,2451.505594
163423.686753,1776.494261,-7698.141797,2145.067394
163423.687072,2294.638420,-7698.141797,-76.609550
163423.687392,-592.164754,-7476.080014,-995.924147
163423.687711,-1924.535449,-8734.430116,-3370.820191
163423.688030,-2516.700203,-11029.068536,-4213.525239
163423.688350,-2368.659014,-11917.315666,-2528.115143
163423.688669,-2368.659014,-11917.315666,-612.876398
163423.688989,0.000000,-9548.656652,0.000000
163423.689308,1776.494261,-11325.150913,459.657299
163423.689627,2294.638420,-9178.553681,995.924147
163423.689947,-74.020594,-7920.203579,0.000000
163423.690266,-74.020594,-9474.636058,-76.609550
163423.690585,1184.329507,-9696.697840,1838.629195
163423.690905,3627.009116,-8216.285956,4136.915689
163423.691224,4071.132681,-7698.141797,3600.648841
163423.691543,4441.235652,-7550.100608,3983.696590
163423.691863,2294.638420,-7698.141797,2068.457845
163423.692182,-1184.329507,-7179.997637,612.876398
163423.692502,-962.267725,-9474.636058,-2451.505594
163423.692821,-1258.350101,-11843.295072,-2528.115143
163423.693140,-5329.482782,-9548.656652,-4903.011187
163423.693460,-2442.679609,-11695.253884,-2528.115143
163423.693779,-2442.679609,-11547.212695,-2451.505594
163423.694098,-666.185348,-10510.924376,-1225.752797
163423.694418,0.000000,-8882.471304,-1149.143247
163423.694737,-444.123565,-8882.471304,-76.609550
163423.695056,-74.020594,-10066.800811,612.876398
163423.695376,888.247130,-8068.244768,0.000000
163423.695695,4663.297435,-9474.636058,4826.401637
163423.696014,3923.091493,-8290.306550,2068.457845
163423.696334,0.000000,-5995.668130,0.000000
163423.696653,-74.020594,-8290.306550,612.876398
163423.696973,-1184.329507,-8068.244768,-1532.190996
163423.697292,-2072.576638,-9326.594869,-3217.601092
163423.697611,-2738.761985,-9770.718434,-4060.306139
163423.697931,-1850.514855,-11251.130318,-2528.115143
163423.698250,-1406.391290,-11547.212695,-1302.362347
163423.698569,-1480.411884,-9548.656652,-1762.019645
163423.698889,0.000000,-9548.656652,612.876398
163423.699208,2294.638420,-9252.574275,2145.067394
163423.699527,-3552.988522,-7179.997637,0.000000
163423.699847,-962.267725,-9474.636058,842.705048
163423.700166,444.123565,-8956.491898,2145.067394
163423.700486,1480.411884,-8216.285956,3140.991542
163423.700805,1110.308913,-8290.306550,1149.143247
163423.701124,-74.020594,-10362.883188,2068.457845
163423.701444,-1258.350101,-7994.224174,-995.924147
163423.701763,-2368.659014,-7179.997637,-2145.067394
163423.702082,-4737.318029,-7772.162391,-5515.887586
163423.702402,-2368.659014,-13101.645173,-1302.362347
163423.702721,-4441.235652,-10140.821405,-2834.553343
163423.703040,-1776.494261,-10436.903782,-1608.800546
163423.703360,-296.082377,-10732.986159,-1608.800546
163423.703679,1110.308913,-9770.718434,0.000000
163423.703999,1110.308913,-8364.327145,-1225.752797
163423.704318,-592.164754,-9252.574275,306.438199
163423.704637,-666.185348,-10066.800811,536.266849
163423.704957,0.000000,-7624.121203,76.609550
163423.705276,1776.494261,-7772.162391,2451.505594
163423.705595,4145.153275,-10510.924376,5439.278036
163423.705915,1036.288319,-7772.162391,995.924147
163423.706234,666.185348,-7846.182985,383.047749
163423.706553,-370.102971,-8216.285956,-1302.362347
163423.706873,-2368.659014,-8512.368333,-3677.258390
163423.707192,-4737.318029,-9548.656652,-4290.134789
163423.707512,-2368.659014,-9844.739029,-3830.477490
163423.707831,-2368.659014,-10140.821405,0.000000
163423.708150,1702.473667,-11843.295072,-76.609550
163423.708470,2294.638420,-9474.636058,-76.609550
163423.708789,1998.556043,-9474.636058,1149.143247
163423.709108,-888.247130,-7772.162391,-459.657299
163423.709428,-592.164754,-9548.656652,76.609550
163423.709747,1184.329507,-9104.533087,2068.457845
163423.710066,0.000000,-6587.832884,1225.752797
163423.710386,0.000000,-7994.224174,1149.143247
163423.710705,-1184.329507,-7179.997637,0.000000
163423.711025,-1184.329507,-8660.409521,-919.314598
163423.711344,-1184.329507,-9548.656652,-1838.629195
163423.711663,-1850.514855,-10658.965565,-4366.744339
163423.711983,-3404.947333,-11917.315666,-2987.772442
163423.712302,-2442.679609,-11399.171507,-2068.457845
163423.712621,-740.205942,-11029.068536,-766.095498
163423.712941,666.185348,-10214.842000,842.705048
163423.713260,74.020594,-7772.162391,1302.362347
163423.713579,2294.638420,-7698.141797,1455.581446
163423.713899,0.000000,-6587.832884,612.876398
163423.714218,3478.967927,-11695.253884,5132.839837
163423.714538,2294.638420,-8808.450710,1532.190996
163423.714857,2294.638420,-8290.306550,536.266849
163423.715176,-370.102971,-9474.636058,995.924147
163423.715496,-1924.535449,-9474.636058,-383.047749
163423.715815,-2516.700203,-9104.533087,-1149.143247
163423.716134,-1258.350101,-10955.047942,-689.485948
163423.716454,-2738.761985,-11029.068536,-2451.505594
163423.716773,-3330.926739,-10214.842000,-2145.067394
163423.717092,-370.102971,-10658.965565,-76.609550
163423.717412,-2368.659014,-7772.162391,-2145.067394
163423.717731,0.000000,-8364.327145,0.000000
163423.718051,1110.308913,-8290.306550,76.609550
163423.718370,222.061783,-8068.244768,306.438199
163423.718689,-1258.350101,-8956.491898,-689.485948
163423.719009,-1258.350101,-10658.965565,-689.485948
163423.719328,1554.432478,-13619.789333,2374.896044
163423.719647,222.061783,-9992.780217,612.876398
163423.719967,2146.597232,-11547.212695,1149.143247
163423.720286,1110.308913,-10288.862594,536.266849
163423.720605,518.144159,-9474.636058,-76.609550
163423.720925,1110.308913,-7105.977043,-3140.991542
163423.721244,0.000000,-8882.471304,-1532.190996
163423.721564,-444.123565,-9696.697840,-383.047749
163423.721883,-296.082377,-9178.553681,766.095498
163423.722202,518.144159,-10658.965565,1762.019645
163423.722522,0.000000,-9178.553681,689.485948
163423.722841,814.226536,-8734.430116,-689.485948
163423.723160,-1184.329507,-8364.327145,0.000000
163423.723480,-2368.659014,-9548.656652,0.000000
163423.723799,-74.020594,-11843.295072,-689.485948
163423.724118,1110.308913,-11843.295072,1762.019645
163423.724438,-444.123565,-8882.471304,153.219100
163423.724757,0.000000,-9622.677246,306.438199
163423.725076,740.205942,-8882.471304,612.876398
163423.725396,0.000000,-5995.668130,1225.752797
163423.725715,-888.247130,-7328.038826,-1225.752797
163423.726035,-962.267725,-9992.780217,-1302.362347
163423.726354,-1258.350101,-9178.553681,-2834.553343
163423.726673,-2368.659014,-9548.656652,0.000000
163423.726993,1110.308913,-13027.624579,-76.609550
163423.727312,0.000000,-9992.780217,-1532.190996
163423.727631,1702.473667,-9844.739029,-383.047749
163423.727951,814.226536,-8734.430116,0.000000
163423.728270,222.061783,-9770.718434,0.000000
163423.728589,0.000000,-8660.409521,-1762.019645
163423.728909,1554.432478,-9844.739029,1455.581446
163423.729228,666.185348,-8808.450710,1072.533697
163423.729548,444.123565,-8512.368333,612.876398
163423.729867,1110.308913,-8882.471304,1685.410096
163423.730186,-74.020594,-7772.162391,229.828649
163423.730506,-148.041188,-9030.512492,-76.609550
163423.730825,-2442.679609,-9326.594869,-1915.238745
163423.731144,-2442.679609,-9474.636058,-1915.238745
163423.731464,-4145.153275,-9548.656652,0.000000
163423.731783,-2516.700203,-9548.656652,-2374.896044
163423.732102,-1406.391290,-9696.697840,-536.266849
163423.732422,-962.267725,-8660.409521,-383.047749
163423.732741,-592.164754,-7994.224174,-766.095498
163423.733061,-222.061783,-9918.759623,-1302.362347
163423.733380,-222.061783,-10362.883188,0.000000
163423.733699,888.247130,-9548.656652,0.000000
163423.734019,2590.720797,-11843.295072,2681.334243
163423.734338,1110.308913,-10362.883188,-229.828649
163423.734657,0.000000,-9548.656652,1532.190996
163423.734977,148.041188,-8290.306550,-459.657299
163423.735296,-444.123565,-8956.491898,-1532.190996
163423.735615,-1036.288319,-9844.739029,-1991.848295
163423.735935,-1480.411884,-9548.656652,-2145.067394
163423.736254,-2146.597232,-8364.327145,-3064.381992
163423.736574,-1110.308913,-9474.636058,-383.047749
163423.736893,148.041188,-8660.409521,0.000000
163423.737212,592.164754,-7476.080014,1532.190996
163423.737532,-74.020594,-9474.636058,1762.019645
163423.737851,0.000000,-8956.491898,1225.752797
163423.738170,222.061783,-9770.718434,0.000000
163423.738490,740.205942,-9548.656652,1072.533697
163423.738809,-518.144159,-10066.800811,459.657299
163423.739128,-962.267725,-8512.368333,-1302.362347
163423.739448,1110.308913,-10658.965565,-76.609550
163423.739767,-370.102971,-7254.018232,-1302.362347
163423.740087,-2368.659014,-8364.327145,-1838.629195
163423.740406,-4145.153275,-7772.162391,-3064.381992
163423.740725,-74.020594,-11843.295072,-76.609550
163423.741045,-1776.494261,-8956.491898,0.000000
163423.741364,-666.185348,-9104.533087,-919.314598
163423.741683,74.020594,-8808.450710,-229.828649
163423.742002,1184.329507,-8660.409521,229.828649
163423.742322,1036.288319,-7550.100608,0.000000
163423.742641,814.226536,-10658.965565,-383.047749
163423.742960,-1036.288319,-10140.821405,-919.314598
163423.743279,-666.185348,-9548.656652,-2757.943793
163423.743599,814.226536,-10362.883188,-1302.362347
163423.743918,2294.638420,-11843.295072,-689.485948
163423.744237,0.000000,-8364.327145,0.000000
163423.744556,1184.329507,-8956.491898,306.438199
163423.744876,666.185348,-8290.306550,-306.438199
163423.745195,0.000000,-8956.491898,1838.629195
163423.745514,0.000000,-8364.327145,1225.752797
163423.745833,-74.020594,-9104.533087,612.876398
163423.746153,2294.638420,-10658.965565,-76.609550
163423.746472,-1036.288319,-7476.080014,-919.314598
163423.746791,-2072.576638,-5403.503377,-1378.971896
163423.747110,-74.020594,-9474.636058,-76.609550
163423.747430,-1702.473667,-9548.656652,-1225.752797
163423.747749,-1258.350101,-11251.130318,-612.876398
163423.748068,-1332.370696,-10066.800811,-459.657299
163423.748387,-2368.659014,-10881.027347,1225.752797
163423.748707,-1776.494261,-10732.986159,0.000000
163423.749026,1554.432478,-11547.212695,2068.457845
163423.749345,-370.102971,-7105.977043,-536.266849
163423.749664,-1702.473667,-8660.409521,-3677.258390
163423.749984,-2442.679609,-7476.080014,-3447.429741
163423.750303,-666.185348,-10066.800811,-76.609550
163423.750622,0.000000,-8734.430116,229.828649
163423.750941,0.000000,-8956.491898,-612.876398
163423.751261,0.000000,-9030.512492,-383.047749
163423.751580,0.000000,-7624.121203,0.000000
163423.751899,-1332.370696,-7476.080014,-2068.457845
163423.752218,-2072.576638,-10214.842000,-1532.190996
163423.752538,-2960.823768,-9548.656652,0.000000
163423.752857,148.041188,-11843.295072,2757.943793
163423.753176,0.000000,-7179.997637,0.000000
163423.753495,1110.308913,-9844.739029,2221.676944
163423.753815,2368.659014,-7994.224174,2145.067394
163423.754134,1036.288319,-7105.977043,612.876398
163423.754453,-74.020594,-8290.306550,-76.609550
163423.754772,-222.061783,-9474.636058,-689.485948
163423.755092,-2220.617826,-8734.430116,-536.266849
163423.755411,-4441.235652,-7179.997637,-2451.505594
163423.755730,-1184.329507,-9844.739029,-995.924147
163423.756049,-1184.329507,-9548.656652,306.438199
163423.756369,-2072.576638,-7179.997637,-1838.629195
163423.756688,-592.164754,-9326.594869,-1225.752797
163423.757007,-740.205942,-9696.697840,-1302.362347
163423.757326,444.123565,-10362.883188,-306.438199
163423.757646,1702.473667,-9474.636058,-76.609550
163423.757965,518.144159,-10288.862594,1608.800546
163423.758284,2294.638420,-9474.636058,-76.609550
163423.758603,1184.329507,-8956.491898,1225.752797
163423.758923,2072.576638,-8734.430116,612.876398
163423.759242,0.000000,-7179.997637,-4903.011187
163423.759561,296.082377,-9770.718434,-153.219100
163423.759881,0.000000,-9844.739029,76.609550
163423.760200,-222.061783,-9548.656652,-76.609550
163423.760519,-444.123565,-9474.636058,-689.485948
163423.760838,0.000000,-8364.327145,0.000000
163423.761158,0.000000,-6587.832884,0.000000
163423.761477,296.082377,-8364.327145,689.485948
163423.761796,2294.638420,-11843.295072,2068.457845
163423.762115,-1258.350101,-6957.935855,-1302.362347
163423.762435,-74.020594,-9474.636058,-76.609550
163423.762754,-1332.370696,-9844.739029,-383.047749
163423.763073,-518.144159,-10584.944971,229.828649
163423.763392,518.144159,-9252.574275,459.657299
163423.763712,0.000000,-9252.574275,1378.971896
163423.764031,-888.247130,-8956.491898,-2068.457845
163423.764350,-1998.556043,-9992.780217,-1915.238745
163423.764669,-4515.256246,-7179.997637,-2451.505594
163423.764989,-1184.329507,-10214.842000,-306.438199
163423.765308,-74.020594,-11251.130318,-76.609550
163423.765627,0.000000,-8956.491898,-459.657299
163423.765946,0.000000,-7920.203579,229.828649
163423.766266,370.102971,-8216.285956,-76.609550
163423.766585,962.267725,-9400.615463,0.000000
163423.766904,0.000000,-7179.997637,612.876398
163423.767223,518.144159,-9474.636058,1608.800546
163423.767543,148.041188,-10214.842000,0.000000
163423.767862,888.247130,-10658.965565,612.876398
163423.768181,1110.308913,-9474.636058,-76.609550
163423.768500,-666.185348,-7772.162391,-1532.190996
163423.768820,-74.020594,-10658.965565,-1302.362347
163423.769139,-1998.556043,-10288.862594,-1915.238745
163423.769458,-3923.091493,-7772.162391,-1608.800546
163423.769777,-444.123565,-9252.574275,1838.629195
163423.770097,-2368.659014,-7179.997637,0.000000
163423.770416,962.267725,-8068.244768,383.047749
163423.770735,444.123565,-7179.997637,689.485948
163423.771054,-444.123565,-7698.141797,76.609550
163423.771374,-74.020594,-8956.491898,-1915.238745
163423.771693,-1480.411884,-10288.862594,0.000000
163423.772012,-962.267725,-10584.944971,-76.609550
163423.772331,-3552.988522,-8364.327145,-2451.505594
163423.772651,0.000000,-11547.212695,76.609550
163423.772970,1776.494261,-11843.295072,2374.896044
163423.773289,-1184.329507,-8660.409521,-2068.457845
163423.773608,-1850.514855,-9474.636058,-2145.067394
163423.773928,-888.247130,-9992.780217,-1225.752797
163423.774247,-888.247130,-9474.636058,0.000000
163423.774566,0.000000,-7179.997637,0.000000
163423.774885,0.000000,-7179.997637,0.000000
163423.775205,2516.700203,-9474.636058,2911.162892
163423.775524,1998.556043,-6809.894666,1149.143247
163423.775843,1184.329507,-7105.977043,-76.609550
163423.776162,2886.803174,-11251.130318,2374.896044
163423.776482,296.082377,-9844.739029,383.047749
163423.776801,-222.061783,-10362.883188,306.438199
163423.777120,0.000000,-11029.068536,0.000000
163423.777439,0.000000,-9548.656652,0.000000
163423.777759,-2368.659014,-7772.162391,-1762.019645
163423.778078,-3552.988522,-7772.162391,-2451.505594
163423.778397,-3404.947333,-10140.821405,-2451.505594
163423.778716,-2442.679609,-10658.965565,-76.609550
163423.779036,-666.185348,-8586.388927,-1302.362347
163423.779355,-370.102971,-8882.471304,-76.609550
163423.779674,-1332.370696,-7920.203579,-383.047749
163423.779993,1258.350101,-7402.059420,1532.190996
163423.780313,1184.329507,-6809.894666,689.485948
163423.780632,-1184.329507,-8068.244768,-919.314598
163423.780951,-1258.350101,-10066.800811,-1915.238745
163423.781271,-2738.761985,-10510.924376,-1915.238745
163423.781590,-1776.494261,-11325.150913,306.438199
163423.781909,-74.020594,-13027.624579,-76.609550
163423.782228,1110.308913,-10510.924376,-2681.334243
163423.782548,1184.329507,-9030.512492,229.828649
163423.782867,148.041188,-8734.430116,-1532.190996
163423.783186,-740.205942,-9992.780217,-1608.800546
163423.783505,-666.185348,-10658.965565,1149.143247
163423.783825,-74.020594,-10658.965565,1762.019645
163423.784144,370.102971,-9104.533087,1378.971896
163423.784463,2294.638420,-9474.636058,-76.609550
163423.784782,0.000000,-6883.915261,1838.629195
163423.785102,0.000000,-4811.338623,0.000000
163423.785421,-74.020594,-6957.935855,-1302.362347
163423.785740,-592.164754,-9326.594869,-536.266849
163423.786059,-1924.535449,-9770.718434,-995.924147
163423.786379,-2664.741391,-11029.068536,-842.705048
163423.786698,-74.020594,-13619.789333,-76.609550
163423.787017,814.226536,-11251.130318,0.000000
163423.787336,1702.473667,-10658.965565,-76.609550
163423.787656,-1554.432478,-8734.430116,-2681.334243
163423.787975,-3034.844362,-7920.203579,-4673.182538
163423.788294,-3552.988522,-9548.656652,0.000000
163423.788613,-74.020594,-8882.471304,-383.047749
163423.788933,0.000000,-8068.244768,0.000000
163423.789252,1110.308913,-8660.409521,459.657299
163423.789571,1702.473667,-7550.100608,1915.238745
163423.789890,2812.782580,-8290.306550,1685.410096
163423.790210,0.000000,-7179.997637,0.000000
163423.790529,74.020594,-10436.903782,-76.609550
163423.790848,1850.514855,-11917.315666,2681.334243
163423.791167,1998.556043,-10955.047942,1149.143247
163423.791487,0.000000,-9548.656652,306.438199
163423.791806,2738.761985,-10584.944971,842.705048
163423.792125,1776.494261,-8956.491898,0.000000
163423.792444,0.000000,-9474.636058,-1225.752797
163423.792764,-1998.556043,-9548.656652,-3753.867940
163423.793083,-1258.350101,-10658.965565,-1455.581446
163423.793402,-1776.494261,-8956.491898,0.000000
163423.793721,0.000000,-8364.327145,612.876398
163423.794041,-370.102971,-7994.224174,-842.705048
163423.794360,1480.411884,-8512.368333,2374.896044
163423.794679,0.000000,-5995.668130,0.000000
163423.794998,0.000000,-7846.182985,0.000000
163423.795318,-814.226536,-8882.471304,-842.705048
163423.795637,-1184.329507,-9252.574275,-383.047749
163423.795956,-666.185348,-8586.388927,-2834.553343
163423.796275,444.123565,-11029.068536,-459.657299
163423.796595,0.000000,-9548.656652,0.000000
163423.796914,1184.329507,-9918.759623,-306.438199
163423.797233,-1406.391290,-10066.800811,-2528.115143
163423.797552,-4737.318029,-9548.656652,-3370.820191
163423.797872,-1406.391290,-11547.212695,-1149.143247
163423.798191,-444.123565,-9844.739029,0.000000
163423.798510,0.000000,-8808.450710,612.876398
163423.798829,666.185348,-6291.750507,306.438199
163423.799149,2886.803174,-7402.059420,1991.848295
163423.799468,1184.329507,-5403.503377,2757.943793
163423.799787,-74.020594,-7105.977043,842.705048
163423.800106,-1184.329507,-7994.224174,-76.609550
163423.800426,-3552.988522,-7179.997637,0.000000
163423.800745,-1554.432478,-8808.450710,-766.095498
163423.801064,-1036.288319,-11621.233289,-995.924147
163423.801384,-1554.432478,-11177.109724,-919.314598
163423.801703,-2442.679609,-10955.047942,-2834.553343
163423.802022,-2146.597232,-11843.295072,-2528.115143
163423.802341,-4367.215058,-11843.295072,-4060.306139
163423.802661,-3849.070898,-10881.027347,-2221.676944
163423.802980,-2368.659014,-7772.162391,0.000000
163423.803299,1406.391290,-9474.636058,1149.143247
163423.803618,518.144159,-6291.750507,-1149.143247
163423.803938,2146.597232,-6513.812290,2528.115143
163423.804257,1332.370696,-5403.503377,1149.143247
163423.804576,1332.370696,-7105.977043,229.828649
163423.804895,1184.329507,-8956.491898,842.705048
163423.805215,1184.329507,-11325.150913,3217.601092
163423.805534,1258.350101,-10658.965565,-153.219100
163423.805853,1036.288319,-11695.253884,-919.314598
163423.806172,74.020594,-11547.212695,-1378.971896
163423.806492,-3997.112087,-9548.656652,-3907.087040
163423.806811,-4811.338623,-11547.212695,-4060.306139
163423.807130,-1850.514855,-11843.295072,-3217.601092
163423.807449,-1628.453072,-10140.821405,0.000000
163423.807769,0.000000,-7179.997637,2451.505594
163423.808088,4663.297435,-8882.471304,4826.401637
163423.808407,3552.988522,-6587.832884,4596.572988
163423.808726,3034.844362,-4811.338623,3753.867940
163423.809046,1480.411884,-4663.297435,1149.143247
163423.809365,-296.082377,-8068.244768,-995.924147
163423.809684,-1184.329507,-9696.697840,0.000000
163423.810003,-2368.659014,-11029.068536,-995.924147
163423.810323,-2738.761985,-12731.542202,-1302.362347
163423.810642,-1850.514855,-13027.624579,-4519.963438
163423.810961,-4145.153275,-11695.253884,-4213.525239
163423.811280,-1258.350101,-12435.459826,-3753.867940
163423.811600,-3552.988522,-9548.656652,-3370.820191
163423.811919,-1184.329507,-10288.862594,-1532.190996
163423.812238,2072.576638,-9178.553681,2145.067394
163423.812557,3552.988522,-6809.894666,4749.792088
163423.812877,2960.823768,-6587.832884,3064.381992
163423.813196,2812.782580,-7254.018232,3370.820191
163423.813515,3478.967927,-7105.977043,2068.457845
163423.813834,0.000000,-6587.832884,-842.705048
163423.814154,-1184.329507,-8660.409521,-2451.505594
163423.814473,-74.020594,-11843.295072,-689.485948
163423.814792,-814.226536,-10732.986159,-919.314598
163423.815111,0.000000,-11547.212695,-1378.971896
163423.815431,296.082377,-11547.212695,-766.095498
163423.815750,0.000000,-10140.821405,919.314598
163423.816069,-2368.659014,-7772.162391,-2145.067394
163423.816388,-3552.988522,-9548.656652,-1225.752797
163423.816708,-1184.329507,-10881.027347,612.876398
163423.817027,-74.020594,-10658.965565,3294.210641
163423.817346,-666.185348,-5699.585753,0.000000
163423.817665,1110.308913,-8882.471304,1762.019645
163423.817985,-740.205942,-7920.203579,919.314598
163423.818304,-1110.308913,-7328.038826,0.000000
163423.818623,-1702.473667,-7624.121203,-2221.676944
163423.818942,-2960.823768,-9548.656652,-2298.286494
163423.819262,-1554.432478,-9622.677246,-1378.971896
163423.819581,-1776.494261,-9548.656652,-919.314598
163423.819900,0.000000,-9548.656652,0.000000
163423.820219,1184.329507,-11621.233289,612.876398
163423.820539,-1776.494261,-7476.080014,-3677.258390
163423.820858,-1258.350101,-9178.553681,-1838.629195
163423.821177,-2368.659014,-10510.924376,-2681.334243
163423.821497,-444.123565,-11695.253884,-842.705048
163423.821816,666.185348,-10362.883188,1149.143247
163423.822135,2294.638420,-9474.636058,2374.896044
163423.822454,1406.391290,-8438.347739,1762.019645
163423.822774,0.000000,-5403.503377,0.000000
163423.823093,0.000000,-6291.750507,2451.505594
163423.823412,888.247130,-6587.832884,1225.752797
163423.823731,-2368.659014,-7179.997637,-1838.629195
163423.824051,-74.020594,-10658.965565,-76.609550
163423.824370,-444.123565,-8882.471304,306.438199
163423.824689,148.041188,-10214.842000,229.828649
163423.825008,1702.473667,-10658.965565,-689.485948
163423.825328,-74.020594,-10658.965565,-1302.362347
163423.825647,-2220.617826,-11843.295072,-1915.238745
163423.825966,-3627.009116,-12435.459826,-3907.087040
163423.826285,-2960.823768,-11917.315666,-4290.134789
163423.826605,0.000000,-10732.986159,2298.286494
163423.826924,0.000000,-8364.327145,0.000000
163423.827243,444.123565,-8364.327145,536.266849
163423.827562,888.247130,-7254.018232,1302.362347
163423.827882,888.247130,-6587.832884,536.266849
163423.828201,-74.020594,-7994.224174,-995.924147
163423.828520,-1776.494261,-9548.656652,0.000000
163423.828839,-74.020594,-10066.800811,383.047749
163423.829159,74.020594,-9474.636058,-76.609550
163423.829478,518.144159,-10288.862594,-689.485948
163423.829797,0.000000,-12509.480420,2145.067394
163423.830116,-1406.391290,-9548.656652,-1838.629195
163423.830436,-2590.720797,-9844.739029,-2451.505594
163423.830755,-2442.679609,-11621.233289,-2068.457845
163423.831074,-2368.659014,-10140.821405,-2451.505594
163423.831393,0.000000,-8068.244768,306.438199
163423.831713,666.185348,-8068.244768,1838.629195
163423.832032,2886.803174,-9400.615463,3600.648841
163423.832351,-74.020594,-6809.894666,536.266849
163423.832670,-74.020594,-7105.977043,1762.019645
163423.832990,-1184.329507,-7476.080014,-459.657299
163423.833309,-1998.556043,-9178.553681,-1225.752797
163423.833628,-962.267725,-9696.697840,0.000000
163423.833947,0.000000,-9474.636058,153.219100
163423.834267,0.000000,-8364.327145,0.000000
163423.834586,370.102971,-9770.718434,-1225.752797
163423.834905,-2960.823768,-7476.080014,-3983.696590
163423.835224,-2368.659014,-10140.821405,-2451.505594
163423.835544,-1554.432478,-11843.295072,-2528.115143
163423.835863,-74.020594,-13027.624579,-76.609550
163423.836182,888.247130,-11177.109724,612.876398
163423.836501,1554.432478,-9622.677246,919.314598
163423.836821,2516.700203,-8956.491898,1455.581446
163423.837140,2960.823768,-7254.018232,3600.648841
163423.837459,296.082377,-4811.338623,459.657299
163423.837778,1702.473667,-6513.812290,-1302.362347
163423.838098,0.000000,-8364.327145,612.876398
163423.838417,1628.453072,-9474.636058,2987.772442
163423.838736,3478.967927,-11251.130318,2374.896044
163423.839055,888.247130,-10436.903782,2298.286494
163423.839375,-444.123565,-9844.739029,-536.266849
163423.839694,-1480.411884,-9252.574275,-1608.800546
163423.840013,-2960.823768,-9400.615463,-3447.429741
163423.840333,-5329.482782,-9548.656652,-6128.763984
163423.840652,-2368.659014,-11917.315666,-2451.505594
163423.840971,-296.082377,-11621.233289,383.047749
163423.841291,1110.308913,-11843.295072,-76.609550
163423.841610,-1776.494261,-7179.997637,-1532.190996
163423.841930,0.000000,-8660.409521,3677.258390
163423.842249,-1184.329507,-4811.338623,0.000000
163423.842568,74.020594,-6809.894666,-229.828649
163423.842888,518.144159,-8290.306550,919.314598
163423.843207,962.267725,-8586.388927,1838.629195
163423.843526,3478.967927,-8734.430116,1149.143247
163423.843846,2516.700203,-9844.739029,995.924147
163423.844165,1480.411884,-9622.677246,229.828649
163423.844484,-1258.350101,-10066.800811,-1455.581446
163423.844804,-2738.761985,-11843.295072,-2528.115143
163423.845123,-2442.679609,-14211.954086,-2528.115143
163423.845443,-2960.823768,-10140.821405,-4290.134789
163423.845762,-2368.659014,-11621.233289,766.095498
163423.846081,-370.102971,-10066.800811,-76.609550
163423.846401,-1776.494261,-7772.162391,0.000000
163423.846720,222.061783,-4737.318029,842.705048
163423.847039,370.102971,-5625.565159,1149.143247
163423.847359,0.000000,-6587.832884,842.705048
163423.847678,0.000000,-7624.121203,1378.971896
163423.847997,1554.432478,-8512.368333,3294.210641
163423.848317,0.000000,-8512.368333,1225.752797
163423.848636,1110.308913,-10807.006753,-689.485948
163423.848956,-1110.308913,-11843.295072,-76.609550
163423.849275,-3701.029710,-8808.450710,-4903.011187
163423.849594,-4737.318029,-10140.821405,-4290.134789
163423.849914,-3034.844362,-11473.192101,-4596.572988
163423.850233,-1702.473667,-11843.295072,-2145.067394
163423.850552,-592.164754,-10436.903782,-383.047749
163423.850872,666.185348,-9326.594869,0.000000
163423.851191,2294.638420,-7550.100608,1149.143247
163423.851510,1924.535449,-6291.750507,2451.505594
163423.851830,1776.494261,-5403.503377,2451.505594
163423.852149,-74.020594,-7105.977043,-76.609550
163423.852469,-888.247130,-8364.327145,766.095498
163423.852788,0.000000,-8364.327145,3064.381992
163423.853107,1036.288319,-9178.553681,919.314598
163423.853427,370.102971,-9844.739029,-995.924147
163423.853746,-814.226536,-9844.739029,-1072.533697
163423.854065,-3256.906145,-7772.162391,-2451.505594
163423.854385,-2738.761985,-8290.306550,-3753.867940
163423.854704,-74.020594,-11843.295072,-2834.553343
163423.855023,-1258.350101,-9844.739029,-1685.410096
163423.855343,-1184.329507,-10436.903782,0.000000
163423.855662,1702.473667,-11843.295072,2987.772442
163423.855982,0.000000,-8364.327145,1532.190996
163423.856301,1406.391290,-7624.121203,1762.019645
163423.856620,0.000000,-6291.750507,-229.828649
163423.856940,-1628.453072,-7328.038826,0.000000
163423.857259,-1850.514855,-8586.388927,689.485948
163423.857578,1702.473667,-10362.883188,2068.457845
163423.857898,0.000000,-7994.224174,-766.095498
163423.858217,0.000000,-7179.997637,-2757.943793
163423.858536,-1776.494261,-7772.162391,-1225.752797
163423.858856,-74.020594,-10658.965565,-1302.362347
163423.859175,-2886.803174,-10436.903782,-3370.820191
163423.859495,-1850.514855,-12509.480420,-2834.553343
163423.859814,-592.164754,-11843.295072,-995.924147
163423.860133,-518.144159,-10510.924376,1225.752797
163423.860453,0.000000,-9548.656652,612.876398
163423.860772,2442.679609,-9474.636058,2068.457845
163423.861091,2294.638420,-9474.636058,3600.648841
163423.861411,148.041188,-4811.338623,0.000000
163423.861730,-1184.329507,-5995.668130,0.000000
163423.862049,2294.638420,-9474.636058,2374.896044
163423.862369,444.123565,-8364.327145,1685.410096
163423.862688,444.123565,-8290.306550,1225.752797
163423.863008,-1258.350101,-8734.430116,-1225.752797
163423.863327,-2368.659014,-9548.656652,-1225.752797
163423.863646,-3552.988522,-9548.656652,-2451.505594
163423.863966,-4737.318029,-9548.656652,-4596.572988
163423.864285,-3552.988522,-12213.398043,-3677.258390
163423.864604,-1554.432478,-12435.459826,-689.485948
163423.864924,-3034.844362,-9548.656652,-4366.744339
163423.865243,-74.020594,-11547.212695,-76.609550
163423.865562,74.020594,-9178.553681,612.876398
163423.865882,1332.370696,-7031.956449,1608.800546
163423.866201,1406.391290,-6069.688724,919.314598
163423.866521,0.000000,-6587.832884,1838.629195
163423.866840,0.000000,-6143.709319,842.705048
163423.867159,1184.329507,-7179.997637,2451.505594
163423.867479,2220.617826,-8882.471304,2374.896044
163423.867798,2294.638420,-9474.636058,-842.705048
163423.868117,-1850.514855,-7179.997637,-4290.134789
163423.868437,-666.185348,-10362.883188,-1915.238745
163423.868756,-1036.288319,-11325.150913,-3294.210641
163423.869075,-1406.391290,-12361.439231,-3064.381992
163423.869395,-1258.350101,-12731.542202,-1302.362347
163423.869714,-2220.617826,-10658.965565,-76.609550
163423.870034,370.102971,-9770.718434,153.219100
163423.870353,2368.659014,-7179.997637,0.000000
163423.870672,3849.070898,-7476.080014,4366.744339
163423.870992,1480.411884,-4811.338623,1838.629195
163423.871311,-1554.432478,-5107.421000,0.000000
163423.871630,814.226536,-8290.306550,2145.067394
163423.871950,-74.020594,-8068.244768,842.705048
163423.872269,-1480.411884,-8956.491898,-919.314598
163423.872588,-1258.350101,-11843.295072,-2528.115143
163423.872908,-2738.761985,-11769.274478,-2528.115143
163423.873227,-2442.679609,-12435.459826,-2528.115143
163423.873547,-2442.679609,-12435.459826,-4060.306139
163423.873866,-3478.967927,-11917.315666,-4290.134789
163423.874185,-2368.659014,-11325.150913,0.000000
163423.874505,-1776.494261,-9696.697840,0.000000
163423.874824,740.205942,-9400.615463,995.924147
163423.875143,2442.679609,-8142.265362,2451.505594
163423.875463,3404.947333,-6365.771101,3447.429741
163423.875782,4663.297435,-7105.977043,2374.896044
163423.876101,2516.700203,-9252.574275,4290.134789
163423.876421,2294.638420,-9474.636058,2374.896044
163423.876740,74.020594,-8068.244768,766.095498
163423.877060,-1850.514855,-7254.018232,-612.876398
163423.877379,-2960.823768,-7179.997637,-3064.381992
163423.877698,-1776.494261,-9918.759623,-1608.800546
163423.878018,-2664.741391,-9992.780217,-2374.896044
163423.878337,-2072.576638,-10881.027347,-2987.772442
163423.878656,-74.020594,-11843.295072,-1302.362347
163423.878976,-2442.679609,-9918.759623,-1072.533697
163423.879295,-3552.988522,-9548.656652,0.000000
163423.879614,74.020594,-10732.986159,1225.752797
163423.879934,2886.803174,-8882.471304,1149.143247
163423.880253,0.000000,-4811.338623,0.000000
163423.880573,-74.020594,-8290.306550,-76.609550
163423.880892,-1776.494261,-8734.430116,-612.876398
163423.881211,0.000000,-9178.553681,842.705048
163423.881531,1184.329507,-9326.594869,612.876398
163423.881850,1332.370696,-11325.150913,1762.019645
163423.882169,-1332.370696,-9252.574275,-1455.581446
163423.882489,-1184.329507,-8882.471304,-1302.362347
163423.882808,-592.164754,-9696.697840,-2451.505594
163423.883127,-370.102971,-11029.068536,-3677.258390
163423.883447,-2368.659014,-10140.821405,-2451.505594
163423.883766,-74.020594,-11251.130318,-689.485948
163423.884086,-2072.576638,-9548.656652,0.000000
163423.884405,1036.288319,-10288.862594,1225.752797
163423.884724,1998.556043,-8882.471304,-76.609550
163423.885044,4145.153275,-9030.512492,4366.744339
163423.885363,1480.411884,-6439.791695,1378.971896
163423.885682,0.000000,-8142.265362,1762.019645
163423.886002,0.000000,-8364.327145,1685.410096
163423.886321,-1110.308913,-7476.080014,842.705048
163423.886640,0.000000,-8364.327145,0.000000
163423.886960,-1554.432478,-8512.368333,-1838.629195
163423.887279,-2220.617826,-8956.491898,-3677.258390
163423.887599,-2960.823768,-9844.739029,-3064.381992
163423.887918,-74.020594,-11843.295072,-4979.620737
163423.888237,-1480.411884,-13101.645173,-2528.115143
163423.888557,-2368.659014,-11843.295072,-1532.190996
163423.888876,-1480.411884,-11029.068536,-1149.143247
163423.889195,148.041188,-9844.739029,-459.657299
163423.889515,2072.576638,-9548.656652,2451.505594
163423.889834,1628.453072,-7179.997637,1838.629195
163423.890153,1702.473667,-9474.636058,2374.896044
163423.890473,-2146.597232,-7179.997637,383.047749
163423.890792,0.000000,-9030.512492,1378.971896
163423.891112,-74.020594,-8290.306550,-689.485948
163423.891431,0.000000,-8734.430116,306.438199
163423.891750,222.061783,-8882.471304,306.438199
163423.892070,296.082377,-8364.327145,-229.828649
163423.892389,-74.020594,-10658.965565,-76.609550
163423.892708,-1480.411884,-12065.356855,-919.314598
163423.893028,-2960.823768,-11029.068536,-1225.752797
163423.893347,-1258.350101,-12953.603985,-76.609550
163423.893666,-1480.411884,-10288.862594,-383.047749
163423.893986,-2368.659014,-8364.327145,0.000000
163423.894305,2294.638420,-8290.306550,1149.143247
163423.894625,888.247130,-6883.915261,536.266849
163423.894944,-2368.659014,-5403.503377,0.000000
163423.895263,-888.247130,-8734.430116,383.047749
163423.895583,888.247130,-10732.986159,2451.505594
163423.895902,-1776.494261,-7772.162391,0.000000
163423.896221,-74.020594,-10658.965565,919.314598
163423.896541,-1406.391290,-8734.430116,-1149.143247
163423.896860,-1258.350101,-8068.244768,-1608.800546
163423.897179,-3552.988522,-7179.997637,-4290.134789
163423.897499,-1258.350101,-10658.965565,-3140.991542
163423.897818,-2294.638420,-11103.089130,-1762.019645
163423.898138,-2294.638420,-11325.150913,-1225.752797
163423.898457,-592.164754,-11325.150913,-383.047749
163423.898776,1110.308913,-10362.883188,842.705048
163423.899096,444.123565,-7698.141797,612.876398
163423.899415,1480.411884,-7476.080014,0.000000
163423.899734,1184.329507,-8364.327145,1225.752797
163423.900054,-74.020594,-9474.636058,2374.896044
163423.900373,0.000000,-6291.750507,306.438199
163423.900692,518.144159,-8290.306550,1072.533697
163423.901012,1036.288319,-8956.491898,536.266849
163423.901331,296.082377,-7698.141797,689.485948
163423.901651,-74.020594,-7105.977043,-689.485948
163423.901970,-1184.329507,-8364.327145,-1838.629195
163423.902289,-666.185348,-10362.883188,-2528.115143
163423.902609,-1258.350101,-11843.295072,-2528.115143
163423.902928,-3404.947333,-10140.821405,-2298.286494
163423.903247,-74.020594,-11695.253884,-1915.238745
163423.903567,2294.638420,-13027.624579,1149.143247
163423.903886,666.185348,-8586.388927,0.000000
163423.904205,518.144159,-7846.182985,-229.828649
163423.904525,0.000000,-8068.244768,-689.485948
163423.904844,0.000000,-9548.656652,1991.848295
163423.905164,0.000000,-8364.327145,0.000000
163423.905483,1924.535449,-9474.636058,2528.115143
163423.905802,1110.308913,-8290.306550,229.828649
163423.906122,444.123565,-7994.224174,1149.143247
163423.906441,0.000000,-5403.503377,-2451.505594
163423.906760,-74.020594,-8882.471304,-1991.848295
163423.907080,-1184.329507,-11325.150913,-2911.162892
163423.907399,-1850.514855,-11695.253884,-2145.067394
163423.907718,-1924.535449,-11991.336260,-1149.143247
163423.908038,-1776.494261,-10732.986159,0.000000
163423.908357,370.102971,-9252.574275,-995.924147
163423.908677,1184.329507,-8364.327145,1378.971896
163423.908996,3478.967927,-9474.636058,3294.210641
163423.909315,-370.102971,-7105.977043,-76.609550
163423.909635,-2590.720797,-5995.668130,0.000000
163423.909954,518.144159,-9030.512492,1762.019645
163423.910273,0.000000,-8216.285956,995.924147
163423.910593,-222.061783,-8290.306550,842.705048
163423.910912,-74.020594,-9474.636058,-76.609550
163423.911231,-74.020594,-8586.388927,-689.485948
163423.911551,-2738.761985,-9030.512492,-3140.991542
163423.911870,-1258.350101,-12435.459826,-3447.429741
163423.912190,-5033.400406,-10807.006753,-4290.134789
163423.912509,-3552.988522,-11917.315666,0.000000
163423.912828,-2146.597232,-9548.656652,-1762.019645
163423.913148,1850.514855,-10584.944971,766.095498
163423.913467,2516.700203,-8142.265362,2145.067394
163423.913786,1258.350101,-7031.956449,1225.752797
163423.914106,-74.020594,-8290.306550,-76.609550
163423.914425,-296.082377,-9030.512492,2374.896044
163423.914744,1110.308913,-8290.306550,1149.143247
163423.915064,0.000000,-7772.162391,1225.752797
163423.915383,296.082377,-8364.327145,0.000000
163423.915703,-2294.638420,-7179.997637,-2451.505594
163423.916022,-1998.556043,-7920.203579,-1608.800546
163423.916341,-2368.659014,-9474.636058,-3294.210641
163423.916661,-2664.741391,-10510.924376,-2757.943793
163423.916980,-2516.700203,-11547.212695,-689.485948
163423.917299,-1776.494261,-10140.821405,-612.876398
163423.917619,-1776.494261,-9548.656652,0.000000
163423.917938,888.247130,-9844.739029,1225.752797
163423.918257,1702.473667,-9474.636058,-76.609550
163423.918577,-3923.091493,-4811.338623,-3524.039291
163423.918896,-1258.350101,-10658.965565,-1302.362347
163423.919216,-1702.473667,-10732.986159,153.219100
163423.919535,296.082377,-9844.739029,1149.143247
163423.919854,1406.391290,-8438.347739,919.314598
163423.920174,888.247130,-9548.656652,2374.896044
163423.920493,1406.391290,-7920.203579,842.705048
163423.920812,518.144159,-7550.100608,-919.314598
163423.921132,-74.020594,-9474.636058,-1608.800546
163423.921451,-1258.350101,-11251.130318,-3140.991542
163423.921770,-74.020594,-13027.624579,-689.485948
163423.922090,-592.164754,-11029.068536,0.000000
163423.922409,518.144159,-10362.883188,-842.705048
163423.922729,1628.453072,-9844.739029,-229.828649
163423.923048,2368.659014,-8882.471304,2374.896044
163423.923367,0.000000,-5995.668130,0.000000
163423.923687,148.041188,-9770.718434,995.924147
163423.924006,666.185348,-9474.636058,2145.067394
163423.924325,1850.514855,-8734.430116,3064.381992
163423.924645,2294.638420,-7994.224174,1762.019645
163423.924964,222.061783,-6365.771101,1072.533697
163423.925283,-74.020594,-8290.306550,-76.609550
163423.925603,-1554.432478,-7254.018232,-1608.800546
163423.925922,-1258.350101,-9474.636058,-4366.744339
163423.926242,-2368.659014,-11917.315666,-1685.410096
163423.926561,-4737.318029,-11325.150913,-3370.820191
163423.926880,-1776.494261,-12065.356855,-2451.505594
163423.927200,-740.205942,-11473.192101,-1915.238745
163423.927519,1036.288319,-10288.862594,-689.485948
163423.927838,1110.308913,-8216.285956,-1532.190996
163423.928158,518.144159,-7994.224174,-306.438199
163423.928477,1110.308913,-9474.636058,1149.143247
163423.928796,0.000000,-6587.832884,229.828649
163423.929116,2368.659014,-8364.327145,3140.991542
163423.929435,3849.070898,-10658.965565,4596.572988
163423.929755,592.164754,-7476.080014,1378.971896
163423.930074,518.144159,-7920.203579,1302.362347
163423.930393,-1406.391290,-7476.080014,-1532.190996
163423.930713,-3034.844362,-8956.491898,-4903.011187
163423.931032,-5921.647536,-9844.739029,-4903.011187
163423.931351,-3552.988522,-11325.150913,-3677.258390
163423.931671,-3552.988522,-11325.150913,0.000000
163423.931990,0.000000,-11695.253884,459.657299
163423.932309,-74.020594,-9474.636058,1762.019645
163423.932629,1036.288319,-9178.553681,2374.896044
163423.932948,-1480.411884,-7476.080014,0.000000
163423.933268,-222.061783,-9326.594869,1685.410096
163423.933587,666.185348,-9178.553681,2604.724693
163423.933906,0.000000,-6291.750507,1838.629195
163423.934226,-1776.494261,-9178.553681,1149.143247
163423.934545,-2886.803174,-7772.162391,-1838.629195
163423.934864,-2368.659014,-8068.244768,-612.876398
163423.935184,-2368.659014,-7476.080014,-2451.505594
163423.935503,-1850.514855,-10658.965565,-3753.867940
163423.935822,-1850.514855,-12361.439231,-2834.553343
163423.936142,-1258.350101,-11547.212695,-1455.581446
163423.936461,222.061783,-10066.800811,-153.219100
163423.936781,1924.535449,-10066.800811,153.219100
163423.937100,1406.391290,-7772.162391,2068.457845
163423.937419,2590.720797,-7624.121203,995.924147
163423.937739,0.000000,-7476.080014,612.876398
163423.938058,2072.576638,-10732.986159,3370.820191
163423.938377,3775.050304,-10658.965565,2834.553343
163423.938697,4071.132681,-8290.306550,1149.143247
163423.939016,2072.576638,-7994.224174,1532.190996
163423.939335,740.205942,-9104.533087,229.828649
163423.939655,-296.082377,-8512.368333,-842.705048
163423.939974,-74.020594,-9474.636058,-689.485948
163423.940294,-1628.453072,-10436.903782,-1302.362347
163423.940613,-1850.514855,-10584.944971,-2451.505594
163423.940932,-74.020594,-11843.295072,-76.609550
163423.941252,-74.020594,-9474.636058,-995.924147
163423.941571,0.000000,-8364.327145,0.000000
163423.941890,1110.308913,-9474.636058,-1302.362347
163423.942210,-666.185348,-9030.512492,-919.314598
163423.942529,-1998.556043,-9770.718434,-1455.581446
163423.942848,-1554.432478,-10436.903782,-306.438199
163423.943167,1702.473667,-12435.459826,2987.772442
163423.943487,2664.741391,-9548.656652,0.000000
163423.943806,3404.947333,-9474.636058,2681.334243
163423.944125,814.226536,-6809.894666,76.609550
163423.944444,0.000000,-6513.812290,-383.047749
163423.944764,-3256.906145,-4811.338623,0.000000
163423.945083,-370.102971,-8882.471304,-2528.115143
163423.945402,-2368.659014,-10732.986159,-536.266849
163423.945722,-666.185348,-10732.986159,-459.657299
163423.946041,0.000000,-11399.171507,153.219100
163423.946360,888.247130,-11103.089130,1608.800546
163423.946679,-3552.988522,-7476.080014,0.000000
163423.946999,-2368.659014,-8808.450710,-76.609550
163423.947318,-888.247130,-9992.780217,1915.238745
163423.947637,-1184.329507,-8364.327145,153.219100
163423.947956,592.164754,-8660.409521,4290.134789
163423.948276,592.164754,-8068.244768,2451.505594
163423.948595,296.082377,-8586.388927,1838.629195
163423.948914,-1258.350101,-8216.285956,689.485948
163423.949233,-3923.091493,-5403.503377,-2451.505594
163423.949553,-5033.400406,-7550.100608,-4596.572988
163423.949872,-5625.565159,-10140.821405,-4519.963438
163423.950191,-6513.812290,-9548.656652,-4903.011187
163423.950511,-3108.864956,-11917.315666,-766.095498
163423.950830,-74.020594,-13027.624579,-76.609550
163423.951149,-1184.329507,-10140.821405,0.000000
163423.951468,-74.020594,-8660.409521,229.828649
163423.951788,0.000000,-7328.038826,0.000000
163423.952107,148.041188,-9104.533087,0.000000
163423.952426,0.000000,-7476.080014,0.000000
163423.952745,2220.617826,-9178.553681,2451.505594
163423.953065,0.000000,-7179.997637,1838.629195
163423.953384,2664.741391,-10658.965565,2221.676944
163423.953703,666.185348,-9474.636058,2374.896044
163423.954022,-2072.576638,-7772.162391,0.000000
163423.954342,-1924.535449,-7328.038826,-2528.115143
163423.954661,-1036.288319,-10881.027347,-2451.505594
163423.954980,-148.041188,-10436.903782,-1225.752797
163423.955300,0.000000,-8364.327145,0.000000
163423.955619,740.205942,-7772.162391,0.000000
163423.955938,0.000000,-7179.997637,612.876398
163423.956257,2294.638420,-9474.636058,1762.019645
163423.956577,-2072.576638,-8068.244768,-1838.629195
163423.956896,-74.020594,-11325.150913,0.000000
163423.957215,0.000000,-12731.542202,1915.238745
163423.957534,1110.308913,-10732.986159,536.266849
163423.957854,222.061783,-10288.862594,-536.266849
163423.958173,0.000000,-9474.636058,0.000000
163423.958492,-518.144159,-8290.306550,-76.609550
163423.958812,296.082377,-7994.224174,-76.609550
163423.959131,0.000000,-7179.997637,-3983.696590
163423.959450,-2368.659014,-9548.656652,0.000000
163423.959769,1554.432478,-10658.965565,-76.609550
163423.960089,-1776.494261,-7772.162391,0.000000
163423.960408,444.123565,-9104.533087,0.000000
163423.960727,1110.308913,-9770.718434,0.000000
163423.961046,1110.308913,-11843.295072,-76.609550
163423.961366,1702.473667,-9474.636058,-689.485948
163423.961685,-74.020594,-9474.636058,-1302.362347
163423.962004,-74.020594,-9548.656652,0.000000
163423.962323,0.000000,-9548.656652,0.000000
163423.962643,2294.638420,-12139.377449,3370.820191
163423.962962,-370.102971,-7179.997637,1225.752797
163423.963281,-1776.494261,-8068.244768,3064.381992
163423.963601,-74.020594,-7105.977043,0.000000
163423.963920,-1036.288319,-6513.812290,-766.095498
163423.964239,-1850.514855,-9252.574275,-1302.362347
163423.964558,-2072.576638,-9992.780217,-383.047749
163423.964878,-518.144159,-10066.800811,-76.609550
163423.965197,-3552.988522,-9548.656652,-1838.629195
163423.965516,-518.144159,-11547.212695,-2451.505594
163423.965835,-1776.494261,-10140.821405,-459.657299
163423.966155,-1258.350101,-9474.636058,-1915.238745
163423.966474,-4663.297435,-7179.997637,-3217.601092
163423.966793,-2368.659014,-9548.656652,0.000000
163423.967112,222.061783,-9400.615463,1149.143247
163423.967432,1258.350101,-9400.615463,919.314598
163423.967751,1184.329507,-9252.574275,1838.629195
163423.968070,2294.638420,-9474.636058,3600.648841
163423.968390,-888.247130,-6291.750507,0.000000
163423.968709,-1628.453072,-8290.306550,-2221.676944
163423.969028,-2146.597232,-10288.862594,-2451.505594
163423.969347,-2368.659014,-10732.986159,0.000000
163423.969667,-2368.659014,-10658.965565,612.876398
163423.969986,-1258.350101,-9548.656652,-1762.019645
163423.970305,0.000000,-9548.656652,76.609550
163423.970624,0.000000,-6587.832884,0.000000
163423.970944,-74.020594,-6217.729913,-689.485948
163423.971263,2294.638420,-9474.636058,1149.143247
163423.971582,370.102971,-9104.533087,1072.533697
163423.971901,592.164754,-9252.574275,995.924147
163423.972221,-518.144159,-9474.636058,459.657299
163423.972540,-1776.494261,-10436.903782,536.266849
163423.972859,-1184.329507,-9252.574275,0.000000
163423.973179,-2072.576638,-6883.915261,-2681.334243
163423.973498,-4737.318029,-6587.832884,-4290.134789
163423.973817,-1184.329507,-11029.068536,-1608.800546
163423.974136,-1258.350101,-8882.471304,-3140.991542
163423.974456,0.000000,-9548.656652,0.000000
163423.974775,518.144159,-9474.636058,-612.876398
163423.975094,666.185348,-9030.512492,153.219100
163423.975413,1776.494261,-8290.306550,1149.143247
163423.975733,2294.638420,-9474.636058,1685.410096
163423.976052,2220.617826,-9844.739029,1762.019645
163423.976371,1702.473667,-9178.553681,-689.485948
163423.976690,0.000000,-9844.739029,1838.629195
163423.977010,-74.020594,-10510.924376,306.438199
163423.977329,-1850.514855,-8660.409521,-2221.676944
163423.977648,-74.020594,-10066.800811,-153.219100
163423.977968,0.000000,-8438.347739,-612.876398
163423.978287,-814.226536,-8142.265362,-995.924147
163423.978606,-74.020594,-10658.965565,-76.609550
163423.978925,-74.020594,-9474.636058,-383.047749
163423.979245,-74.020594,-10658.965565,-76.609550
163423.979564,-1850.514855,-8364.327145,-995.924147
163423.979883,888.247130,-8956.491898,0.000000
163423.980202,2072.576638,-8808.450710,2604.724693
163423.980522,0.000000,-7179.997637,-1225.752797
163423.980841,-296.082377,-9622.677246,-612.876398
163423.981160,-1110.308913,-10214.842000,-842.705048
163423.981479,-1184.329507,-10955.047942,-1072.533697
163423.981799,-1258.350101,-11843.295072,-2068.457845
163423.982118,-2072.576638,-12731.542202,-229.828649
163423.982437,-666.185348,-10362.883188,-76.609550
163423.982757,-1998.556043,-7105.977043,-1915.238745
163423.983076,-2368.659014,-7179.997637,-1532.190996
163423.983395,1110.308913,-11251.130318,2374.896044
163423.983714,0.000000,-7179.997637,1225.752797
163423.984034,888.247130,-8068.244768,1072.533697
163423.984353,740.205942,-9104.533087,536.266849
163423.984672,0.000000,-9252.574275,1838.629195
163423.984991,1110.308913,-7698.141797,-76.609550
163423.985311,-2368.659014,-7772.162391,0.000000
163423.985630,-740.205942,-12287.418637,-1302.362347
163423.985949,-3627.009116,-10658.965565,-2298.286494
163423.986268,-3034.844362,-9622.677246,-689.485948
163423.986588,-1776.494261,-9548.656652,0.000000
163423.986907,814.226536,-10066.800811,766.095498
163423.987226,666.185348,-8142.265362,1149.143247
163423.987546,592.164754,-6587.832884,229.828649
163423.987865,-962.267725,-6809.894666,-2834.553343
163423.988184,-74.020594,-8734.430116,-1302.362347
163423.988503,-1036.288319,-8364.327145,-2451.505594
163423.988823,0.000000,-11251.130318,1149.143247
163423.989142,-666.185348,-10658.965565,-1608.800546
163423.989461,-74.020594,-11843.295072,1149.143247
163423.989780,0.000000,-8364.327145,0.000000
163423.990100,0.000000,-8290.306550,-1608.800546
163423.990419,518.144159,-10066.800811,-1072.533697
163423.990738,1406.391290,-9918.759623,459.657299
163423.991058,1110.308913,-7920.203579,0.000000
163423.991377,2886.803174,-11843.295072,2681.334243
163423.991696,1110.308913,-9474.636058,-383.047749
163423.992015,0.000000,-9252.574275,612.876398
163423.992335,0.000000,-7179.997637,0.000000
163423.992654,1110.308913,-11251.130318,-76.609550
163423.992973,0.000000,-9548.656652,0.000000
163423.993292,1110.308913,-8734.430116,383.047749
163423.993612,1406.391290,-8364.327145,0.000000
163423.993931,370.102971,-7920.203579,-612.876398
163423.994250,1110.308913,-8882.471304,-919.314598
163423.994569,1702.473667,-10066.800811,842.705048
163423.994889,518.144159,-9178.553681,-76.609550
163423.995208,-74.020594,-11251.130318,-383.047749
163423.995527,-1702.473667,-9548.656652,-2221.676944
163423.995847,2886.803174,-13027.624579,-76.609550
163423.996166,0.000000,-10288.862594,-689.485948
163423.996485,-148.041188,-9992.780217,153.219100
163423.996804,0.000000,-8512.368333,0.000000
163423.997124,0.000000,-7179.997637,612.876398
163423.997443,-1184.329507,-8364.327145,-1225.752797
163423.997762,-592.164754,-10140.821405,612.876398
163423.998081,-74.020594,-11843.295072,1149.143247
163423.998401,-666.185348,-9474.636058,-1302.362347
163423.998720,-2146.597232,-8068.244768,-2221.676944
163423.999039,-74.020594,-9474.636058,-76.609550
163423.999358,-814.226536,-8142.265362,-383.047749
163423.999678,74.020594,-8882.471304,-536.266849
163423.999997,-666.185348,-10066.800811,-383.047749
163424.000316,-1776.494261,-10140.821405,2451.505594
163424.000636,-1258.350101,-8956.491898,0.000000
163424.000955,0.000000,-11251.130318,2757.943793
163424.001274,518.144159,-9326.594869,689.485948
163424.001593,-1110.308913,-7994.224174,1149.143247
163424.001913,-74.020594,-9474.636058,-76.609550
163424.002232,-3256.906145,-7846.182985,-1302.362347
163424.002551,-2738.761985,-9474.636058,-1149.143247
163424.002870,-3182.885551,-9474.636058,-766.095498
163424.003190,-2368.659014,-8956.491898,0.000000
163424.003509,-2442.679609,-9770.718434,-1072.533697
163424.003828,-74.020594,-8882.471304,-76.609550
163424.004147,-1554.432478,-7105.977043,-1072.533697
163424.004467,-3552.988522,-7179.997637,0.000000
163424.004786,1702.473667,-11843.295072,2374.896044
163424.005105,-1184.329507,-10732.986159,1225.752797
163424.005425,-740.205942,-10881.027347,0.000000
163424.005744,-296.082377,-11325.150913,-383.047749
163424.006063,222.061783,-10881.027347,0.000000
163424.006382,0.000000,-6587.832884,-2145.067394
163424.006702,814.226536,-8882.471304,-766.095498
163424.007021,0.000000,-9104.533087,-919.314598
163424.007340,444.123565,-9474.636058,-459.657299
163424.007659,222.061783,-9178.553681,689.485948
163424.007979,2294.638420,-9474.636058,2068.457845
163424.008298,1110.308913,-11251.130318,2374.896044
163424.008617,0.000000,-6883.915261,0.000000
163424.008936,0.000000,-7476.080014,0.000000
163424.009256,370.102971,-9030.512492,919.314598
163424.009575,-2960.823768,-6587.832884,-2451.505594
163424.009894,-222.061783,-11029.068536,76.609550
163424.010214,-814.226536,-10362.883188,-229.828649
163424.010533,-370.102971,-10807.006753,0.000000
163424.010852,1998.556043,-10658.965565,-76.609550
163424.011171,1110.308913,-8290.306550,-689.485948
163424.011491,1110.308913,-9474.636058,-766.095498
163424.011810,-1850.514855,-9474.636058,-2528.115143
163424.012129,-4737.318029,-9548.656652,-3370.820191
163424.012448,0.000000,-10140.821405,0.000000
163424.012768,-2220.617826,-7772.162391,-2298.286494
163424.013087,222.061783,-9326.594869,-153.219100
163424.013406,888.247130,-7402.059420,383.047749
163424.013725,1480.411884,-6883.915261,0.000000
163424.014045,1998.556043,-7772.162391,0.000000
163424.014364,1110.308913,-9474.636058,229.828649
163424.014683,1036.288319,-9992.780217,766.095498
163424.015003,2294.638420,-11843.295072,-76.609550
163424.015322,-74.020594,-10658.965565,-1378.971896
163424.015641,0.000000,-11029.068536,1225.752797
163424.015960,-370.102971,-9400.615463,-1149.143247
163424.016280,-1628.453072,-9696.697840,-2374.896044
163424.016599,-2664.741391,-10436.903782,-1378.971896
163424.016918,-1258.350101,-9474.636058,0.000000
163424.017237,0.000000,-6587.832884,0.000000
163424.017557,1184.329507,-6587.832884,0.000000
163424.017876,592.164754,-7994.224174,3064.381992
163424.018195,1702.473667,-7105.977043,1762.019645
163424.018514,-592.164754,-7105.977043,-76.609550
163424.018834,-1776.494261,-9548.656652,306.438199
163424.019153,-2516.700203,-10436.903782,-1149.143247
163424.019472,-3034.844362,-10658.965565,-612.876398
163424.019792,-2442.679609,-10807.006753,-1608.800546
163424.020111,-4145.153275,-9548.656652,-3064.381992
163424.020430,-1850.514855,-11843.295072,-76.609550
163424.020749,-1850.514855,-8882.471304,-2834.553343
163424.021069,-3256.906145,-8364.327145,-2451.505594
163424.021388,-888.247130,-11325.150913,919.314598
163424.021707,2294.638420,-10658.965565,2374.896044
163424.022026,2368.659014,-8512.368333,2451.505594
163424.022346,2590.720797,-7920.203579,2374.896044
163424.022665,2294.638420,-8068.244768,2068.457845
163424.022984,1184.329507,-6809.894666,1915.238745
163424.023304,518.144159,-7031.956449,76.609550
163424.023623,-74.020594,-9400.615463,-1072.533697
163424.023942,-1258.350101,-10955.047942,-689.485948
163424.024261,-1258.350101,-10066.800811,-1302.362347
163424.024581,-2368.659014,-9918.759623,-1072.533697
163424.024900,-74.020594,-11843.295072,-76.609550
163424.025219,-444.123565,-9844.739029,229.828649
163424.025538,-1184.329507,-8364.327145,-689.485948
163424.025858,-1850.514855,-8364.327145,-1915.238745
163424.026177,-222.061783,-10066.800811,306.438199
163424.026496,-296.082377,-10140.821405,1838.629195
163424.026815,814.226536,-8660.409521,1915.238745
163424.027135,-74.020594,-9474.636058,-1302.362347
163424.027454,0.000000,-8364.327145,306.438199
163424.027773,0.000000,-6587.832884,0.000000
163424.028093,-74.020594,-8882.471304,-76.609550
163424.028412,-592.164754,-9326.594869,-1608.800546
163424.028731,-222.061783,-9696.697840,-995.924147
163424.029050,148.041188,-9844.739029,0.000000
163424.029370,1184.329507,-10732.986159,1302.362347
163424.029689,296.082377,-9844.739029,-1608.800546
163424.030008,0.000000,-9548.656652,0.000000
163424.030327,0.000000,-8364.327145,-1072.533697
163424.030647,-74.020594,-10732.986159,-153.219100
163424.030966,-2812.782580,-8364.327145,-4290.134789
163424.031285,814.226536,-10658.965565,-76.609550
163424.031604,666.185348,-9252.574275,536.266849
163424.031924,1184.329507,-8882.471304,1685.410096
163424.032243,1110.308913,-7846.182985,1378.971896
163424.032562,1184.329507,-5995.668130,1838.629195
163424.032882,0.000000,-5403.503377,0.000000
163424.033201,0.000000,-8438.347739,612.876398
163424.033520,1036.288319,-10955.047942,2757.943793
163424.033839,-1258.350101,-8438.347739,-153.219100
163424.034159,-3849.070898,-8364.327145,-3677.258390
163424.034478,-962.267725,-11843.295072,-1302.362347
163424.034797,-2220.617826,-10955.047942,-2068.457845
163424.035116,-3330.926739,-9918.759623,-2451.505594
163424.035436,-3034.844362,-10658.965565,-4366.744339
163424.035755,-2442.679609,-11547.212695,-2528.115143
163424.036074,-1258.350101,-9178.553681,-689.485948
163424.036393,0.000000,-5995.668130,0.000000
163424.036713,2294.638420,-9474.636058,2374.896044
163424.037032,-592.164754,-5995.668130,1225.752797
163424.037351,-1184.329507,-4219.173869,0.000000
163424.037671,1332.370696,-6883.915261,766.095498
163424.037990,814.226536,-8660.409521,1072.533697
163424.038309,444.123565,-9844.739029,1915.238745
163424.038628,2294.638420,-9474.636058,-76.609550
163424.038948,0.000000,-10214.842000,-76.609550
163424.039267,-74.020594,-13619.789333,-383.047749
163424.039586,-1850.514855,-10066.800811,-2528.115143
163424.039905,-3849.070898,-10140.821405,-4903.011187
163424.040225,-4589.276840,-9548.656652,-4903.011187
163424.040544,-1406.391290,-10658.965565,-842.705048
163424.040863,296.082377,-8882.471304,1532.190996
163424.041182,2368.659014,-7624.121203,2145.067394
163424.041502,2294.638420,-6513.812290,3600.648841
163424.041821,2072.576638,-6587.832884,2681.334243
163424.042140,0.000000,-3923.091493,1225.752797
163424.042460,1036.288319,-7476.080014,536.266849
163424.042779,-74.020594,-11843.295072,-76.609550
163424.043098,-2294.638420,-9104.533087,-2604.724693
163424.043417,-74.020594,-11251.130318,-2528.115143
163424.043737,-666.185348,-12065.356855,-2451.505594
163424.044056,-888.247130,-12731.542202,-2834.553343
163424.044375,-1110.308913,-11843.295072,-2757.943793
163424.044694,-444.123565,-11991.336260,-1302.362347
163424.045014,-666.185348,-11103.089130,-2528.115143
163424.045333,962.267725,-9918.759623,-612.876398
163424.045652,4663.297435,-10658.965565,2374.896044
163424.045972,3478.967927,-6439.791695,2451.505594
163424.046291,5551.544565,-7105.977043,3600.648841
163424.046610,3552.988522,-7772.162391,5286.058936
163424.046929,3182.885551,-7105.977043,1762.019645
163424.047249,814.226536,-7105.977043,-306.438199
163424.047568,-962.267725,-10066.800811,-76.609550
163424.047887,-2960.823768,-7179.997637,0.000000
163424.048207,-962.267725,-10362.883188,-1838.629195
163424.048526,-1258.350101,-11769.274478,-2451.505594
163424.048845,-1554.432478,-12287.418637,-2145.067394
163424.049164,-2886.803174,-9474.636058,-2834.553343
163424.049484,-4145.153275,-8956.491898,-3983.696590
163424.049803,-1554.432478,-11843.295072,-1302.362347
163424.050122,-814.226536,-10658.965565,-76.609550
163424.050442,2294.638420,-9178.553681,1762.019645
163424.050761,2886.803174,-9326.594869,4826.401637
163424.051080,0.000000,-7179.997637,3064.381992
163424.051399,814.226536,-6513.812290,2834.553343
163424.051719,0.000000,-5625.565159,536.266849
163424.052038,-1184.329507,-7920.203579,-1915.238745
163424.052357,-2146.597232,-9548.656652,-2451.505594
163424.052677,-1480.411884,-10510.924376,-306.438199
163424.052996,-518.144159,-10658.965565,-76.609550
163424.053315,-74.020594,-13027.624579,-1608.800546
163424.053634,-666.185348,-11843.295072,-2068.457845
163424.053954,-370.102971,-13027.624579,-76.609550
163424.054273,-4145.153275,-9548.656652,-2145.067394
163424.054592,-3256.906145,-10732.986159,-1532.190996
163424.054912,-1110.308913,-10362.883188,842.705048
163424.055231,1332.370696,-8216.285956,3677.258390
163424.055550,1184.329507,-6291.750507,3064.381992
163424.055869,3108.864956,-7105.977043,4903.011187
163424.056189,4071.132681,-6809.894666,2374.896044
163424.056508,-2072.576638,-4811.338623,0.000000
163424.056827,-3849.070898,-6587.832884,-3830.477490
163424.057147,-1258.350101,-13027.624579,-1455.581446
163424.057466,-3330.926739,-11769.274478,-2757.943793
163424.057785,-2146.597232,-12139.377449,-2374.896044
163424.058104,-2294.638420,-12731.542202,-1762.019645
163424.058424,-2368.659014,-10732.986159,-2451.505594
163424.058743,-3256.906145,-8512.368333,-2528.115143
163424.059062,-3552.988522,-7772.162391,-3064.381992
163424.059382,-1184.329507,-9548.656652,-919.314598
163424.059701,4367.215058,-11843.295072,3983.696590
163424.060020,3478.967927,-8586.388927,842.705048
163424.060339,3478.967927,-9474.636058,2374.896044
163424.060659,740.205942,-7920.203579,919.314598
163424.060978,518.144159,-7920.203579,459.657299
163424.061297,0.000000,-7179.997637,-1072.533697
163424.061617,-3404.947333,-7772.162391,-1455.581446
163424.061936,-1258.350101,-10066.800811,-1608.800546
163424.062255,-962.267725,-9030.512492,-612.876398
163424.062574,0.000000,-7179.997637,0.000000
163424.062894,1184.329507,-9548.656652,919.314598
163424.063213,2294.638420,-7476.080014,-1455.581446
163424.063532,222.061783,-8660.409521,-383.047749
163424.063851,-1554.432478,-9844.739029,-2068.457845
163424.064171,-1554.432478,-11251.130318,-1838.629195
163424.064490,592.164754,-11843.295072,1149.143247
163424.064809,2072.576638,-13027.624579,2374.896044
163424.065129,814.226536,-10066.800811,-76.609550
163424.065448,-3404.947333,-5995.668130,0.000000
163424.065767,-1184.329507,-7179.997637,153.219100
163424.066086,0.000000,-6291.750507,0.000000
163424.066406,-1850.514855,-6883.915261,-2834.553343
163424.066725,-888.247130,-9252.574275,0.000000
163424.067044,592.164754,-8956.491898,1072.533697
163424.067364,1184.329507,-9844.739029,995.924147
163424.067683,2294.638420,-13027.624579,1762.019645
163424.068002,-74.020594,-11547.212695,0.000000
163424.068321,-1776.494261,-11029.068536,-1225.752797
163424.068641,-1258.350101,-11843.295072,-2681.334243
163424.068960,-2442.679609,-14211.954086,-1302.362347
163424.069279,-2368.659014,-9548.656652,0.000000
163424.069599,-74.020594,-9030.512492,153.219100
163424.069918,1184.329507,-8438.347739,1225.752797
163424.070237,1924.535449,-7476.080014,2374.896044
163424.070556,1110.308913,-6143.709319,2528.115143
163424.070876,1998.556043,-7105.977043,2374.896044
163424.071195,-2368.659014,-6587.832884,0.000000
163424.071514,-74.020594,-9474.636058,1455.581446
163424.071834,-814.226536,-9178.553681,-76.609550
163424.072153,-1258.350101,-8734.430116,-842.705048
163424.072472,-2368.659014,-10732.986159,612.876398
163424.072791,-2294.638420,-10955.047942,-1455.581446
163424.073111,-3849.070898,-10214.842000,-3064.381992
163424.073430,-4589.276840,-11029.068536,-3600.648841
163424.073749,-4071.132681,-10436.903782,-4826.401637
163424.074069,-1258.350101,-11103.089130,-995.924147
163424.074388,0.000000,-8956.491898,0.000000
163424.074707,1332.370696,-9844.739029,2757.943793
163424.075026,1702.473667,-7698.141797,1455.581446
163424.075346,2294.638420,-7698.141797,3600.648841
163424.075665,0.000000,-6291.750507,612.876398
163424.075984,0.000000,-7698.141797,-306.438199
163424.076304,518.144159,-9104.533087,229.828649
163424.076623,740.205942,-9326.594869,995.924147
163424.076942,-666.185348,-8364.327145,-1838.629195
163424.077261,-444.123565,-11325.150913,-383.047749
163424.077581,-1850.514855,-8586.388927,-3370.820191
163424.077900,-3552.988522,-8956.491898,-3677.258390
163424.078219,-2220.617826,-10732.986159,-4903.011187
163424.078539,-2072.576638,-10732.986159,-1225.752797
163424.078858,1998.556043,-10140.821405,76.609550
163424.079177,2664.741391,-8734.430116,1838.629195
163424.079496,2886.803174,-8512.368333,1838.629195
163424.079816,1998.556043,-7179.997637,0.000000
163424.080135,2294.638420,-8290.306550,459.657299
163424.080454,-74.020594,-9104.533087,689.485948
163424.080774,-1850.514855,-8882.471304,-1608.800546
163424.081093,-1406.391290,-9474.636058,-76.609550
163424.081412,0.000000,-6587.832884,0.000000
163424.081731,0.000000,-7624.121203,-1608.800546
163424.082051,370.102971,-10288.862594,-383.047749
163424.082370,-666.185348,-9400.615463,-1915.238745
163424.082689,-2146.597232,-8734.430116,-2911.162892
163424.083009,-1258.350101,-11843.295072,-3140.991542
163424.083328,-1406.391290,-12805.562797,-2681.334243
163424.083647,-1036.288319,-10732.986159,-1225.752797
163424.083966,2294.638420,-12731.542202,2374.896044
163424.084286,-74.020594,-10658.965565,-76.609550
163424.084605,74.020594,-5995.668130,-1685.410096
163424.084924,2442.679609,-7105.977043,1762.019645
163424.085244,1258.350101,-5699.585753,766.095498
163424.085563,962.267725,-8068.244768,995.924147
163424.085882,1554.432478,-8216.285956,2987.772442
163424.086201,2368.659014,-9548.656652,4826.401637
163424.086521,518.144159,-8734.430116,766.095498
163424.086840,-814.226536,-10436.903782,-536.266849
163424.087159,-1702.473667,-9992.780217,-766.095498
163424.087479,-5329.482782,-8364.327145,-3064.381992
163424.087798,-5403.503377,-11843.295072,-3753.867940
163424.088117,-3627.009116,-12879.583391,-4443.353888
163424.088436,-2960.823768,-11325.150913,-2145.067394
163424.088756,-3552.988522,-8364.327145,-1838.629195
163424.089075,-74.020594,-10658.965565,2374.896044
163424.089394,0.000000,-8364.327145,2451.505594
163424.089714,0.000000,-5625.565159,1378.971896
163424.090033,74.020594,-5625.565159,612.876398
163424.090352,0.000000,-7105.977043,1532.190996
163424.090671,296.082377,-7772.162391,2451.505594
163424.090991,0.000000,-8364.327145,766.095498
163424.091310,-814.226536,-9252.574275,-995.924147
163424.091629,-1554.432478,-11251.130318,-2681.334243
163424.091948,-3997.112087,-9844.739029,-3447.429741
163424.092268,-666.185348,-11843.295072,-2528.115143
163424.092587,-2368.659014,-12213.398043,-2451.505594
163424.092906,-592.164754,-11399.171507,-1685.410096
163424.093226,962.267725,-10658.965565,612.876398
163424.093545,2072.576638,-8512.368333,2374.896044
163424.093864,2516.700203,-8364.327145,4290.134789
163424.094183,3478.967927,-7698.141797,4366.744339
163424.094503,2886.803174,-4737.318029,842.705048
163424.094822,592.164754,-6883.915261,1838.629195
163424.095141,-148.041188,-8068.244768,0.000000
163424.095461,-74.020594,-9474.636058,-76.609550
163424.095780,-444.123565,-9400.615463,0.000000
163424.096099,0.000000,-10214.842000,-1455.581446
163424.096418,-1184.329507,-10436.903782,-1915.238745
163424.096738,296.082377,-10732.986159,-76.609550
163424.097057,-1184.329507,-9548.656652,-4596.572988
163424.097376,-1776.494261,-11029.068536,-3064.381992
163424.097696,444.123565,-12435.459826,-2221.676944
163424.098015,962.267725,-11843.295072,-689.485948
163424.098334,0.000000,-7772.162391,-2451.505594
163424.098653,2294.638420,-10510.924376,842.705048
163424.098973,1480.411884,-8068.244768,842.705048
163424.099292,1702.473667,-7031.956449,919.314598
163424.099611,814.226536,-7179.997637,0.000000
163424.099931,296.082377,-8586.388927,2298.286494
163424.100250,592.164754,-7179.997637,1685.410096
163424.100569,2368.659014,-8438.347739,2528.115143
163424.100888,1924.535449,-9844.739029,2145.067394
163424.101208,1702.473667,-9474.636058,-76.609550
163424.101527,-2368.659014,-7179.997637,-3677.258390
163424.101846,-1554.432478,-10214.842000,-2374.896044
163424.102166,-2294.638420,-11991.336260,-2604.724693
163424.102485,-2072.576638,-12139.377449,-1838.629195
163424.102804,-888.247130,-10955.047942,-383.047749
163424.103123,-74.020594,-10658.965565,-76.609550
163424.103443,0.000000,-9252.574275,229.828649
163424.103762,-2368.659014,-5107.421000,0.000000
163424.104081,1998.556043,-7698.141797,1762.019645
163424.104401,-74.020594,-7550.100608,1991.848295
163424.104720,-2960.823768,-7179.997637,306.438199
163424.105039,296.082377,-8438.347739,2068.457845
163424.105358,0.000000,-8364.327145,536.266849
163424.105678,-888.247130,-9030.512492,-689.485948
163424.105997,-666.185348,-10066.800811,-689.485948
163424.106316,-1258.350101,-9474.636058,-689.485948
163424.106636,-1258.350101,-11843.295072,-2834.553343
163424.106955,-3182.885551,-11547.212695,-4673.182538
163424.107274,-2960.823768,-11029.068536,-4903.011187
163424.107593,-1776.494261,-11325.150913,1838.629195
163424.107913,-2368.659014,-9548.656652,0.000000
163424.108232,888.247130,-9622.677246,1685.410096
163424.108551,2368.659014,-7772.162391,2374.896044
163424.108871,1924.535449,-5477.523971,2068.457845
163424.109190,1702.473667,-7994.224174,1838.629195
163424.109509,2072.576638,-9918.759623,4673.182538
163424.109828,2294.638420,-7698.141797,2374.896044
163424.110148,0.000000,-7105.977043,-76.609550
163424.110467,-1702.473667,-9030.512492,-1991.848295
163424.110786,-2368.659014,-11843.295072,689.485948
163424.111106,-2442.679609,-10288.862594,-2604.724693
163424.111425,-3182.885551,-10362.883188,-3830.477490
163424.111744,-3775.050304,-12287.418637,-3983.696590
163424.112063,-4145.153275,-10732.986159,-4903.011187
163424.112383,-2960.823768,-9548.656652,-2145.067394
163424.112702,-1480.411884,-9622.677246,306.438199
163424.113021,296.082377,-9548.656652,2451.505594
163424.113341,2886.803174,-8290.306550,2221.676944
163424.113660,2294.638420,-6513.812290,1149.143247
163424.113979,1184.329507,-8364.327145,2145.067394
163424.114298,222.061783,-7994.224174,1685.410096
163424.114618,1406.391290,-8216.285956,1302.362347
163424.114937,962.267725,-8734.430116,76.609550
163424.115256,-2368.659014,-8364.327145,-2451.505594
163424.115576,-962.267725,-10140.821405,-1532.190996
163424.115895,-2146.597232,-7772.162391,-3064.381992
163424.116214,-2368.659014,-10140.821405,-2451.505594
163424.116533,-962.267725,-11843.295072,-3677.258390
163424.116853,-74.020594,-12435.459826,-1302.362347
163424.117172,148.041188,-11029.068536,383.047749
163424.117491,592.164754,-10140.821405,1455.581446
163424.117811,2294.638420,-9252.574275,2911.162892
163424.118130,3552.988522,-7031.956449,3600.648841
163424.118449,0.000000,-3182.885551,612.876398
163424.118768,-74.020594,-6513.812290,-689.485948
163424.119088,-2368.659014,-7772.162391,0.000000
163424.119407,518.144159,-9252.574275,919.314598
163424.119726,888.247130,-10658.965565,-76.609550
163424.120046,-814.226536,-13323.706956,-76.609550
163424.120365,-3256.906145,-10436.903782,-2068.457845
163424.120684,-2516.700203,-9474.636058,-2604.724693
163424.121003,-2294.638420,-9770.718434,-3600.648841
163424.121323,-4737.318029,-10140.821405,-4596.572988
163424.121642,-592.164754,-11029.068536,-1378.971896
163424.121961,-74.020594,-11547.212695,842.705048
163424.122280,814.226536,-11843.295072,2374.896044
163424.122600,666.185348,-7772.162391,689.485948
163424.122919,2960.823768,-8438.347739,3830.477490
163424.123238,1184.329507,-5995.668130,1225.752797
163424.123558,1036.288319,-7698.141797,1532.190996
163424.123877,370.102971,-8882.471304,1915.238745
163424.124196,1184.329507,-8660.409521,1072.533697
163424.124515,-74.020594,-8290.306550,-2528.115143
163424.124835,-1036.288319,-10140.821405,-1072.533697
163424.125154,-1776.494261,-9548.656652,-1302.362347
163424.125473,-1998.556043,-8512.368333,-1991.848295
163424.125793,-1258.350101,-11251.130318,-1302.362347
163424.126112,-296.082377,-12435.459826,-2528.115143
163424.126431,-2960.823768,-9548.656652,0.000000
163424.126750,-518.144159,-11103.089130,-76.609550
163424.127070,-74.020594,-12509.480420,1762.019645
163424.127389,0.000000,-8364.327145,0.000000
163424.127708,814.226536,-6217.729913,-229.828649
163424.128028,592.164754,-7105.977043,689.485948
163424.128347,-370.102971,-7994.224174,459.657299
163424.128666,-148.041188,-7994.224174,612.876398
163424.128985,1036.288319,-7772.162391,229.828649
163424.129305,518.144159,-9474.636058,-536.266849
163424.129624,-444.123565,-11473.192101,-995.924147
163424.129943,-592.164754,-9696.697840,306.438199
163424.130263,-74.020594,-10066.800811,-1302.362347
163424.130582,-2368.659014,-9548.656652,-2451.505594
163424.130901,-74.020594,-10955.047942,-2528.115143
163424.131220,370.102971,-10584.944971,0.000000
163424.131540,0.000000,-10436.903782,229.828649
163424.131859,222.061783,-10658.965565,995.924147
163424.132178,2886.803174,-9474.636058,536.266849
163424.132498,2368.659014,-5995.668130,1225.752797
163424.132817,0.000000,-5995.668130,1225.752797
163424.133136,-74.020594,-9474.636058,2068.457845
163424.133455,-666.185348,-8068.244768,536.266849
163424.133775,0.000000,-7179.997637,1225.752797
163424.134094,-1406.391290,-9030.512492,-1072.533697
163424.134413,-2960.823768,-9696.697840,-1225.752797
163424.134733,-2146.597232,-8586.388927,-306.438199
163424.135052,-2590.720797,-7105.977043,-3217.601092
163424.135371,-2442.679609,-9178.553681,-3753.867940
163424.135690,-2442.679609,-10658.965565,-4366.744339
163424.136010,-2960.823768,-10732.986159,-1225.752797
163424.136329,-814.226536,-10955.047942,612.876398
163424.136648,1110.308913,-13323.706956,2374.896044
163424.136968,296.082377,-9548.656652,1378.971896
163424.137287,1110.308913,-6957.935855,919.314598
163424.137606,0.000000,-7254.018232,-306.438199
163424.137925,-1480.411884,-8882.471304,306.438199
163424.138245,1110.308913,-8882.471304,1455.581446
163424.138564,2886.803174,-9474.636058,2374.896044
163424.138883,222.061783,-8216.285956,0.000000
163424.139203,-1110.308913,-8142.265362,-1608.800546
163424.139522,-2072.576638,-7476.080014,612.876398
163424.139841,2146.597232,-9474.636058,-76.609550
163424.140160,-2220.617826,-9548.656652,-2987.772442
163424.140480,-2146.597232,-11399.171507,-2451.505594
163424.140799,-1258.350101,-11621.233289,-842.705048
163424.141118,-962.267725,-11177.109724,153.219100
163424.141438,0.000000,-10436.903782,612.876398
163424.141757,1850.514855,-9992.780217,1149.143247
163424.142076,2294.638420,-9474.636058,2374.896044
163424.142395,-1406.391290,-6069.688724,-1302.362347
163424.142715,-2072.576638,-7179.997637,0.000000
163424.143034,3182.885551,-10658.965565,2987.772442
163424.143353,1480.411884,-7698.141797,1225.752797
163424.143673,370.102971,-8882.471304,306.438199
163424.143992,-1480.411884,-9178.553681,-76.609550
163424.144311,-2960.823768,-8364.327145,0.000000
163424.144631,-3256.906145,-8364.327145,-3064.381992
163424.144950,-4441.235652,-9548.656652,-4903.011187
163424.145269,-2368.659014,-11473.192101,-3217.601092
163424.145589,-370.102971,-12287.418637,-76.609550
163424.145908,-74.020594,-10658.965565,-1302.362347
163424.146227,2886.803174,-11695.253884,1608.800546
163424.146547,1184.329507,-7772.162391,1532.190996
163424.146866,3034.844362,-7031.956449,1072.533697
163424.147186,1554.432478,-7105.977043,919.314598
163424.147505,0.000000,-7476.080014,1225.752797
163424.147824,814.226536,-7254.018232,536.266849
163424.148144,1554.432478,-9548.656652,2298.286494
163424.148463,1110.308913,-9474.636058,1762.019645
163424.148782,-74.020594,-9474.636058,-689.485948
163424.149102,-1850.514855,-7031.956449,-3524.039291
163424.149421,-666.185348,-9104.533087,-1991.848295
163424.149740,-1998.556043,-10436.903782,-3294.210641
163424.150060,-1628.453072,-10362.883188,-2298.286494
163424.150379,-1258.350101,-11251.130318,-76.609550
163424.150698,-592.164754,-11695.253884,1149.143247
163424.151018,370.102971,-9400.615463,-689.485948
163424.151337,296.082377,-7179.997637,0.000000
163424.151656,2368.659014,-8290.306550,1915.238745
163424.151976,0.000000,-8660.409521,0.000000
163424.152295,-3330.926739,-8364.327145,-1838.629195
163424.152614,-222.061783,-9326.594869,0.000000
163424.152934,0.000000,-8734.430116,153.219100
163424.153253,518.144159,-9992.780217,0.000000
163424.153573,1998.556043,-9474.636058,1762.019645
163424.153892,814.226536,-9030.512492,536.266849
163424.154211,-74.020594,-9474.636058,-76.609550
163424.154531,-74.020594,-10658.965565,-2528.115143
163424.154850,0.000000,-9696.697840,-612.876398
163424.155169,0.000000,-9548.656652,2451.505594
163424.155489,222.061783,-9326.594869,842.705048
163424.155808,1184.329507,-10362.883188,766.095498
163424.156127,518.144159,-9030.512492,459.657299
163424.156447,-1480.411884,-7920.203579,-1302.362347
163424.156766,-1258.350101,-9474.636058,-76.609550
163424.157085,-2442.679609,-13027.624579,-76.609550
163424.157405,-2738.761985,-8660.409521,-766.095498
163424.157724,-1776.494261,-8512.368333,1225.752797
163424.158043,-74.020594,-9918.759623,4290.134789
163424.158363,-3182.885551,-4811.338623,0.000000
163424.158682,-814.226536,-6439.791695,995.924147
163424.159001,-2220.617826,-6735.874072,-2528.115143
163424.159321,-3108.864956,-9474.636058,-2451.505594
163424.159640,-1258.350101,-11843.295072,-383.047749
163424.159960,-2442.679609,-11177.109724,-229.828649
163424.160279,-2960.823768,-10436.903782,-2451.505594
163424.160598,-444.123565,-11621.233289,-1838.629195
163424.160918,1628.453072,-10881.027347,-76.609550
163424.161237,-74.020594,-7254.018232,-4136.915689
163424.161556,-74.020594,-9474.636058,-383.047749
163424.161876,0.000000,-9030.512492,612.876398
163424.162195,2368.659014,-9474.636058,2374.896044
163424.162514,3552.988522,-7994.224174,3370.820191
163424.162834,2368.659014,-8216.285956,5515.887586
163424.163153,1702.473667,-6883.915261,2604.724693
163424.163472,814.226536,-6883.915261,995.924147
163424.163792,-592.164754,-7402.059420,-1915.238745
163424.164111,-1998.556043,-9548.656652,-4290.134789
163424.164430,-2368.659014,-9844.739029,-4290.134789
163424.164750,-666.185348,-12435.459826,-2681.334243
163424.165069,-3256.906145,-11621.233289,-2911.162892
163424.165388,-2960.823768,-9548.656652,-4903.011187
163424.165708,-962.267725,-10658.965565,-1302.362347
163424.166027,-592.164754,-9252.574275,0.000000
163424.166347,-1554.432478,-8882.471304,-153.219100
163424.166666,222.061783,-9030.512492,2068.457845
163424.166985,2516.700203,-7402.059420,3064.381992
163424.167305,2664.741391,-6069.688724,2604.724693
163424.167624,2368.659014,-7179.997637,2451.505594
163424.167943,2590.720797,-7994.224174,1991.848295
163424.168263,592.164754,-6291.750507,-2451.505594
163424.168582,-2368.659014,-8512.368333,-3370.820191
163424.168901,-1258.350101,-11843.295072,-4979.620737
163424.169221,-2516.700203,-13101.645173,-3830.477490
163424.169540,-1184.329507,-12361.439231,-2221.676944
163424.169859,370.102971,-12731.542202,-995.924147
163424.170179,1480.411884,-11473.192101,229.828649
163424.170498,1184.329507,-7179.997637,306.438199
163424.170817,518.144159,-6069.688724,1072.533697
163424.171137,2294.638420,-9474.636058,2987.772442
163424.171456,1110.308913,-6661.853478,1608.800546
163424.171775,2368.659014,-7179.997637,3753.867940
163424.172095,4071.132681,-8290.306550,2374.896044
163424.172414,0.000000,-9104.533087,1608.800546
163424.172734,-2146.597232,-9326.594869,459.657299
163424.173053,-2812.782580,-8438.347739,-2451.505594
163424.173372,-3108.864956,-10881.027347,-4213.525239
163424.173692,-4737.318029,-11325.150913,-4290.134789
163424.174011,-5921.647536,-9844.739029,-4903.011187
163424.174330,-2072.576638,-12139.377449,-612.876398
163424.174650,-74.020594,-11843.295072,2068.457845
163424.174969,-2072.576638,-8364.327145,-2374.896044
163424.175288,-74.020594,-8290.306550,-76.609550
163424.175608,0.000000,-7328.038826,383.047749
163424.175927,0.000000,-8216.285956,2068.457845
163424.176246,1702.473667,-8734.430116,3140.991542
163424.176566,2368.659014,-8290.306550,2757.943793
163424.176885,0.000000,-6957.935855,0.000000
163424.177204,0.000000,-9622.677246,612.876398
163424.177524,-1258.350101,-9474.636058,-76.609550
163424.177843,-1258.350101,-9474.636058,-2528.115143
163424.178162,-5921.647536,-7179.997637,-6741.640382
163424.178482,-2442.679609,-11177.109724,-2834.553343
163424.178801,-962.267725,-10658.965565,-1225.752797
163424.179121,370.102971,-10510.924376,383.047749
163424.179440,740.205942,-10140.821405,1378.971896
163424.179759,1184.329507,-8882.471304,842.705048
163424.180079,0.000000,-6661.853478,0.000000
163424.180398,-1184.329507,-7476.080014,0.000000
163424.180717,-74.020594,-11251.130318,1762.019645
163424.181037,-370.102971,-9030.512492,2298.286494
163424.181356,0.000000,-5995.668130,0.000000
163424.181675,666.185348,-9474.636058,536.266849
163424.181995,-2072.576638,-9178.553681,-919.314598
163424.182314,-2442.679609,-8660.409521,-1608.800546
163424.182633,-1850.514855,-8882.471304,-3753.867940
163424.182953,-1258.350101,-10658.965565,-4979.620737
163424.183272,-1258.350101,-13027.624579,-1302.362347
163424.183591,-74.020594,-10066.800811,-995.924147
163424.183911,740.205942,-9696.697840,1225.752797
163424.184230,2960.823768,-10140.821405,1838.629195
163424.184549,1480.411884,-7772.162391,0.000000
163424.184869,2590.720797,-7698.141797,1072.533697
163424.185188,666.185348,-8290.306550,0.000000
163424.185508,0.000000,-10584.944971,689.485948
163424.185827,2294.638420,-10658.965565,1762.019645
163424.186146,1998.556043,-10140.821405,2451.505594
163424.186466,2294.638420,-10658.965565,-76.609550
163424.186785,-1184.329507,-8364.327145,-383.047749
163424.187104,-666.185348,-6513.812290,-842.705048
163424.187424,-1184.329507,-7476.080014,0.000000
163424.187743,-2294.638420,-8142.265362,-2987.772442
163424.188062,-1776.494261,-10140.821405,-2221.676944
163424.188382,-1332.370696,-10214.842000,-153.219100
163424.188701,-518.144159,-9400.615463,0.000000
163424.189020,-74.020594,-10510.924376,-1838.629195
163424.189340,0.000000,-9548.656652,612.876398
163424.189659,1110.308913,-8734.430116,-76.609550
163424.189978,-74.020594,-9474.636058,-1302.362347
163424.190298,-2590.720797,-9474.636058,-536.266849
163424.190617,592.164754,-11621.233289,1838.629195
163424.190936,-296.082377,-9548.656652,229.828649
163424.191256,-296.082377,-9400.615463,-76.609550
163424.191575,-1258.350101,-9918.759623,0.000000
163424.191895,-2960.823768,-5995.668130,0.000000
163424.192214,-1332.370696,-6587.832884,-2298.286494
163424.192533,-1776.494261,-8068.244768,-4290.134789
163424.192853,296.082377,-11547.212695,459.657299
163424.193172,-74.020594,-10214.842000,229.828649
163424.193491,1702.473667,-11251.130318,-76.609550
163424.193811,0.000000,-10436.903782,919.314598
163424.194130,888.247130,-9548.656652,459.657299
163424.194449,0.000000,-7402.059420,-612.876398
163424.194769,-1554.432478,-8438.347739,-995.924147
163424.195088,-3552.988522,-8364.327145,-2451.505594
163424.195407,0.000000,-9474.636058,-76.609550
163424.195727,0.000000,-7772.162391,612.876398
163424.196046,-148.041188,-9326.594869,1455.581446
163424.196365,-74.020594,-10658.965565,2911.162892
163424.196685,592.164754,-8808.450710,2528.115143
163424.197004,-1554.432478,-6883.915261,-2834.553343
163424.197323,-2960.823768,-8956.491898,-3370.820191
163424.197643,-1702.473667,-10510.924376,-2451.505594
163424.197962,-1924.535449,-9548.656652,-2451.505594
163424.198282,1332.370696,-10510.924376,0.000000
163424.198601,1628.453072,-11843.295072,842.705048
163424.198920,1554.432478,-10066.800811,-76.609550
163424.199240,0.000000,-5551.544565,-3064.381992
163424.199559,0.000000,-9548.656652,1225.752797
163424.199878,-1776.494261,-9548.656652,0.000000
163424.200198,1702.473667,-9770.718434,1455.581446
163424.200517,2294.638420,-9104.533087,1915.238745
163424.200836,1924.535449,-9622.677246,1225.752797
163424.201156,2294.638420,-9474.636058,-76.609550
163424.201475,962.267725,-7772.162391,842.705048
163424.201794,222.061783,-7402.059420,-1378.971896
163424.202114,-1332.370696,-9400.615463,-2528.115143
163424.202433,-1184.329507,-10807.006753,-995.924147
163424.202752,0.000000,-11547.212695,1532.190996
163424.203072,-2368.659014,-9548.656652,0.000000
163424.203391,-74.020594,-11473.192101,-76.609550
163424.203710,-962.267725,-8290.306550,-689.485948
163424.204030,-2072.576638,-6587.832884,-2451.505594
163424.204349,-666.185348,-8290.306550,-1302.362347
163424.204669,-444.123565,-9474.636058,153.219100
163424.204988,0.000000,-9252.574275,995.924147
163424.205307,-592.164754,-8882.471304,612.876398
163424.205627,-74.020594,-11177.109724,612.876398
163424.205946,-1258.350101,-9474.636058,-153.219100
163424.206265,-1776.494261,-8438.347739,-229.828649
163424.206585,-666.185348,-9474.636058,-1455.581446
163424.206904,-370.102971,-11251.130318,-1455.581446
163424.207223,-3552.988522,-9548.656652,0.000000
163424.207543,222.061783,-9474.636058,229.828649
163424.207862,962.267725,-9918.759623,459.657299
163424.208181,-222.061783,-9622.677246,536.266849
163424.208501,-740.205942,-9030.512492,306.438199
163424.208820,-1406.391290,-8290.306550,-76.609550
163424.209139,-2738.761985,-10214.842000,-459.657299
163424.209459,-3849.070898,-10732.986159,0.000000
163424.209778,-1258.350101,-13027.624579,2374.896044
163424.210097,-3627.009116,-9474.636058,383.047749
163424.210417,-5921.647536,-9548.656652,1225.752797
163424.210736,-4219.173869,-8290.306550,1149.143247
163424.211056,-3256.906145,-6069.688724,1072.533697
163424.211375,-4441.235652,-5773.606348,-842.705048
163424.211694,-6291.750507,-6587.832884,-3524.039291
163424.212014,-5995.668130,-9474.636058,-2528.115143
163424.212333,-7550.100608,-10214.842000,-1302.362347
163424.212652,-9474.636058,-9548.656652,-2145.067394
163424.212972,-7920.203579,-10881.027347,-2221.676944
163424.213291,-5107.421000,-11843.295072,-76.609550
163424.213610,-4737.318029,-9548.656652,1225.752797
163424.213930,-2146.597232,-7624.121203,1455.581446
163424.214249,-3627.009116,-6439.791695,153.219100
163424.214568,-4219.173869,-7698.141797,-1302.362347
163424.214888,-3627.009116,-8734.430116,-2528.115143
163424.215207,-3182.885551,-12139.377449,2068.457845
163424.215526,-4811.338623,-11251.130318,1149.143247
163424.215846,-7402.059420,-9178.553681,-1225.752797
163424.216165,-4811.338623,-10362.883188,-1302.362347
163424.216484,-1258.350101,-13027.624579,3600.648841
163424.216804,-2072.576638,-7772.162391,3370.820191
163424.217123,-1924.535449,-5329.482782,2834.553343
163424.217443,-3404.947333,-4515.256246,-1608.800546
163424.217762,-4441.235652,-7179.997637,-4749.792088
163424.218081,-4515.256246,-10732.986159,-3064.381992
163424.218401,-4071.132681,-14063.912898,-76.609550
163424.218720,-5107.421000,-13619.789333,2374.896044
163424.219039,-4811.338623,-12435.459826,-76.609550
163424.219359,-6291.750507,-8660.409521,-2757.943793
163424.219678,-666.185348,-9474.636058,-76.609550
163424.219997,592.164754,-8956.491898,2374.896044
163424.220317,2590.720797,-8290.306550,5515.887586
163424.220636,370.102971,-6365.771101,3600.648841
163424.220955,-1776.494261,-5403.503377,1225.752797
163424.221275,-4145.153275,-5107.421000,-2451.505594
163424.221594,-3330.926739,-8586.388927,-4903.011187
163424.221913,-2442.679609,-13027.624579,-4979.620737
163424.222233,-3923.091493,-14804.118840,-4060.306139
163424.222552,-5107.421000,-14063.912898,-4060.306139
163424.222871,-2442.679609,-15396.283594,-76.609550
163424.223191,-2960.823768,-10584.944971,919.314598
163424.223510,-148.041188,-7476.080014,2068.457845
163424.223830,1924.535449,-5033.400406,1762.019645
163424.224149,2368.659014,-4811.338623,4290.134789
