#time,accel_x,accel_y,accel_z
59337.984059,-222.061783,-9400.615463,766.095498
59337.984368,-370.102971,-9178.553681,842.705048
59337.984678,-296.082377,-8438.347739,536.266849
59337.984988,0.000000,-9696.697840,0.000000
59337.985297,0.000000,-9548.656652,1225.752797
59337.985607,-74.020594,-9474.636058,-76.609550
59337.985917,-1184.329507,-8364.327145,612.876398
59337.986227,-74.020594,-9474.636058,-383.047749
59337.986536,-74.020594,-8882.471304,-76.609550
59337.986846,-740.205942,-8956.491898,459.657299
59337.987156,-370.102971,-8956.491898,919.314598
59337.987465,-296.082377,-9030.512492,842.705048
59337.987775,0.000000,-9548.656652,1838.629195
59337.988085,-962.267725,-9474.636058,1149.143247
59337.988394,-814.226536,-7698.141797,-383.047749
59337.988704,0.000000,-9548.656652,1378.971896
59337.989014,-814.226536,-8364.327145,0.000000
59337.989323,2294.638420,-13027.624579,3600.648841
59337.989633,0.000000,-7772.162391,1225.752797
59337.989943,222.061783,-9400.615463,995.924147
59337.990253,-370.102971,-9474.636058,1302.362347
59337.990562,-222.061783,-9178.553681,766.095498
59337.990872,-74.020594,-8290.306550,-76.609550
59337.991182,-592.164754,-8364.327145,1838.629195
59337.991491,0.000000,-9548.656652,1532.190996
59337.991801,-74.020594,-8882.471304,-76.609550
59337.992111,0.000000,-8364.327145,1225.752797
59337.992420,-370.102971,-9178.553681,0.000000
59337.992730,-74.020594,-8882.471304,842.705048
59337.993040,-592.164754,-8808.450710,306.438199
59337.993350,0.000000,-8956.491898,919.314598
59337.993659,-370.102971,-9326.594869,842.705048
59337.993969,148.041188,-9844.739029,2451.505594
59337.994279,-74.020594,-8882.471304,-76.609550
59337.994588,-1776.494261,-7476.080014,0.000000
59337.994898,222.061783,-10140.821405,2221.676944
59337.995208,-2960.823768,-5995.668130,-1532.190996
59337.995517,2294.638420,-11843.295072,3600.648841
59337.995827,0.000000,-8956.491898,1225.752797
59337.996137,-74.020594,-9400.615463,1149.143247
59337.996446,-592.164754,-9104.533087,689.485948
59337.996756,-592.164754,-9104.533087,689.485948
59337.997066,-1406.391290,-7402.059420,-1532.190996
59337.997376,-1184.329507,-7772.162391,153.219100
59337.997685,-74.020594,-10510.924376,1762.019645
59337.997995,-1776.494261,-7772.162391,0.000000
59337.998305,2294.638420,-11843.295072,2374.896044
59337.998614,0.000000,-7476.080014,1225.752797
59337.998924,0.000000,-9252.574275,1532.190996
59337.999234,-518.144159,-8882.471304,536.266849
59337.999543,-148.041188,-9252.574275,995.924147
59337.999853,-518.144159,-9030.512492,995.924147
59338.000163,-74.020594,-8882.471304,0.000000
59338.000472,0.000000,-8734.430116,612.876398
59338.000782,962.267725,-10066.800811,2068.457845
59338.001092,-370.102971,-7402.059420,-1302.362347
59338.001402,592.164754,-10140.821405,3064.381992
59338.001711,-2368.659014,-7179.997637,0.000000
59338.002021,-666.185348,-8512.368333,459.657299
59338.002331,0.000000,-9252.574275,766.095498
59338.002640,-296.082377,-9030.512492,689.485948
59338.002950,-518.144159,-9252.574275,612.876398
59338.003260,592.164754,-10066.800811,2068.457845
59338.003569,-148.041188,-8808.450710,229.828649
59338.003879,-1702.473667,-7920.203579,0.000000
59338.004189,518.144159,-11251.130318,2374.896044
59338.004499,-1258.350101,-7698.141797,-383.047749
59338.004808,518.144159,-9474.636058,536.266849
59338.005118,1110.308913,-9844.739029,1149.143247
59338.005428,-518.144159,-8734.430116,612.876398
59338.005737,-296.082377,-9104.533087,1149.143247
59338.006047,-666.185348,-8956.491898,612.876398
59338.006357,0.000000,-8956.491898,612.876398
59338.006666,370.102971,-9474.636058,1455.581446
59338.006976,-74.020594,-9474.636058,1149.143247
59338.007286,-2960.823768,-7179.997637,0.000000
59338.007595,2294.638420,-9474.636058,2221.676944
59338.007905,592.164754,-9326.594869,1838.629195
59338.008215,1998.556043,-11251.130318,3600.648841
59338.008525,1110.308913,-8438.347739,1072.533697
59338.008834,1776.494261,-9252.574275,1149.143247
59338.009144,1850.514855,-8882.471304,919.314598
59338.009454,370.102971,-7476.080014,0.000000
59338.009763,1184.329507,-8660.409521,612.876398
59338.010073,3108.864956,-9844.739029,2374.896044
59338.010383,148.041188,-7179.997637,0.000000
59338.010692,4663.297435,-10658.965565,2068.457845
59338.011002,0.000000,-7179.997637,0.000000
59338.011312,2590.720797,-9474.636058,459.657299
59338.011622,3478.967927,-9104.533087,612.876398
59338.011931,4367.215058,-8956.491898,1072.533697
59338.012241,4737.318029,-8660.409521,1685.410096
59338.012551,6809.894666,-9992.780217,3600.648841
59338.012860,5403.503377,-8290.306550,1149.143247
59338.013170,5773.606348,-8660.409521,1685.410096
59338.013480,5329.482782,-8660.409521,766.095498
59338.013789,5181.441594,-8660.409521,0.000000
59338.014099,3849.070898,-6735.874072,-1838.629195
59338.014409,5551.544565,-9252.574275,0.000000
59338.014718,7031.956449,-9474.636058,-76.609550
59338.015028,4737.318029,-10732.986159,0.000000
59338.015338,4663.297435,-11251.130318,-383.047749
59338.015648,4145.153275,-13471.748144,1378.971896
59338.015957,2294.638420,-11991.336260,-76.609550
59338.016267,1850.514855,-11251.130318,76.609550
59338.016577,2368.659014,-9622.677246,689.485948
59338.016886,3182.885551,-8216.285956,1685.410096
59338.017196,3478.967927,-4811.338623,0.000000
59338.017506,5033.400406,-4219.173869,0.000000
59338.017815,10066.800811,-5699.585753,5209.449386
59338.018125,9400.615463,-4589.276840,2987.772442
59338.018435,8290.306550,-5699.585753,3064.381992
59338.018744,5033.400406,-9548.656652,2451.505594
59338.019054,2294.638420,-14137.933492,-995.924147
59338.019364,-1850.514855,-17394.839637,-3140.991542
59338.019674,-3404.947333,-17764.942608,-3677.258390
59338.019983,-4737.318029,-14878.139434,-3064.381992
59338.020293,-2738.761985,-10955.047942,-2528.115143
59338.020603,-1850.514855,-8290.306550,-76.609550
59338.020912,0.000000,-5403.503377,2451.505594
59338.021222,6439.791695,-7105.977043,6052.154434
59338.021532,3849.070898,-3627.009116,4903.011187
59338.021841,1480.411884,-3034.844362,4903.011187
59338.022151,3108.864956,-4737.318029,4673.182538
59338.022461,3182.885551,-3627.009116,3140.991542
59338.022771,4145.153275,-4219.173869,2451.505594
59338.023080,3330.926739,-6217.729913,76.609550
59338.023390,-74.020594,-13027.624579,-689.485948
59338.023700,-3627.009116,-15988.448347,-4979.620737
59338.024009,-8290.306550,-20207.622217,-3677.258390
59338.024319,-4959.379811,-18949.272115,-3753.867940
59338.024629,-5403.503377,-11621.233289,-4596.572988
59338.024938,-1776.494261,-5995.668130,-1762.019645
59338.025248,2886.803174,-5181.441594,2681.334243
59338.025558,4071.132681,-4737.318029,4596.572988
59338.025867,4145.153275,-4515.256246,5132.839837
59338.026177,6291.750507,-5551.544565,6052.154434
59338.026487,10288.862594,-3552.988522,8197.221829
59338.026797,8808.450710,-6513.812290,7277.907231
59338.027106,2960.823768,-4293.194464,1762.019645
59338.027416,-1776.494261,-12509.480420,0.000000
59338.027726,-5551.544565,-16580.613101,-4519.963438
59338.028035,-7179.997637,-17616.901420,-7967.393179
59338.028345,-7402.059420,-15470.304188,-5822.325785
59338.028655,-7772.162391,-14063.912898,-4979.620737
59338.028964,-6883.915261,-11325.150913,-2068.457845
59338.029274,-3108.864956,-10584.944971,1762.019645
59338.029584,2368.659014,-7105.977043,6052.154434
59338.029893,5921.647536,-1850.514855,7660.954980
59338.030203,12953.603985,0.000000,8503.660028
59338.030513,11251.130318,-74.020594,8120.612279
59338.030823,9400.615463,-5551.544565,7507.735880
59338.031132,2294.638420,-9178.553681,1455.581446
59338.031442,-4737.318029,-13101.645173,-2834.553343
59338.031752,-8586.388927,-16136.489536,-6588.421283
59338.032061,-12213.398043,-15840.407159,-8810.098227
59338.032371,-13989.892304,-16728.654289,-7431.126331
59338.032681,-11547.212695,-14285.974681,-4596.572988
59338.032990,-5625.565159,-9844.739029,0.000000
59338.033300,4663.297435,-8290.306550,4826.401637
59338.033610,8216.285956,-148.041188,7124.688131
59338.033920,11991.336260,1110.308913,11951.089769
59338.034229,14137.933492,0.000000,11568.042020
59338.034539,7105.977043,-2442.679609,5669.106685
59338.034849,1332.370696,-7624.121203,995.924147
59338.035158,-5181.441594,-12435.459826,-2528.115143
59338.035468,-8734.430116,-15988.448347,-4290.134789
59338.035778,-14211.954086,-16654.633695,-7354.516781
59338.036087,-14211.954086,-19023.292709,-6128.763984
59338.036397,-9548.656652,-18357.107362,-4979.620737
59338.036707,-4589.276840,-8956.491898,-1455.581446
59338.037016,3701.029710,-5699.585753,4366.744339
59338.037326,9326.594869,-1184.329507,9729.412825
59338.037636,10955.047942,518.144159,9346.365076
59338.037946,10436.903782,-518.144159,8656.879127
59338.038255,4663.297435,-4293.194464,4903.011187
59338.038565,-1036.288319,-6587.832884,0.000000
59338.038875,-5625.565159,-7920.203579,-4596.572988
59338.039184,-7698.141797,-11917.315666,-4290.134789
59338.039494,-8364.327145,-18357.107362,-2528.115143
59338.039804,-9400.615463,-19023.292709,-5745.716235
59338.040113,-4441.235652,-14582.057057,-2451.505594
59338.040423,592.164754,-12287.418637,2834.553343
59338.040733,5255.462188,-8142.265362,3907.087040
59338.041043,7624.121203,-5107.421000,5592.497135
59338.041352,7550.100608,-7031.956449,6435.202183
59338.041662,4441.235652,-5255.462188,2145.067394
59338.041972,962.267725,-3923.091493,459.657299
59338.042281,-2664.741391,-4811.338623,0.000000
59338.042591,-1776.494261,-7476.080014,306.438199
59338.042901,-3627.009116,-10510.924376,-1608.800546
59338.043210,-6217.729913,-11325.150913,-2221.676944
59338.043520,-4441.235652,-12213.398043,-1838.629195
59338.043830,1332.370696,-9770.718434,842.705048
59338.044139,3478.967927,-8438.347739,2451.505594
59338.044449,4145.153275,-8068.244768,3677.258390
59338.044759,3849.070898,-8068.244768,2374.896044
59338.045069,2294.638420,-9474.636058,2068.457845
59338.045378,-74.020594,-10658.965565,-76.609550
59338.045688,-2516.700203,-6291.750507,-1838.629195
59338.045998,-888.247130,-7624.121203,1685.410096
59338.046307,-1850.514855,-7994.224174,-76.609550
59338.046617,-4737.318029,-8364.327145,0.000000
59338.046927,-2738.761985,-11991.336260,-229.828649
59338.047236,444.123565,-9622.677246,919.314598
59338.047546,2886.803174,-7994.224174,2528.115143
59338.047856,3478.967927,-8290.306550,4213.525239
59338.048165,3478.967927,-9474.636058,2757.943793
59338.048475,2294.638420,-11843.295072,2987.772442
59338.048785,-2294.638420,-8364.327145,-1532.190996
59338.049095,-1776.494261,-8956.491898,76.609550
59338.049404,-1554.432478,-8216.285956,-612.876398
59338.049714,-3552.988522,-7179.997637,0.000000
59338.050024,-3627.009116,-11177.109724,-153.219100
59338.050333,-4515.256246,-10658.965565,-919.314598
59338.050643,-1406.391290,-8808.450710,612.876398
59338.050953,2886.803174,-8290.306550,4826.401637
59338.051262,5847.626942,-8290.306550,6205.373534
59338.051572,2294.638420,-7105.977043,2374.896044
59338.051882,0.000000,-9548.656652,2451.505594
59338.052192,-666.185348,-10658.965565,-76.609550
59338.052501,-4145.153275,-8364.327145,-2451.505594
59338.052811,-3478.967927,-7254.018232,-2757.943793
59338.053120,-3256.906145,-8956.491898,-842.705048
59338.053430,-3034.844362,-10140.821405,-306.438199
59338.053740,-3034.844362,-10881.027347,-459.657299
59338.054049,-74.020594,-10658.965565,2681.334243
59338.054359,3256.906145,-8290.306550,2451.505594
59338.054668,6439.791695,-9474.636058,4826.401637
59338.054978,1406.391290,-6365.771101,1532.190996
59338.055288,592.164754,-10584.944971,3753.867940
59338.055597,-814.226536,-11029.068536,-1378.971896
59338.055907,-1258.350101,-10510.924376,-2451.505594
59338.056216,-2664.741391,-9252.574275,-1685.410096
59338.056526,-3034.844362,-9844.739029,-612.876398
59338.056836,-3627.009116,-11399.171507,-229.828649
59338.057145,-3478.967927,-10658.965565,1149.143247
59338.057455,-222.061783,-9474.636058,3907.087040
59338.057764,3478.967927,-8290.306550,4826.401637
59338.058074,4367.215058,-2664.741391,3600.648841
59338.058384,4737.318029,-3923.091493,4903.011187
59338.058693,3478.967927,-9474.636058,3907.087040
59338.059003,-74.020594,-11251.130318,-1455.581446
59338.059312,-2664.741391,-11769.274478,-2068.457845
59338.059622,-2960.823768,-11843.295072,-2528.115143
59338.059932,-4145.153275,-11177.109724,-2528.115143
59338.060241,-5033.400406,-11621.233289,-689.485948
59338.060551,-4145.153275,-13101.645173,1225.752797
59338.060860,-1184.329507,-10140.821405,2451.505594
59338.061170,4663.297435,-8290.306550,4213.525239
59338.061480,4737.318029,-2442.679609,3983.696590
59338.061789,7402.059420,-3923.091493,6205.373534
59338.062099,6439.791695,-7105.977043,3600.648841
59338.062408,814.226536,-9252.574275,536.266849
59338.062718,-1628.453072,-11473.192101,-1608.800546
59338.063028,-2738.761985,-12065.356855,-2221.676944
59338.063337,-3552.988522,-12139.377449,-1838.629195
59338.063647,-5921.647536,-13397.727550,-2451.505594
59338.063956,-5625.565159,-15026.180623,0.000000
59338.064266,-2442.679609,-11843.295072,-76.609550
59338.064576,0.000000,-5995.668130,1838.629195
59338.064885,5033.400406,-4219.173869,5745.716235
59338.065195,6957.935855,-2812.782580,6665.030833
59338.065504,4737.318029,-4219.173869,3983.696590
59338.065814,1702.473667,-7550.100608,1455.581446
59338.066124,-2146.597232,-10584.944971,-1149.143247
59338.066433,-3701.029710,-11103.089130,-3677.258390
59338.066743,-4737.318029,-10140.821405,-3677.258390
59338.067052,-6513.812290,-10732.986159,-3677.258390
59338.067362,-3034.844362,-15396.283594,-689.485948
59338.067672,-4515.256246,-11917.315666,-1915.238745
59338.067981,0.000000,-9548.656652,1685.410096
59338.068291,4737.318029,-7105.977043,6052.154434
59338.068600,5921.647536,-4515.256246,5439.278036
59338.068910,5329.482782,-4811.338623,5209.449386
59338.069220,3256.906145,-6587.832884,3217.601092
59338.069529,0.000000,-7920.203579,0.000000
59338.069839,-3552.988522,-7179.997637,-2451.505594
59338.070148,-4737.318029,-7772.162391,-3677.258390
59338.070458,-2442.679609,-12879.583391,-459.657299
59338.070768,-5699.585753,-13767.830521,-2528.115143
59338.071077,-7105.977043,-13101.645173,-1915.238745
59338.071387,-2368.659014,-12361.439231,2374.896044
59338.071696,2294.638420,-6809.894666,2834.553343
59338.072006,4589.276840,-5107.421000,4673.182538
59338.072316,4589.276840,-5403.503377,4673.182538
59338.072625,2812.782580,-6291.750507,1608.800546
59338.072935,-962.267725,-6957.935855,0.000000
59338.073244,-4737.318029,-6587.832884,0.000000
59338.073554,-74.020594,-10658.965565,-76.609550
59338.073864,-3478.967927,-8660.409521,-2068.457845
59338.074173,-3404.947333,-11695.253884,-76.609550
59338.074483,-4737.318029,-13249.686362,-612.876398
59338.074792,-1554.432478,-11251.130318,-76.609550
59338.075102,1480.411884,-8068.244768,1685.410096
59338.075412,4071.132681,-6661.853478,3140.991542
59338.075721,3997.112087,-5699.585753,2987.772442
59338.076031,2886.803174,-7402.059420,842.705048
59338.076340,-2368.659014,-6587.832884,0.000000
59338.076650,-74.020594,-11251.130318,1149.143247
59338.076960,-1406.391290,-8068.244768,-1455.581446
59338.077269,-1776.494261,-9548.656652,1149.143247
59338.077579,-2368.659014,-10732.986159,0.000000
59338.077888,-3478.967927,-12583.501014,-153.219100
59338.078198,-2368.659014,-11621.233289,153.219100
59338.078508,1110.308913,-7920.203579,1991.848295
59338.078817,3997.112087,-5921.647536,3600.648841
59338.079127,5847.626942,-6513.812290,4213.525239
59338.079436,3478.967927,-7698.141797,2374.896044
59338.079746,-2960.823768,-8364.327145,0.000000
59338.080056,-1554.432478,-11399.171507,-76.609550
59338.080365,-2590.720797,-9474.636058,-1149.143247
59338.080675,-2368.659014,-7476.080014,-1838.629195
59338.080984,-2220.617826,-9992.780217,-306.438199
59338.081294,-3478.967927,-10955.047942,-842.705048
59338.081604,-2442.679609,-10584.944971,153.219100
59338.081913,1184.329507,-10658.965565,2374.896044
59338.082223,7031.956449,-7105.977043,3830.477490
59338.082532,7031.956449,-7105.977043,4826.401637
59338.082842,1184.329507,-5403.503377,1225.752797
59338.083152,962.267725,-11103.089130,2987.772442
59338.083461,-1258.350101,-10658.965565,-1838.629195
59338.083771,-3997.112087,-9548.656652,-3370.820191
59338.084080,-2960.823768,-10732.986159,-1838.629195
59338.084390,-3034.844362,-11547.212695,-919.314598
59338.084700,-3775.050304,-12213.398043,76.609550
59338.085009,-2146.597232,-12731.542202,2374.896044
59338.085319,1480.411884,-8586.388927,1838.629195
59338.085628,5847.626942,-7105.977043,4826.401637
59338.085938,4367.215058,-3182.885551,3677.258390
59338.086248,4737.318029,-5699.585753,6052.154434
59338.086557,1110.308913,-8586.388927,306.438199
59338.086867,-3034.844362,-9326.594869,-1608.800546
59338.087176,-3775.050304,-10732.986159,-2298.286494
59338.087486,-3108.864956,-10881.027347,-1378.971896
59338.087796,-4219.173869,-10732.986159,-1838.629195
59338.088105,-3923.091493,-13249.686362,-306.438199
59338.088415,-4145.153275,-11621.233289,-1455.581446
59338.088724,0.000000,-10436.903782,2757.943793
59338.089034,4663.297435,-7105.977043,3907.087040
59338.089344,4145.153275,-2442.679609,1838.629195
59338.089653,5181.441594,-4219.173869,2757.943793
59338.089963,3478.967927,-7105.977043,2374.896044
59338.090272,-962.267725,-9548.656652,0.000000
59338.090582,-2368.659014,-10658.965565,-1685.410096
59338.090892,-2516.700203,-11251.130318,-1991.848295
59338.091201,-3256.906145,-11325.150913,-1838.629195
59338.091511,-4737.318029,-13397.727550,-1608.800546
59338.091820,-3997.112087,-13989.892304,612.876398
59338.092130,-74.020594,-11843.295072,1762.019645
59338.092440,2146.597232,-4515.256246,1762.019645
59338.092749,4737.318029,-3034.844362,4213.525239
59338.093059,7031.956449,-4737.318029,5745.716235
59338.093368,2368.659014,-6735.874072,3830.477490
59338.093678,-592.164754,-9030.512492,766.095498
59338.093988,-2812.782580,-9992.780217,-1225.752797
59338.094297,-4737.318029,-8956.491898,-3064.381992
59338.094607,-4441.235652,-9178.553681,-1302.362347
59338.094916,-6513.812290,-10732.986159,-2451.505594
59338.095226,-3330.926739,-14211.954086,-689.485948
59338.095536,-3404.947333,-10658.965565,-689.485948
59338.095845,740.205942,-7698.141797,2374.896044
59338.096155,6735.874072,-7698.141797,4826.401637
59338.096464,5551.544565,-4959.379811,3907.087040
59338.096774,4145.153275,-6217.729913,3140.991542
59338.097084,1776.494261,-8808.450710,1149.143247
59338.097393,-2368.659014,-8364.327145,-1762.019645
59338.097703,-3256.906145,-8364.327145,-1915.238745
59338.098012,-4737.318029,-9548.656652,-2451.505594
59338.098322,-1850.514855,-13027.624579,-383.047749
59338.098632,-5699.585753,-11917.315666,-4596.572988
59338.098941,-2886.803174,-13619.789333,-76.609550
59338.099251,1924.535449,-9770.718434,2451.505594
59338.099560,4071.132681,-5921.647536,3600.648841
59338.099870,5107.421000,-4589.276840,4673.182538
59338.100180,4293.194464,-5773.606348,3830.477490
59338.100489,222.061783,-7179.997637,2068.457845
59338.100799,-3034.844362,-8882.471304,-76.609550
59338.101108,-4145.153275,-8364.327145,0.000000
59338.101418,-666.185348,-10658.965565,-383.047749
59338.101728,-4145.153275,-9548.656652,-4290.134789
59338.102037,-3627.009116,-13915.871710,-76.609550
59338.102347,-4737.318029,-11917.315666,0.000000
59338.102656,222.061783,-9918.759623,1225.752797
59338.102966,3849.070898,-6809.894666,3677.258390
59338.103276,5033.400406,-4959.379811,3677.258390
59338.103585,4071.132681,-5329.482782,3600.648841
59338.103895,2294.638420,-8364.327145,1838.629195
59338.104204,-74.020594,-9474.636058,-689.485948
59338.104514,-3552.988522,-9548.656652,-1838.629195
59338.104824,-666.185348,-13027.624579,-76.609550
59338.105133,-2442.679609,-11843.295072,0.000000
59338.105443,-4737.318029,-11917.315666,-1225.752797
59338.105752,-2960.823768,-12879.583391,0.000000
59338.106062,-222.061783,-9696.697840,1455.581446
59338.106372,3034.844362,-6143.709319,3447.429741
59338.106681,5847.626942,-5921.647536,4826.401637
59338.106991,4441.235652,-4515.256246,4290.134789
59338.107300,1702.473667,-7550.100608,2068.457845
59338.107610,-3552.988522,-8364.327145,0.000000
59338.107920,-2738.761985,-11251.130318,-76.609550
59338.108229,-4737.318029,-9548.656652,-2451.505594
59338.108539,-5477.523971,-8660.409521,-2451.505594
59338.108848,-4515.256246,-11843.295072,-306.438199
59338.109158,-4515.256246,-11843.295072,-229.828649
59338.109468,-1998.556043,-9918.759623,383.047749
59338.109777,3478.967927,-8882.471304,2911.162892
59338.110087,4293.194464,-4515.256246,3064.381992
59338.110396,5847.626942,-5921.647536,4519.963438
59338.110706,2368.659014,-5995.668130,1838.629195
59338.111016,2886.803174,-11843.295072,3677.258390
59338.111325,-2368.659014,-9548.656652,-2451.505594
59338.111635,-2664.741391,-9252.574275,-2221.676944
59338.111944,-2368.659014,-10732.986159,-1225.752797
59338.112254,-3478.967927,-12213.398043,-842.705048
59338.112564,-4367.215058,-13323.706956,-459.657299
59338.112873,-814.226536,-12065.356855,1225.752797
59338.113183,1480.411884,-7476.080014,1838.629195
59338.113492,5847.626942,-6513.812290,4826.401637
59338.113802,3701.029710,-3478.967927,3140.991542
59338.114112,3849.070898,-7179.997637,5515.887586
59338.114421,-1776.494261,-7179.997637,0.000000
59338.114731,-2738.761985,-9474.636058,-1915.238745
59338.115040,-3404.947333,-10214.842000,-2221.676944
59338.115350,-2886.803174,-10732.986159,-1608.800546
59338.115660,-3182.885551,-11177.109724,-766.095498
59338.115969,-4145.153275,-11917.315666,0.000000
59338.116279,-4737.318029,-9844.739029,0.000000
59338.116588,1480.411884,-9548.656652,3217.601092
59338.116898,5847.626942,-6513.812290,4519.963438
59338.117208,3627.009116,-2442.679609,2528.115143
59338.117517,3775.050304,-4811.338623,3064.381992
59338.117827,2294.638420,-8734.430116,2068.457845
59338.118136,-1406.391290,-10066.800811,-1149.143247
59338.118446,-2220.617826,-10362.883188,-2068.457845
59338.118756,-2516.700203,-11103.089130,-1991.848295
59338.119065,-4737.318029,-11325.150913,-2451.505594
59338.119375,-3923.091493,-13619.789333,-1302.362347
59338.119684,-3552.988522,-13693.809927,612.876398
59338.119994,1110.308913,-10362.883188,2374.896044
59338.120304,592.164754,-3627.009116,1225.752797
59338.120613,5847.626942,-4367.215058,4519.963438
59338.120923,6439.791695,-5921.647536,4826.401637
59338.121232,1628.453072,-7031.956449,2757.943793
59338.121542,-1480.411884,-9104.533087,0.000000
59338.121852,-3330.926739,-9548.656652,-1685.410096
59338.122161,-4737.318029,-9548.656652,-2681.334243
59338.122471,-3330.926739,-11177.109724,-1915.238745
59338.122780,-7105.977043,-10732.986159,-2451.505594
59338.123090,-4811.338623,-14211.954086,-76.609550
59338.123400,-74.020594,-9474.636058,-76.609550
59338.123709,3478.967927,-8290.306550,4213.525239
59338.124019,5921.647536,-5477.523971,5975.544884
59338.124328,5921.647536,-4367.215058,4826.401637
59338.124638,3849.070898,-6587.832884,3600.648841
59338.124948,1110.308913,-8734.430116,1149.143247
59338.125257,-2220.617826,-8882.471304,-383.047749
59338.125567,-1850.514855,-9474.636058,-2221.676944
59338.125876,-4737.318029,-10140.821405,-2451.505594
59338.126186,-3627.009116,-14211.954086,-383.047749
59338.126496,-5995.668130,-12139.377449,-3140.991542
59338.126805,-1258.350101,-13619.789333,2068.457845
59338.127115,2368.659014,-7772.162391,3524.039291
59338.127424,5625.565159,-5033.400406,5056.230287
59338.127734,5551.544565,-4145.153275,5209.449386
59338.128044,3182.885551,-6513.812290,3677.258390
59338.128353,1110.308913,-8882.471304,1149.143247
59338.128663,-666.185348,-11251.130318,-76.609550
59338.128972,-4737.318029,-8364.327145,-3064.381992
59338.129282,-2664.741391,-11029.068536,-76.609550
59338.129592,-4811.338623,-9770.718434,-3140.991542
59338.129901,-5329.482782,-13693.809927,0.000000
59338.130211,-4737.318029,-10732.986159,0.000000
59338.130520,814.226536,-8142.265362,1838.629195
59338.130830,3923.091493,-5403.503377,3064.381992
59338.131140,5773.606348,-4663.297435,4749.792088
59338.131449,6143.709319,-7105.977043,4060.306139
59338.131759,2812.782580,-8068.244768,2451.505594
59338.132068,1110.308913,-10066.800811,-76.609550
59338.132378,-2960.823768,-8956.491898,-2451.505594
59338.132688,-74.020594,-13027.624579,-1302.362347
59338.132997,-4145.153275,-11917.315666,-766.095498
59338.133307,-7105.977043,-12509.480420,-2911.162892
59338.133616,-4367.215058,-13027.624579,-689.485948
59338.133926,592.164754,-8808.450710,1455.581446
59338.134236,4515.256246,-6439.791695,3907.087040
59338.134545,7031.956449,-5847.626942,5439.278036
59338.134855,4737.318029,-5403.503377,4136.915689
59338.135164,3182.885551,-8882.471304,2374.896044
59338.135474,-2368.659014,-8364.327145,0.000000
59338.135784,-74.020594,-12435.459826,-76.609550
59338.136093,-4737.318029,-9548.656652,0.000000
59338.136403,-5107.421000,-9696.697840,-2834.553343
59338.136712,-6217.729913,-12065.356855,-2068.457845
59338.137022,-5477.523971,-12287.418637,-995.924147
59338.137332,-1628.453072,-8956.491898,536.266849
59338.137641,3552.988522,-6143.709319,4290.134789
59338.137951,6513.812290,-5403.503377,5822.325785
59338.138260,7031.956449,-6513.812290,5439.278036
59338.138570,2590.720797,-5403.503377,0.000000
59338.138880,1184.329507,-10140.821405,2145.067394
59338.139189,-2960.823768,-8364.327145,-2451.505594
59338.139499,-2442.679609,-10510.924376,-2528.115143
59338.139808,-3552.988522,-11843.295072,-1838.629195
59338.140118,-4515.256246,-13545.768739,-1685.410096
59338.140428,-4071.132681,-14063.912898,-689.485948
59338.140737,-1776.494261,-9844.739029,1225.752797
59338.141047,2368.659014,-6587.832884,3677.258390
59338.141356,7031.956449,-5921.647536,5439.278036
59338.141666,4663.297435,-2220.617826,2681.334243
59338.141976,2368.659014,-5995.668130,3677.258390
59338.142285,-1850.514855,-7328.038826,0.000000
59338.142595,-2442.679609,-10658.965565,-1302.362347
59338.142904,-4071.132681,-10140.821405,-2145.067394
59338.143214,-4145.153275,-10510.924376,-1991.848295
59338.143524,-5477.523971,-12139.377449,-1915.238745
59338.143833,-7698.141797,-12213.398043,-1838.629195
59338.144143,-4737.318029,-9548.656652,0.000000
59338.144452,2072.576638,-9030.512492,3830.477490
59338.144762,5847.626942,-5921.647536,4826.401637
59338.145072,3701.029710,-1850.514855,3064.381992
59338.145381,5255.462188,-4811.338623,1915.238745
59338.145691,3182.885551,-8882.471304,1762.019645
59338.146000,-1110.308913,-10066.800811,-995.924147
59338.146310,-2590.720797,-10214.842000,-1762.019645
59338.146620,-3330.926739,-11029.068536,-1991.848295
59338.146929,-5699.585753,-11473.192101,-1915.238745
59338.147239,-4811.338623,-13915.871710,-689.485948
59338.147548,-3552.988522,-11917.315666,0.000000
59338.147858,4071.132681,-11547.212695,4826.401637
59338.148168,4663.297435,-4737.318029,3600.648841
59338.148477,7031.956449,-4737.318029,4826.401637
59338.148787,5921.647536,-6513.812290,5439.278036
59338.149096,1258.350101,-8290.306550,2374.896044
59338.149406,-1924.535449,-9622.677246,-76.609550
59338.149716,-3627.009116,-10066.800811,-2221.676944
59338.150025,-3182.885551,-10214.842000,-1302.362347
59338.150335,-4811.338623,-10066.800811,-2834.553343
59338.150644,-7698.141797,-11325.150913,-2451.505594
59338.150954,-4145.153275,-13693.809927,1225.752797
59338.151264,-74.020594,-9474.636058,2374.896044
59338.151573,5847.626942,-7105.977043,4826.401637
59338.151883,6069.688724,-4515.256246,5515.887586
59338.152192,6439.791695,-5181.441594,4903.011187
59338.152502,4145.153275,-7772.162391,2987.772442
59338.152812,296.082377,-10140.821405,0.000000
59338.153121,-1850.514855,-10066.800811,-1685.410096
59338.153431,-2442.679609,-11547.212695,-3140.991542
59338.153740,-5921.647536,-11029.068536,-4290.134789
59338.154050,-3627.009116,-16580.613101,-76.609550
59338.154360,-3627.009116,-14211.954086,-1608.800546
59338.154669,962.267725,-11843.295072,2987.772442
59338.154979,2960.823768,-6587.832884,3370.820191
59338.155289,6587.832884,-4515.256246,5822.325785
59338.155598,6365.771101,-4737.318029,6281.983084
59338.155908,3775.050304,-6439.791695,4213.525239
59338.156218,518.144159,-9326.594869,612.876398
59338.156527,-962.267725,-11177.109724,-383.047749
59338.156837,-2812.782580,-11103.089130,-383.047749
59338.157147,-6735.874072,-8438.347739,-4366.744339
59338.157457,-6069.688724,-13397.727550,-1455.581446
59338.157766,-6587.832884,-14211.954086,-76.609550
59338.158076,-4145.153275,-10140.821405,612.876398
59338.158386,3923.091493,-8290.306550,4213.525239
59338.158695,6439.791695,-4737.318029,5745.716235
59338.159005,6661.853478,-4145.153275,5822.325785
59338.159315,5403.503377,-6513.812290,4826.401637
59338.159624,2220.617826,-8512.368333,1838.629195
59338.159934,-1628.453072,-9548.656652,-1838.629195
59338.160244,-2368.659014,-12509.480420,153.219100
59338.160553,-4219.173869,-11103.089130,-4366.744339
59338.160863,-5033.400406,-14211.954086,-153.219100
59338.161173,-5921.647536,-13693.809927,-1838.629195
59338.161482,-2516.700203,-11769.274478,0.000000
59338.161792,1480.411884,-7772.162391,2604.724693
59338.162102,4811.338623,-5625.565159,4673.182538
59338.162412,6883.915261,-3923.091493,6128.763984
59338.162721,4145.153275,-5995.668130,5209.449386
59338.163031,2146.597232,-8586.388927,2374.896044
59338.163341,-2368.659014,-7179.997637,0.000000
59338.163650,-666.185348,-11547.212695,-1302.362347
59338.163960,-4441.235652,-10881.027347,-1072.533697
59338.164270,-7698.141797,-10732.986159,-3064.381992
59338.164579,-7920.203579,-12583.501014,-2451.505594
59338.164889,-5403.503377,-11769.274478,-1608.800546
59338.165199,-370.102971,-8586.388927,2068.457845
59338.165508,4367.215058,-4959.379811,3064.381992
59338.165818,5921.647536,-3108.864956,5362.668486
59338.166128,7031.956449,-5625.565159,4826.401637
59338.166437,0.000000,-4811.338623,612.876398
59338.166747,1702.473667,-11547.212695,1302.362347
59338.167057,-2368.659014,-9548.656652,-1225.752797
59338.167366,-3552.988522,-10807.006753,-3677.258390
59338.167676,-4367.215058,-12509.480420,-2757.943793
59338.167986,-5107.421000,-14137.933492,-2451.505594
59338.168296,-3627.009116,-13693.809927,-689.485948
59338.168605,1332.370696,-8956.491898,766.095498
59338.168915,4737.318029,-6143.709319,3677.258390
59338.169225,7698.141797,-5181.441594,8120.612279
59338.169534,8216.285956,-4737.318029,4826.401637
59338.169844,2368.659014,-5995.668130,2451.505594
59338.170154,0.000000,-7772.162391,0.000000
59338.170463,-2072.576638,-9178.553681,-1915.238745
59338.170773,-3701.029710,-9696.697840,-2451.505594
59338.171083,-5921.647536,-10732.986159,-3217.601092
59338.171392,-7772.162391,-12287.418637,-3294.210641
59338.171702,-7254.018232,-12213.398043,-2528.115143
59338.172012,-3552.988522,-9844.739029,0.000000
59338.172321,4071.132681,-7105.977043,4826.401637
59338.172631,5255.462188,-3256.906145,3600.648841
59338.172941,5033.400406,-2738.761985,6128.763984
59338.173251,3552.988522,-3627.009116,2451.505594
59338.173560,2294.638420,-8586.388927,1149.143247
59338.173870,-1258.350101,-9696.697840,-1532.190996
59338.174180,-3108.864956,-10584.944971,-3217.601092
59338.174489,-4737.318029,-12139.377449,-3140.991542
59338.174799,-6439.791695,-12731.542202,-2834.553343
59338.175109,-8290.306550,-13101.645173,-2451.505594
59338.175418,-1258.350101,-13027.624579,-76.609550
59338.175728,0.000000,-5107.421000,0.000000
59338.176038,5921.647536,-5403.503377,6128.763984
59338.176347,5847.626942,-2590.720797,4903.011187
59338.176657,5847.626942,-6809.894666,5745.716235
59338.176967,1332.370696,-8438.347739,2221.676944
59338.177276,-1406.391290,-9696.697840,0.000000
59338.177586,-2960.823768,-9474.636058,-1608.800546
59338.177896,-4811.338623,-10955.047942,-1302.362347
59338.178206,-6365.771101,-11843.295072,-2221.676944
59338.178515,-8068.244768,-13249.686362,-2145.067394
59338.178825,-3627.009116,-13619.789333,-1302.362347
59338.179135,-1776.494261,-7476.080014,1072.533697
59338.179444,4663.297435,-4293.194464,3294.210641
59338.179754,6513.812290,-4293.194464,6128.763984
59338.180064,6217.729913,-5255.462188,5362.668486
59338.180373,2886.803174,-7476.080014,2911.162892
59338.180683,-148.041188,-9326.594869,153.219100
59338.180993,-1258.350101,-10658.965565,-1302.362347
59338.181302,-4219.173869,-10362.883188,-2834.553343
59338.181612,-5921.647536,-10732.986159,-4903.011187
59338.181922,-3034.844362,-15988.448347,-1302.362347
59338.182231,-5403.503377,-12435.459826,-2834.553343
59338.182541,2294.638420,-9474.636058,1149.143247
59338.182851,4737.318029,-6735.874072,4136.915689
59338.183160,7031.956449,-4885.359217,5745.716235
59338.183470,6661.853478,-5551.544565,5669.106685
59338.183780,3478.967927,-8808.450710,4136.915689
59338.184090,2294.638420,-10288.862594,1608.800546
59338.184399,-1258.350101,-10066.800811,-995.924147
59338.184709,-4071.132681,-8364.327145,-4903.011187
59338.185019,-2738.761985,-13027.624579,-76.609550
59338.185328,-7179.997637,-11843.295072,-3140.991542
59338.185638,-4811.338623,-13027.624579,-689.485948
59338.185948,-2812.782580,-9548.656652,612.876398
59338.186257,1776.494261,-7105.977043,3294.210641
59338.186567,4959.379811,-4737.318029,4979.620737
59338.186877,6143.709319,-4515.256246,4749.792088
59338.187186,5403.503377,-6587.832884,3677.258390
59338.187496,888.247130,-8142.265362,459.657299
59338.187806,-2738.761985,-9548.656652,-4903.011187
59338.188115,-1850.514855,-12731.542202,-995.924147
59338.188425,-3034.844362,-11843.295072,-3140.991542
59338.188735,-4441.235652,-14211.954086,-766.095498
59338.189045,-5329.482782,-13101.645173,-2145.067394
59338.189354,-1258.350101,-10955.047942,229.828649
59338.189664,3701.029710,-6957.935855,2451.505594
59338.189974,6883.915261,-4959.379811,5439.278036
59338.190283,5921.647536,-4219.173869,6128.763984
59338.190593,4441.235652,-7179.997637,4290.134789
59338.190903,1998.556043,-9474.636058,-76.609550
59338.191212,-3552.988522,-9548.656652,0.000000
59338.191522,-1258.350101,-11547.212695,-1302.362347
59338.191832,-5181.441594,-11547.212695,-842.705048
59338.192141,-7254.018232,-11103.089130,-3294.210641
59338.192451,-7402.059420,-12583.501014,-2298.286494
59338.192761,-3997.112087,-10807.006753,153.219100
59338.193070,666.185348,-7254.018232,2834.553343
59338.193380,3552.988522,-3627.009116,3677.258390
59338.193690,6291.750507,-3923.091493,6052.154434
59338.193999,7031.956449,-8290.306550,7277.907231
59338.194309,0.000000,-5403.503377,612.876398
59338.194619,-74.020594,-10881.027347,689.485948
59338.194929,-3552.988522,-10732.986159,-2451.505594
59338.195238,-4663.297435,-11843.295072,-3294.210641
59338.195548,-5329.482782,-12879.583391,-2911.162892
59338.195858,-5921.647536,-14285.974681,-2298.286494
59338.196167,-3552.988522,-12287.418637,-995.924147
59338.196477,0.000000,-7179.997637,0.000000
59338.196787,4737.318029,-5403.503377,4290.134789
59338.197096,7105.977043,-4811.338623,8580.269578
59338.197406,7031.956449,-6513.812290,4826.401637
59338.197716,592.164754,-7179.997637,1838.629195
59338.198025,-1184.329507,-8956.491898,306.438199
59338.198335,-2146.597232,-9918.759623,-1302.362347
59338.198645,-4737.318029,-9548.656652,-2681.334243
59338.198954,-6143.709319,-11177.109724,-3064.381992
59338.199264,-7772.162391,-12805.562797,-2604.724693
59338.199574,-6291.750507,-11029.068536,-2221.676944
59338.199884,-2368.659014,-7476.080014,1532.190996
59338.200193,4663.297435,-8660.409521,6971.469032
59338.200503,6439.791695,-4145.153275,4826.401637
59338.200813,4737.318029,-3627.009116,4903.011187
59338.201122,3552.988522,-5477.523971,2528.115143
59338.201432,1110.308913,-8808.450710,383.047749
59338.201742,-1702.473667,-9474.636058,-1915.238745
59338.202051,-3256.906145,-10881.027347,-2681.334243
59338.202361,-4737.318029,-11991.336260,-3064.381992
59338.202671,-4811.338623,-13767.830521,-2528.115143
59338.202980,-4589.276840,-14211.954086,-1302.362347
59338.203290,296.082377,-11325.150913,3064.381992
59338.203600,5847.626942,-8290.306550,3600.648841
59338.203909,6217.729913,-3627.009116,4366.744339
59338.204219,4737.318029,-2738.761985,4903.011187
59338.204529,3997.112087,-8512.368333,4519.963438
59338.204838,518.144159,-9622.677246,1378.971896
59338.205148,-2072.576638,-9548.656652,-1378.971896
59338.205458,-3478.967927,-10214.842000,-1608.800546
59338.205768,-3627.009116,-10658.965565,-1302.362347
59338.206077,-8290.306550,-10288.862594,-4136.915689
59338.206387,-8290.306550,-11917.315666,0.000000
59338.206697,-74.020594,-11843.295072,1762.019645
59338.207006,1036.288319,-6291.750507,2221.676944
59338.207316,4663.297435,-4589.276840,3677.258390
59338.207626,5551.544565,-4811.338623,5898.935335
59338.207935,4293.194464,-6069.688724,3524.039291
59338.208245,1332.370696,-9104.533087,1149.143247
59338.208555,-1184.329507,-9474.636058,-689.485948
59338.208864,-1258.350101,-11843.295072,-689.485948
59338.209174,-3627.009116,-11251.130318,-2528.115143
59338.209484,-7105.977043,-10140.821405,-3677.258390
59338.209793,-3627.009116,-15840.407159,-383.047749
59338.210103,-1850.514855,-11843.295072,-995.924147
59338.210413,2294.638420,-7698.141797,842.705048
59338.210723,5625.565159,-4663.297435,3983.696590
59338.211032,7031.956449,-4811.338623,6435.202183
59338.211342,5329.482782,-6661.853478,5286.058936
59338.211652,1924.535449,-9770.718434,4060.306139
59338.211961,592.164754,-11843.295072,1685.410096
59338.212271,-1258.350101,-10658.965565,-689.485948
59338.212581,-7105.977043,-7179.997637,-4290.134789
59338.212890,-3627.009116,-13027.624579,-689.485948
59338.213200,-7476.080014,-11843.295072,-3140.991542
59338.213510,-4515.256246,-11251.130318,-689.485948
59338.213819,-888.247130,-7328.038826,2145.067394
59338.214129,4145.153275,-4737.318029,4519.963438
59338.214439,5921.647536,-4145.153275,5362.668486
59338.214748,5255.462188,-4663.297435,4903.011187
59338.215058,2960.823768,-7179.997637,3064.381992
59338.215368,-370.102971,-10658.965565,-76.609550
59338.215677,-4737.318029,-9548.656652,-3677.258390
59338.215987,-666.185348,-11843.295072,-1302.362347
59338.216297,-4663.297435,-11029.068536,-2987.772442
59338.216607,-3701.029710,-14211.954086,-76.609550
59338.216916,-4441.235652,-13471.748144,-689.485948
59338.217226,814.226536,-9178.553681,842.705048
59338.217536,5255.462188,-8290.306550,4826.401637
59338.217845,6587.832884,-3775.050304,4903.011187
59338.218155,4737.318029,-4811.338623,4903.011187
59338.218465,3923.091493,-8660.409521,4290.134789
59338.218774,1702.473667,-9474.636058,-76.609550
59338.219084,-2368.659014,-10140.821405,0.000000
59338.219394,-2738.761985,-10362.883188,-2528.115143
59338.219703,-4589.276840,-11843.295072,-995.924147
59338.220013,-7254.018232,-12139.377449,-2604.724693
59338.220323,-6587.832884,-13397.727550,-1762.019645
59338.220632,-1924.535449,-9400.615463,1149.143247
59338.220942,2368.659014,-6809.894666,2451.505594
59338.221252,2664.741391,-2442.679609,4903.011187
59338.221562,5329.482782,-4811.338623,4903.011187
59338.221871,7031.956449,-8882.471304,4826.401637
59338.222181,0.000000,-6587.832884,0.000000
59338.222491,-1480.411884,-10066.800811,-536.266849
59338.222800,-3108.864956,-11029.068536,-1378.971896
59338.223110,-3330.926739,-10658.965565,-2528.115143
59338.223420,-4441.235652,-12361.439231,-2451.505594
59338.223729,-5033.400406,-13693.809927,-1378.971896
59338.224039,-1554.432478,-10140.821405,-2068.457845
59338.224349,1184.329507,-5995.668130,0.000000
59338.224658,4737.318029,-4811.338623,1838.629195
59338.224968,5921.647536,-6143.709319,6741.640382
59338.225278,4071.132681,-7698.141797,2987.772442
59338.225587,0.000000,-8956.491898,1455.581446
59338.225897,-1332.370696,-10140.821405,306.438199
59338.226207,-1554.432478,-9474.636058,-383.047749
59338.226517,-3034.844362,-9326.594869,-1302.362347
59338.226826,-4959.379811,-11029.068536,-1072.533697
59338.227136,-6291.750507,-11843.295072,-1608.800546
59338.227446,-3923.091493,-10658.965565,-1915.238745
59338.227755,0.000000,-5995.668130,0.000000
59338.228065,3552.988522,-5995.668130,5515.887586
59338.228375,6439.791695,-5921.647536,4826.401637
59338.228684,2368.659014,-5403.503377,4596.572988
59338.228994,148.041188,-7772.162391,1225.752797
59338.229304,-1480.411884,-10362.883188,-689.485948
59338.229613,-2812.782580,-10140.821405,-1915.238745
59338.229923,-3108.864956,-10066.800811,-2451.505594
59338.230233,-3330.926739,-11843.295072,-689.485948
59338.230542,-2442.679609,-13619.789333,-1302.362347
59338.230852,-2146.597232,-11547.212695,-1302.362347
59338.231162,0.000000,-7772.162391,1838.629195
59338.231471,7031.956449,-6809.894666,4213.525239
59338.231781,4737.318029,-3701.029710,3983.696590
59338.232091,2368.659014,-4811.338623,2757.943793
59338.232401,1332.370696,-9326.594869,1685.410096
59338.232710,-1036.288319,-10881.027347,-459.657299
59338.233020,-2146.597232,-10288.862594,-1762.019645
59338.233330,-2664.741391,-11547.212695,-689.485948
59338.233639,-3034.844362,-12435.459826,-689.485948
59338.233949,-5995.668130,-12731.542202,-2528.115143
59338.234259,-7105.977043,-10140.821405,0.000000
59338.234568,-74.020594,-10658.965565,3600.648841
59338.234878,3923.091493,-4811.338623,2757.943793
59338.235188,5107.421000,-1110.308913,4290.134789
59338.235497,4959.379811,-4515.256246,4903.011187
59338.235807,1998.556043,-7254.018232,2374.896044
59338.236117,-1480.411884,-9622.677246,-995.924147
59338.236426,-2442.679609,-11621.233289,-995.924147
59338.236736,-2886.803174,-13619.789333,-76.609550
59338.237046,-3627.009116,-13027.624579,-2528.115143
59338.237356,-7105.977043,-11325.150913,-3677.258390
59338.237665,-3552.988522,-13101.645173,0.000000
59338.237975,1110.308913,-10881.027347,306.438199
59338.238285,4071.132681,-6809.894666,2987.772442
59338.238594,6217.729913,-3627.009116,4673.182538
59338.238904,6069.688724,-4811.338623,5592.497135
59338.239214,3552.988522,-7179.997637,3370.820191
59338.239523,1184.329507,-9844.739029,1685.410096
59338.239833,-592.164754,-11325.150913,1762.019645
59338.240143,-666.185348,-11843.295072,-76.609550
59338.240452,-7105.977043,-8364.327145,-3677.258390
59338.240762,-5403.503377,-13767.830521,-1072.533697
59338.241072,-6587.832884,-11917.315666,-3600.648841
59338.241381,-1258.350101,-11251.130318,-76.609550
59338.241691,1036.288319,-6883.915261,2451.505594
59338.242001,4441.235652,-4441.235652,4596.572988
59338.242310,5033.400406,-4293.194464,4826.401637
59338.242620,2664.741391,-4811.338623,3677.258390
59338.242930,0.000000,-8364.327145,2451.505594
59338.243240,-2072.576638,-9548.656652,306.438199
59338.243549,-2442.679609,-9474.636058,-3140.991542
59338.243859,-4737.318029,-10140.821405,-2451.505594
59338.244169,-3034.844362,-13027.624579,-689.485948
59338.244478,-1850.514855,-15248.242405,-76.609550
59338.244788,-1406.391290,-11769.274478,0.000000
59338.245098,2294.638420,-8364.327145,2145.067394
59338.245407,5255.462188,-5033.400406,3907.087040
59338.245717,4737.318029,-2738.761985,2451.505594
59338.246027,2960.823768,-4811.338623,4903.011187
59338.246336,2368.659014,-9548.656652,3677.258390
59338.246646,-74.020594,-11547.212695,-76.609550
59338.246956,-3552.988522,-9548.656652,-1838.629195
59338.247265,-2442.679609,-11843.295072,-1302.362347
59338.247575,-4515.256246,-12953.603985,-383.047749
59338.247885,-6513.812290,-12879.583391,-1915.238745
59338.248195,-4737.318029,-12065.356855,-842.705048
59338.248504,-296.082377,-8438.347739,1915.238745
59338.248814,1776.494261,-4219.173869,1608.800546
59338.249124,2368.659014,-1258.350101,3064.381992
59338.249433,2368.659014,-3627.009116,4903.011187
59338.249743,4071.132681,-8882.471304,2987.772442
59338.250053,-2368.659014,-7772.162391,-1225.752797
59338.250362,-2146.597232,-11843.295072,-76.609550
59338.250672,-3552.988522,-10732.986159,-1685.410096
59338.250982,-3182.885551,-11843.295072,-1532.190996
59338.251291,-4589.276840,-13027.624579,-1608.800546
59338.251601,-3182.885551,-12805.562797,-766.095498
59338.251911,-74.020594,-9178.553681,-689.485948
59338.252220,1702.473667,-4811.338623,306.438199
59338.252530,4367.215058,-3256.906145,2068.457845
59338.252840,4737.318029,-5995.668130,4903.011187
59338.253149,4071.132681,-9474.636058,3600.648841
59338.253459,-74.020594,-10362.883188,1915.238745
59338.253769,-2368.659014,-8956.491898,0.000000
59338.254079,-1628.453072,-9770.718434,-459.657299
59338.254388,-2960.823768,-9622.677246,-919.314598
59338.254698,-4737.318029,-11695.253884,-995.924147
59338.255008,-3627.009116,-12435.459826,-76.609550
59338.255317,-1258.350101,-9474.636058,-76.609550
59338.255627,1702.473667,-5921.647536,1149.143247
59338.255937,2368.659014,-3627.009116,3064.381992
59338.256247,4367.215058,-5921.647536,4826.401637
59338.256556,1258.350101,-7476.080014,3370.820191
59338.256866,814.226536,-10066.800811,1532.190996
59338.257176,-4293.194464,-9548.656652,-2451.505594
59338.257485,-3108.864956,-9696.697840,-2145.067394
59338.257795,-3182.885551,-10658.965565,-1608.800546
59338.258105,-2664.741391,-10807.006753,-689.485948
59338.258415,-3034.844362,-11843.295072,-2068.457845
59338.258724,-1776.494261,-10140.821405,0.000000
59338.259034,5847.626942,-9474.636058,3600.648841
59338.259344,4219.173869,-3775.050304,2374.896044
59338.259653,5625.565159,-4811.338623,6741.640382
59338.259963,3108.864956,-7179.997637,3064.381992
59338.260273,518.144159,-10288.862594,536.266849
59338.260583,-1554.432478,-11399.171507,-1608.800546
59338.260892,-2590.720797,-10658.965565,-1915.238745
59338.261202,-3478.967927,-10658.965565,-1302.362347
59338.261512,-3627.009116,-11843.295072,-1302.362347
59338.261821,-6143.709319,-10732.986159,-3983.696590
59338.262131,-2368.659014,-11325.150913,2451.505594
59338.262441,3182.885551,-8290.306550,3600.648841
59338.262751,3182.885551,-3775.050304,3983.696590
59338.263060,2368.659014,-1258.350101,3064.381992
59338.263370,2664.741391,-6291.750507,3830.477490
59338.263680,0.000000,-8142.265362,1149.143247
59338.263989,-2516.700203,-9252.574275,-919.314598
59338.264299,-3478.967927,-11695.253884,-1302.362347
59338.264609,-1258.350101,-10658.965565,-1302.362347
59338.264919,-3034.844362,-9770.718434,-3140.991542
59338.265228,-4737.318029,-11917.315666,0.000000
59338.265538,-74.020594,-14211.954086,-76.609550
59338.265848,518.144159,-8290.306550,306.438199
59338.266157,2368.659014,-4367.215058,1225.752797
59338.266467,5329.482782,-4219.173869,4290.134789
59338.266777,4885.359217,-5847.626942,4060.306139
59338.267087,1850.514855,-8586.388927,1762.019645
59338.267396,-74.020594,-11843.295072,-76.609550
59338.267706,-74.020594,-13027.624579,-76.609550
59338.268016,-2442.679609,-10658.965565,-1302.362347
59338.268325,-4737.318029,-10732.986159,0.000000
59338.268635,-3627.009116,-14211.954086,-76.609550
59338.268945,-4367.215058,-11621.233289,0.000000
59338.269255,-666.185348,-8142.265362,1149.143247
59338.269564,2886.803174,-5255.462188,3983.696590
59338.269874,4885.359217,-4071.132681,4596.572988
59338.270184,3775.050304,-5033.400406,3983.696590
59338.270493,2516.700203,-8512.368333,2834.553343
59338.270803,-296.082377,-11843.295072,2145.067394
59338.271113,-2442.679609,-11843.295072,-76.609550
59338.271423,-6513.812290,-7179.997637,-4903.011187
59338.271732,-2072.576638,-12731.542202,-229.828649
59338.272042,-3849.070898,-11029.068536,-3370.820191
59338.272352,-3034.844362,-13619.789333,-76.609550
59338.272661,-962.267725,-10584.944971,689.485948
59338.272971,3330.926739,-6883.915261,2451.505594
59338.273281,5403.503377,-4737.318029,4060.306139
59338.273591,5921.647536,-3627.009116,5056.230287
59338.273900,3552.988522,-7772.162391,4290.134789
59338.274210,2294.638420,-11843.295072,-76.609550
59338.274520,-4145.153275,-8364.327145,-3370.820191
59338.274829,-1036.288319,-12435.459826,-153.219100
59338.275139,-3034.844362,-9770.718434,-2834.553343
59338.275449,-3627.009116,-13027.624579,-689.485948
59338.275759,-5107.421000,-13101.645173,-1302.362347
59338.276068,-2368.659014,-10732.986159,536.266849
59338.276378,1554.432478,-7179.997637,2911.162892
59338.276688,2368.659014,-3627.009116,3677.258390
59338.276997,3552.988522,-3627.009116,4903.011187
59338.277307,2368.659014,-5403.503377,4903.011187
59338.277617,-74.020594,-9474.636058,-76.609550
59338.277927,-4737.318029,-8364.327145,-2451.505594
59338.278236,-2738.761985,-10658.965565,-995.924147
59338.278546,-1258.350101,-12287.418637,-689.485948
59338.278856,-3034.844362,-11843.295072,-995.924147
59338.279165,-3256.906145,-12805.562797,-383.047749
59338.279475,-1554.432478,-12583.501014,459.657299
59338.279785,0.000000,-7179.997637,0.000000
59338.280095,2368.659014,-3627.009116,2451.505594
59338.280404,4737.318029,-3627.009116,4903.011187
59338.280714,7031.956449,-8290.306550,5745.716235
59338.281024,592.164754,-7550.100608,612.876398
59338.281334,-74.020594,-11843.295072,1149.143247
59338.281643,-1628.453072,-11547.212695,-383.047749
59338.281953,-2738.761985,-9992.780217,-1685.410096
59338.282263,-4441.235652,-11325.150913,-1378.971896
59338.282572,-5551.544565,-12805.562797,-1532.190996
59338.282882,-4663.297435,-10436.903782,-1072.533697
59338.283192,-2368.659014,-5995.668130,0.000000
59338.283502,0.000000,-3627.009116,2451.505594
59338.283811,5921.647536,-5773.606348,5822.325785
59338.284121,2590.720797,-4589.276840,2681.334243
59338.284431,2294.638420,-10362.883188,3524.039291
59338.284740,-1628.453072,-9548.656652,306.438199
59338.285050,-2590.720797,-10066.800811,-1608.800546
59338.285360,-2516.700203,-9918.759623,-1378.971896
59338.285670,-2146.597232,-10955.047942,-612.876398
59338.285979,-2442.679609,-11695.253884,-689.485948
59338.286289,-3627.009116,-10955.047942,-1608.800546
59338.286599,-1258.350101,-8586.388927,-842.705048
59338.286908,1184.329507,-5403.503377,1225.752797
59338.287218,5995.668130,-5699.585753,6052.154434
59338.287528,6439.791695,-6069.688724,4749.792088
59338.287838,1184.329507,-7179.997637,1225.752797
59338.288147,-296.082377,-10658.965565,229.828649
59338.288457,-1850.514855,-11029.068536,-1378.971896
59338.288767,-2368.659014,-10436.903782,-1455.581446
59338.289076,-2442.679609,-11843.295072,-76.609550
59338.289386,-4811.338623,-11843.295072,-76.609550
59338.289696,-7179.997637,-10140.821405,-2987.772442
59338.290006,-3552.988522,-9548.656652,1225.752797
59338.290315,4071.132681,-7698.141797,4826.401637
59338.290625,4885.359217,-3330.926739,5515.887586
59338.290935,2590.720797,-2590.720797,3294.210641
59338.291244,2220.617826,-6809.894666,2911.162892
59338.291554,-1480.411884,-8882.471304,0.000000
59338.291864,-4071.132681,-10066.800811,-2451.505594
59338.292174,-3034.844362,-11843.295072,-2528.115143
59338.292483,-3627.009116,-10658.965565,-2834.553343
59338.292793,-6513.812290,-10140.821405,0.000000
59338.293103,-1850.514855,-15396.283594,-76.609550
59338.293412,-2960.823768,-9548.656652,0.000000
59338.293722,4145.153275,-8956.491898,4366.744339
59338.294032,4737.318029,-3034.844362,3830.477490
59338.294342,7402.059420,-3627.009116,5669.106685
59338.294651,5921.647536,-5699.585753,4979.620737
59338.294961,1924.535449,-9030.512492,1149.143247
59338.295271,-74.020594,-11843.295072,-76.609550
59338.295580,-666.185348,-13027.624579,-76.609550
59338.295890,-4811.338623,-9918.759623,-4060.306139
59338.296200,-5921.647536,-13397.727550,-2298.286494
59338.296510,-5551.544565,-13323.706956,-2221.676944
59338.296819,-4737.318029,-10732.986159,0.000000
59338.297129,-888.247130,-7179.997637,1378.971896
59338.297439,4145.153275,-4811.338623,4903.011187
59338.297748,5551.544565,-3701.029710,5056.230287
59338.298058,4885.359217,-4959.379811,4903.011187
59338.298368,3182.885551,-8882.471304,3600.648841
59338.298678,-74.020594,-11251.130318,-76.609550
59338.298987,-1258.350101,-9178.553681,-2528.115143
59338.299297,-3552.988522,-10140.821405,-1225.752797
59338.299607,-2442.679609,-11843.295072,-1302.362347
59338.299916,-7105.977043,-10732.986159,-3677.258390
59338.300226,-6217.729913,-12509.480420,-1685.410096
59338.300536,-518.144159,-9696.697840,689.485948
59338.300846,2590.720797,-6217.729913,2374.896044
59338.301155,5329.482782,-4811.338623,3753.867940
59338.301465,7031.956449,-7105.977043,6052.154434
59338.301775,7031.956449,-9474.636058,4826.401637
59338.302084,-666.185348,-8586.388927,-2068.457845
59338.302394,-1776.494261,-9548.656652,0.000000
59338.302704,-1258.350101,-10955.047942,-1302.362347
59338.303014,-5921.647536,-9548.656652,-2451.505594
59338.303323,-7698.141797,-11325.150913,-3064.381992
59338.303633,-5625.565159,-13989.892304,-919.314598
59338.303943,-1184.329507,-9844.739029,919.314598
59338.304252,2442.679609,-7624.121203,3524.039291
59338.304562,6439.791695,-7105.977043,6052.154434
59338.304872,7031.956449,-6513.812290,7277.907231
59338.305182,2886.803174,-7105.977043,2374.896044
59338.305491,-2368.659014,-7179.997637,0.000000
59338.305801,-1258.350101,-10066.800811,-689.485948
59338.306111,-4737.318029,-7772.162391,-2451.505594
59338.306420,-4737.318029,-9548.656652,-2451.505594
59338.306730,-4219.173869,-12139.377449,-1072.533697
59338.307040,-4737.318029,-12657.521608,-1532.190996
59338.307350,-1850.514855,-11399.171507,459.657299
59338.307659,3478.967927,-8290.306550,2374.896044
59338.307969,7031.956449,-4737.318029,4213.525239
59338.308279,5847.626942,-4145.153275,3600.648841
59338.308588,2368.659014,-6587.832884,3064.381992
59338.308898,2294.638420,-11843.295072,1762.019645
59338.309208,-2368.659014,-9548.656652,0.000000
59338.309518,-3478.967927,-8660.409521,-2145.067394
59338.309827,-2960.823768,-9474.636058,-1225.752797
59338.310137,-4737.318029,-11029.068536,-1608.800546
59338.310447,-5773.606348,-12731.542202,-1608.800546
59338.310756,-1258.350101,-14211.954086,-76.609550
59338.311066,4663.297435,-9474.636058,4213.525239
59338.311376,5847.626942,-4737.318029,3600.648841
59338.311686,2368.659014,-2442.679609,3064.381992
59338.311995,4663.297435,-7698.141797,6052.154434
59338.312305,0.000000,-6883.915261,0.000000
59338.312615,-2664.741391,-9030.512492,-1302.362347
59338.312924,-3478.967927,-10140.821405,-2145.067394
59338.313234,-3404.947333,-10881.027347,-1991.848295
59338.313544,-3775.050304,-11547.212695,-1762.019645
59338.313854,-3256.906145,-14137.933492,1378.971896
59338.314163,-666.185348,-14137.933492,1532.190996
59338.314473,2294.638420,-9474.636058,2374.896044
59338.314783,2368.659014,-3034.844362,2451.505594
59338.315092,7920.203579,-5403.503377,7277.907231
59338.315402,3701.029710,-3849.070898,2451.505594
59338.315712,2886.803174,-8290.306550,1149.143247
59338.316022,-1036.288319,-10510.924376,-536.266849
59338.316331,-2664.741391,-11029.068536,-1762.019645
59338.316641,-3775.050304,-10510.924376,-2834.553343
59338.316951,-5329.482782,-11325.150913,-1225.752797
59338.317260,-5921.647536,-12509.480420,0.000000
59338.317570,-2812.782580,-14211.954086,1378.971896
59338.317880,-74.020594,-10362.883188,2374.896044
59338.318190,2368.659014,-4219.173869,919.314598
59338.318499,5699.585753,-2664.741391,4519.963438
59338.318809,6439.791695,-5921.647536,5439.278036
59338.319119,2220.617826,-6957.935855,2604.724693
59338.319428,-1110.308913,-9252.574275,153.219100
59338.319738,-3182.885551,-10658.965565,-1762.019645
59338.320048,-4737.318029,-9548.656652,-2451.505594
59338.320358,-4737.318029,-9548.656652,-4290.134789
59338.320667,-3552.988522,-14211.954086,-76.609550
59338.320977,-4811.338623,-13619.789333,-1608.800546
59338.321287,-2960.823768,-8956.491898,0.000000
59338.321596,4367.215058,-8290.306550,3600.648841
59338.321906,7031.956449,-5329.482782,5745.716235
59338.322216,6587.832884,-4515.256246,5056.230287
59338.322526,4811.338623,-7105.977043,3907.087040
59338.322835,2220.617826,-9474.636058,1225.752797
59338.323145,-2368.659014,-8364.327145,-3064.381992
59338.323455,-4737.318029,-9548.656652,-4903.011187
59338.323764,-4737.318029,-11325.150913,-1225.752797
59338.324074,-4811.338623,-13027.624579,-2528.115143
59338.324384,-6513.812290,-13101.645173,-1225.752797
59338.324694,-666.185348,-13027.624579,-76.609550
59338.325003,2664.741391,-8290.306550,4060.306139
59338.325313,5847.626942,-4885.359217,5286.058936
59338.325623,6217.729913,-4145.153275,5362.668486
59338.325932,4145.153275,-5773.606348,4366.744339
59338.326242,0.000000,-6143.709319,76.609550
59338.326552,-4515.256246,-8290.306550,-2528.115143
59338.326862,-6513.812290,-9548.656652,-2451.505594
59338.327171,-2442.679609,-11843.295072,-1608.800546
59338.327481,-6217.729913,-11029.068536,-4903.011187
59338.327791,-3627.009116,-15396.283594,-76.609550
59338.328100,-3552.988522,-11917.315666,0.000000
59338.328410,1998.556043,-8734.430116,2374.896044
59338.328720,5773.606348,-5033.400406,4596.572988
59338.329030,7105.977043,-3923.091493,5898.935335
59338.329339,7031.956449,-4737.318029,4826.401637
59338.329649,3182.885551,-9474.636058,2374.896044
59338.329959,-2368.659014,-8364.327145,0.000000
59338.330268,-666.185348,-11843.295072,-689.485948
59338.330578,-5329.482782,-8956.491898,-4903.011187
59338.330888,-4737.318029,-12065.356855,-612.876398
59338.331198,-8290.306550,-12509.480420,-3677.258390
59338.331507,-5033.400406,-12805.562797,-766.095498
59338.331817,-370.102971,-9400.615463,1685.410096
59338.332127,3701.029710,-5625.565159,3524.039291
59338.332436,7031.956449,-4737.318029,7277.907231
59338.332746,7031.956449,-7105.977043,6665.030833
59338.333056,592.164754,-4811.338623,1225.752797
59338.333366,888.247130,-9622.677246,2145.067394
59338.333675,-2146.597232,-7772.162391,-3907.087040
59338.333985,-3552.988522,-9548.656652,-1225.752797
59338.334295,-5921.647536,-10732.986159,-3064.381992
59338.334604,-7328.038826,-12879.583391,-2757.943793
59338.334914,-7328.038826,-14063.912898,-2374.896044
59338.335224,-1924.535449,-9992.780217,766.095498
59338.335534,5255.462188,-8290.306550,4826.401637
59338.335843,9400.615463,-7105.977043,8503.660028
59338.336153,5847.626942,-3552.988522,4213.525239
59338.336463,2960.823768,-6587.832884,3140.991542
59338.336772,2886.803174,-9474.636058,-76.609550
59338.337082,-4145.153275,-9548.656652,0.000000
59338.337392,-3034.844362,-9104.533087,-2834.553343
59338.337702,-4737.318029,-10881.027347,-2834.553343
59338.338011,-5921.647536,-12287.418637,-2757.943793
59338.338321,-5551.544565,-13323.706956,-1225.752797
59338.338631,-296.082377,-12213.398043,1838.629195
59338.338940,5181.441594,-9474.636058,6128.763984
59338.339250,7031.956449,-5921.647536,6052.154434
59338.339560,4293.194464,-3701.029710,4290.134789
59338.339870,5255.462188,-9400.615463,6741.640382
59338.340179,0.000000,-6587.832884,0.000000
59338.340489,-2146.597232,-9474.636058,-1608.800546
59338.340799,-3478.967927,-9252.574275,-2451.505594
59338.341108,-4441.235652,-10362.883188,-2374.896044
59338.341418,-5847.626942,-11843.295072,-2451.505594
59338.341728,-5921.647536,-13101.645173,-1225.752797
59338.342038,-4145.153275,-10140.821405,1225.752797
59338.342347,3478.967927,-9474.636058,4213.525239
59338.342657,5551.544565,-4145.153275,3907.087040
59338.342967,5921.647536,-2442.679609,4903.011187
59338.343276,5847.626942,-5107.421000,2834.553343
59338.343586,3478.967927,-9474.636058,2068.457845
59338.343896,-222.061783,-10732.986159,-612.876398
59338.344206,-1998.556043,-10658.965565,-2145.067394
59338.344515,-3404.947333,-11029.068536,-2528.115143
59338.344825,-7105.977043,-10140.821405,-3677.258390
59338.345135,-9474.636058,-11917.315666,-4290.134789
59338.345444,-2442.679609,-14211.954086,-76.609550
59338.345754,1110.308913,-9030.512492,1149.143247
59338.346064,2368.659014,-4811.338623,4903.011187
59338.346374,7031.956449,-4145.153275,5439.278036
59338.346683,5847.626942,-6513.812290,5439.278036
59338.346993,2516.700203,-6957.935855,2451.505594
59338.347303,-592.164754,-8956.491898,306.438199
59338.347612,-2072.576638,-9474.636058,-1455.581446
59338.347922,-4737.318029,-8364.327145,-4290.134789
59338.348232,-7994.224174,-9548.656652,-4596.572988
59338.348542,-5329.482782,-14730.098246,-919.314598
59338.348851,-4811.338623,-13619.789333,-1302.362347
59338.349161,-3552.988522,-7179.997637,0.000000
59338.349471,4663.297435,-7105.977043,3600.648841
59338.349780,7254.018232,-4145.153275,5822.325785
59338.350090,6439.791695,-4737.318029,5286.058936
59338.350400,3923.091493,-7179.997637,3217.601092
59338.350710,1110.308913,-9770.718434,536.266849
59338.351019,-2442.679609,-9548.656652,-2834.553343
59338.351329,-4515.256246,-7550.100608,-4749.792088
59338.351639,-5921.647536,-10732.986159,-2451.505594
59338.351948,-5995.668130,-13619.789333,-2834.553343
59338.352258,-9474.636058,-11917.315666,-2451.505594
59338.352568,-74.020594,-11843.295072,-76.609550
59338.352878,2664.741391,-7402.059420,3677.258390
59338.353187,5699.585753,-4737.318029,5515.887586
59338.353497,5551.544565,-4737.318029,5592.497135
59338.353807,3478.967927,-6883.915261,3983.696590
59338.354116,814.226536,-7698.141797,1762.019645
59338.354426,-74.020594,-9474.636058,-689.485948
59338.354736,-4737.318029,-8364.327145,-2451.505594
59338.355046,-2442.679609,-11843.295072,-1302.362347
59338.355355,-7179.997637,-9696.697840,-4366.744339
59338.355665,-5921.647536,-14211.954086,-76.609550
59338.355975,-3997.112087,-10436.903782,0.000000
59338.356284,1628.453072,-8068.244768,2451.505594
59338.356594,5773.606348,-4663.297435,4749.792088
59338.356904,6735.874072,-3997.112087,6205.373534
59338.357213,7031.956449,-5921.647536,6052.154434
59338.357523,1702.473667,-7772.162391,1072.533697
59338.357832,-1776.494261,-9548.656652,0.000000
59338.358142,-74.020594,-12435.459826,-76.609550
59338.358452,-6513.812290,-9548.656652,-4290.134789
59338.358761,-3627.009116,-14211.954086,-689.485948
59338.359071,-8290.306550,-12213.398043,-4136.915689
59338.359381,-3552.988522,-12213.398043,612.876398
59338.359690,2294.638420,-8734.430116,2374.896044
59338.360000,4441.235652,-5625.565159,4366.744339
59338.360309,4663.297435,-4071.132681,4826.401637
59338.360619,3478.967927,-5921.647536,3600.648841
59338.360929,0.000000,-6587.832884,1225.752797
59338.361238,-74.020594,-10658.965565,1762.019645
59338.361548,-4737.318029,-7179.997637,-3677.258390
59338.361857,-370.102971,-11843.295072,-76.609550
59338.362167,-4737.318029,-10881.027347,-1838.629195
59338.362477,-6513.812290,-12805.562797,-2145.067394
59338.362786,-5847.626942,-12435.459826,-1608.800546
59338.363096,-592.164754,-8956.491898,842.705048
59338.363406,4663.297435,-6809.894666,4213.525239
59338.363715,8216.285956,-4737.318029,4826.401637
59338.364025,3552.988522,-4219.173869,3677.258390
59338.364334,4367.215058,-9474.636058,4213.525239
59338.364644,-2220.617826,-7179.997637,-2298.286494
59338.364954,-1036.288319,-12065.356855,612.876398
59338.365263,-4145.153275,-9548.656652,-2451.505594
59338.365573,-4885.359217,-11325.150913,-2834.553343
59338.365883,-6661.853478,-13175.665768,-2834.553343
59338.366192,-5181.441594,-12583.501014,-1532.190996
59338.366502,1702.473667,-11251.130318,2374.896044
59338.366811,6439.791695,-8290.306550,4826.401637
59338.367121,4959.379811,-2960.823768,3907.087040
59338.367431,3552.988522,-4811.338623,4903.011187
59338.367740,4663.297435,-9474.636058,4826.401637
59338.368050,0.000000,-8956.491898,1991.848295
59338.368360,-2960.823768,-8956.491898,-1838.629195
59338.368669,-2738.761985,-9844.739029,-2528.115143
59338.368979,-4145.153275,-10510.924376,-2374.896044
59338.369288,-5329.482782,-12953.603985,-2451.505594
59338.369598,-4219.173869,-15100.201217,-1072.533697
59338.369908,-370.102971,-12731.542202,2911.162892
59338.370217,3478.967927,-7105.977043,2068.457845
59338.370527,4737.318029,-3034.844362,3677.258390
59338.370837,9400.615463,-7105.977043,8503.660028
59338.371146,3552.988522,-5403.503377,4903.011187
59338.371456,1258.350101,-8956.491898,1225.752797
59338.371765,-888.247130,-9696.697840,-612.876398
59338.372075,-2442.679609,-9992.780217,-1991.848295
59338.372385,-4589.276840,-10584.944971,-2451.505594
59338.372694,-5625.565159,-12509.480420,-2451.505594
59338.373004,-5921.647536,-14878.139434,-306.438199
59338.373314,-1258.350101,-11843.295072,-76.609550
59338.373623,1406.391290,-5995.668130,229.828649
59338.373933,2368.659014,-3627.009116,3983.696590
59338.374242,3552.988522,-3034.844362,4903.011187
59338.374552,3478.967927,-6661.853478,3600.648841
59338.374862,740.205942,-9178.553681,1915.238745
59338.375171,-888.247130,-9474.636058,-612.876398
59338.375481,-2368.659014,-9918.759623,-1762.019645
59338.375791,-4145.153275,-9548.656652,-2451.505594
59338.376100,-7105.977043,-11917.315666,-2145.067394
59338.376410,-5403.503377,-15100.201217,-1608.800546
59338.376719,-4959.379811,-9918.759623,-3140.991542
59338.377029,0.000000,-8364.327145,2451.505594
59338.377339,3404.947333,-3775.050304,3064.381992
59338.377648,7624.121203,-4145.153275,6665.030833
59338.377958,5477.523971,-5699.585753,5515.887586
59338.378268,2590.720797,-8142.265362,2068.457845
59338.378577,-518.144159,-9474.636058,-383.047749
59338.378887,-4737.318029,-9548.656652,-2451.505594
59338.379196,-5921.647536,-8512.368333,-3677.258390
59338.379506,-4885.359217,-12657.521608,-1838.629195
59338.379816,-5995.668130,-13323.706956,-2834.553343
59338.380125,-7105.977043,-10732.986159,0.000000
59338.380435,1110.308913,-8290.306550,76.609550
59338.380745,5033.400406,-5995.668130,4596.572988
59338.381054,6661.853478,-4515.256246,6435.202183
59338.381364,5033.400406,-5329.482782,5056.230287
59338.381673,2294.638420,-7920.203579,2451.505594
59338.381983,-2146.597232,-8438.347739,-229.828649
59338.382293,-4737.318029,-7476.080014,-3064.381992
59338.382602,-3256.906145,-10436.903782,-1838.629195
59338.382912,-3034.844362,-11843.295072,-2528.115143
59338.383221,-8882.471304,-11029.068536,-3677.258390
59338.383531,-3627.009116,-13323.706956,-1915.238745
59338.383841,-1184.329507,-9844.739029,1378.971896
59338.384150,3478.967927,-6439.791695,3600.648841
59338.384460,6365.771101,-4441.235652,5362.668486
59338.384770,6143.709319,-5033.400406,5286.058936
59338.385079,4071.132681,-7105.977043,4826.401637
59338.385389,74.020594,-7772.162391,-919.314598
59338.385698,-2368.659014,-9548.656652,-2451.505594
59338.386008,-2442.679609,-11843.295072,-1302.362347
59338.386318,-6957.935855,-9548.656652,-4903.011187
59338.386627,-4811.338623,-14211.954086,-2528.115143
59338.386937,-5329.482782,-13693.809927,-1225.752797
59338.387247,-1184.329507,-10362.883188,842.705048
59338.387556,2960.823768,-7624.121203,3830.477490
59338.387866,6365.771101,-3923.091493,4903.011187
59338.388175,7031.956449,-4737.318029,6052.154434
59338.388485,4071.132681,-6513.812290,3294.210641
59338.388795,-1184.329507,-7179.997637,76.609550
59338.389104,-1258.350101,-12805.562797,-76.609550
59338.389414,-2738.761985,-8882.471304,-3753.867940
59338.389724,-1924.535449,-11547.212695,-1302.362347
59338.390033,-6513.812290,-11917.315666,-2451.505594
59338.390343,-5699.585753,-12361.439231,-1532.190996
59338.390652,-3108.864956,-11177.109724,306.438199
59338.390962,1184.329507,-8216.285956,2451.505594
59338.391272,5847.626942,-5329.482782,4826.401637
59338.391581,7624.121203,-5921.647536,6052.154434
59338.391891,3478.967927,-4811.338623,2911.162892
59338.392201,1184.329507,-9548.656652,3677.258390
59338.392510,-74.020594,-9474.636058,-1302.362347
59338.392820,-2368.659014,-11103.089130,-76.609550
59338.393129,-3627.009116,-9844.739029,-2298.286494
59338.393439,-5329.482782,-11843.295072,-2145.067394
59338.393749,-6217.729913,-12657.521608,-2528.115143
59338.394058,-3775.050304,-12879.583391,229.828649
59338.394368,2146.597232,-9696.697840,3064.381992
59338.394678,7031.956449,-7698.141797,6052.154434
59338.394987,5255.462188,-4293.194464,4213.525239
59338.395297,4145.153275,-7179.997637,6435.202183
59338.395606,2294.638420,-9474.636058,1762.019645
59338.395916,-1776.494261,-9548.656652,1225.752797
59338.396226,-2146.597232,-9770.718434,-1608.800546
59338.396535,-3256.906145,-10214.842000,-2145.067394
59338.396845,-4737.318029,-11399.171507,-2451.505594
59338.397155,-5699.585753,-13323.706956,-1915.238745
59338.397464,-5329.482782,-11325.150913,0.000000
59338.397774,1480.411884,-11177.109724,3294.210641
59338.398083,4663.297435,-6513.812290,4519.963438
59338.398393,3552.988522,-666.185348,2757.943793
59338.398703,5329.482782,-6587.832884,6741.640382
59338.399012,1480.411884,-7179.997637,2145.067394
59338.399322,-74.020594,-9178.553681,229.828649
59338.399632,-2664.741391,-9770.718434,-2451.505594
59338.399941,-3478.967927,-9622.677246,-2911.162892
59338.400251,-4737.318029,-10881.027347,-2374.896044
59338.400560,-6513.812290,-11473.192101,-3370.820191
59338.400870,-5329.482782,-12509.480420,0.000000
59338.401180,-74.020594,-11251.130318,4213.525239
59338.401489,4071.132681,-5329.482782,1762.019645
59338.401799,3552.988522,-3034.844362,3677.258390
59338.402109,4737.318029,-4811.338623,3677.258390
59338.402418,2886.803174,-8660.409521,2834.553343
59338.402728,-444.123565,-9474.636058,306.438199
59338.403037,-2294.638420,-10362.883188,-1532.190996
59338.403347,-1850.514855,-9622.677246,-1608.800546
59338.403657,-3552.988522,-9548.656652,-2068.457845
59338.403966,-5921.647536,-10732.986159,0.000000
59338.404276,-3256.906145,-13915.871710,-76.609550
59338.404585,-1258.350101,-9474.636058,-76.609550
59338.404895,0.000000,-5403.503377,1838.629195
59338.405205,4441.235652,-3256.906145,3983.696590
59338.405514,5255.462188,-5773.606348,4903.011187
59338.405824,3108.864956,-7624.121203,2911.162892
59338.406134,0.000000,-9696.697840,383.047749
59338.406443,-1702.473667,-9992.780217,-1302.362347
59338.406753,-3478.967927,-8882.471304,-1915.238745
59338.407062,-4737.318029,-8364.327145,-3370.820191
59338.407372,-3552.988522,-13027.624579,-76.609550
59338.407682,-5403.503377,-11399.171507,-3140.991542
59338.407991,-3552.988522,-9548.656652,306.438199
59338.408301,1998.556043,-7031.956449,612.876398
59338.408611,5181.441594,-5477.523971,4290.134789
59338.408920,5181.441594,-4515.256246,4366.744339
59338.409230,2812.782580,-7105.977043,3294.210641
59338.409539,222.061783,-9104.533087,1149.143247
59338.409849,-1258.350101,-10658.965565,-76.609550
59338.410159,-3330.926739,-8660.409521,-2757.943793
59338.410468,-2368.659014,-10214.842000,0.000000
59338.410778,-1258.350101,-14211.954086,-76.609550
59338.411088,-7994.224174,-12065.356855,-2145.067394
59338.411397,-2146.597232,-11843.295072,-689.485948
59338.411707,592.164754,-8068.244768,2451.505594
59338.412016,3997.112087,-5255.462188,4136.915689
59338.412326,4811.338623,-4515.256246,4903.011187
59338.412636,4071.132681,-5773.606348,4826.401637
59338.412945,2294.638420,-9474.636058,2987.772442
59338.413255,-1850.514855,-9474.636058,-1302.362347
59338.413565,-4145.153275,-8956.491898,-2451.505594
59338.413874,-1258.350101,-11251.130318,-1302.362347
59338.414184,-5921.647536,-9548.656652,-3064.381992
59338.414493,-4219.173869,-13619.789333,-1302.362347
59338.414803,-4441.235652,-11399.171507,0.000000
59338.415113,592.164754,-9844.739029,1838.629195
59338.415422,4293.194464,-5699.585753,3370.820191
59338.415732,5329.482782,-3997.112087,5515.887586
59338.416042,5551.544565,-7402.059420,5286.058936
59338.416351,2294.638420,-8882.471304,1762.019645
59338.416661,-2368.659014,-8512.368333,0.000000
59338.416970,-74.020594,-11251.130318,-1302.362347
59338.417280,-4441.235652,-8364.327145,-1838.629195
59338.417590,-1258.350101,-10955.047942,-76.609550
59338.417899,-4959.379811,-12435.459826,-1762.019645
59338.418209,-4589.276840,-12953.603985,-536.266849
59338.418519,-814.226536,-10066.800811,1072.533697
59338.418828,3034.844362,-7105.977043,2451.505594
59338.419138,6513.812290,-4811.338623,5515.887586
59338.419447,7031.956449,-6809.894666,6052.154434
59338.419757,2590.720797,-7105.977043,2374.896044
59338.420067,0.000000,-8364.327145,0.000000
59338.420376,-74.020594,-10658.965565,-1302.362347
59338.420686,-1776.494261,-10658.965565,-76.609550
59338.420996,-3330.926739,-10140.821405,-1685.410096
59338.421305,-4811.338623,-12213.398043,-1225.752797
59338.421615,-5181.441594,-12953.603985,-919.314598
59338.421924,-1628.453072,-10140.821405,0.000000
59338.422234,2368.659014,-6587.832884,2451.505594
59338.422544,7031.956449,-6513.812290,4826.401637
59338.422853,5255.462188,-4737.318029,4213.525239
59338.423163,1184.329507,-7179.997637,3064.381992
59338.423473,2146.597232,-10658.965565,1149.143247
59338.423782,-1776.494261,-11695.253884,-76.609550
59338.424092,-1702.473667,-10066.800811,-1608.800546
59338.424401,-1702.473667,-10436.903782,-919.314598
59338.424711,-2886.803174,-11917.315666,-536.266849
59338.425021,-3849.070898,-11917.315666,-2298.286494
59338.425330,-4737.318029,-9548.656652,0.000000
59338.425640,1184.329507,-8364.327145,3217.601092
59338.425949,5255.462188,-7105.977043,4826.401637
59338.426259,1184.329507,-2442.679609,2451.505594
59338.426569,4441.235652,-7698.141797,4826.401637
59338.426878,0.000000,-9252.574275,1532.190996
59338.427188,-1850.514855,-9474.636058,-995.924147
59338.427498,-3330.926739,-10362.883188,-1685.410096
59338.427807,-3552.988522,-9326.594869,-2221.676944
59338.428117,-4293.194464,-10510.924376,-1302.362347
59338.428426,-6143.709319,-10732.986159,-3447.429741
59338.428736,-4441.235652,-10732.986159,0.000000
59338.429046,1184.329507,-9548.656652,3677.258390
59338.429355,5847.626942,-6513.812290,3600.648841
59338.429665,3552.988522,-3627.009116,5209.449386
59338.429975,2960.823768,-5107.421000,3677.258390
59338.430284,1332.370696,-9252.574275,1762.019645
59338.430594,-1406.391290,-9918.759623,-612.876398
59338.430903,-2146.597232,-10510.924376,-1225.752797
59338.431213,-1998.556043,-9474.636058,-995.924147
59338.431523,-3034.844362,-10658.965565,-2528.115143
59338.431832,-7105.977043,-11917.315666,-1838.629195
59338.432142,-3256.906145,-13693.809927,2451.505594
59338.432452,-74.020594,-10658.965565,1762.019645
59338.432761,1776.494261,-4811.338623,2451.505594
59338.433071,3552.988522,-2442.679609,3677.258390
59338.433380,3627.009116,-5995.668130,4290.134789
59338.433690,1110.308913,-8290.306550,1762.019645
59338.434000,-1628.453072,-9474.636058,-612.876398
59338.434309,-2294.638420,-10658.965565,-1302.362347
59338.434619,-1258.350101,-9474.636058,-1302.362347
59338.434929,-4145.153275,-8956.491898,-2451.505594
59338.435238,-4737.318029,-11325.150913,0.000000
59338.435548,-1850.514855,-14211.954086,-76.609550
59338.435857,-2072.576638,-8660.409521,0.000000
59338.436167,1998.556043,-5551.544565,1225.752797
59338.436477,4811.338623,-4811.338623,3447.429741
59338.436786,3775.050304,-6143.709319,3677.258390
59338.437096,1776.494261,-8142.265362,1838.629195
59338.437406,-74.020594,-11473.192101,1762.019645
59338.437715,-74.020594,-13027.624579,-76.609550
59338.438025,-1850.514855,-9474.636058,-1608.800546
59338.438334,-1776.494261,-10732.986159,1532.190996
59338.438644,-1258.350101,-13027.624579,-76.609550
59338.438954,-4737.318029,-11325.150913,0.000000
59338.439263,-1258.350101,-10658.965565,842.705048
59338.439573,2072.576638,-6735.874072,2604.724693
59338.439883,4737.318029,-4515.256246,3677.258390
59338.440192,4145.153275,-4737.318029,3370.820191
59338.440502,2664.741391,-7920.203579,3677.258390
59338.440811,-74.020594,-11843.295072,2068.457845
59338.441121,-2442.679609,-10066.800811,-2221.676944
59338.441431,-4145.153275,-9548.656652,0.000000
59338.441740,-1258.350101,-10658.965565,-689.485948
59338.442050,-5033.400406,-9548.656652,-3064.381992
59338.442360,-2442.679609,-13027.624579,-76.609550
59338.442669,-1554.432478,-10140.821405,612.876398
59338.442979,2738.761985,-7328.038826,2604.724693
59338.443288,4737.318029,-4811.338623,3677.258390
59338.443598,4737.318029,-3627.009116,4903.011187
59338.443908,3256.906145,-8068.244768,4903.011187
59338.444217,1702.473667,-10658.965565,-76.609550
59338.444527,-4737.318029,-7772.162391,-3677.258390
59338.444837,-1332.370696,-11843.295072,-306.438199
59338.445146,-1850.514855,-10362.883188,-2528.115143
59338.445456,-1850.514855,-12731.542202,-383.047749
59338.445765,-4367.215058,-13249.686362,-459.657299
59338.446075,-2516.700203,-11843.295072,612.876398
59338.446385,888.247130,-8512.368333,2374.896044
59338.446694,2368.659014,-4811.338623,2451.505594
59338.447004,4737.318029,-2442.679609,5515.887586
59338.447313,5255.462188,-7031.956449,6281.983084
59338.447623,-74.020594,-7105.977043,-76.609550
59338.447933,-2072.576638,-10881.027347,612.876398
59338.448242,-3627.009116,-10658.965565,-2528.115143
59338.448552,-3182.885551,-11547.212695,-1072.533697
59338.448862,-4663.297435,-10807.006753,-1455.581446
59338.449171,-5329.482782,-11621.233289,-1149.143247
59338.449481,-3701.029710,-11843.295072,0.000000
59338.449790,0.000000,-6587.832884,0.000000
59338.450100,2368.659014,-3627.009116,2451.505594
59338.450410,5477.523971,-4071.132681,4903.011187
59338.450719,6439.791695,-7105.977043,3600.648841
59338.451029,0.000000,-7179.997637,1225.752797
59338.451339,-74.020594,-13027.624579,-76.609550
59338.451648,-2368.659014,-11103.089130,-612.876398
59338.451958,-2442.679609,-10807.006753,-2068.457845
59338.452267,-3552.988522,-11103.089130,-1915.238745
59338.452577,-4737.318029,-13619.789333,-1149.143247
59338.452887,-4219.173869,-12435.459826,-1302.362347
59338.453196,-3478.967927,-8364.327145,0.000000
59338.453506,2368.659014,-6587.832884,2451.505594
59338.453816,9104.533087,-7105.977043,6665.030833
59338.454125,3552.988522,-3034.844362,4903.011187
59338.454435,5551.544565,-9178.553681,6052.154434
59338.454744,-1776.494261,-7772.162391,612.876398
59338.455054,-2442.679609,-10436.903782,-995.924147
59338.455364,-3034.844362,-9992.780217,-1915.238745
59338.455673,-3849.070898,-10436.903782,-2068.457845
59338.455983,-4811.338623,-11695.253884,-2528.115143
59338.456293,-5995.668130,-11103.089130,-2834.553343
59338.456602,-2368.659014,-10140.821405,0.000000
59338.456912,5847.626942,-9474.636058,4519.963438
59338.457222,4663.297435,-3404.947333,2451.505594
59338.457531,5921.647536,-4811.338623,6741.640382
59338.457841,4219.173869,-8290.306550,4826.401637
59338.458151,0.000000,-7994.224174,-76.609550
59338.458460,-1850.514855,-10214.842000,-1302.362347
59338.458770,-2516.700203,-9548.656652,-2221.676944
59338.459080,-1702.473667,-10140.821405,-3370.820191
59338.459389,-4737.318029,-11325.150913,-2451.505594
59338.459699,-3552.988522,-13989.892304,306.438199
59338.460009,-74.020594,-14211.954086,3600.648841
59338.460318,518.144159,-7402.059420,536.266849
59338.460628,4145.153275,-5107.421000,4903.011187
59338.460938,4737.318029,-5403.503377,5362.668486
59338.461247,3478.967927,-6809.894666,3907.087040
59338.461557,-148.041188,-7994.224174,919.314598
59338.461866,-2442.679609,-9622.677246,-919.314598
59338.462176,-3330.926739,-9104.533087,-2221.676944
59338.462486,-4737.318029,-7476.080014,-4290.134789
59338.462795,-4737.318029,-10732.986159,0.000000
59338.463105,-2442.679609,-15396.283594,-76.609550
59338.463415,-4219.173869,-9770.718434,-1762.019645
59338.463724,0.000000,-8660.409521,3600.648841
59338.464034,3552.988522,-5107.421000,3064.381992
59338.464344,5107.421000,-5033.400406,3983.696590
59338.464653,3404.947333,-6217.729913,3217.601092
59338.464963,740.205942,-8660.409521,1532.190996
59338.465273,-1628.453072,-10362.883188,-76.609550
59338.465582,-3330.926739,-9400.615463,-2834.553343
59338.465892,-3849.070898,-9548.656652,-2451.505594
59338.466202,-1258.350101,-14211.954086,-76.609550
59338.466511,-5107.421000,-11843.295072,-1608.800546
59338.466821,-4737.318029,-12509.480420,1225.752797
59338.467131,0.000000,-7179.997637,1532.190996
59338.467440,3997.112087,-6883.915261,4596.572988
59338.467750,5181.441594,-3849.070898,4519.963438
59338.468060,3701.029710,-5181.441594,4443.353888
59338.468369,1702.473667,-8882.471304,3600.648841
59338.468679,-666.185348,-8882.471304,-76.609550
59338.468989,-4737.318029,-9548.656652,-2911.162892
59338.469298,-4145.153275,-10732.986159,0.000000
59338.469608,-2442.679609,-10658.965565,-1915.238745
59338.469918,-6513.812290,-11029.068536,0.000000
59338.470227,-5033.400406,-11029.068536,-1915.238745
59338.470537,-888.247130,-10214.842000,1378.971896
59338.470846,3404.947333,-8068.244768,3217.601092
59338.471156,5625.565159,-4737.318029,4519.963438
59338.471466,5847.626942,-7698.141797,4826.401637
59338.471775,4663.297435,-9474.636058,4826.401637
59338.472085,222.061783,-8586.388927,-76.609550
59338.472395,-4737.318029,-7179.997637,0.000000
59338.472704,-74.020594,-11843.295072,-76.609550
59338.473014,-2738.761985,-9030.512492,-3677.258390
59338.473324,-4811.338623,-11695.253884,-1915.238745
59338.473633,-4737.318029,-13101.645173,-612.876398
59338.473943,-2516.700203,-11843.295072,229.828649
59338.474253,1406.391290,-7402.059420,2145.067394
59338.474562,6143.709319,-5403.503377,4903.011187
59338.474872,7624.121203,-7105.977043,6971.469032
59338.475182,4663.297435,-6809.894666,4826.401637
59338.475491,-1776.494261,-6291.750507,-1532.190996
59338.475801,-74.020594,-11843.295072,-76.609550
59338.476111,-4663.297435,-8364.327145,-4290.134789
59338.476420,-3034.844362,-10658.965565,-1915.238745
59338.476730,-5477.523971,-11325.150913,-1532.190996
59338.477040,-5477.523971,-12583.501014,-1302.362347
59338.477349,-2590.720797,-11325.150913,766.095498
59338.477659,1776.494261,-7476.080014,3064.381992
59338.477969,6365.771101,-7179.997637,6281.983084
59338.478278,7031.956449,-4441.235652,4826.401637
59338.478588,2294.638420,-3775.050304,1378.971896
59338.478897,2368.659014,-10140.821405,2451.505594
59338.479207,-1258.350101,-9918.759623,-1915.238745
59338.479517,-1258.350101,-11843.295072,-1302.362347
59338.479826,-2664.741391,-10288.862594,-2451.505594
59338.480136,-3775.050304,-11769.274478,-2145.067394
59338.480446,-4737.318029,-14137.933492,-995.924147
59338.480755,-4737.318029,-11029.068536,0.000000
59338.481065,296.082377,-9548.656652,3677.258390
59338.481375,5551.544565,-7105.977043,5515.887586
59338.481684,8808.450710,-5921.647536,6052.154434
59338.481994,2368.659014,-3034.844362,3677.258390
59338.482304,3108.864956,-9474.636058,4213.525239
59338.482613,-74.020594,-11251.130318,1532.190996
59338.482923,-3034.844362,-9474.636058,-1991.848295
59338.483233,-4219.173869,-9548.656652,-2681.334243
59338.483542,-5403.503377,-10732.986159,-2451.505594
59338.483852,-8290.306550,-11917.315666,-4290.134789
59338.484162,-7105.977043,-10732.986159,0.000000
59338.484471,-740.205942,-9696.697840,2451.505594
59338.484781,5847.626942,-8290.306550,4213.525239
59338.485091,3552.988522,-1850.514855,3677.258390
59338.485400,7254.018232,-7105.977043,6971.469032
59338.485710,4515.256246,-7698.141797,4290.134789
59338.486020,518.144159,-9770.718434,383.047749
59338.486329,-1554.432478,-10288.862594,-1225.752797
59338.486639,-2146.597232,-10658.965565,-1915.238745
59338.486949,-3923.091493,-9548.656652,-2528.115143
59338.487258,-7105.977043,-10732.986159,-3677.258390
59338.487568,-5921.647536,-13693.809927,0.000000
59338.487877,-74.020594,-13027.624579,-76.609550
59338.488187,592.164754,-5995.668130,1225.752797
59338.488497,6365.771101,-6439.791695,7201.297681
59338.488806,5921.647536,-4811.338623,6128.763984
59338.489116,4367.215058,-7105.977043,3983.696590
59338.489426,222.061783,-8882.471304,842.705048
59338.489735,-2886.803174,-9622.677246,-995.924147
59338.490045,-3034.844362,-9178.553681,-1915.238745
59338.490355,-6587.832884,-7920.203579,-4060.306139
59338.490664,-7105.977043,-10140.821405,-4903.011187
59338.490974,-4811.338623,-15692.365970,-76.609550
59338.491284,-4219.173869,-9622.677246,-995.924147
59338.491593,2368.659014,-8364.327145,3677.258390
59338.491903,3552.988522,-3627.009116,3677.258390
59338.492213,5477.523971,-4589.276840,5056.230287
59338.492522,4367.215058,-5921.647536,3907.087040
59338.492832,1480.411884,-8808.450710,995.924147
59338.493142,-74.020594,-11843.295072,-76.609550
59338.493451,-1850.514855,-9474.636058,-3140.991542
59338.493761,-3478.967927,-8364.327145,-4903.011187
59338.494071,-2368.659014,-12953.603985,-153.219100
59338.494380,-3627.009116,-14211.954086,-1302.362347
59338.494690,-4737.318029,-11325.150913,0.000000
59338.495000,0.000000,-7920.203579,919.314598
59338.495309,4811.338623,-5995.668130,4136.915689
59338.495619,5995.668130,-4885.359217,5669.106685
59338.495928,4737.318029,-5847.626942,4903.011187
59338.496238,3478.967927,-9474.636058,3600.648841
59338.496548,-74.020594,-10658.965565,-76.609550
59338.496857,-3627.009116,-8142.265362,-3753.867940
59338.497167,-3552.988522,-10140.821405,-612.876398
59338.497477,-4219.173869,-10658.965565,-2528.115143
59338.497786,-9474.636058,-10732.986159,-4290.134789
59338.498096,-5847.626942,-11251.130318,-1685.410096
59338.498406,-592.164754,-9548.656652,1838.629195
59338.498715,3997.112087,-5699.585753,3447.429741
59338.499025,6069.688724,-3701.029710,4673.182538
59338.499335,6587.832884,-6883.915261,6894.859482
59338.499644,5847.626942,-9474.636058,3600.648841
59338.499954,-74.020594,-9474.636058,-383.047749
59338.500264,-2368.659014,-10732.986159,0.000000
59338.500573,-1850.514855,-9474.636058,-2528.115143
59338.500883,-4737.318029,-9548.656652,-4903.011187
59338.501193,-3627.009116,-12435.459826,-1915.238745
59338.501502,-5329.482782,-13101.645173,-1225.752797
59338.501812,-1258.350101,-11029.068536,919.314598
59338.502122,3330.926739,-7105.977043,3217.601092
59338.502431,5921.647536,-4811.338623,7354.516781
59338.502741,7698.141797,-6513.812290,7277.907231
59338.503051,4663.297435,-9474.636058,4826.401637
59338.503360,-1258.350101,-7476.080014,0.000000
59338.503670,-1184.329507,-10436.903782,612.876398
59338.503979,-3627.009116,-7698.141797,-3447.429741
59338.504289,-4219.173869,-11547.212695,-2221.676944
59338.504599,-6883.915261,-11325.150913,-2528.115143
59338.504908,-7031.956449,-13545.768739,-1685.410096
59338.505218,-3108.864956,-10436.903782,459.657299
59338.505528,296.082377,-5403.503377,2451.505594
59338.505837,4737.318029,-4811.338623,6128.763984
59338.506147,8216.285956,-6513.812290,7890.783629
59338.506457,3330.926739,-4811.338623,2221.676944
59338.506766,2368.659014,-9918.759623,2451.505594
59338.507076,-74.020594,-9474.636058,-2528.115143
59338.507386,-1258.350101,-11251.130318,-1302.362347
59338.507695,-3404.947333,-10140.821405,-2681.334243
59338.508005,-5329.482782,-12139.377449,-3217.601092
59338.508315,-6217.729913,-13693.809927,-2374.896044
59338.508624,-4737.318029,-10140.821405,0.000000
59338.508934,0.000000,-7772.162391,2451.505594
59338.509244,5477.523971,-6291.750507,6741.640382
59338.509553,8216.285956,-4737.318029,6052.154434
59338.509863,3552.988522,-5403.503377,4903.011187
59338.510173,3478.967927,-9474.636058,3600.648841
59338.510482,-888.247130,-10658.965565,766.095498
59338.510792,-2664.741391,-9474.636058,-1762.019645
59338.511102,-3627.009116,-9474.636058,-2221.676944
59338.511411,-5773.606348,-10732.986159,-2374.896044
59338.511721,-8808.450710,-11325.150913,-4903.011187
59338.512031,-8290.306550,-10732.986159,-2451.505594
59338.512340,-2368.659014,-5995.668130,612.876398
59338.512650,5847.626942,-7105.977043,6052.154434
59338.512959,5255.462188,-3108.864956,4213.525239
59338.513269,6291.750507,-7105.977043,6971.469032
59338.513579,3552.988522,-8364.327145,3677.258390
59338.513888,296.082377,-11029.068536,459.657299
59338.514198,-1702.473667,-9548.656652,-1915.238745
59338.514508,-2442.679609,-10436.903782,-2145.067394
59338.514817,-3034.844362,-10066.800811,-4673.182538
59338.515127,-6883.915261,-11621.233289,-3447.429741
59338.515437,-7105.977043,-11917.315666,0.000000
59338.515746,2294.638420,-11695.253884,3294.210641
59338.516056,4367.215058,-5773.606348,2987.772442
59338.516366,7698.141797,-4811.338623,7967.393179
59338.516675,5033.400406,-4219.173869,5515.887586
59338.516985,3849.070898,-8290.306550,3907.087040
59338.517295,1702.473667,-10436.903782,1991.848295
59338.517604,-1850.514855,-10066.800811,-919.314598
59338.517914,-2442.679609,-10658.965565,-3140.991542
59338.518224,-5403.503377,-9770.718434,-4979.620737
59338.518533,-9474.636058,-10140.821405,-4903.011187
59338.518843,-5329.482782,-15396.283594,-229.828649
59338.519153,-2442.679609,-10362.883188,-76.609550
59338.519462,1184.329507,-5995.668130,3677.258390
59338.519772,5033.400406,-2738.761985,4290.134789
59338.520082,6809.894666,-4071.132681,6128.763984
59338.520391,5255.462188,-6587.832884,4903.011187
59338.520701,1628.453072,-9400.615463,1225.752797
59338.521010,-74.020594,-11843.295072,-76.609550
59338.521320,-666.185348,-11843.295072,-689.485948
59338.521630,-4515.256246,-8734.430116,-4826.401637
59338.521939,-5921.647536,-13397.727550,-2145.067394
59338.522249,-5403.503377,-15396.283594,-1915.238745
59338.522559,-4737.318029,-10732.986159,0.000000
59338.522868,1258.350101,-7179.997637,995.924147
59338.523178,5181.441594,-4959.379811,5056.230287
59338.523488,6217.729913,-4293.194464,5898.935335
59338.523797,4293.194464,-6587.832884,4903.011187
59338.524107,3108.864956,-10658.965565,4826.401637
59338.524417,-74.020594,-10658.965565,-76.609550
59338.524726,-2442.679609,-9474.636058,-2528.115143
59338.525036,-6513.812290,-9548.656652,-2145.067394
59338.525346,-5995.668130,-11843.295072,-2528.115143
59338.525655,-9474.636058,-10732.986159,-4903.011187
59338.525965,-4515.256246,-11843.295072,-689.485948
59338.526275,-370.102971,-7698.141797,2374.896044
59338.526584,4589.276840,-4737.318029,4443.353888
59338.526894,5995.668130,-4367.215058,4979.620737
59338.527204,6217.729913,-6809.894666,6588.421283
59338.527513,4663.297435,-9474.636058,3677.258390
59338.527823,2294.638420,-13027.624579,-76.609550
59338.528133,-4145.153275,-9548.656652,-2451.505594
59338.528442,-2220.617826,-11399.171507,-689.485948
59338.528752,-4811.338623,-9844.739029,-4290.134789
59338.529062,-4811.338623,-13915.871710,-1915.238745
59338.529371,-4293.194464,-12805.562797,-689.485948
59338.529681,370.102971,-9622.677246,1608.800546
59338.529990,4515.256246,-5773.606348,3753.867940
59338.530300,5921.647536,-3627.009116,6128.763984
59338.530610,5329.482782,-5995.668130,3064.381992
59338.530919,5847.626942,-10658.965565,4213.525239
59338.531229,-2368.659014,-9548.656652,0.000000
59338.531539,-666.185348,-10955.047942,-383.047749
59338.531848,-3923.091493,-7994.224174,-3447.429741
59338.532158,-4811.338623,-10658.965565,-2221.676944
59338.532468,-6661.853478,-12953.603985,-2374.896044
59338.532777,-5699.585753,-12287.418637,-1302.362347
59338.533087,-1480.411884,-9992.780217,1532.190996
59338.533397,1776.494261,-4811.338623,2451.505594
59338.533706,4737.318029,-3627.009116,2451.505594
59338.534016,9400.615463,-7105.977043,7890.783629
59338.534326,4663.297435,-6217.729913,2374.896044
59338.534635,296.082377,-9104.533087,1532.190996
59338.534945,-74.020594,-10658.965565,-2528.115143
59338.535255,-2368.659014,-11695.253884,-1915.238745
59338.535564,-3923.091493,-11399.171507,-3294.210641
59338.535874,-5107.421000,-13471.748144,-2911.162892
59338.536184,-5403.503377,-13989.892304,-1991.848295
59338.536493,-4145.153275,-9548.656652,-2451.505594
59338.536803,592.164754,-4811.338623,0.000000
59338.537113,4737.318029,-4811.338623,5515.887586
59338.537422,8808.450710,-6513.812290,7277.907231
59338.537732,2960.823768,-5403.503377,2451.505594
59338.538041,4071.132681,-11843.295072,4213.525239
59338.538351,-1184.329507,-10214.842000,0.000000
59338.538661,-2590.720797,-9474.636058,-2221.676944
59338.538970,-5181.441594,-9770.718434,-3064.381992
59338.539280,-6957.935855,-11843.295072,-3524.039291
59338.539590,-8364.327145,-11769.274478,-3753.867940
59338.539899,-5477.523971,-9548.656652,-2221.676944
59338.540209,0.000000,-6587.832884,2451.505594
59338.540519,5329.482782,-6143.709319,5898.935335
59338.540828,4737.318029,-2442.679609,2451.505594
59338.541138,7031.956449,-7698.141797,7277.907231
59338.541448,1480.411884,-7031.956449,1532.190996
59338.541757,-1110.308913,-9326.594869,-383.047749
59338.542067,-2368.659014,-9252.574275,-2145.067394
59338.542377,-3404.947333,-10807.006753,-2374.896044
59338.542686,-3627.009116,-11547.212695,-3140.991542
59338.542996,-6291.750507,-13619.789333,-3753.867940
59338.543306,-7105.977043,-10732.986159,-2451.505594
59338.543615,1850.514855,-10658.965565,2528.115143
59338.543925,5255.462188,-5625.565159,2987.772442
59338.544235,7105.977043,-5699.585753,7354.516781
59338.544544,4737.318029,-5403.503377,5056.230287
59338.544854,3034.844362,-9252.574275,2834.553343
59338.545164,-148.041188,-9992.780217,919.314598
59338.545473,-2294.638420,-9474.636058,-1149.143247
59338.545783,-1850.514855,-9474.636058,-76.609550
59338.546092,-4811.338623,-11843.295072,-1302.362347
59338.546402,-9474.636058,-10140.821405,-4596.572988
59338.546712,-5921.647536,-12657.521608,-612.876398
59338.547021,-74.020594,-11251.130318,2374.896044
59338.547331,2368.659014,-4811.338623,3677.258390
59338.547641,4737.318029,-3923.091493,4060.306139
59338.547950,5033.400406,-5551.544565,4979.620737
59338.548260,3256.906145,-7254.018232,2757.943793
59338.548570,74.020594,-9400.615463,76.609550
59338.548879,-74.020594,-11843.295072,-76.609550
59338.549189,-74.020594,-13619.789333,-76.609550
59338.549499,-4959.379811,-8808.450710,-4213.525239
59338.549808,-5329.482782,-13101.645173,-1532.190996
59338.550118,-3627.009116,-13915.871710,-689.485948
59338.550428,-3552.988522,-8364.327145,0.000000
59338.550737,3775.050304,-6513.812290,2757.943793
59338.551047,6513.812290,-4737.318029,4903.011187
59338.551357,6217.729913,-5107.421000,5745.716235
59338.551666,3701.029710,-8290.306550,3524.039291
59338.551976,1924.535449,-12139.377449,2681.334243
59338.552286,-296.082377,-11769.274478,1225.752797
59338.552595,-2442.679609,-9326.594869,-2528.115143
59338.552905,-4737.318029,-10288.862594,-1991.848295
59338.553215,-6587.832884,-11843.295072,-2528.115143
59338.553524,-8290.306550,-9548.656652,-3677.258390
59338.553834,-2146.597232,-10658.965565,1149.143247
59338.554144,1924.535449,-7105.977043,2987.772442
59338.554453,5255.462188,-4441.235652,4826.401637
59338.554763,6217.729913,-4367.215058,5669.106685
59338.555073,4737.318029,-5995.668130,3983.696590
59338.555383,2368.659014,-9548.656652,3677.258390
59338.555692,-74.020594,-10658.965565,-1302.362347
59338.556002,-4737.318029,-9548.656652,-3524.039291
59338.556312,-1258.350101,-13915.871710,-76.609550
59338.556622,-5403.503377,-10732.986159,-4749.792088
59338.556931,-4515.256246,-14211.954086,-1608.800546
59338.557241,-3108.864956,-11843.295072,-689.485948
59338.557551,1184.329507,-8290.306550,1915.238745
59338.557861,4959.379811,-5181.441594,4519.963438
59338.558170,5921.647536,-3627.009116,4903.011187
59338.558480,5403.503377,-5625.565159,4443.353888
59338.558790,740.205942,-8364.327145,2451.505594
59338.559100,-74.020594,-13027.624579,-76.609550
59338.559409,-4737.318029,-8364.327145,-2451.505594
59338.559719,-2442.679609,-11547.212695,-1608.800546
59338.560029,-5699.585753,-11621.233289,-2451.505594
59338.560339,-6883.915261,-13397.727550,-2145.067394
59338.560648,-4885.359217,-11769.274478,-536.266849
59338.560958,-148.041188,-8956.491898,2451.505594
59338.561268,2294.638420,-3849.070898,2528.115143
59338.561578,3627.009116,-1258.350101,2681.334243
59338.561887,4737.318029,-4811.338623,5515.887586
59338.562197,4071.132681,-8290.306550,2374.896044
59338.562507,-2368.659014,-8364.327145,0.000000
59338.562817,-1776.494261,-11325.150913,306.438199
59338.563126,-2442.679609,-10881.027347,-1838.629195
59338.563436,-3330.926739,-12139.377449,-1915.238745
59338.563746,-5033.400406,-12879.583391,-1838.629195
59338.564056,-3701.029710,-12805.562797,-459.657299
59338.564365,2886.803174,-11843.295072,3600.648841
59338.564675,7031.956449,-9474.636058,6052.154434
59338.564985,6439.791695,-3552.988522,4213.525239
59338.565295,5329.482782,-4811.338623,5669.106685
59338.565604,4071.132681,-8290.306550,3600.648841
59338.565914,-3552.988522,-7476.080014,0.000000
59338.566224,-2590.720797,-10066.800811,-1608.800546
59338.566534,-3627.009116,-9252.574275,-2145.067394
59338.566843,-4737.318029,-10362.883188,-2528.115143
59338.567153,-7179.997637,-12213.398043,-2451.505594
59338.567463,-4737.318029,-13693.809927,-459.657299
59338.567773,-222.061783,-11917.315666,3830.477490
59338.568082,4663.297435,-8290.306550,4826.401637
59338.568392,4293.194464,-3034.844362,3907.087040
59338.568702,7402.059420,-6587.832884,8120.612279
59338.569012,2516.700203,-4219.173869,2451.505594
59338.569321,1110.308913,-9474.636058,1149.143247
59338.569631,-1850.514855,-9844.739029,-1455.581446
59338.569941,-3034.844362,-10584.944971,-2221.676944
59338.570251,-3182.885551,-10807.006753,-2604.724693
59338.570560,-4589.276840,-12509.480420,-1838.629195
59338.570870,-5329.482782,-13101.645173,0.000000
59338.571180,-74.020594,-14211.954086,-76.609550
59338.571490,0.000000,-6735.874072,306.438199
59338.571799,5921.647536,-8068.244768,7354.516781
59338.572109,5847.626942,-2960.823768,3907.087040
59338.572419,4885.359217,-7550.100608,4673.182538
59338.572729,1480.411884,-8660.409521,2298.286494
59338.573038,-1184.329507,-9548.656652,0.000000
59338.573348,-2664.741391,-9252.574275,-1149.143247
59338.573658,-4737.318029,-7476.080014,-3064.381992
59338.573968,-9474.636058,-9548.656652,-3677.258390
59338.574277,-6513.812290,-13101.645173,-1225.752797
59338.574587,-2442.679609,-12731.542202,2374.896044
59338.574897,-2072.576638,-5995.668130,0.000000
59338.575207,4663.297435,-4441.235652,2374.896044
59338.575516,4737.318029,-4811.338623,4290.134789
59338.575826,4071.132681,-6143.709319,3600.648841
59338.576136,1110.308913,-8364.327145,1532.190996
59338.576446,-1776.494261,-9918.759623,-689.485948
59338.576755,-4441.235652,-8364.327145,-3217.601092
59338.577065,-5921.647536,-7179.997637,-4596.572988
59338.577375,-1258.350101,-12731.542202,-76.609550
59338.577685,-4219.173869,-12435.459826,-1915.238745
59338.577994,-3552.988522,-11917.315666,1225.752797
59338.578304,3478.967927,-10658.965565,-76.609550
59338.578614,3552.988522,-5995.668130,3064.381992
59338.578924,5551.544565,-5255.462188,4596.572988
59338.579233,4663.297435,-6291.750507,4290.134789
59338.579543,2146.597232,-9104.533087,2145.067394
59338.579853,-1258.350101,-10955.047942,-1302.362347
59338.580163,-3182.885551,-7550.100608,-3600.648841
59338.580472,-3552.988522,-9548.656652,-1225.752797
59338.580782,-2442.679609,-11843.295072,-76.609550
59338.581092,-6587.832884,-10288.862594,-2987.772442
59338.581402,-2146.597232,-13619.789333,1762.019645
59338.581711,0.000000,-8956.491898,2145.067394
59338.582021,3034.844362,-5625.565159,3677.258390
59338.582331,3997.112087,-3923.091493,3907.087040
59338.582641,3552.988522,-4885.359217,3447.429741
59338.582950,2294.638420,-7105.977043,1762.019645
59338.583260,-666.185348,-9474.636058,-1302.362347
59338.583570,-4737.318029,-9548.656652,-2145.067394
59338.583880,-740.205942,-10658.965565,-76.609550
59338.584189,-3330.926739,-8438.347739,-3217.601092
59338.584499,-2368.659014,-13619.789333,919.314598
59338.584809,-3478.967927,-12657.521608,-842.705048
59338.585119,-592.164754,-10955.047942,919.314598
59338.585428,2294.638420,-7624.121203,2298.286494
59338.585738,4663.297435,-5033.400406,3447.429741
59338.586048,7031.956449,-7105.977043,6052.154434
59338.586358,5847.626942,-8882.471304,3600.648841
59338.586667,-1776.494261,-8660.409521,0.000000
59338.586977,-1258.350101,-11843.295072,-76.609550
59338.587287,-4367.215058,-7624.121203,-3447.429741
59338.587597,-3552.988522,-11029.068536,1225.752797
59338.587906,-4811.338623,-11547.212695,-1302.362347
59338.588216,-5477.523971,-12435.459826,-766.095498
59338.588526,-1924.535449,-10140.821405,1072.533697
59338.588836,2146.597232,-7179.997637,3064.381992
59338.589145,5847.626942,-6513.812290,4903.011187
59338.589455,6439.791695,-7105.977043,6052.154434
59338.589765,1110.308913,-5625.565159,1302.362347
59338.590075,-74.020594,-9918.759623,3294.210641
59338.590384,-3034.844362,-8882.471304,-2834.553343
59338.590694,-5921.647536,-8364.327145,-2374.896044
59338.591004,-2738.761985,-10362.883188,-842.705048
59338.591314,-3478.967927,-11547.212695,-1378.971896
59338.591623,-3775.050304,-11991.336260,-766.095498
59338.591933,-1776.494261,-11103.089130,536.266849
59338.592243,3478.967927,-8586.388927,2757.943793
59338.592553,8216.285956,-8882.471304,4826.401637
59338.592862,5255.462188,-3256.906145,3600.648841
59338.593172,4145.153275,-6883.915261,4903.011187
59338.593482,3478.967927,-9474.636058,-76.609550
59338.593792,-3552.988522,-9548.656652,0.000000
59338.594101,-888.247130,-11843.295072,-76.609550
59338.594411,-2442.679609,-10214.842000,-1302.362347
59338.594721,-4515.256246,-11251.130318,-2068.457845
59338.595031,-6069.688724,-12879.583391,-1532.190996
59338.595340,-3330.926739,-13471.748144,-76.609550
59338.595650,2294.638420,-11843.295072,3600.648841
59338.595960,3478.967927,-5329.482782,2987.772442
59338.596270,3701.029710,-2516.700203,1225.752797
59338.596579,6883.915261,-7550.100608,6358.592633
59338.596889,1776.494261,-7920.203579,2451.505594
59338.597199,-888.247130,-10510.924376,1149.143247
59338.597509,-2886.803174,-9844.739029,-1455.581446
59338.597818,-2072.576638,-9992.780217,-1532.190996
59338.598128,-2294.638420,-10807.006753,-1302.362347
59338.598438,-2886.803174,-13767.830521,-612.876398
59338.598748,-1258.350101,-14211.954086,1608.800546
59338.599057,-74.020594,-11547.212695,1149.143247
59338.599367,2368.659014,-5699.585753,0.000000
59338.599677,6513.812290,-6587.832884,5822.325785
59338.599987,2960.823768,-4811.338623,4903.011187
59338.600296,2886.803174,-7698.141797,2757.943793
59338.600606,-962.267725,-9770.718434,76.609550
59338.600916,-1924.535449,-10362.883188,-842.705048
59338.601226,-1776.494261,-10140.821405,-1072.533697
59338.601535,-2146.597232,-11843.295072,-612.876398
59338.601845,-3849.070898,-13693.809927,919.314598
59338.602155,-3034.844362,-14211.954086,-76.609550
59338.602465,-1850.514855,-8882.471304,-689.485948
59338.602774,592.164754,-5995.668130,3064.381992
59338.603084,2960.823768,-3627.009116,4060.306139
59338.603394,3775.050304,-4737.318029,3600.648841
59338.603704,1184.329507,-7105.977043,2145.067394
59338.604013,-1258.350101,-9696.697840,536.266849
59338.604323,-3034.844362,-10066.800811,-1302.362347
59338.604633,-2442.679609,-10955.047942,-1149.143247
59338.604943,-888.247130,-10807.006753,766.095498
59338.605252,-1258.350101,-12731.542202,-76.609550
59338.605562,-4663.297435,-10140.821405,-3370.820191
59338.605872,-2960.823768,-11325.150913,612.876398
59338.606182,1776.494261,-9400.615463,2834.553343
59338.606491,4589.276840,-5699.585753,2987.772442
59338.606801,4515.256246,-4959.379811,3983.696590
59338.607111,3034.844362,-6883.915261,1762.019645
59338.607421,296.082377,-10214.842000,1149.143247
59338.607730,-148.041188,-12139.377449,0.000000
59338.608040,-74.020594,-13027.624579,-76.609550
59338.608350,-3034.844362,-8586.388927,-1532.190996
59338.608660,-4737.318029,-10140.821405,0.000000
59338.608969,-2442.679609,-14211.954086,1915.238745
59338.609279,-3552.988522,-10732.986159,612.876398
59338.609589,1110.308913,-7698.141797,2374.896044
59338.609899,3108.864956,-4737.318029,3064.381992
59338.610208,3330.926739,-4441.235652,2987.772442
59338.610518,1184.329507,-6809.894666,1991.848295
59338.610828,-1036.288319,-9844.739029,1838.629195
59338.611138,-2072.576638,-11325.150913,612.876398
59338.611447,-1258.350101,-9474.636058,-1302.362347
59338.611757,-3108.864956,-8364.327145,-2451.505594
59338.612067,-74.020594,-13027.624579,1762.019645
59338.612377,-3256.906145,-10214.842000,0.000000
59338.612686,-740.205942,-11695.253884,995.924147
59338.612996,1110.308913,-9326.594869,1915.238745
59338.613306,3627.009116,-6217.729913,2451.505594
59338.613616,5181.441594,-4737.318029,3294.210641
59338.613925,2960.823768,-5403.503377,3064.381992
59338.614235,0.000000,-9548.656652,1838.629195
59338.614545,-370.102971,-11843.295072,-76.609550
59338.614855,-3552.988522,-9844.739029,-4903.011187
59338.615164,-74.020594,-12583.501014,-76.609550
59338.615474,-3775.050304,-9252.574275,-1685.410096
59338.615784,-4441.235652,-11991.336260,-459.657299
59338.616094,-3923.091493,-11843.295072,0.000000
59338.616403,370.102971,-8512.368333,2068.457845
59338.616713,3330.926739,-5477.523971,3907.087040
59338.617023,3552.988522,-1554.432478,3370.820191
59338.617333,2368.659014,-3923.091493,3064.381992
59338.617642,2146.597232,-9474.636058,3294.210641
59338.617952,-2146.597232,-9178.553681,-3064.381992
59338.618262,-1258.350101,-11843.295072,-76.609550
59338.618572,-2442.679609,-8586.388927,-3677.258390
59338.618881,-2812.782580,-10436.903782,-1225.752797
59338.619191,-3552.988522,-11991.336260,-766.095498
59338.619501,-3330.926739,-13323.706956,-459.657299
59338.619811,-370.102971,-10510.924376,1149.143247
59338.620120,1036.288319,-5551.544565,842.705048
59338.620430,2960.823768,-2442.679609,2451.505594
59338.620740,7105.977043,-5625.565159,5592.497135
59338.621050,4071.132681,-5107.421000,229.828649
59338.621359,1184.329507,-10732.986159,2757.943793
59338.621669,-370.102971,-11547.212695,-1302.362347
59338.621979,-2738.761985,-10807.006753,-1455.581446
59338.622289,-3997.112087,-10881.027347,-1608.800546
59338.622598,-5625.565159,-11917.315666,-1532.190996
59338.622908,-5403.503377,-13101.645173,-76.609550
59338.623218,-2664.741391,-10658.965565,1149.143247
59338.623528,1110.308913,-5699.585753,1455.581446
59338.623837,2368.659014,-2738.761985,2757.943793
59338.624147,4663.297435,-7105.977043,6665.030833
59338.624457,518.144159,-5033.400406,536.266849
59338.624767,-666.185348,-8808.450710,-76.609550
59338.625076,-4293.194464,-10288.862594,-1455.581446
59338.625386,-2590.720797,-9474.636058,-1915.238745
59338.625696,-1850.514855,-9844.739029,-1072.533697
59338.626006,-2886.803174,-11251.130318,-306.438199
59338.626315,-2442.679609,-13471.748144,-76.609550
59338.626625,-666.185348,-13027.624579,-76.609550
59338.626935,444.123565,-6735.874072,612.876398
59338.627245,3552.988522,-5403.503377,4903.011187
59338.627554,7031.956449,-5921.647536,4826.401637
59338.627864,5847.626942,-6661.853478,4826.401637
59338.628174,1554.432478,-8808.450710,1378.971896
59338.628484,-1480.411884,-10955.047942,-383.047749
59338.628793,-2590.720797,-10066.800811,-1685.410096
59338.629103,-2516.700203,-10214.842000,-2145.067394
59338.629413,-1850.514855,-11843.295072,-76.609550
59338.629723,-2442.679609,-14211.954086,-76.609550
59338.630032,-4589.276840,-11029.068536,-842.705048
59338.630342,1184.329507,-9548.656652,4903.011187
59338.630652,4663.297435,-6513.812290,3600.648841
59338.630962,5921.647536,-4737.318029,6052.154434
59338.631271,3404.947333,-5107.421000,3370.820191
59338.631581,888.247130,-7772.162391,2068.457845
59338.631891,-2146.597232,-9622.677246,-306.438199
59338.632201,-3256.906145,-9918.759623,-2451.505594
59338.632510,-1850.514855,-10214.842000,-612.876398
59338.632820,-1332.370696,-12287.418637,-76.609550
59338.633130,-3034.844362,-12731.542202,-76.609550
59338.633440,-5921.647536,-9548.656652,0.000000
59338.633749,1628.453072,-11251.130318,2987.772442
59338.634059,3552.988522,-7105.977043,3983.696590
59338.634369,5181.441594,-4441.235652,3677.258390
59338.634679,4959.379811,-4959.379811,3907.087040
59338.634988,2812.782580,-8068.244768,2451.505594
59338.635298,0.000000,-9548.656652,-1608.800546
59338.635608,-2072.576638,-10881.027347,0.000000
59338.635918,-1480.411884,-11029.068536,-459.657299
59338.636227,-1850.514855,-10362.883188,-1302.362347
59338.636537,-8290.306550,-9548.656652,-3677.258390
59338.636847,-1554.432478,-14211.954086,-76.609550
59338.637157,-1776.494261,-10732.986159,2451.505594
59338.637466,2442.679609,-7698.141797,2834.553343
59338.637776,3552.988522,-4737.318029,3907.087040
59338.638086,3256.906145,-4737.318029,3677.258390
59338.638396,2072.576638,-6069.688724,2374.896044
59338.638705,-1776.494261,-7772.162391,0.000000
59338.639015,-4145.153275,-9548.656652,0.000000
59338.639325,-1850.514855,-10658.965565,-689.485948
59338.639635,-5921.647536,-7179.997637,-3677.258390
59338.639944,-1776.494261,-13619.789333,2374.896044
59338.640254,-4737.318029,-11325.150913,0.000000
59338.640564,-1998.556043,-12139.377449,612.876398
59338.640874,2072.576638,-8068.244768,2374.896044
59338.641183,4515.256246,-5255.462188,3524.039291
59338.641493,4959.379811,-4737.318029,4826.401637
59338.641803,2516.700203,-4811.338623,1149.143247
59338.642113,0.000000,-9548.656652,1838.629195
59338.642422,-666.185348,-11843.295072,-76.609550
59338.642732,-4737.318029,-9548.656652,0.000000
59338.643042,-1258.350101,-11843.295072,-76.609550
59338.643352,-5921.647536,-9548.656652,-2451.505594
59338.643661,-5255.462188,-12805.562797,-383.047749
59338.643971,-2738.761985,-11621.233289,995.924147
59338.644281,1036.288319,-8290.306550,2681.334243
59338.644591,4367.215058,-6513.812290,4826.401637
59338.644900,4145.153275,-3256.906145,3600.648841
59338.645210,1184.329507,-4811.338623,2451.505594
59338.645520,1110.308913,-10066.800811,2681.334243
59338.645830,-4737.318029,-7772.162391,0.000000
59338.646139,-666.185348,-11251.130318,-1532.190996
59338.646449,-3478.967927,-7772.162391,-3140.991542
59338.646759,-3552.988522,-11029.068536,-1532.190996
59338.647069,-3849.070898,-13397.727550,-459.657299
59338.647378,-3108.864956,-12509.480420,0.000000
59338.647688,1110.308913,-11251.130318,2987.772442
59338.647998,4071.132681,-6513.812290,4213.525239
59338.648308,4663.297435,-3108.864956,3447.429741
59338.648617,4737.318029,-4811.338623,3677.258390
59338.648927,4663.297435,-9474.636058,2374.896044
59338.649237,-2368.659014,-9548.656652,0.000000
59338.649547,-1850.514855,-10955.047942,-1302.362347
59338.649856,-3256.906145,-9844.739029,-2145.067394
59338.650166,-4293.194464,-10732.986159,-1685.410096
59338.650476,-5625.565159,-12213.398043,-1991.848295
59338.650786,-3849.070898,-12805.562797,1225.752797
59338.651095,-74.020594,-11843.295072,2374.896044
59338.651405,3478.967927,-6513.812290,2374.896044
59338.651715,2664.741391,-2738.761985,612.876398
59338.652025,6661.853478,-7105.977043,6511.811733
59338.652334,1184.329507,-4811.338623,0.000000
59338.652644,1110.308913,-10658.965565,1149.143247
59338.652954,-2738.761985,-9844.739029,-766.095498
59338.653264,-2220.617826,-9696.697840,-1532.190996
59338.653573,-2442.679609,-10732.986159,-1072.533697
59338.653883,-4737.318029,-11325.150913,0.000000
59338.654193,-3182.885551,-14137.933492,1532.190996
59338.654503,-74.020594,-12435.459826,1149.143247
59338.654812,2294.638420,-5625.565159,-76.609550
59338.655122,4737.318029,-4811.338623,4903.011187
59338.655432,7031.956449,-4737.318029,4826.401637
59338.655742,6735.874072,-7105.977043,3600.648841
59338.656051,1480.411884,-9474.636058,919.314598
59338.656370,-1850.514855,-11399.171507,-1455.581446
59338.656680,-2738.761985,-10362.883188,-2451.505594
59338.656989,-4737.318029,-9548.656652,-3677.258390
59338.657299,-4145.153275,-11917.315666,0.000000
59338.657609,-3775.050304,-14211.954086,-76.609550
59338.657919,-2590.720797,-10214.842000,-1608.800546
59338.658229,518.144159,-6735.874072,766.095498
59338.658538,3552.988522,-5625.565159,4749.792088
59338.658848,6735.874072,-4737.318029,3600.648841
59338.659158,2960.823768,-5995.668130,4290.134789
59338.659468,2294.638420,-9474.636058,2374.896044
59338.659778,-2368.659014,-9474.636058,-383.047749
59338.660087,-4441.235652,-8364.327145,-2451.505594
59338.660397,-1258.350101,-10732.986159,0.000000
59338.660707,-1554.432478,-13619.789333,-76.609550
59338.661017,-4515.256246,-11251.130318,-3140.991542
59338.661327,-3552.988522,-13101.645173,1532.190996
59338.661637,2294.638420,-9474.636058,2374.896044
59338.661946,5773.606348,-7698.141797,4443.353888
59338.662256,5625.565159,-4219.173869,4290.134789
59338.662566,4663.297435,-4959.379811,3524.039291
59338.662876,2738.761985,-8586.388927,2068.457845
59338.663186,-1776.494261,-8956.491898,0.000000
59338.663495,-3552.988522,-10732.986159,0.000000
59338.663805,-666.185348,-11251.130318,-689.485948
59338.664115,-5329.482782,-10140.821405,-4903.011187
59338.664425,-3404.947333,-14804.118840,-76.609550
59338.664735,-2442.679609,-14211.954086,-76.609550
59338.665045,-592.164754,-11029.068536,2451.505594
59338.665354,3404.947333,-6439.791695,3600.648841
59338.665664,4737.318029,-4293.194464,4903.011187
59338.665974,4293.194464,-4811.338623,4290.134789
59338.666284,1110.308913,-4959.379811,1762.019645
59338.666594,-3552.988522,-7179.997637,0.000000
59338.666903,-2220.617826,-10436.903782,-76.609550
59338.667213,-2442.679609,-8142.265362,-3753.867940
59338.667523,-3552.988522,-11917.315666,0.000000
59338.667833,-2442.679609,-14211.954086,-76.609550
59338.668143,-5921.647536,-12509.480420,0.000000
59338.668452,-1702.473667,-11177.109724,689.485948
59338.668762,2442.679609,-6217.729913,2221.676944
59338.669072,4737.318029,-4515.256246,4366.744339
59338.669382,6735.874072,-3552.988522,4213.525239
59338.669692,2368.659014,-4811.338623,1608.800546
59338.670002,1480.411884,-9844.739029,2145.067394
59338.670311,-74.020594,-11251.130318,-76.609550
59338.670621,-4737.318029,-9548.656652,-2451.505594
59338.670931,-74.020594,-13471.748144,-76.609550
59338.671241,-6513.812290,-10732.986159,-2451.505594
59338.671551,-4737.318029,-13323.706956,-1225.752797
59338.671860,-1998.556043,-11843.295072,766.095498
59338.672170,1332.370696,-7920.203579,2528.115143
59338.672480,5847.626942,-5921.647536,4826.401637
59338.672790,3478.967927,-3552.988522,3294.210641
59338.673100,1480.411884,-4811.338623,2451.505594
59338.673410,1702.473667,-9474.636058,-76.609550
59338.673719,-4737.318029,-7179.997637,-2451.505594
59338.674029,-1776.494261,-10140.821405,612.876398
59338.674339,-4663.297435,-8660.409521,-2911.162892
59338.674649,-4589.276840,-11547.212695,-1455.581446
59338.674959,-5255.462188,-12139.377449,-1455.581446
59338.675268,-3034.844362,-11843.295072,0.000000
59338.675578,2294.638420,-9474.636058,3600.648841
59338.675888,5847.626942,-4737.318029,2987.772442
59338.676198,4737.318029,-3330.926739,3677.258390
59338.676508,6809.894666,-7476.080014,6741.640382
59338.676817,1702.473667,-7402.059420,383.047749
59338.677127,0.000000,-9548.656652,0.000000
59338.677437,-3034.844362,-10436.903782,-2068.457845
59338.677747,-3404.947333,-10732.986159,-2068.457845
59338.678057,-4589.276840,-11695.253884,-2451.505594
59338.678367,-5551.544565,-12435.459826,-1762.019645
59338.678676,-1776.494261,-13323.706956,1762.019645
59338.678986,2886.803174,-10658.965565,3600.648841
59338.679296,4071.132681,-4737.318029,2834.553343
59338.679606,4737.318029,-4811.338623,6741.640382
59338.679916,4663.297435,-4737.318029,2987.772442
59338.680225,0.000000,-5403.503377,0.000000
59338.680535,-666.185348,-10362.883188,-383.047749
59338.680845,-3182.885551,-10214.842000,-1225.752797
59338.681155,-3182.885551,-9918.759623,-2221.676944
59338.681465,-3997.112087,-11251.130318,-1838.629195
59338.681775,-5329.482782,-13101.645173,-919.314598
59338.682084,-2590.720797,-14211.954086,-76.609550
59338.682394,-74.020594,-11177.109724,2068.457845
59338.682704,0.000000,-2442.679609,612.876398
59338.683014,7328.038826,-5551.544565,6358.592633
59338.683324,4959.379811,-2294.638420,2681.334243
59338.683633,4663.297435,-7994.224174,2987.772442
59338.683943,0.000000,-10140.821405,612.876398
59338.684253,-2590.720797,-10584.944971,-1991.848295
59338.684563,-3404.947333,-10584.944971,-2145.067394
59338.684873,-5921.647536,-9548.656652,-1838.629195
59338.685182,-6217.729913,-13101.645173,-919.314598
59338.685492,-4811.338623,-14211.954086,-689.485948
59338.685802,-3627.009116,-8364.327145,-1149.143247
59338.686112,2368.659014,-7179.997637,4903.011187
59338.686422,7031.956449,-4737.318029,4826.401637
59338.686732,7031.956449,-4737.318029,6052.154434
59338.687041,3627.009116,-5477.523971,3600.648841
59338.687351,592.164754,-8956.491898,1455.581446
59338.687661,-2294.638420,-9844.739029,-766.095498
59338.687971,-5921.647536,-8364.327145,-2451.505594
59338.688281,-4737.318029,-10732.986159,-2451.505594
59338.688590,-5107.421000,-13767.830521,-842.705048
59338.688900,-4811.338623,-14211.954086,-2528.115143
59338.689210,-4737.318029,-10732.986159,0.000000
59338.689520,4367.215058,-9474.636058,4826.401637
59338.689830,6587.832884,-5329.482782,5669.106685
59338.690140,6661.853478,-3552.988522,5209.449386
59338.690449,5403.503377,-5477.523971,4213.525239
59338.690759,2590.720797,-8660.409521,1838.629195
59338.691069,-2664.741391,-8512.368333,-2145.067394
59338.691379,-3552.988522,-9548.656652,-2451.505594
59338.691689,-3256.906145,-11103.089130,-1225.752797
59338.691998,-3627.009116,-13027.624579,-2528.115143
59338.692308,-9474.636058,-11917.315666,-3677.258390
59338.692618,-666.185348,-15988.448347,-76.609550
59338.692928,1184.329507,-9252.574275,2604.724693
59338.693238,4959.379811,-5773.606348,4213.525239
59338.693547,6439.791695,-4145.153275,5132.839837
59338.693857,5699.585753,-5329.482782,4979.620737
59338.694167,3478.967927,-7105.977043,536.266849
59338.694477,-2072.576638,-8660.409521,0.000000
59338.694787,-2368.659014,-9844.739029,0.000000
59338.695097,-666.185348,-11843.295072,-1302.362347
59338.695406,-7105.977043,-9548.656652,-4213.525239
59338.695716,-3849.070898,-14878.139434,-76.609550
59338.696026,-5921.647536,-12213.398043,-1378.971896
59338.696336,-666.185348,-9770.718434,995.924147
59338.696646,3775.050304,-5773.606348,3447.429741
59338.696955,6365.771101,-3552.988522,5056.230287
59338.697265,7031.956449,-4737.318029,4826.401637
59338.697575,3627.009116,-5699.585753,2374.896044
59338.697885,0.000000,-9548.656652,0.000000
59338.698195,-74.020594,-13027.624579,-383.047749
59338.698505,-4737.318029,-9548.656652,-3064.381992
59338.698814,-3552.988522,-12213.398043,-612.876398
59338.699124,-7698.141797,-11325.150913,-3447.429741
59338.699434,-5921.647536,-13101.645173,-1225.752797
59338.699744,-1554.432478,-10807.006753,1149.143247
59338.700054,2960.823768,-7031.956449,3524.039291
59338.700363,8216.285956,-5921.647536,7277.907231
59338.700673,5847.626942,-4441.235652,4826.401637
59338.700983,2368.659014,-5403.503377,1225.752797
59338.701293,2294.638420,-11843.295072,2374.896044
59338.701603,-4145.153275,-9548.656652,-1532.190996
59338.701912,-4145.153275,-9548.656652,-1225.752797
59338.702222,-5107.421000,-9844.739029,-3294.210641
59338.702532,-7105.977043,-12139.377449,-2834.553343
59338.702842,-6735.874072,-13545.768739,-1685.410096
59338.703152,-3478.967927,-11251.130318,-229.828649
59338.703462,3182.885551,-9474.636058,4826.401637
59338.703771,6735.874072,-4737.318029,4826.401637
59338.704081,5847.626942,-1776.494261,2681.334243
59338.704391,5329.482782,-6587.832884,6128.763984
59338.704701,2294.638420,-8882.471304,1149.143247
59338.705011,-4737.318029,-8364.327145,0.000000
59338.705320,-1554.432478,-10658.965565,-1608.800546
59338.705630,-2886.803174,-9696.697840,-1838.629195
59338.705940,-4515.256246,-11621.233289,-2068.457845
59338.706250,-5699.585753,-12805.562797,-1532.190996
59338.706560,-3256.906145,-13471.748144,1838.629195
59338.706869,2220.617826,-10362.883188,3294.210641
59338.707179,4663.297435,-6513.812290,4213.525239
59338.707489,2368.659014,-3034.844362,3677.258390
59338.707799,4663.297435,-7698.141797,4826.401637
59338.708109,0.000000,-5107.421000,0.000000
59338.708419,-74.020594,-10658.965565,-76.609550
59338.708728,-2220.617826,-9474.636058,-919.314598
59338.709038,-2368.659014,-9548.656652,-1838.629195
59338.709348,-4219.173869,-11251.130318,-1762.019645
59338.709658,-7105.977043,-11917.315666,-1072.533697
59338.709968,-3034.844362,-13545.768739,459.657299
59338.710277,2294.638420,-11843.295072,4213.525239
59338.710587,4663.297435,-5625.565159,2987.772442
59338.710897,4737.318029,-3627.009116,4903.011187
59338.711207,7031.956449,-4737.318029,3600.648841
59338.711517,4071.132681,-9178.553681,2987.772442
59338.711827,-222.061783,-10584.944971,0.000000
59338.712136,-2368.659014,-10732.986159,-1991.848295
59338.712446,-3108.864956,-10658.965565,-2604.724693
59338.712756,-4737.318029,-9548.656652,-3677.258390
59338.713066,-5921.647536,-12065.356855,-1838.629195
59338.713376,-2442.679609,-15396.283594,-76.609550
59338.713685,-1258.350101,-8808.450710,0.000000
59338.713995,3552.988522,-7179.997637,4290.134789
59338.714305,8216.285956,-5921.647536,4826.401637
59338.714615,5477.523971,-5995.668130,5132.839837
59338.714925,2368.659014,-7105.977043,2451.505594
59338.715234,-962.267725,-9696.697840,612.876398
59338.715544,-2072.576638,-9548.656652,-1072.533697
59338.715854,-4737.318029,-7772.162391,-3677.258390
59338.716164,-5921.647536,-9548.656652,-2451.505594
59338.716474,-5921.647536,-13693.809927,-76.609550
59338.716784,-5403.503377,-11843.295072,-2528.115143
