#time,accel_x,accel_y,accel_z
59471.503194,1554.432478,-11251.130318,2987.772442
59471.503504,-74.020594,-9474.636058,1149.143247
59471.503814,-1628.453072,-8068.244768,0.000000
59471.504124,-74.020594,-11251.130318,2374.896044
59471.504433,-1776.494261,-8364.327145,306.438199
59471.504743,0.000000,-8364.327145,1225.752797
59471.505053,-962.267725,-7994.224174,229.828649
59471.505363,-592.164754,-9030.512492,1225.752797
59471.505673,1110.308913,-10510.924376,1762.019645
59471.505983,-222.061783,-9030.512492,536.266849
59471.506292,1480.411884,-10066.800811,2221.676944
59471.506602,-74.020594,-9474.636058,842.705048
59471.506912,-1628.453072,-7772.162391,0.000000
59471.507222,2294.638420,-11843.295072,2374.896044
59471.507532,-2072.576638,-7476.080014,0.000000
59471.507842,0.000000,-8364.327145,2451.505594
59471.508151,-666.185348,-8068.244768,0.000000
59471.508461,-74.020594,-9400.615463,1378.971896
59471.508771,-222.061783,-8956.491898,612.876398
59471.509081,-444.123565,-8660.409521,689.485948
59471.509391,1702.473667,-10658.965565,2987.772442
59471.509701,-74.020594,-9474.636058,1149.143247
59471.510010,-74.020594,-7994.224174,-689.485948
59471.510320,0.000000,-9548.656652,1532.190996
59471.510630,-74.020594,-9474.636058,-76.609550
59471.510940,-3552.988522,-7179.997637,0.000000
59471.511250,-74.020594,-9178.553681,536.266849
59471.511560,-370.102971,-8808.450710,689.485948
59471.511869,-518.144159,-8882.471304,536.266849
59471.512179,-148.041188,-9252.574275,689.485948
59471.512489,740.205942,-11029.068536,3140.991542
59471.512799,-74.020594,-10362.883188,2068.457845
59471.513109,-74.020594,-9474.636058,-76.609550
59471.513419,0.000000,-8364.327145,612.876398
59471.513728,-74.020594,-9474.636058,1762.019645
59471.514038,-2368.659014,-7179.997637,0.000000
59471.514348,-74.020594,-9474.636058,1149.143247
59471.514658,-518.144159,-8808.450710,612.876398
59471.514968,-296.082377,-8956.491898,1072.533697
59471.515278,-518.144159,-9104.533087,766.095498
59471.515587,-1776.494261,-9548.656652,1225.752797
59471.515897,74.020594,-9844.739029,1532.190996
59471.516207,1110.308913,-11843.295072,3600.648841
59471.516517,-2368.659014,-7179.997637,0.000000
59471.516827,296.082377,-9992.780217,1991.848295
59471.517137,-74.020594,-7698.141797,-76.609550
59471.517446,814.226536,-9474.636058,1532.190996
59471.517756,-666.185348,-9178.553681,383.047749
59471.518066,-222.061783,-8956.491898,995.924147
59471.518376,-518.144159,-9030.512492,919.314598
59471.518686,0.000000,-8364.327145,0.000000
59471.518996,-1184.329507,-8956.491898,1225.752797
59471.519305,1110.308913,-11843.295072,2987.772442
59471.519615,-1406.391290,-7402.059420,-766.095498
59471.519925,0.000000,-9548.656652,1532.190996
59471.520235,-74.020594,-9474.636058,-76.609550
59471.520545,296.082377,-9844.739029,1532.190996
59471.520855,-74.020594,-9178.553681,995.924147
59471.521164,-592.164754,-8808.450710,612.876398
59471.521474,-370.102971,-9252.574275,536.266849
59471.521784,-2368.659014,-7179.997637,0.000000
59471.522094,-1776.494261,-8364.327145,306.438199
59471.522404,0.000000,-10140.821405,3677.258390
59471.522714,-370.102971,-7846.182985,-76.609550
59471.523023,0.000000,-8956.491898,1225.752797
59471.523333,2294.638420,-11843.295072,2374.896044
59471.523643,0.000000,-9104.533087,1225.752797
59471.523953,-74.020594,-9326.594869,1149.143247
59471.524263,0.000000,-8808.450710,919.314598
59471.524573,0.000000,-8660.409521,612.876398
59471.524882,-370.102971,-7031.956449,0.000000
59471.525192,0.000000,-7772.162391,306.438199
59471.525502,592.164754,-9548.656652,2757.943793
59471.525812,1406.391290,-8290.306550,-76.609550
59471.526122,1184.329507,-8364.327145,919.314598
59471.526432,888.247130,-7179.997637,689.485948
59471.526741,2294.638420,-8882.471304,536.266849
59471.527051,2368.659014,-9030.512492,536.266849
59471.527361,2738.761985,-9178.553681,1225.752797
59471.527671,2960.823768,-9622.677246,842.705048
59471.527981,2960.823768,-10955.047942,2374.896044
59471.528291,3775.050304,-10066.800811,2298.286494
59471.528600,2294.638420,-7624.121203,-842.705048
59471.528910,4737.318029,-10140.821405,2298.286494
59471.529220,5255.462188,-8882.471304,1149.143247
59471.529530,6957.935855,-9252.574275,2987.772442
59471.529840,4811.338623,-8364.327145,1302.362347
59471.530150,5403.503377,-8438.347739,1685.410096
59471.530459,5403.503377,-8882.471304,842.705048
59471.530769,5995.668130,-8882.471304,766.095498
59471.531079,5403.503377,-7476.080014,0.000000
59471.531389,5107.421000,-8216.285956,-689.485948
59471.531699,5921.647536,-9548.656652,1225.752797
59471.532009,7031.956449,-11251.130318,-76.609550
59471.532318,3552.988522,-9548.656652,-3064.381992
59471.532628,2368.659014,-11325.150913,0.000000
59471.532938,3330.926739,-12731.542202,-76.609550
59471.533248,2072.576638,-11917.315666,229.828649
59471.533558,2220.617826,-10288.862594,383.047749
59471.533868,2960.823768,-8364.327145,1225.752797
59471.534177,4885.359217,-7698.141797,2604.724693
59471.534487,6217.729913,-5995.668130,4290.134789
59471.534797,7031.956449,-3552.988522,1455.581446
59471.535107,7105.977043,-3034.844362,2451.505594
59471.535417,11177.109724,-7105.977043,4826.401637
59471.535727,9400.615463,-8586.388927,536.266849
59471.536036,3997.112087,-12213.398043,0.000000
59471.536346,-296.082377,-16136.489536,-2374.896044
59471.536656,-2442.679609,-17690.922014,-3064.381992
59471.536966,-4515.256246,-16580.613101,-2145.067394
59471.537276,-5625.565159,-10955.047942,-4596.572988
59471.537586,-2442.679609,-8882.471304,-2528.115143
59471.537895,0.000000,-6587.832884,1225.752797
59471.538205,5255.462188,-6809.894666,4519.963438
59471.538515,4737.318029,-4811.338623,6741.640382
59471.538825,4441.235652,-4959.379811,6741.640382
59471.539135,3182.885551,-5033.400406,4979.620737
59471.539445,3404.947333,-3627.009116,4443.353888
59471.539754,4515.256246,-3552.988522,3907.087040
59471.540064,2590.720797,-3627.009116,76.609550
59471.540374,2960.823768,-10807.006753,-612.876398
59471.540684,-444.123565,-16210.510130,-766.095498
59471.540994,-5995.668130,-18949.272115,-4979.620737
59471.541304,-9178.553681,-19023.292709,-7354.516781
59471.541613,-3034.844362,-16580.613101,-4290.134789
59471.541923,-4219.173869,-9474.636058,-2834.553343
59471.542233,0.000000,-7772.162391,612.876398
59471.542543,2664.741391,-7402.059420,3983.696590
59471.542853,4515.256246,-5625.565159,4673.182538
59471.543163,6883.915261,-6587.832884,6894.859482
59471.543472,6957.935855,-2960.823768,6358.592633
59471.543782,7772.162391,-1406.391290,4903.011187
59471.544092,8290.306550,-3923.091493,6281.983084
59471.544402,4663.297435,-9474.636058,2374.896044
59471.544712,-3552.988522,-12879.583391,-1915.238745
59471.545022,-2220.617826,-17098.757260,-3064.381992
59471.545331,-2738.761985,-17764.942608,-4826.401637
59471.545641,-5181.441594,-14878.139434,-5898.935335
59471.545951,-7031.956449,-16580.613101,-4749.792088
59471.546261,-4959.379811,-10732.986159,-3753.867940
59471.546571,4145.153275,-9548.656652,1838.629195
59471.546881,11473.192101,-6217.729913,7277.907231
59471.547190,12509.480420,-592.164754,6971.469032
59471.547500,14508.036463,-5403.503377,11338.213370
59471.547810,10732.986159,-4145.153275,4290.134789
59471.548120,6883.915261,-6587.832884,2757.943793
59471.548430,3034.844362,-9992.780217,76.609550
59471.548740,-518.144159,-12213.398043,-2757.943793
59471.549049,-2886.803174,-14878.139434,-4749.792088
59471.549359,-74.020594,-16876.695478,-2068.457845
59471.549669,3478.967927,-12139.377449,-2528.115143
59471.549979,3182.885551,-9918.759623,-1072.533697
59471.550289,2368.659014,-7772.162391,0.000000
59471.550599,3478.967927,-9474.636058,-76.609550
59471.550908,7031.956449,-3552.988522,1762.019645
59471.551218,8586.388927,-3627.009116,6128.763984
59471.551528,6587.832884,-1702.473667,2681.334243
59471.551838,4589.276840,-4885.359217,1915.238745
59471.552148,7105.977043,-7698.141797,2068.457845
59471.552458,7550.100608,-6883.915261,306.438199
59471.552767,2368.659014,-11325.150913,1532.190996
59471.553077,-1628.453072,-14730.098246,-1302.362347
59471.553387,-2738.761985,-15396.283594,-3753.867940
59471.553697,-3552.988522,-11917.315666,-2451.505594
59471.554007,0.000000,-9548.656652,0.000000
59471.554317,2294.638420,-5329.482782,0.000000
59471.554626,8586.388927,-2738.761985,2528.115143
59471.554936,9400.615463,-4515.256246,4060.306139
59471.555246,5847.626942,-5625.565159,4060.306139
59471.555556,4219.173869,-8882.471304,4826.401637
59471.555866,2886.803174,-6217.729913,842.705048
59471.556176,296.082377,-7179.997637,-1225.752797
59471.556485,592.164754,-11325.150913,2451.505594
59471.556795,-74.020594,-11843.295072,-383.047749
59471.557105,-444.123565,-11843.295072,-1915.238745
59471.557415,-1258.350101,-13915.871710,-1991.848295
59471.557725,-2220.617826,-12065.356855,-1378.971896
59471.558035,-296.082377,-8956.491898,459.657299
59471.558344,4145.153275,-6513.812290,1685.410096
59471.558654,3552.988522,-3627.009116,3677.258390
59471.558964,5921.647536,-4811.338623,3677.258390
59471.559274,6143.709319,-7105.977043,4826.401637
59471.559584,592.164754,-3627.009116,0.000000
59471.559894,3849.070898,-10140.821405,2604.724693
59471.560203,2072.576638,-8364.327145,1532.190996
59471.560513,0.000000,-9622.677246,0.000000
59471.560823,-1258.350101,-11029.068536,-536.266849
59471.561133,-3034.844362,-11177.109724,-2451.505594
59471.561443,-2812.782580,-11547.212695,-2528.115143
59471.561753,2294.638420,-11251.130318,-76.609550
59471.562062,2960.823768,-5699.585753,612.876398
59471.562372,5403.503377,-5921.647536,2068.457845
59471.562682,4737.318029,-7846.182985,3370.820191
59471.562992,4885.359217,-7476.080014,2604.724693
59471.563302,2960.823768,-7772.162391,2451.505594
59471.563612,3182.885551,-8512.368333,1838.629195
59471.563921,4663.297435,-9474.636058,2374.896044
59471.564231,0.000000,-9548.656652,612.876398
59471.564541,-74.020594,-11843.295072,995.924147
59471.564851,-148.041188,-11251.130318,-76.609550
59471.565161,-1850.514855,-9844.739029,-1302.362347
59471.565471,1258.350101,-6513.812290,0.000000
59471.565780,888.247130,-9030.512492,1532.190996
59471.566090,666.185348,-7698.141797,1072.533697
59471.566400,0.000000,-7179.997637,0.000000
59471.566710,0.000000,-9548.656652,0.000000
59471.567020,4663.297435,-11251.130318,4213.525239
59471.567330,0.000000,-7179.997637,306.438199
59471.567639,-592.164754,-9548.656652,1225.752797
59471.567949,-74.020594,-10658.965565,1149.143247
59471.568259,-4737.318029,-11917.315666,0.000000
59471.568569,-3552.988522,-10807.006753,0.000000
59471.568879,-2886.803174,-8068.244768,-306.438199
59471.569189,-1850.514855,-7550.100608,919.314598
59471.569498,-2960.823768,-5995.668130,306.438199
59471.569808,-1480.411884,-6291.750507,1838.629195
59471.570118,2294.638420,-9474.636058,2987.772442
59471.570428,0.000000,-4811.338623,306.438199
59471.570737,-74.020594,-9474.636058,2374.896044
59471.571047,-444.123565,-11251.130318,2987.772442
59471.571357,-4663.297435,-9178.553681,-1608.800546
59471.571666,-4737.318029,-12065.356855,-689.485948
59471.571976,-2442.679609,-11843.295072,-153.219100
59471.572286,-1924.535449,-9400.615463,536.266849
59471.572595,-4737.318029,-10140.821405,612.876398
59471.572905,-666.185348,-6809.894666,-76.609550
59471.573215,0.000000,-5995.668130,2451.505594
59471.573524,1998.556043,-9474.636058,4826.401637
59471.573834,-3552.988522,-2738.761985,0.000000
59471.574144,1702.473667,-11695.253884,4213.525239
59471.574453,1110.308913,-8290.306550,1225.752797
59471.574763,-74.020594,-11843.295072,1762.019645
59471.575072,-2738.761985,-9474.636058,-2221.676944
59471.575382,-3256.906145,-11917.315666,612.876398
59471.575692,1998.556043,-7624.121203,-766.095498
59471.576001,0.000000,-11917.315666,1378.971896
59471.576311,740.205942,-8808.450710,1608.800546
59471.576621,296.082377,-9992.780217,1302.362347
59471.576930,2146.597232,-9178.553681,1838.629195
59471.577240,3997.112087,-9474.636058,3830.477490
59471.577550,1702.473667,-8290.306550,1149.143247
59471.577859,0.000000,-7179.997637,0.000000
59471.578169,-74.020594,-11843.295072,2374.896044
59471.578478,-3034.844362,-8142.265362,-2298.286494
59471.578788,-74.020594,-9770.718434,-76.609550
59471.579098,2368.659014,-8512.368333,1302.362347
59471.579407,2738.761985,-9252.574275,1991.848295
59471.579717,2368.659014,-8290.306550,2221.676944
59471.580027,2294.638420,-9400.615463,2068.457845
59471.580336,592.164754,-7179.997637,766.095498
59471.580646,2368.659014,-8956.491898,1378.971896
59471.580956,2294.638420,-10658.965565,1455.581446
59471.581265,-2072.576638,-9548.656652,0.000000
59471.581575,-3034.844362,-9474.636058,-2528.115143
59471.581885,-4737.318029,-10732.986159,0.000000
59471.582194,-2146.597232,-8882.471304,-1149.143247
59471.582504,444.123565,-8512.368333,459.657299
59471.582813,2220.617826,-7772.162391,2068.457845
59471.583123,2516.700203,-7179.997637,3064.381992
59471.583433,5255.462188,-10362.883188,4826.401637
59471.583742,2960.823768,-7772.162391,2451.505594
59471.584052,2960.823768,-7402.059420,1455.581446
59471.584362,0.000000,-9918.759623,919.314598
59471.584671,-3108.864956,-9844.739029,-1608.800546
59471.584981,-6513.812290,-9548.656652,-2451.505594
59471.585291,-5329.482782,-11769.274478,-842.705048
59471.585600,-4737.318029,-7179.997637,-3370.820191
59471.585910,-74.020594,-10214.842000,1762.019645
59471.586219,-740.205942,-7105.977043,536.266849
59471.586529,1184.329507,-8290.306550,3294.210641
59471.586839,1702.473667,-8290.306550,2681.334243
59471.587148,2516.700203,-6587.832884,2451.505594
59471.587458,4663.297435,-9474.636058,3600.648841
59471.587768,0.000000,-9548.656652,919.314598
59471.588077,-1850.514855,-9178.553681,-76.609550
59471.588387,-6883.915261,-13397.727550,-1149.143247
59471.588697,-3034.844362,-10807.006753,-612.876398
59471.589006,-2590.720797,-9548.656652,76.609550
59471.589316,-962.267725,-7698.141797,1149.143247
59471.589626,-1628.453072,-5995.668130,842.705048
59471.589935,1110.308913,-7105.977043,2911.162892
59471.590245,1332.370696,-7698.141797,2374.896044
59471.590554,1184.329507,-7698.141797,2834.553343
59471.590864,2072.576638,-7624.121203,1532.190996
59471.591174,2294.638420,-11843.295072,2374.896044
59471.591483,-1258.350101,-7476.080014,-2528.115143
59471.591793,-4737.318029,-13101.645173,0.000000
59471.592103,-4367.215058,-11251.130318,-2221.676944
59471.592412,-3552.988522,-9844.739029,-1225.752797
59471.592722,-2664.741391,-8364.327145,0.000000
59471.593032,-1110.308913,-9104.533087,2145.067394
59471.593341,-148.041188,-7476.080014,2068.457845
59471.593651,2590.720797,-7105.977043,3524.039291
59471.593960,4589.276840,-6439.791695,4826.401637
59471.594270,5847.626942,-7105.977043,4826.401637
59471.594580,2146.597232,-8290.306550,2374.896044
59471.594889,-3552.988522,-7179.997637,0.000000
59471.595199,-2442.679609,-13027.624579,-689.485948
59471.595509,-5921.647536,-11621.233289,-2451.505594
59471.595818,-2664.741391,-9474.636058,-3370.820191
59471.596128,-1480.411884,-9696.697840,-306.438199
59471.596438,74.020594,-9178.553681,536.266849
59471.596747,222.061783,-7772.162391,1455.581446
59471.597057,1554.432478,-8438.347739,2681.334243
59471.597367,4589.276840,-8882.471304,4826.401637
59471.597676,3478.967927,-9474.636058,3600.648841
59471.597986,0.000000,-6587.832884,0.000000
59471.598295,814.226536,-10362.883188,1762.019645
59471.598605,-2442.679609,-10658.965565,-1455.581446
59471.598915,-962.267725,-10510.924376,-1915.238745
59471.599224,-1776.494261,-8882.471304,-1225.752797
59471.599534,-1110.308913,-10955.047942,0.000000
59471.599844,-444.123565,-8956.491898,536.266849
59471.600153,-518.144159,-9400.615463,2374.896044
59471.600463,1776.494261,-10732.986159,3677.258390
59471.600773,4367.215058,-8882.471304,4826.401637
59471.601082,148.041188,-5403.503377,0.000000
59471.601392,1036.288319,-10140.821405,1378.971896
59471.601701,-3552.988522,-8808.450710,-2528.115143
59471.602011,-3775.050304,-11547.212695,-2834.553343
59471.602321,-3552.988522,-9770.718434,-2145.067394
59471.602630,-888.247130,-8956.491898,-766.095498
59471.602940,0.000000,-9992.780217,1072.533697
59471.603250,0.000000,-8068.244768,1225.752797
59471.603559,0.000000,-9548.656652,2451.505594
59471.603869,3552.988522,-9548.656652,4903.011187
59471.604179,6439.791695,-8290.306550,3600.648841
59471.604488,1480.411884,-7179.997637,2451.505594
59471.604798,1628.453072,-9770.718434,2528.115143
59471.605107,-1258.350101,-10066.800811,-76.609550
59471.605417,-5033.400406,-10881.027347,-2221.676944
59471.605727,-4293.194464,-10140.821405,-2068.457845
59471.606036,-3627.009116,-9252.574275,-1762.019645
59471.606346,-2442.679609,-9844.739029,0.000000
59471.606656,-1776.494261,-6587.832884,0.000000
59471.606965,0.000000,-7179.997637,2451.505594
59471.607275,5847.626942,-9474.636058,4826.401637
59471.607585,3849.070898,-5107.421000,2911.162892
59471.607894,4959.379811,-9400.615463,4443.353888
59471.608204,1924.535449,-10362.883188,3600.648841
59471.608514,-2442.679609,-10658.965565,-1302.362347
59471.608823,-4145.153275,-12213.398043,-1455.581446
59471.609133,-3330.926739,-10288.862594,-1762.019645
59471.609442,-2812.782580,-9252.574275,-2451.505594
59471.609752,-4145.153275,-7179.997637,0.000000
59471.610062,-3552.988522,-6587.832884,0.000000
59471.610371,2072.576638,-10362.883188,4290.134789
59471.610681,3478.967927,-6957.935855,3600.648841
59471.610991,2072.576638,-5255.462188,3830.477490
59471.611300,2368.659014,-9030.512492,5286.058936
59471.611610,1702.473667,-7550.100608,1915.238745
59471.611920,-1776.494261,-9844.739029,-306.438199
59471.612229,-4367.215058,-11843.295072,-1685.410096
59471.612539,-4219.173869,-9548.656652,-4290.134789
59471.612848,-4219.173869,-8956.491898,-3294.210641
59471.613158,-6143.709319,-8364.327145,-3447.429741
59471.613468,-2368.659014,-10436.903782,306.438199
59471.613777,-74.020594,-10362.883188,2068.457845
59471.614087,2960.823768,-6143.709319,3600.648841
59471.614397,4737.318029,-6883.915261,5515.887586
59471.614706,5847.626942,-6957.935855,5209.449386
59471.615016,2368.659014,-7550.100608,2374.896044
59471.615326,-1776.494261,-9696.697840,-689.485948
59471.615635,-4367.215058,-10732.986159,-2528.115143
59471.615945,-3034.844362,-10584.944971,-3140.991542
59471.616255,-4811.338623,-9178.553681,-3753.867940
59471.616564,-3552.988522,-11325.150913,0.000000
59471.616874,-1850.514855,-9474.636058,-689.485948
59471.617183,0.000000,-8364.327145,1991.848295
59471.617493,2960.823768,-6587.832884,2451.505594
59471.617803,4663.297435,-6439.791695,4290.134789
59471.618112,3849.070898,-7179.997637,3064.381992
59471.618422,1554.432478,-8290.306550,1302.362347
59471.618732,-1702.473667,-9474.636058,-383.047749
59471.619041,-2442.679609,-11843.295072,-76.609550
59471.619351,-4367.215058,-7179.997637,-4213.525239
59471.619661,-2960.823768,-12213.398043,0.000000
59471.619970,-2442.679609,-10955.047942,-842.705048
59471.620280,-3552.988522,-8956.491898,306.438199
59471.620589,0.000000,-7179.997637,1532.190996
59471.620899,4441.235652,-6587.832884,4443.353888
59471.621209,5551.544565,-6143.709319,5056.230287
59471.621518,4737.318029,-6365.771101,3983.696590
59471.621828,1924.535449,-8290.306550,2374.896044
59471.622138,-370.102971,-10658.965565,-76.609550
59471.622447,-3627.009116,-10362.883188,-3753.867940
59471.622757,-3552.988522,-10732.986159,-1225.752797
59471.623067,-3627.009116,-10955.047942,-2528.115143
59471.623376,-3849.070898,-10140.821405,0.000000
59471.623686,-3552.988522,-7476.080014,-1685.410096
59471.623996,148.041188,-9844.739029,2451.505594
59471.624305,5255.462188,-6513.812290,4673.182538
59471.624615,6439.791695,-6809.894666,6205.373534
59471.624924,5255.462188,-8290.306550,6052.154434
59471.625234,1702.473667,-9474.636058,4213.525239
59471.625544,-1258.350101,-9474.636058,-689.485948
59471.625853,-4737.318029,-9548.656652,-2451.505594
59471.626163,-1850.514855,-11103.089130,-76.609550
59471.626473,-4515.256246,-8660.409521,-3677.258390
59471.626782,-4071.132681,-8956.491898,-1991.848295
59471.627092,-2812.782580,-9252.574275,0.000000
59471.627402,444.123565,-9844.739029,2681.334243
59471.627711,3849.070898,-6587.832884,3830.477490
59471.628021,5847.626942,-8660.409521,5898.935335
59471.628330,3256.906145,-7624.121203,2451.505594
59471.628640,0.000000,-8956.491898,766.095498
59471.628950,-2442.679609,-12435.459826,-1302.362347
59471.629259,-4737.318029,-9548.656652,-4903.011187
59471.629569,-3404.947333,-10140.821405,-3370.820191
59471.629879,-3923.091493,-10658.965565,-1915.238745
59471.630188,-2886.803174,-9178.553681,-995.924147
59471.630498,-518.144159,-9030.512492,1915.238745
59471.630808,2368.659014,-7920.203579,2987.772442
59471.631117,4737.318029,-6587.832884,4903.011187
59471.631427,5329.482782,-7179.997637,5822.325785
59471.631736,4145.153275,-7179.997637,4903.011187
59471.632046,1110.308913,-8882.471304,-76.609550
59471.632356,-4737.318029,-9548.656652,-4903.011187
59471.632665,-3552.988522,-10732.986159,-3140.991542
59471.632975,-2442.679609,-11843.295072,-1915.238745
59471.633285,-5403.503377,-11399.171507,-2451.505594
59471.633594,-5255.462188,-10436.903782,-2298.286494
59471.633904,-3478.967927,-10288.862594,-306.438199
59471.634214,592.164754,-7179.997637,2451.505594
59471.634523,3552.988522,-4811.338623,5439.278036
59471.634833,4737.318029,-4811.338623,4903.011187
59471.635143,5847.626942,-7105.977043,4826.401637
59471.635452,-1332.370696,-6069.688724,0.000000
59471.635762,-2072.576638,-11251.130318,-76.609550
59471.636071,-1258.350101,-11843.295072,-1302.362347
59471.636381,-4071.132681,-10658.965565,-2911.162892
59471.636691,-4959.379811,-11621.233289,-2604.724693
59471.637000,-4663.297435,-10807.006753,-1532.190996
59471.637310,-3552.988522,-9548.656652,-1225.752797
59471.637620,592.164754,-6291.750507,1762.019645
59471.637929,2368.659014,-4811.338623,3064.381992
59471.638239,6217.729913,-7328.038826,6588.421283
59471.638549,4663.297435,-5625.565159,2987.772442
59471.638858,148.041188,-8290.306550,1149.143247
59471.639168,-1258.350101,-11843.295072,1608.800546
59471.639477,-1258.350101,-9474.636058,-1149.143247
59471.639787,-1924.535449,-10584.944971,-1532.190996
59471.640097,-3034.844362,-11177.109724,-1455.581446
59471.640406,-4515.256246,-9844.739029,-1915.238745
59471.640716,-2072.576638,-11695.253884,842.705048
59471.641026,666.185348,-7402.059420,1378.971896
59471.641335,3552.988522,-6291.750507,4290.134789
59471.641645,6439.791695,-9474.636058,6052.154434
59471.641955,3775.050304,-6809.894666,4519.963438
59471.642264,592.164754,-7772.162391,2145.067394
59471.642574,-814.226536,-10288.862594,383.047749
59471.642884,-814.226536,-8438.347739,-842.705048
59471.643193,-2368.659014,-9844.739029,-1532.190996
59471.643503,-3627.009116,-10362.883188,-1608.800546
59471.643812,-4811.338623,-11251.130318,-1915.238745
59471.644122,-4737.318029,-9548.656652,0.000000
59471.644432,2368.659014,-8808.450710,2987.772442
59471.644741,5255.462188,-11843.295072,4826.401637
59471.645051,4663.297435,-8586.388927,5286.058936
59471.645361,1480.411884,-6883.915261,2451.505594
59471.645670,222.061783,-9030.512492,766.095498
59471.645980,-1258.350101,-9696.697840,-459.657299
59471.646290,-1776.494261,-8808.450710,-766.095498
59471.646599,-1850.514855,-10658.965565,-1302.362347
59471.646909,-2442.679609,-9844.739029,-1225.752797
59471.647218,-3034.844362,-9474.636058,-689.485948
59471.647528,-2960.823768,-8956.491898,0.000000
59471.647838,2664.741391,-8956.491898,4903.011187
59471.648147,3997.112087,-8216.285956,5209.449386
59471.648457,1776.494261,-7179.997637,3064.381992
59471.648767,1184.329507,-7476.080014,2145.067394
59471.649076,-888.247130,-9844.739029,536.266849
59471.649386,-2368.659014,-10362.883188,-842.705048
59471.649696,-2442.679609,-10658.965565,-2528.115143
59471.650005,-3627.009116,-13323.706956,-229.828649
59471.650315,-5995.668130,-9474.636058,-3753.867940
59471.650625,-4737.318029,-10436.903782,0.000000
59471.650934,2294.638420,-11843.295072,4213.525239
59471.651244,2960.823768,-5403.503377,3677.258390
59471.651553,3256.906145,-4811.338623,3983.696590
59471.651863,3923.091493,-7476.080014,4903.011187
59471.652173,2960.823768,-6365.771101,2451.505594
59471.652482,-666.185348,-10436.903782,842.705048
59471.652792,-370.102971,-12065.356855,-76.609550
59471.653102,-3552.988522,-8956.491898,-3677.258390
59471.653411,-3627.009116,-12435.459826,-2528.115143
59471.653721,-6513.812290,-9844.739029,-3370.820191
59471.654031,-3627.009116,-13619.789333,-76.609550
59471.654340,-2368.659014,-7920.203579,0.000000
59471.654650,1702.473667,-6513.812290,1762.019645
59471.654959,3849.070898,-5995.668130,4903.011187
59471.655269,4145.153275,-6365.771101,4749.792088
59471.655579,3034.844362,-6513.812290,3294.210641
59471.655888,2072.576638,-9252.574275,1838.629195
59471.656198,0.000000,-10732.986159,1225.752797
59471.656508,-74.020594,-10658.965565,-689.485948
59471.656817,-4737.318029,-10732.986159,-3064.381992
59471.657127,-2590.720797,-13989.892304,-76.609550
59471.657437,-4737.318029,-10732.986159,-3294.210641
59471.657746,-74.020594,-11029.068536,995.924147
59471.658056,3404.947333,-7624.121203,2681.334243
59471.658365,5255.462188,-6957.935855,4749.792088
59471.658675,5181.441594,-6587.832884,4366.744339
59471.658985,2368.659014,-5995.668130,2451.505594
59471.659294,0.000000,-7179.997637,0.000000
59471.659604,1184.329507,-9474.636058,1532.190996
59471.659914,-2368.659014,-8364.327145,-1915.238745
59471.660223,-2442.679609,-13323.706956,-76.609550
59471.660533,-4811.338623,-9474.636058,-3294.210641
59471.660843,-2442.679609,-11843.295072,-689.485948
59471.661152,-1184.329507,-10066.800811,383.047749
59471.661462,1554.432478,-8068.244768,2145.067394
59471.661772,2886.803174,-7550.100608,3600.648841
59471.662081,1184.329507,-5995.668130,2451.505594
59471.662391,0.000000,-4811.338623,306.438199
59471.662700,0.000000,-8364.327145,1225.752797
59471.663010,1406.391290,-9326.594869,-76.609550
59471.663320,-4737.318029,-7179.997637,-3677.258390
59471.663629,-3775.050304,-11399.171507,-2528.115143
59471.663939,-4219.173869,-12731.542202,-1302.362347
59471.664249,-4071.132681,-12065.356855,-689.485948
59471.664558,-962.267725,-10362.883188,1072.533697
59471.664868,1850.514855,-8068.244768,2987.772442
59471.665178,1776.494261,-7179.997637,3370.820191
59471.665487,1702.473667,-4515.256246,2374.896044
59471.665797,592.164754,-6587.832884,3064.381992
59471.666106,1406.391290,-9474.636058,1762.019645
59471.666416,-2368.659014,-6587.832884,0.000000
59471.666726,-1258.350101,-11251.130318,-76.609550
59471.667035,-4145.153275,-11843.295072,-2068.457845
59471.667345,-5477.523971,-10732.986159,-2757.943793
59471.667655,-4737.318029,-11991.336260,-1302.362347
59471.667964,-1184.329507,-9992.780217,842.705048
59471.668274,222.061783,-7698.141797,2374.896044
59471.668584,1998.556043,-7402.059420,2834.553343
59471.668893,592.164754,-5107.421000,2604.724693
59471.669203,1776.494261,-7179.997637,3064.381992
59471.669513,3478.967927,-9474.636058,2374.896044
59471.669822,1110.308913,-8882.471304,2068.457845
59471.670132,-1480.411884,-8660.409521,0.000000
59471.670442,-3627.009116,-9992.780217,-1378.971896
59471.670752,-4885.359217,-10140.821405,-2145.067394
59471.671061,-3701.029710,-11843.295072,-153.219100
59471.671371,-74.020594,-9474.636058,842.705048
59471.671681,3478.967927,-9474.636058,2374.896044
59471.671991,1258.350101,-6587.832884,1838.629195
59471.672300,3552.988522,-7624.121203,3677.258390
59471.672610,4663.297435,-11251.130318,3600.648841
59471.672920,2442.679609,-11399.171507,2681.334243
59471.673230,2294.638420,-9474.636058,1838.629195
59471.673540,-3256.906145,-9548.656652,-1532.190996
59471.673849,-3330.926739,-10658.965565,-1455.581446
59471.674159,-4589.276840,-9918.759623,-1532.190996
59471.674469,-3256.906145,-9548.656652,-1302.362347
59471.674779,0.000000,-7698.141797,1149.143247
59471.675088,1184.329507,-5995.668130,2451.505594
59471.675398,4663.297435,-8882.471304,4826.401637
59471.675708,1554.432478,-6587.832884,0.000000
59471.676018,2294.638420,-9474.636058,3600.648841
59471.676328,1184.329507,-10288.862594,2451.505594
59471.676637,1110.308913,-8512.368333,153.219100
59471.676947,-1776.494261,-9548.656652,-612.876398
59471.677257,-3034.844362,-10288.862594,-1532.190996
59471.677567,-3627.009116,-10066.800811,-1915.238745
59471.677876,-3034.844362,-11843.295072,-76.609550
59471.678186,-2220.617826,-6587.832884,0.000000
59471.678496,2516.700203,-9104.533087,3217.601092
59471.678806,4071.132681,-8290.306550,3600.648841
59471.679116,3108.864956,-7476.080014,4213.525239
59471.679425,0.000000,-7476.080014,1225.752797
59471.679735,814.226536,-9474.636058,842.705048
59471.680045,-296.082377,-8216.285956,-766.095498
59471.680355,-2812.782580,-10510.924376,-1302.362347
59471.680664,-2738.761985,-11843.295072,-1302.362347
59471.680974,-2442.679609,-13619.789333,-76.609550
59471.681284,-4737.318029,-9548.656652,0.000000
59471.681594,1480.411884,-9104.533087,2451.505594
59471.681904,2294.638420,-9474.636058,3600.648841
59471.682213,1480.411884,-6587.832884,3983.696590
59471.682523,0.000000,-6291.750507,1225.752797
59471.682833,0.000000,-9252.574275,1532.190996
59471.683143,370.102971,-9030.512492,842.705048
59471.683452,-222.061783,-8142.265362,76.609550
59471.683762,-1258.350101,-11547.212695,-76.609550
59471.684072,-2442.679609,-11399.171507,-76.609550
59471.684382,-4811.338623,-11251.130318,-2528.115143
59471.684691,-3552.988522,-11325.150913,0.000000
59471.685001,-74.020594,-11843.295072,2374.896044
59471.685311,0.000000,-7179.997637,2451.505594
59471.685621,592.164754,-5995.668130,2451.505594
59471.685931,1776.494261,-6809.894666,3064.381992
59471.686240,1924.535449,-7994.224174,2757.943793
59471.686550,1776.494261,-7328.038826,2068.457845
59471.686860,1554.432478,-8290.306550,1762.019645
59471.687170,-444.123565,-10881.027347,766.095498
59471.687479,-2442.679609,-11547.212695,-1302.362347
59471.687789,-6513.812290,-11325.150913,-2451.505594
59471.688099,-1258.350101,-14211.954086,-76.609550
59471.688409,0.000000,-7179.997637,0.000000
59471.688719,2294.638420,-8216.285956,2681.334243
59471.689028,2960.823768,-7179.997637,3983.696590
59471.689338,2146.597232,-6587.832884,3447.429741
59471.689648,2294.638420,-7994.224174,2451.505594
59471.689958,3552.988522,-7476.080014,3064.381992
59471.690267,2368.659014,-8364.327145,2757.943793
59471.690577,-666.185348,-11547.212695,-1302.362347
59471.690887,-5625.565159,-8364.327145,-2451.505594
59471.691197,-5107.421000,-14211.954086,-1302.362347
59471.691507,-2368.659014,-9548.656652,-2451.505594
59471.691816,2294.638420,-9178.553681,1149.143247
59471.692126,2072.576638,-8586.388927,3064.381992
59471.692436,1776.494261,-7550.100608,2757.943793
59471.692746,2146.597232,-7920.203579,2681.334243
59471.693055,2368.659014,-5995.668130,1225.752797
59471.693365,0.000000,-5995.668130,1225.752797
59471.693675,2886.803174,-8290.306550,-76.609550
59471.693985,-3330.926739,-9548.656652,-1762.019645
59471.694294,-1554.432478,-13027.624579,-76.609550
59471.694604,-4811.338623,-10955.047942,-3753.867940
59471.694914,-1258.350101,-11843.295072,-383.047749
59471.695224,518.144159,-9326.594869,0.000000
59471.695534,1110.308913,-9844.739029,2068.457845
59471.695843,666.185348,-8734.430116,2068.457845
59471.696153,0.000000,-8364.327145,612.876398
59471.696463,0.000000,-6587.832884,612.876398
59471.696773,3552.988522,-8290.306550,3677.258390
59471.697082,1110.308913,-5181.441594,536.266849
59471.697392,-74.020594,-10436.903782,3217.601092
59471.697702,-666.185348,-8290.306550,-1302.362347
59471.698012,-2442.679609,-11695.253884,-229.828649
59471.698322,-2442.679609,-10658.965565,-1302.362347
59471.698631,-1480.411884,-9474.636058,-153.219100
59471.698941,-888.247130,-10362.883188,842.705048
59471.699251,-1924.535449,-9548.656652,76.609550
59471.699561,-1850.514855,-8364.327145,0.000000
59471.699870,0.000000,-8364.327145,1225.752797
59471.700180,3182.885551,-8290.306550,3294.210641
59471.700490,0.000000,-4811.338623,0.000000
59471.700800,-74.020594,-9474.636058,2374.896044
59471.701110,-1480.411884,-9844.739029,1072.533697
59471.701419,-2442.679609,-9770.718434,306.438199
59471.701729,-888.247130,-8438.347739,612.876398
59471.702039,0.000000,-8808.450710,1302.362347
59471.702349,-74.020594,-8734.430116,2374.896044
59471.702658,-1184.329507,-8586.388927,1072.533697
59471.702968,-4145.153275,-9548.656652,0.000000
59471.703278,-74.020594,-11103.089130,2987.772442
59471.703588,2294.638420,-7105.977043,-76.609550
59471.703898,1998.556043,-10362.883188,2987.772442
59471.704207,-1776.494261,-8660.409521,612.876398
59471.704517,-2738.761985,-9252.574275,-612.876398
59471.704827,-2072.576638,-11547.212695,383.047749
59471.705137,0.000000,-8734.430116,1378.971896
59471.705446,1110.308913,-8882.471304,1762.019645
59471.705756,2294.638420,-9474.636058,2987.772442
59471.706066,-1628.453072,-5995.668130,0.000000
59471.706376,814.226536,-10510.924376,2834.553343
59471.706685,0.000000,-6587.832884,0.000000
59471.706995,3923.091493,-8364.327145,3830.477490
59471.707305,592.164754,-7772.162391,1225.752797
59471.707615,-296.082377,-9918.759623,-153.219100
59471.707925,-2812.782580,-10807.006753,-1225.752797
59471.708234,-2664.741391,-12509.480420,-842.705048
59471.708544,-74.020594,-11251.130318,306.438199
59471.708854,888.247130,-8956.491898,612.876398
59471.709164,1702.473667,-9178.553681,1762.019645
59471.709473,0.000000,-5995.668130,1532.190996
59471.709783,-666.185348,-8290.306550,-76.609550
59471.710093,592.164754,-7772.162391,2451.505594
59471.710403,2368.659014,-4811.338623,1225.752797
59471.710713,2072.576638,-9548.656652,2374.896044
59471.711022,-962.267725,-8438.347739,-229.828649
59471.711332,-3552.988522,-11251.130318,-1072.533697
59471.711642,-74.020594,-12583.501014,-229.828649
59471.711952,-74.020594,-11325.150913,1991.848295
59471.712261,1110.308913,-9474.636058,-76.609550
59471.712571,-1184.329507,-8660.409521,0.000000
59471.712881,2294.638420,-9474.636058,2374.896044
59471.713191,0.000000,-8364.327145,2451.505594
59471.713501,666.185348,-6291.750507,1455.581446
59471.713810,2368.659014,-6217.729913,1532.190996
59471.714120,1332.370696,-8734.430116,2145.067394
59471.714430,-518.144159,-7772.162391,0.000000
59471.714740,-2516.700203,-10732.986159,-612.876398
59471.715049,-2960.823768,-11325.150913,0.000000
59471.715359,-74.020594,-11843.295072,-383.047749
59471.715669,-2664.741391,-9548.656652,0.000000
59471.715979,-74.020594,-12805.562797,2834.553343
59471.716288,-3849.070898,-7179.997637,0.000000
59471.716598,-74.020594,-8660.409521,1762.019645
59471.716908,2072.576638,-6217.729913,3064.381992
59471.717218,2516.700203,-5107.421000,2834.553343
59471.717528,0.000000,-7772.162391,2451.505594
59471.717837,-2368.659014,-7179.997637,612.876398
59471.718147,-4737.318029,-9548.656652,0.000000
59471.718457,-1258.350101,-10807.006753,-689.485948
59471.718767,-3552.988522,-7772.162391,0.000000
59471.719076,-74.020594,-13027.624579,2987.772442
59471.719386,-3108.864956,-7179.997637,-2451.505594
59471.719696,-1850.514855,-10288.862594,-76.609550
59471.720006,-1332.370696,-9918.759623,919.314598
59471.720316,1184.329507,-7254.018232,2374.896044
59471.720625,1554.432478,-7179.997637,2145.067394
59471.720935,0.000000,-7476.080014,1608.800546
59471.721245,-2368.659014,-5551.544565,0.000000
59471.721555,-814.226536,-10510.924376,1838.629195
59471.721864,-74.020594,-6735.874072,-1608.800546
59471.722174,1480.411884,-9992.780217,2451.505594
59471.722484,-74.020594,-9770.718434,-383.047749
59471.722794,-74.020594,-10955.047942,1149.143247
59471.723104,-3034.844362,-10807.006753,-153.219100
59471.723413,-1480.411884,-10807.006753,306.438199
59471.723723,1702.473667,-7624.121203,1378.971896
59471.724033,1480.411884,-6661.853478,2221.676944
59471.724343,0.000000,-6143.709319,766.095498
59471.724652,0.000000,-7476.080014,1225.752797
59471.724962,-74.020594,-11843.295072,-76.609550
59471.725272,0.000000,-8364.327145,306.438199
59471.725582,1702.473667,-8882.471304,-76.609550
59471.725892,740.205942,-10807.006753,1149.143247
59471.726201,-1554.432478,-9770.718434,-1149.143247
59471.726511,-2368.659014,-10214.842000,-1225.752797
59471.726821,-2146.597232,-12361.439231,-229.828649
59471.727131,2294.638420,-7550.100608,1762.019645
59471.727440,3478.967927,-6439.791695,1991.848295
59471.727750,1776.494261,-7476.080014,2757.943793
59471.728060,2294.638420,-9474.636058,4213.525239
59471.728370,-1258.350101,-9030.512492,153.219100
59471.728679,3478.967927,-8882.471304,-76.609550
59471.728989,0.000000,-9844.739029,1302.362347
59471.729299,-1110.308913,-9178.553681,0.000000
59471.729609,-2368.659014,-9252.574275,-536.266849
59471.729919,-1998.556043,-9326.594869,-459.657299
59471.730228,-74.020594,-10807.006753,842.705048
59471.730538,0.000000,-6439.791695,766.095498
59471.730848,-1628.453072,-8808.450710,0.000000
59471.731158,888.247130,-10436.903782,3983.696590
59471.731467,-74.020594,-9474.636058,-76.609550
59471.731777,1702.473667,-13027.624579,2374.896044
59471.732087,0.000000,-8364.327145,612.876398
59471.732397,-370.102971,-10214.842000,995.924147
59471.732707,-592.164754,-9918.759623,536.266849
59471.733016,-1850.514855,-9104.533087,459.657299
59471.733326,-1258.350101,-9770.718434,2451.505594
59471.733636,1702.473667,-9474.636058,2987.772442
59471.733946,74.020594,-5403.503377,766.095498
59471.734255,592.164754,-9844.739029,4903.011187
59471.734565,-74.020594,-7698.141797,-76.609550
59471.734875,-592.164754,-10658.965565,1685.410096
59471.735185,-1776.494261,-9548.656652,612.876398
59471.735495,-370.102971,-9474.636058,842.705048
59471.735804,-1702.473667,-10066.800811,0.000000
59471.736114,-3108.864956,-10140.821405,76.609550
59471.736424,-3627.009116,-9474.636058,-1225.752797
59471.736734,-4145.153275,-10436.903782,-536.266849
59471.737043,-962.267725,-8290.306550,995.924147
59471.737353,0.000000,-4811.338623,1225.752797
59471.737663,2886.803174,-9474.636058,4213.525239
59471.737973,1184.329507,-8364.327145,3370.820191
59471.738282,0.000000,-7179.997637,612.876398
59471.738592,1184.329507,-9548.656652,2145.067394
59471.738902,1628.453072,-7624.121203,1685.410096
59471.739212,592.164754,-9844.739029,1149.143247
59471.739522,-962.267725,-10140.821405,0.000000
59471.739831,-3256.906145,-11325.150913,-76.609550
59471.740141,-1850.514855,-12435.459826,-383.047749
59471.740451,-3552.988522,-7179.997637,0.000000
59471.740761,1924.535449,-8068.244768,1838.629195
59471.741070,0.000000,-8364.327145,2451.505594
59471.741380,148.041188,-5995.668130,1072.533697
59471.741690,888.247130,-7476.080014,1149.143247
59471.742000,1406.391290,-8956.491898,1838.629195
59471.742310,962.267725,-8216.285956,919.314598
59471.742619,0.000000,-9548.656652,0.000000
59471.742929,0.000000,-11325.150913,1072.533697
59471.743239,-962.267725,-10362.883188,-1302.362347
59471.743549,-2368.659014,-10140.821405,1225.752797
59471.743858,2886.803174,-11251.130318,2374.896044
59471.744168,0.000000,-5995.668130,0.000000
59471.744478,1258.350101,-8808.450710,1762.019645
59471.744788,1036.288319,-7179.997637,1225.752797
59471.745098,814.226536,-8364.327145,1838.629195
59471.745407,1184.329507,-8142.265362,1685.410096
59471.745717,888.247130,-6587.832884,689.485948
59471.746027,0.000000,-8660.409521,306.438199
59471.746337,-74.020594,-10658.965565,-76.609550
59471.746646,-4737.318029,-9548.656652,-2451.505594
59471.746956,-1258.350101,-13027.624579,-76.609550
59471.747266,-3256.906145,-6587.832884,-1838.629195
59471.747576,518.144159,-8290.306550,1149.143247
59471.747886,222.061783,-8660.409521,1532.190996
59471.748195,518.144159,-7550.100608,995.924147
59471.748505,1184.329507,-9178.553681,2221.676944
59471.748815,1998.556043,-8290.306550,2374.896044
59471.749125,0.000000,-7179.997637,1225.752797
59471.749434,888.247130,-11103.089130,4519.963438
59471.749744,-3627.009116,-7179.997637,-2374.896044
59471.750054,-2294.638420,-12065.356855,536.266849
59471.750364,-3627.009116,-9918.759623,-1762.019645
59471.750673,-74.020594,-8586.388927,-76.609550
59471.750983,-666.185348,-8734.430116,995.924147
59471.751293,-814.226536,-8216.285956,1762.019645
59471.751603,-444.123565,-7550.100608,1608.800546
59471.751913,74.020594,-9474.636058,3294.210641
59471.752222,666.185348,-8142.265362,2068.457845
59471.752532,-1480.411884,-7179.997637,0.000000
59471.752842,-74.020594,-11843.295072,-76.609550
59471.753152,-4737.318029,-8364.327145,0.000000
59471.753461,-4811.338623,-10955.047942,-2528.115143
59471.753771,-2664.741391,-11843.295072,-76.609550
59471.754081,148.041188,-7402.059420,459.657299
59471.754391,222.061783,-8438.347739,1991.848295
59471.754701,444.123565,-7179.997637,1838.629195
59471.755010,1110.308913,-8882.471304,3600.648841
59471.755320,2812.782580,-7105.977043,2221.676944
59471.755630,1776.494261,-7772.162391,2451.505594
59471.755940,4663.297435,-11251.130318,3600.648841
59471.756249,-2368.659014,-8956.491898,0.000000
59471.756559,-1258.350101,-9474.636058,-383.047749
59471.756869,-4145.153275,-11769.274478,-1225.752797
59471.757179,-3330.926739,-11695.253884,-689.485948
59471.757489,-370.102971,-7550.100608,-306.438199
59471.757798,1036.288319,-8364.327145,1532.190996
59471.758108,2294.638420,-9326.594869,2681.334243
59471.758418,1110.308913,-8290.306550,1455.581446
59471.758728,1776.494261,-7476.080014,0.000000
59471.759037,5847.626942,-9474.636058,2987.772442
59471.759347,0.000000,-7179.997637,306.438199
59471.759657,1998.556043,-11843.295072,-76.609550
59471.759967,-2368.659014,-10140.821405,-1532.190996
59471.760276,-2516.700203,-11843.295072,-1225.752797
59471.760586,-2146.597232,-11473.192101,-919.314598
59471.760896,-666.185348,-8068.244768,-459.657299
59471.761206,1332.370696,-9548.656652,1225.752797
59471.761516,1702.473667,-8882.471304,1762.019645
59471.761825,1036.288319,-6513.812290,1149.143247
59471.762135,2368.659014,-7772.162391,4903.011187
59471.762445,4663.297435,-7105.977043,2987.772442
59471.762755,3478.967927,-9474.636058,2987.772442
59471.763064,-1332.370696,-9252.574275,0.000000
59471.763374,-2516.700203,-10436.903782,-1072.533697
59471.763684,-3997.112087,-12287.418637,-1378.971896
59471.763994,-3034.844362,-11103.089130,-1455.581446
59471.764304,-1184.329507,-8364.327145,0.000000
59471.764613,-74.020594,-10510.924376,2068.457845
59471.764923,-370.102971,-6513.812290,-76.609550
59471.765233,0.000000,-6587.832884,1225.752797
59471.765543,4663.297435,-9178.553681,4826.401637
59471.765852,4293.194464,-7698.141797,5669.106685
59471.766162,2072.576638,-7105.977043,2528.115143
59471.766472,-370.102971,-8956.491898,1302.362347
59471.766782,-3034.844362,-9770.718434,-1149.143247
59471.767092,-4515.256246,-12361.439231,-1532.190996
59471.767401,-4737.318029,-9548.656652,-2451.505594
59471.767711,-2220.617826,-10066.800811,-306.438199
59471.768021,-2738.761985,-10362.883188,-1302.362347
59471.768331,-4737.318029,-7179.997637,0.000000
59471.768640,1406.391290,-10658.965565,3447.429741
59471.768950,1776.494261,-8660.409521,4903.011187
59471.769260,2886.803174,-6217.729913,2987.772442
59471.769570,1184.329507,-7994.224174,2451.505594
59471.769879,-1184.329507,-8956.491898,229.828649
59471.770189,-3849.070898,-10214.842000,-995.924147
59471.770499,-5625.565159,-10140.821405,-3064.381992
59471.770809,-2960.823768,-9548.656652,0.000000
59471.771119,-74.020594,-10658.965565,-76.609550
59471.771428,-3997.112087,-7179.997637,0.000000
59471.771738,592.164754,-8734.430116,2757.943793
59471.772058,0.000000,-8364.327145,2757.943793
59471.772367,2442.679609,-7846.182985,3294.210641
59471.772677,1850.514855,-7179.997637,2911.162892
59471.772987,1332.370696,-8956.491898,1991.848295
59471.773296,-296.082377,-9178.553681,536.266849
59471.773606,-3775.050304,-8512.368333,-2834.553343
59471.773916,-5329.482782,-10140.821405,-2145.067394
59471.774225,-4145.153275,-8364.327145,-1838.629195
59471.774535,-74.020594,-11251.130318,-76.609550
59471.774845,-3034.844362,-8956.491898,-689.485948
59471.775154,-2368.659014,-7179.997637,153.219100
59471.775464,1998.556043,-7994.224174,1762.019645
59471.775774,2960.823768,-5995.668130,2451.505594
59471.776083,4959.379811,-6439.791695,3600.648841
59471.776393,2886.803174,-9400.615463,2681.334243
59471.776703,0.000000,-7772.162391,-1838.629195
59471.777013,-1776.494261,-11917.315666,0.000000
59471.777322,-1258.350101,-13027.624579,-1302.362347
59471.777632,-3552.988522,-9548.656652,0.000000
59471.777942,-1258.350101,-9474.636058,-229.828649
59471.778251,-3552.988522,-11325.150913,153.219100
59471.778561,1554.432478,-7550.100608,1149.143247
59471.778871,1998.556043,-9548.656652,2911.162892
59471.779180,4589.276840,-6735.874072,3753.867940
59471.779490,3849.070898,-6365.771101,2757.943793
59471.779800,1702.473667,-7476.080014,1762.019645
59471.780109,0.000000,-7179.997637,0.000000
59471.780419,-2442.679609,-13619.789333,-76.609550
59471.780729,-6513.812290,-9548.656652,-4903.011187
59471.781038,-1110.308913,-11547.212695,-76.609550
59471.781348,-2072.576638,-7772.162391,-1685.410096
59471.781658,-1258.350101,-10658.965565,1455.581446
59471.781967,-1776.494261,-7105.977043,229.828649
59471.782277,518.144159,-9992.780217,3370.820191
59471.782587,4145.153275,-6513.812290,4213.525239
59471.782896,5551.544565,-6513.812290,4519.963438
59471.783206,740.205942,-6587.832884,2451.505594
59471.783516,2294.638420,-10955.047942,3294.210641
59471.783825,-4219.173869,-9548.656652,-2221.676944
59471.784135,-3849.070898,-11695.253884,-612.876398
59471.784445,-3775.050304,-8216.285956,-2757.943793
59471.784754,-3330.926739,-11177.109724,-689.485948
59471.785064,-3404.947333,-10436.903782,-459.657299
59471.785374,-1702.473667,-9622.677246,612.876398
59471.785684,1036.288319,-9252.574275,3370.820191
59471.785993,5255.462188,-7105.977043,4826.401637
59471.786303,4071.132681,-6143.709319,3830.477490
59471.786613,1184.329507,-7179.997637,3677.258390
59471.786922,-74.020594,-9474.636058,-76.609550
59471.787232,-5329.482782,-10140.821405,-2145.067394
59471.787542,-3997.112087,-10288.862594,-3677.258390
59471.787851,-4071.132681,-9770.718434,-2145.067394
59471.788161,-4293.194464,-10436.903782,-1072.533697
59471.788471,-4071.132681,-9400.615463,-689.485948
59471.788780,-1332.370696,-8512.368333,1455.581446
59471.789090,4071.132681,-9474.636058,5439.278036
59471.789400,4663.297435,-4441.235652,3600.648841
59471.789709,592.164754,-3627.009116,1225.752797
59471.790019,3478.967927,-10362.883188,3294.210641
59471.790329,-1258.350101,-8734.430116,-1608.800546
59471.790638,-3627.009116,-12731.542202,-3447.429741
59471.790948,-4441.235652,-10881.027347,-3064.381992
59471.791258,-4737.318029,-9844.739029,-2451.505594
59471.791567,-2294.638420,-11695.253884,-76.609550
59471.791877,-592.164754,-8882.471304,2374.896044
59471.792187,2294.638420,-10362.883188,4826.401637
59471.792496,4071.132681,-8290.306550,4213.525239
59471.792806,2368.659014,-3034.844362,1838.629195
59471.793116,6513.812290,-8068.244768,5669.106685
59471.793425,3478.967927,-9474.636058,2068.457845
59471.793735,-666.185348,-8882.471304,-76.609550
59471.794045,-4145.153275,-11473.192101,-1685.410096
59471.794355,-1258.350101,-11251.130318,-1378.971896
59471.794664,-2146.597232,-9104.533087,-1762.019645
59471.794974,-3182.885551,-10955.047942,-153.219100
59471.795284,-3552.988522,-9844.739029,1225.752797
59471.795593,-74.020594,-11251.130318,2374.896044
59471.795903,2294.638420,-7698.141797,1762.019645
59471.796213,4737.318029,-6587.832884,4903.011187
59471.796522,5847.626942,-8290.306550,4826.401637
59471.796832,4071.132681,-7698.141797,1762.019645
59471.797142,-888.247130,-8512.368333,0.000000
59471.797451,-2294.638420,-11621.233289,-229.828649
59471.797761,-2738.761985,-9622.677246,-1532.190996
59471.798071,-3034.844362,-9622.677246,-1149.143247
59471.798380,-3552.988522,-11325.150913,0.000000
59471.798690,-666.185348,-11547.212695,-76.609550
59471.799000,-2886.803174,-6587.832884,0.000000
59471.799309,2368.659014,-8512.368333,4903.011187
59471.799619,5847.626942,-5921.647536,3907.087040
59471.799929,2368.659014,-5403.503377,4136.915689
59471.800238,3182.885551,-7624.121203,2987.772442
59471.800548,-1406.391290,-9178.553681,76.609550
59471.800858,-3997.112087,-11621.233289,-766.095498
59471.801167,-3701.029710,-9770.718434,-2604.724693
59471.801477,-6513.812290,-9548.656652,-3677.258390
59471.801787,-3552.988522,-11991.336260,-306.438199
59471.802096,-3034.844362,-8882.471304,-2528.115143
59471.802406,-2368.659014,-9548.656652,1225.752797
59471.802716,4663.297435,-9474.636058,4826.401637
59471.803026,4145.153275,-6587.832884,5515.887586
59471.803335,3701.029710,-7402.059420,4366.744339
59471.803645,1258.350101,-7105.977043,2068.457845
59471.803955,-1480.411884,-9548.656652,-612.876398
59471.804264,-2220.617826,-10881.027347,-1225.752797
59471.804574,-3849.070898,-8364.327145,-3064.381992
59471.804884,-3552.988522,-10140.821405,-1225.752797
59471.805193,-3108.864956,-13619.789333,-76.609550
59471.805503,-4737.318029,-7772.162391,-2451.505594
59471.805813,0.000000,-11325.150913,2911.162892
59471.806122,2072.576638,-6587.832884,3983.696590
59471.806432,5847.626942,-6809.894666,4826.401637
59471.806742,4663.297435,-7328.038826,3753.867940
59471.807051,1406.391290,-7772.162391,1225.752797
59471.807361,-2368.659014,-10362.883188,612.876398
59471.807671,-3775.050304,-10510.924376,-1991.848295
59471.807980,-2960.823768,-8660.409521,-2451.505594
59471.808290,-1258.350101,-13027.624579,-76.609550
59471.808600,-5625.565159,-8512.368333,-2757.943793
59471.808909,-1776.494261,-10140.821405,383.047749
59471.809219,296.082377,-10140.821405,3370.820191
59471.809529,4145.153275,-7031.956449,3677.258390
59471.809838,6291.750507,-5921.647536,4979.620737
59471.810148,4885.359217,-7105.977043,4366.744339
59471.810458,2812.782580,-7476.080014,1915.238745
59471.810767,0.000000,-8364.327145,0.000000
59471.811077,-2072.576638,-11029.068536,0.000000
59471.811387,-74.020594,-11843.295072,-76.609550
59471.811697,-6217.729913,-9548.656652,-4903.011187
59471.812006,-4737.318029,-10732.986159,-2451.505594
59471.812316,-4737.318029,-9548.656652,-1225.752797
59471.812626,-814.226536,-11029.068536,1149.143247
59471.812935,2368.659014,-7994.224174,2528.115143
59471.813245,4219.173869,-6217.729913,3753.867940
59471.813555,3552.988522,-7624.121203,4136.915689
59471.813864,3330.926739,-5477.523971,2068.457845
59471.814174,0.000000,-7179.997637,1225.752797
59471.814484,-74.020594,-13027.624579,3600.648841
59471.814793,-3701.029710,-6513.812290,-3447.429741
59471.815103,-4589.276840,-12805.562797,-306.438199
59471.815413,-3997.112087,-8956.491898,-1532.190996
59471.815722,-2220.617826,-11251.130318,536.266849
59471.816032,-296.082377,-9326.594869,1302.362347
59471.816342,2220.617826,-7772.162391,2757.943793
59471.816651,3701.029710,-7105.977043,3600.648841
59471.816961,3478.967927,-8290.306550,2987.772442
59471.817271,0.000000,-5995.668130,153.219100
59471.817580,-1184.329507,-10732.986159,2451.505594
59471.817890,-74.020594,-9474.636058,-76.609550
59471.818200,-4737.318029,-8364.327145,-2451.505594
59471.818509,-5403.503377,-10955.047942,-1532.190996
59471.818819,-4219.173869,-9992.780217,-1302.362347
59471.819129,-3108.864956,-10584.944971,306.438199
59471.819438,592.164754,-9178.553681,2451.505594
59471.819748,2812.782580,-7105.977043,3600.648841
59471.820058,5551.544565,-7994.224174,4826.401637
59471.820367,3478.967927,-6809.894666,2834.553343
59471.820677,0.000000,-5995.668130,0.000000
59471.820987,-74.020594,-11843.295072,1762.019645
59471.821297,-2368.659014,-8586.388927,-1838.629195
59471.821606,-3034.844362,-8586.388927,-3370.820191
59471.821916,-3552.988522,-11843.295072,-842.705048
59471.822226,-3552.988522,-9696.697840,-1378.971896
59471.822535,-2368.659014,-9696.697840,76.609550
59471.822845,444.123565,-8808.450710,2528.115143
59471.823155,4663.297435,-8882.471304,4826.401637
59471.823464,3182.885551,-6957.935855,2987.772442
59471.823774,74.020594,-4885.359217,0.000000
59471.824084,2294.638420,-9474.636058,2757.943793
59471.824393,-74.020594,-11695.253884,-76.609550
59471.824703,-74.020594,-9030.512492,-2145.067394
59471.825013,-2072.576638,-9400.615463,-1762.019645
59471.825322,-3256.906145,-11029.068536,-919.314598
59471.825632,-2738.761985,-9918.759623,-766.095498
59471.825942,-518.144159,-10510.924376,2068.457845
59471.826251,4515.256246,-11547.212695,5439.278036
59471.826561,4071.132681,-7105.977043,3600.648841
59471.826871,0.000000,-5403.503377,1225.752797
59471.827180,4663.297435,-9178.553681,4213.525239
59471.827490,-222.061783,-7402.059420,0.000000
59471.827800,-74.020594,-10658.965565,-1302.362347
59471.828109,-1628.453072,-8956.491898,-1225.752797
59471.828419,-1924.535449,-10288.862594,-1838.629195
59471.828729,-3997.112087,-11843.295072,-1455.581446
59471.829038,-4293.194464,-9992.780217,-459.657299
59471.829348,-2368.659014,-11769.274478,2451.505594
59471.829658,2590.720797,-9474.636058,3600.648841
59471.829968,1998.556043,-4811.338623,1378.971896
59471.830277,2368.659014,-5995.668130,4290.134789
59471.830587,3552.988522,-6883.915261,3677.258390
59471.830897,2294.638420,-9326.594869,2068.457845
59471.831206,-1036.288319,-9178.553681,383.047749
59471.831516,-1184.329507,-7772.162391,-919.314598
59471.831826,-3478.967927,-10658.965565,-1762.019645
59471.832135,-4515.256246,-11103.089130,-1838.629195
59471.832445,-5329.482782,-10732.986159,0.000000
59471.832755,-1554.432478,-13619.789333,2374.896044
59471.833064,1702.473667,-7105.977043,536.266849
59471.833374,592.164754,-5995.668130,2451.505594
59471.833684,3849.070898,-7624.121203,4826.401637
59471.833993,2664.741391,-7105.977043,3600.648841
59471.834303,0.000000,-8290.306550,1302.362347
59471.834613,-740.205942,-9622.677246,612.876398
59471.834922,-2146.597232,-8290.306550,-1608.800546
59471.835232,-4441.235652,-10584.944971,-3370.820191
59471.835542,-6513.812290,-9548.656652,-2451.505594
59471.835851,-3552.988522,-11843.295072,-76.609550
59471.836161,-74.020594,-11843.295072,-76.609550
59471.836471,0.000000,-7179.997637,1838.629195
59471.836780,4663.297435,-8586.388927,5439.278036
59471.837090,4737.318029,-8586.388927,6971.469032
59471.837400,2590.720797,-6365.771101,2604.724693
59471.837709,370.102971,-8364.327145,1378.971896
59471.838019,0.000000,-9252.574275,229.828649
59471.838329,-1036.288319,-7772.162391,-2451.505594
59471.838639,-5921.647536,-9548.656652,-3677.258390
59471.838948,-5329.482782,-10732.986159,-1532.190996
59471.839258,-3627.009116,-10658.965565,-2528.115143
59471.839568,-4737.318029,-9548.656652,0.000000
59471.839877,2294.638420,-9178.553681,2681.334243
59471.840187,2368.659014,-7846.182985,4443.353888
59471.840497,2886.803174,-7698.141797,3907.087040
59471.840806,2812.782580,-6513.812290,2451.505594
59471.841116,2442.679609,-9326.594869,2298.286494
59471.841426,1554.432478,-7772.162391,0.000000
59471.841735,-1554.432478,-6957.935855,-3677.258390
59471.842045,-3552.988522,-10140.821405,0.000000
59471.842355,-666.185348,-13027.624579,-689.485948
59471.842664,-5921.647536,-9548.656652,-2451.505594
59471.842974,-1184.329507,-11769.274478,2068.457845
59471.843284,1184.329507,-7772.162391,2757.943793
59471.843593,4367.215058,-8142.265362,4213.525239
59471.843903,4367.215058,-7105.977043,3983.696590
59471.844213,2220.617826,-6661.853478,2757.943793
59471.844522,1480.411884,-8882.471304,1762.019645
59471.844832,1110.308913,-8882.471304,-1608.800546
59471.845142,-2368.659014,-7476.080014,-4903.011187
59471.845451,-2442.679609,-14211.954086,-76.609550
59471.845761,-7105.977043,-9548.656652,-3677.258390
59471.846071,-2442.679609,-11843.295072,-76.609550
59471.846380,-2368.659014,-9548.656652,0.000000
59471.846690,1480.411884,-7105.977043,1838.629195
59471.847000,2368.659014,-8142.265362,3677.258390
59471.847310,3552.988522,-6587.832884,3753.867940
59471.847619,2738.761985,-7105.977043,3600.648841
59471.847929,3478.967927,-9474.636058,1762.019645
59471.848239,1036.288319,-5181.441594,-1302.362347
59471.848548,0.000000,-8364.327145,306.438199
59471.848858,-666.185348,-11251.130318,-689.485948
59471.849168,-5921.647536,-9548.656652,-2451.505594
59471.849477,-5921.647536,-10140.821405,-2451.505594
59471.849787,-2368.659014,-12361.439231,459.657299
59471.850097,296.082377,-7698.141797,1225.752797
59471.850406,888.247130,-8660.409521,2451.505594
59471.850716,1258.350101,-8290.306550,4213.525239
59471.851026,2294.638420,-8290.306550,2374.896044
59471.851335,74.020594,-8290.306550,-76.609550
59471.851645,592.164754,-7476.080014,1838.629195
59471.851955,-74.020594,-8882.471304,-76.609550
59471.852264,-4145.153275,-8660.409521,0.000000
59471.852574,-5625.565159,-8956.491898,-2987.772442
59471.852884,-4219.173869,-12065.356855,-459.657299
59471.853193,-888.247130,-10584.944971,1608.800546
59471.853503,1628.453072,-8068.244768,2298.286494
59471.853813,2294.638420,-10510.924376,4826.401637
59471.854122,2812.782580,-9474.636058,4826.401637
59471.854432,-1258.350101,-9474.636058,-76.609550
59471.854742,0.000000,-9548.656652,1225.752797
59471.855051,3182.885551,-5921.647536,-76.609550
59471.855361,-1776.494261,-8364.327145,0.000000
59471.855671,-3034.844362,-8586.388927,-1608.800546
59471.855981,-4737.318029,-10436.903782,-1378.971896
59471.856290,-2590.720797,-10288.862594,-153.219100
59471.856600,-888.247130,-9474.636058,459.657299
59471.856910,1776.494261,-7920.203579,2757.943793
59471.857219,2664.741391,-11325.150913,4749.792088
59471.857529,4663.297435,-10362.883188,4519.963438
59471.857839,2294.638420,-10658.965565,1149.143247
59471.858148,0.000000,-7772.162391,612.876398
59471.858458,2886.803174,-7179.997637,-689.485948
59471.858768,2886.803174,-10362.883188,-76.609550
59471.859077,-1110.308913,-9178.553681,-919.314598
59471.859387,-2590.720797,-11621.233289,-689.485948
59471.859697,-1850.514855,-12139.377449,-383.047749
59471.860006,0.000000,-8660.409521,1225.752797
59471.860316,1184.329507,-9548.656652,4290.134789
59471.860626,4367.215058,-10362.883188,5822.325785
59471.860935,2294.638420,-7105.977043,1149.143247
59471.861245,1184.329507,-8956.491898,2604.724693
59471.861555,2886.803174,-8882.471304,2068.457845
59471.861864,3478.967927,-8290.306550,1762.019645
59471.862174,-444.123565,-8364.327145,-229.828649
59471.862484,-2664.741391,-9844.739029,-1455.581446
59471.862793,-4441.235652,-10436.903782,-2604.724693
59471.863103,-4737.318029,-10881.027347,-2451.505594
59471.863413,0.000000,-7476.080014,612.876398
59471.863722,2368.659014,-8364.327145,3677.258390
59471.864032,4663.297435,-9474.636058,4213.525239
59471.864342,0.000000,-5995.668130,1225.752797
59471.864652,1702.473667,-10658.965565,3600.648841
59471.864961,3330.926739,-9474.636058,2987.772442
59471.865271,1036.288319,-7105.977043,1149.143247
59471.865581,-1184.329507,-8290.306550,229.828649
59471.865890,-3182.885551,-8882.471304,-1225.752797
59471.866200,-4737.318029,-8956.491898,-3370.820191
59471.866510,-4737.318029,-8364.327145,0.000000
59471.866819,-74.020594,-11399.171507,2987.772442
59471.867129,-74.020594,-9474.636058,-76.609550
59471.867439,-2960.823768,-7772.162391,0.000000
59471.867748,-74.020594,-11843.295072,2374.896044
59471.868058,-74.020594,-10732.986159,2145.067394
59471.868368,1406.391290,-8290.306550,1608.800546
59471.868677,1702.473667,-6661.853478,1685.410096
59471.868987,222.061783,-8808.450710,995.924147
59471.869297,-2294.638420,-7476.080014,-995.924147
59471.869606,-5625.565159,-7254.018232,-2451.505594
59471.869916,-4145.153275,-9548.656652,0.000000
59471.870226,-74.020594,-9474.636058,-76.609550
59471.870535,0.000000,-8364.327145,612.876398
59471.870845,2294.638420,-10658.965565,3600.648841
59471.871155,-2368.659014,-8364.327145,1225.752797
59471.871465,-1628.453072,-11177.109724,842.705048
59471.871774,148.041188,-8290.306550,842.705048
59471.872084,1480.411884,-7476.080014,1532.190996
59471.872394,1702.473667,-7698.141797,-76.609550
59471.872704,-2442.679609,-6513.812290,-1302.362347
59471.873013,-5625.565159,-8364.327145,-2451.505594
59471.873323,-518.144159,-12213.398043,1838.629195
59471.873633,-74.020594,-7698.141797,229.828649
59471.873943,1480.411884,-9844.739029,3217.601092
59471.874253,0.000000,-6883.915261,612.876398
59471.874562,-814.226536,-11251.130318,2987.772442
59471.874872,222.061783,-10066.800811,1762.019645
59471.875182,1776.494261,-6883.915261,1685.410096
59471.875492,3478.967927,-7105.977043,2374.896044
59471.875801,1702.473667,-8882.471304,-76.609550
59471.876111,-3627.009116,-6587.832884,-3140.991542
59471.876421,-2368.659014,-13101.645173,612.876398
59471.876731,-1554.432478,-10658.965565,-383.047749
59471.877041,0.000000,-7772.162391,306.438199
59471.877350,0.000000,-8364.327145,919.314598
59471.877660,1406.391290,-8364.327145,2298.286494
59471.877970,592.164754,-8660.409521,1991.848295
59471.878280,666.185348,-9252.574275,2298.286494
59471.878589,3478.967927,-9474.636058,3600.648841
59471.878899,4663.297435,-9474.636058,3294.210641
59471.879209,1702.473667,-9474.636058,-76.609550
59471.879519,-3552.988522,-7772.162391,0.000000
59471.879828,-1258.350101,-11843.295072,-76.609550
59471.880138,-4145.153275,-9548.656652,0.000000
59471.880448,-2294.638420,-8364.327145,-995.924147
59471.880758,-814.226536,-10732.986159,1225.752797
59471.881068,-666.185348,-8734.430116,842.705048
59471.881377,-592.164754,-9252.574275,1762.019645
59471.881687,2886.803174,-10066.800811,4749.792088
59471.881997,4663.297435,-8290.306550,4443.353888
59471.882307,2294.638420,-6513.812290,1149.143247
59471.882616,0.000000,-7179.997637,612.876398
59471.882926,-666.185348,-7994.224174,-689.485948
59471.883236,-6513.812290,-9548.656652,-2451.505594
59471.883546,-3034.844362,-10066.800811,-1302.362347
59471.883856,-2220.617826,-10436.903782,-919.314598
59471.884165,-1554.432478,-11325.150913,76.609550
59471.884475,-1924.535449,-9400.615463,-612.876398
59471.884785,-1184.329507,-10732.986159,2451.505594
59471.885095,1480.411884,-10732.986159,612.876398
59471.885404,4663.297435,-8882.471304,4213.525239
59471.885714,2294.638420,-6957.935855,1762.019645
59471.886024,0.000000,-7179.997637,2451.505594
59471.886334,-1258.350101,-6513.812290,-383.047749
59471.886643,-1258.350101,-11103.089130,-76.609550
59471.886953,-1554.432478,-9474.636058,-306.438199
59471.887263,-1332.370696,-9770.718434,-306.438199
59471.887573,-1406.391290,-10584.944971,76.609550
59471.887883,-2368.659014,-9548.656652,0.000000
59471.888192,-1776.494261,-10732.986159,0.000000
59471.888502,0.000000,-10140.821405,2451.505594
59471.888812,2294.638420,-8882.471304,2374.896044
59471.889122,0.000000,-7179.997637,0.000000
59471.889431,1998.556043,-7105.977043,1762.019645
59471.889741,-74.020594,-8142.265362,1149.143247
59471.890051,-1480.411884,-9844.739029,536.266849
59471.890361,-444.123565,-8290.306550,383.047749
59471.890671,-666.185348,-9400.615463,383.047749
59471.890980,-2960.823768,-8364.327145,0.000000
59471.891290,-3552.988522,-5995.668130,0.000000
59471.891600,-296.082377,-12435.459826,2374.896044
59471.891910,-74.020594,-8882.471304,536.266849
59471.892219,0.000000,-6291.750507,1225.752797
59471.892529,3478.967927,-10658.965565,3600.648841
59471.892839,2960.823768,-7698.141797,2604.724693
59471.893149,518.144159,-10658.965565,1762.019645
59471.893458,222.061783,-9696.697840,1838.629195
59471.893768,666.185348,-9178.553681,1532.190996
59471.894078,0.000000,-6143.709319,0.000000
59471.894388,-2368.659014,-7328.038826,-1302.362347
59471.894698,-3552.988522,-9548.656652,0.000000
59471.895007,-1850.514855,-12731.542202,-76.609550
59471.895317,-1776.494261,-7772.162391,0.000000
59471.895627,4071.132681,-10658.965565,3600.648841
59471.895937,740.205942,-8956.491898,2528.115143
59471.896246,-444.123565,-7031.956449,306.438199
59471.896556,-296.082377,-9844.739029,1225.752797
59471.896866,666.185348,-9622.677246,1838.629195
59471.897176,0.000000,-7476.080014,229.828649
59471.897486,-1998.556043,-7994.224174,-76.609550
59471.897795,-2368.659014,-9548.656652,0.000000
59471.898105,-666.185348,-9474.636058,-76.609550
59471.898415,-2368.659014,-10436.903782,2451.505594
59471.898725,3478.967927,-9474.636058,4213.525239
59471.899034,1480.411884,-6587.832884,1838.629195
59471.899344,962.267725,-9252.574275,2374.896044
59471.899654,-74.020594,-8512.368333,1072.533697
59471.899964,-1776.494261,-9770.718434,0.000000
59471.900273,-74.020594,-9178.553681,-76.609550
59471.900583,-222.061783,-8882.471304,-76.609550
59471.900893,-4441.235652,-8364.327145,0.000000
59471.901203,-666.185348,-11843.295072,-76.609550
59471.901513,-3923.091493,-8956.491898,-2451.505594
59471.901822,-1776.494261,-12509.480420,2221.676944
59471.902132,0.000000,-6735.874072,306.438199
59471.902442,2146.597232,-7105.977043,1838.629195
59471.902752,1406.391290,-7698.141797,2145.067394
59471.903061,444.123565,-7105.977043,1455.581446
59471.903371,-74.020594,-10658.965565,2374.896044
59471.903681,2294.638420,-11843.295072,2374.896044
59471.903991,-666.185348,-7698.141797,-995.924147
59471.904301,-2368.659014,-10732.986159,0.000000
59471.904610,-2516.700203,-10658.965565,-1302.362347
59471.904920,-4145.153275,-10140.821405,0.000000
59471.905230,-2368.659014,-10140.821405,612.876398
59471.905540,444.123565,-7179.997637,842.705048
59471.905849,592.164754,-7772.162391,1685.410096
59471.906159,1258.350101,-7698.141797,1762.019645
59471.906469,3182.885551,-8882.471304,3600.648841
59471.906779,2294.638420,-11399.171507,4213.525239
59471.907088,1110.308913,-8290.306550,-76.609550
59471.907398,0.000000,-7772.162391,459.657299
59471.907708,-666.185348,-10066.800811,-689.485948
59471.908018,-4737.318029,-8364.327145,0.000000
59471.908328,-4515.256246,-10066.800811,-2374.896044
59471.908637,-2812.782580,-11325.150913,0.000000
59471.908947,518.144159,-8142.265362,459.657299
59471.909257,1036.288319,-8956.491898,2451.505594
59471.909567,3182.885551,-8956.491898,3830.477490
59471.909876,3478.967927,-8660.409521,5209.449386
59471.910186,3478.967927,-9474.636058,2374.896044
59471.910496,1184.329507,-6587.832884,1838.629195
59471.910806,3478.967927,-9474.636058,3600.648841
59471.911115,-2368.659014,-7476.080014,0.000000
59471.911425,-2442.679609,-9178.553681,-1532.190996
59471.911735,-3701.029710,-11843.295072,-1149.143247
59471.912045,-2368.659014,-11621.233289,153.219100
59471.912355,222.061783,-8068.244768,306.438199
59471.912664,1184.329507,-9548.656652,2451.505594
59471.912974,0.000000,-7179.997637,1838.629195
59471.913284,2294.638420,-10066.800811,3600.648841
59471.913594,1110.308913,-8438.347739,1149.143247
59471.913903,4145.153275,-9548.656652,4903.011187
59471.914213,518.144159,-6513.812290,0.000000
59471.914523,-222.061783,-10066.800811,842.705048
59471.914833,-3256.906145,-8956.491898,-1072.533697
59471.915143,-3627.009116,-11325.150913,-919.314598
59471.915452,-2220.617826,-10881.027347,229.828649
59471.915762,0.000000,-5995.668130,0.000000
59471.916072,0.000000,-7179.997637,0.000000
59471.916382,1184.329507,-8808.450710,2757.943793
59471.916691,-74.020594,-8290.306550,1149.143247
59471.917001,1924.535449,-10732.986159,4290.134789
59471.917311,2294.638420,-7105.977043,-76.609550
59471.917621,1110.308913,-9474.636058,1149.143247
59471.917930,-1702.473667,-10362.883188,-153.219100
59471.918240,-3034.844362,-9548.656652,-1455.581446
59471.918550,-2442.679609,-13619.789333,-76.609550
59471.918860,-4737.318029,-8364.327145,-2451.505594
59471.919170,-3256.906145,-5403.503377,-1838.629195
59471.919479,0.000000,-8364.327145,1378.971896
59471.919789,-74.020594,-8290.306550,2681.334243
59471.920099,-3552.988522,-5995.668130,0.000000
59471.920409,3478.967927,-10658.965565,2374.896044
59471.920718,4663.297435,-8142.265362,3140.991542
59471.921028,814.226536,-9178.553681,1455.581446
59471.921338,-1924.535449,-9844.739029,-536.266849
59471.921648,-3701.029710,-10807.006753,-1915.238745
59471.921958,-5255.462188,-11251.130318,-3294.210641
59471.922267,-2738.761985,-9770.718434,-1302.362347
59471.922577,-2960.823768,-7179.997637,0.000000
59471.922887,1406.391290,-10066.800811,2374.896044
59471.923197,0.000000,-4811.338623,0.000000
59471.923506,4071.132681,-9474.636058,4826.401637
59471.923816,2368.659014,-8216.285956,4060.306139
59471.924126,3404.947333,-6661.853478,2145.067394
59471.924436,1554.432478,-9696.697840,1685.410096
59471.924745,-1480.411884,-9622.677246,-229.828649
59471.925055,-4219.173869,-10066.800811,-2528.115143
59471.925365,-3627.009116,-11843.295072,-1915.238745
59471.925675,-2368.659014,-8660.409521,0.000000
59471.925985,1702.473667,-9474.636058,3600.648841
59471.926294,1110.308913,-7105.977043,536.266849
59471.926604,3108.864956,-8882.471304,4826.401637
59471.926914,2368.659014,-8956.491898,3370.820191
59471.927224,3182.885551,-8734.430116,3064.381992
59471.927533,3330.926739,-7328.038826,2528.115143
59471.927843,740.205942,-9252.574275,1378.971896
59471.928153,-74.020594,-9474.636058,-76.609550
59471.928463,-1258.350101,-11843.295072,-1302.362347
59471.928773,-4737.318029,-11029.068536,0.000000
59471.929082,666.185348,-9474.636058,1762.019645
59471.929392,-2442.679609,-6957.935855,-995.924147
59471.929702,-1184.329507,-10436.903782,3217.601092
59471.930012,-1184.329507,-7179.997637,1225.752797
59471.930321,-592.164754,-9178.553681,2221.676944
59471.930631,2960.823768,-9252.574275,3064.381992
59471.930941,3775.050304,-5107.421000,2528.115143
59471.931251,4663.297435,-10658.965565,3600.648841
59471.931560,2294.638420,-9474.636058,2068.457845
59471.931870,-5625.565159,-9548.656652,-2757.943793
59471.932180,-4737.318029,-12361.439231,-383.047749
59471.932490,-4515.256246,-8290.306550,-2528.115143
59471.932800,-3552.988522,-9548.656652,1225.752797
59471.933109,-2368.659014,-8586.388927,306.438199
59471.933419,-296.082377,-7179.997637,1225.752797
59471.933729,962.267725,-8882.471304,2374.896044
59471.934039,1702.473667,-7105.977043,2681.334243
59471.934348,3182.885551,-8290.306550,3064.381992
59471.934658,2886.803174,-11695.253884,3907.087040
59471.934968,-2146.597232,-7550.100608,-1762.019645
59471.935278,-4145.153275,-11917.315666,-76.609550
59471.935588,-3034.844362,-10658.965565,-2528.115143
59471.935897,-4145.153275,-7772.162391,0.000000
59471.936207,-1554.432478,-9030.512492,-689.485948
59471.936517,-1406.391290,-9104.533087,459.657299
59471.936827,0.000000,-8586.388927,1685.410096
59471.937136,1924.535449,-9696.697840,2911.162892
59471.937446,3552.988522,-9252.574275,3830.477490
59471.937756,3552.988522,-7179.997637,3677.258390
59471.938066,1110.308913,-8882.471304,842.705048
59471.938375,-3256.906145,-8364.327145,-306.438199
59471.938685,-2442.679609,-14211.954086,-1915.238745
59471.938995,-5921.647536,-9548.656652,-2451.505594
59471.939305,-962.267725,-8586.388927,-842.705048
59471.939615,0.000000,-8956.491898,919.314598
59471.939924,0.000000,-7402.059420,1302.362347
59471.940234,296.082377,-7624.121203,1838.629195
59471.940544,2368.659014,-7179.997637,3370.820191
59471.940854,2368.659014,-6587.832884,3064.381992
59471.941163,4367.215058,-8882.471304,3294.210641
59471.941473,0.000000,-8364.327145,0.000000
59471.941783,-74.020594,-13027.624579,-76.609550
59471.942093,-5921.647536,-10140.821405,-3677.258390
59471.942402,-3627.009116,-11843.295072,-995.924147
59471.942712,-1924.535449,-8364.327145,-919.314598
59471.943022,-444.123565,-9252.574275,689.485948
59471.943332,592.164754,-7624.121203,2298.286494
59471.943642,0.000000,-6587.832884,2451.505594
59471.943951,592.164754,-6587.832884,2451.505594
59471.944261,4663.297435,-7698.141797,4673.182538
59471.944571,3552.988522,-5107.421000,1225.752797
59471.944881,4071.132681,-11843.295072,4213.525239
59471.945190,-1850.514855,-8290.306550,-2451.505594
59471.945500,-4515.256246,-13397.727550,-1838.629195
59471.945810,-3923.091493,-12509.480420,-1608.800546
59471.946120,-2442.679609,-9992.780217,-1302.362347
59471.946430,-2294.638420,-10436.903782,0.000000
59471.946739,-2368.659014,-7624.121203,459.657299
59471.947049,0.000000,-7179.997637,1532.190996
59471.947359,5329.482782,-8956.491898,6128.763984
59471.947669,6439.791695,-4367.215058,2374.896044
59471.947978,5329.482782,-7772.162391,5439.278036
59471.948288,2294.638420,-8290.306550,-76.609550
59471.948598,-2368.659014,-9548.656652,-842.705048
59471.948908,-4811.338623,-12139.377449,-2145.067394
59471.949217,-4589.276840,-11769.274478,-2145.067394
59471.949527,-2960.823768,-9474.636058,-1685.410096
59471.949837,-3923.091493,-10658.965565,-76.609550
59471.950147,-2442.679609,-8290.306550,-995.924147
59471.950457,-2368.659014,-7920.203579,306.438199
59471.950766,3478.967927,-11251.130318,6052.154434
59471.951076,2960.823768,-3108.864956,2451.505594
59471.951386,5847.626942,-7105.977043,4213.525239
59471.951696,296.082377,-6735.874072,1838.629195
59471.952005,-2220.617826,-9030.512492,-842.705048
59471.952315,-4663.297435,-12509.480420,-1915.238745
59471.952625,-4219.173869,-10288.862594,-2451.505594
59471.952935,-3627.009116,-11103.089130,-689.485948
59471.953245,-3627.009116,-10510.924376,-1608.800546
59471.953554,-4145.153275,-8364.327145,-1685.410096
59471.953864,-74.020594,-12213.398043,4596.572988
59471.954174,3478.967927,-8290.306550,2987.772442
59471.954484,7031.956449,-7105.977043,4826.401637
59471.954793,3404.947333,-6291.750507,3370.820191
59471.955103,1184.329507,-7846.182985,1302.362347
59471.955413,-2516.700203,-9992.780217,-383.047749
59471.955723,-4219.173869,-12509.480420,-1225.752797
59471.956032,-1258.350101,-10658.965565,-1149.143247
59471.956342,-1258.350101,-10658.965565,-1302.362347
59471.956652,-4737.318029,-8364.327145,-1838.629195
59471.956962,-1628.453072,-11473.192101,2757.943793
59471.957272,-74.020594,-11843.295072,2374.896044
59471.957581,4071.132681,-9474.636058,4826.401637
59471.957891,3997.112087,-5773.606348,3370.820191
59471.958201,4293.194464,-6069.688724,3140.991542
59471.958511,1258.350101,-7994.224174,1762.019645
59471.958820,-1184.329507,-9548.656652,-995.924147
59471.959130,-1702.473667,-13545.768739,-76.609550
59471.959440,-1258.350101,-10658.965565,-383.047749
59471.959750,-2146.597232,-9474.636058,-1302.362347
59471.960060,-4737.318029,-9548.656652,0.000000
59471.960369,1702.473667,-10658.965565,2374.896044
59471.960679,1554.432478,-11769.274478,4826.401637
59471.960989,4293.194464,-6809.894666,4213.525239
59471.961299,6143.709319,-5699.585753,4596.572988
59471.961608,4959.379811,-7254.018232,3370.820191
59471.961918,1184.329507,-8808.450710,536.266849
59471.962228,-2738.761985,-11177.109724,-1225.752797
59471.962538,-1998.556043,-14804.118840,-229.828649
59471.962847,-1850.514855,-9474.636058,-2528.115143
59471.963157,-3552.988522,-9548.656652,0.000000
59471.963467,-74.020594,-11547.212695,-76.609550
59471.963777,-1776.494261,-9844.739029,2451.505594
59471.964087,1776.494261,-9474.636058,2987.772442
59471.964396,3775.050304,-6291.750507,3983.696590
59471.964706,4737.318029,-6069.688724,4213.525239
59471.965016,4885.359217,-6957.935855,3753.867940
59471.965326,1776.494261,-7179.997637,0.000000
59471.965635,-1480.411884,-11769.274478,459.657299
59471.965945,-2738.761985,-12287.418637,-1915.238745
59471.966255,-7105.977043,-7179.997637,-4290.134789
59471.966565,-1850.514855,-12731.542202,-383.047749
59471.966875,-4737.318029,-10288.862594,-1225.752797
59471.967184,-2590.720797,-9474.636058,-229.828649
59471.967494,-296.082377,-9918.759623,2528.115143
59471.967804,3182.885551,-6439.791695,3370.820191
59471.968114,4663.297435,-5699.585753,4060.306139
59471.968423,2368.659014,-5107.421000,1225.752797
59471.968733,296.082377,-8364.327145,1991.848295
59471.969043,-1554.432478,-12731.542202,-76.609550
59471.969353,-4737.318029,-9548.656652,0.000000
59471.969662,-1258.350101,-11251.130318,-76.609550
59471.969972,-5921.647536,-9844.739029,-1991.848295
59471.970282,-4515.256246,-10066.800811,-1149.143247
59471.970592,-4219.173869,-10066.800811,-536.266849
59471.970902,0.000000,-9696.697840,2681.334243
59471.971211,3330.926739,-6143.709319,4060.306139
59471.971521,4145.153275,-3923.091493,3600.648841
59471.971831,2368.659014,-5403.503377,3064.381992
59471.972141,1628.453072,-8290.306550,4213.525239
59471.972450,-4811.338623,-9178.553681,-2528.115143
59471.972760,-5921.647536,-10732.986159,-1225.752797
59471.973070,-5033.400406,-8364.327145,-3524.039291
59471.973380,-4663.297435,-11695.253884,-1685.410096
59471.973689,-4071.132681,-9622.677246,-1608.800546
59471.973999,-2220.617826,-10140.821405,383.047749
59471.974309,2146.597232,-9252.574275,3140.991542
59471.974619,4219.173869,-5329.482782,4519.963438
59471.974928,3849.070898,-4811.338623,3217.601092
59471.975238,3256.906145,-5699.585753,2681.334243
59471.975548,0.000000,-7179.997637,0.000000
59471.975858,-74.020594,-13619.789333,-76.609550
59471.976167,-2220.617826,-9548.656652,0.000000
59471.976477,-74.020594,-11843.295072,-383.047749
59471.976787,-2442.679609,-10658.965565,-1915.238745
59471.977097,-3478.967927,-9252.574275,-1762.019645
59471.977406,-1332.370696,-11399.171507,919.314598
59471.977716,592.164754,-8364.327145,1302.362347
59471.978026,2664.741391,-6291.750507,4903.011187
59471.978336,6735.874072,-7402.059420,6971.469032
59471.978645,2886.803174,-4589.276840,1149.143247
59471.978955,0.000000,-7476.080014,1225.752797
59471.979265,-2812.782580,-9844.739029,0.000000
59471.979575,-2590.720797,-10288.862594,-1762.019645
59471.979884,-2590.720797,-9548.656652,-2221.676944
59471.980194,-1924.535449,-11029.068536,-536.266849
59471.980504,-1110.308913,-9844.739029,0.000000
59471.980814,-1332.370696,-9178.553681,1149.143247
59471.981123,0.000000,-7179.997637,1838.629195
59471.981433,5181.441594,-7254.018232,4903.011187
59471.981743,6439.791695,-8290.306550,3600.648841
59471.982053,592.164754,-5995.668130,612.876398
59471.982362,0.000000,-6809.894666,0.000000
59471.982672,-1554.432478,-11695.253884,-306.438199
59471.982982,-1628.453072,-9474.636058,-1685.410096
59471.983292,-3923.091493,-9770.718434,-2604.724693
59471.983601,-5107.421000,-11325.150913,-1455.581446
59471.983911,-4219.173869,-9474.636058,-689.485948
59471.984221,-4219.173869,-8660.409521,0.000000
59471.984531,592.164754,-7179.997637,1225.752797
59471.984840,7031.956449,-9474.636058,6052.154434
59471.985150,2368.659014,-5107.421000,2451.505594
59471.985460,1702.473667,-6513.812290,153.219100
59471.985770,-1480.411884,-8956.491898,0.000000
59471.986079,-2886.803174,-11695.253884,-995.924147
59471.986389,-2738.761985,-9622.677246,-2068.457845
59471.986699,-4441.235652,-11029.068536,-1915.238745
59471.987009,-4219.173869,-13027.624579,-689.485948
59471.987318,-3923.091493,-9474.636058,-1608.800546
59471.987628,-3552.988522,-9548.656652,0.000000
59471.987938,4145.153275,-10362.883188,6052.154434
59471.988248,3478.967927,-4737.318029,4213.525239
59471.988557,4663.297435,-6513.812290,3600.648841
59471.988867,1924.535449,-5847.626942,3064.381992
59471.989177,-222.061783,-8586.388927,1225.752797
59471.989487,-1776.494261,-11177.109724,-76.609550
59471.989796,-3108.864956,-9104.533087,-995.924147
59471.990106,-4219.173869,-13027.624579,-1608.800546
59471.990416,-5995.668130,-11251.130318,-3140.991542
59471.990726,-5921.647536,-10140.821405,-2451.505594
59471.991035,-74.020594,-14211.954086,3600.648841
59471.991345,1554.432478,-6809.894666,2298.286494
59471.991655,5847.626942,-7105.977043,4826.401637
59471.991965,4145.153275,-4515.256246,4290.134789
59471.992274,3182.885551,-6217.729913,3600.648841
59471.992584,1258.350101,-7772.162391,1455.581446
59471.992894,-740.205942,-10955.047942,919.314598
59471.993204,1110.308913,-9992.780217,-153.219100
59471.993513,-1850.514855,-12435.459826,-1302.362347
59471.993823,-4737.318029,-9548.656652,-5975.544884
59471.994133,-3552.988522,-12805.562797,612.876398
59471.994443,-74.020594,-11843.295072,-76.609550
59471.994752,3627.009116,-9474.636058,4213.525239
59471.995062,3701.029710,-5995.668130,3370.820191
59471.995372,3182.885551,-7550.100608,3907.087040
59471.995682,3849.070898,-6217.729913,3064.381992
59471.995991,2812.782580,-7328.038826,612.876398
59471.996301,1480.411884,-9548.656652,1838.629195
59471.996611,-74.020594,-9474.636058,-76.609550
59471.996921,-3034.844362,-9622.677246,-3753.867940
59471.997230,-4737.318029,-9844.739029,-1225.752797
59471.997540,-3627.009116,-13915.871710,-1302.362347
59471.997850,-1480.411884,-13619.789333,1455.581446
59471.998160,1850.514855,-9252.574275,2298.286494
59471.998470,4737.318029,-7772.162391,4136.915689
59471.998779,4885.359217,-6883.915261,4290.134789
59471.999089,2812.782580,-6069.688724,2451.505594
59471.999399,1776.494261,-7179.997637,1532.190996
59471.999709,1332.370696,-9030.512492,1838.629195
59472.000018,-666.185348,-9474.636058,-76.609550
59472.000328,-6513.812290,-10140.821405,-3064.381992
59472.000638,-3627.009116,-11843.295072,-1915.238745
59472.000948,-4737.318029,-12879.583391,-1302.362347
59472.001257,-2146.597232,-11547.212695,383.047749
59472.001567,888.247130,-8068.244768,1915.238745
59472.001877,2886.803174,-8290.306550,3447.429741
59472.002187,2368.659014,-6143.709319,1302.362347
59472.002496,0.000000,-5403.503377,0.000000
59472.002806,0.000000,-9548.656652,1532.190996
59472.003116,1998.556043,-9474.636058,-76.609550
59472.003426,-3552.988522,-7179.997637,0.000000
59472.003735,-2442.679609,-11547.212695,-689.485948
59472.004045,-4737.318029,-9548.656652,-1225.752797
59472.004355,-3627.009116,-11769.274478,-383.047749
59472.004665,-2294.638420,-10807.006753,919.314598
59472.004974,814.226536,-8512.368333,2451.505594
59472.005284,2960.823768,-6809.894666,2987.772442
59472.005594,148.041188,-5107.421000,612.876398
59472.005904,0.000000,-7179.997637,2451.505594
59472.006213,1702.473667,-12731.542202,4826.401637
59472.006523,0.000000,-7179.997637,0.000000
59472.006833,-74.020594,-9474.636058,-76.609550
59472.007143,-5033.400406,-9548.656652,-1838.629195
59472.007452,-5403.503377,-10140.821405,-1532.190996
59472.007762,-4367.215058,-10881.027347,-689.485948
59472.008072,-1406.391290,-9548.656652,1225.752797
59472.008382,1332.370696,-6957.935855,3294.210641
59472.008691,2886.803174,-5847.626942,1455.581446
59472.009001,1480.411884,-5995.668130,2451.505594
59472.009311,3701.029710,-10288.862594,5362.668486
59472.009621,-1184.329507,-8364.327145,0.000000
59472.009930,592.164754,-10288.862594,1532.190996
59472.010240,-1184.329507,-8364.327145,-2451.505594
59472.010550,-3108.864956,-11843.295072,-1302.362347
59472.010860,-3256.906145,-10436.903782,-1302.362347
59472.011169,-1554.432478,-11177.109724,-229.828649
59472.011479,1998.556043,-11251.130318,2987.772442
59472.011789,4663.297435,-7550.100608,3600.648841
59472.012099,3256.906145,-6587.832884,3064.381992
59472.012408,0.000000,-4811.338623,1225.752797
59472.012718,4071.132681,-9474.636058,3294.210641
59472.013028,814.226536,-9326.594869,0.000000
59472.013338,0.000000,-7179.997637,-2451.505594
59472.013647,-1776.494261,-9696.697840,-1762.019645
59472.013957,-3256.906145,-11399.171507,-1608.800546
59472.014267,-3256.906145,-10436.903782,-1378.971896
59472.014577,-1850.514855,-12731.542202,1149.143247
59472.014886,2294.638420,-9474.636058,3600.648841
59472.015196,2590.720797,-5921.647536,2298.286494
59472.015506,0.000000,-4811.338623,1225.752797
59472.015816,5255.462188,-8290.306550,4519.963438
59472.016125,1702.473667,-6439.791695,0.000000
59472.016435,0.000000,-8438.347739,-766.095498
59472.016745,-592.164754,-7179.997637,-1378.971896
59472.017055,-2294.638420,-9548.656652,-1685.410096
59472.017364,-3627.009116,-11177.109724,-2221.676944
59472.017674,-3627.009116,-12361.439231,-383.047749
59472.017984,-2442.679609,-14211.954086,-76.609550
59472.018294,-666.185348,-10066.800811,-76.609550
59472.018603,0.000000,-4811.338623,0.000000
59472.018913,4071.132681,-9474.636058,4826.401637
59472.019223,1110.308913,-5995.668130,383.047749
59472.019533,2294.638420,-7994.224174,2374.896044
59472.019842,1554.432478,-8290.306550,1915.238745
59472.020152,1628.453072,-6957.935855,1378.971896
59472.020462,-1702.473667,-9178.553681,0.000000
59472.020772,-3552.988522,-10140.821405,0.000000
59472.021081,-4811.338623,-13027.624579,-76.609550
59472.021391,-3627.009116,-13619.789333,-76.609550
59472.021701,-3923.091493,-7328.038826,-1685.410096
59472.022011,0.000000,-9548.656652,3064.381992
59472.022320,1998.556043,-7402.059420,1762.019645
59472.022630,2294.638420,-7105.977043,2987.772442
59472.022940,370.102971,-7772.162391,2145.067394
59472.023250,1702.473667,-8216.285956,2374.896044
59472.023559,666.185348,-6513.812290,842.705048
59472.023869,-2368.659014,-8660.409521,0.000000
59472.024179,-4441.235652,-11325.150913,612.876398
59472.024489,-3034.844362,-11843.295072,-76.609550
59472.024798,-5773.606348,-9548.656652,-2451.505594
59472.025108,1702.473667,-10955.047942,3524.039291
59472.025418,2886.803174,-8290.306550,2374.896044
59472.025728,4663.297435,-9474.636058,4826.401637
59472.026037,1554.432478,-6883.915261,2681.334243
59472.026347,222.061783,-8660.409521,1991.848295
59472.026657,962.267725,-8364.327145,1302.362347
59472.026967,0.000000,-5995.668130,0.000000
59472.027276,-2368.659014,-8364.327145,0.000000
59472.027586,-2812.782580,-9474.636058,-76.609550
59472.027896,-4811.338623,-10066.800811,-3753.867940
59472.028206,-3552.988522,-11325.150913,0.000000
59472.028515,1702.473667,-11843.295072,-76.609550
59472.028825,2738.761985,-10288.862594,3600.648841
59472.029135,2886.803174,-8290.306550,2987.772442
59472.029445,1998.556043,-8216.285956,2221.676944
59472.029754,1258.350101,-9326.594869,2068.457845
59472.030064,0.000000,-7179.997637,0.000000
59472.030374,0.000000,-4811.338623,0.000000
59472.030684,-2960.823768,-9548.656652,0.000000
59472.030993,-2442.679609,-11843.295072,-76.609550
59472.031303,-8290.306550,-9548.656652,-2451.505594
59472.031613,-4811.338623,-14211.954086,2374.896044
59472.031923,-3552.988522,-8364.327145,1532.190996
59472.032232,-1850.514855,-8882.471304,2374.896044
59472.032542,-1480.411884,-7624.121203,2911.162892
59472.032852,-1998.556043,-7179.997637,1915.238745
59472.033162,-3034.844362,-7402.059420,-76.609550
59472.033471,-6513.812290,-5995.668130,-2451.505594
59472.033781,-4145.153275,-6587.832884,-2451.505594
59472.034091,-1258.350101,-11843.295072,-76.609550
59472.034401,-9474.636058,-10732.986159,-1685.410096
59472.034710,-7179.997637,-13027.624579,-689.485948
59472.035020,-11843.295072,-11917.315666,-1838.629195
59472.035330,-8364.327145,-11473.192101,766.095498
59472.035640,-5107.421000,-8956.491898,2374.896044
59472.035949,-2072.576638,-6217.729913,4290.134789
59472.036259,-74.020594,-4737.318029,4826.401637
59472.036569,-2442.679609,-4441.235652,2834.553343
59472.036879,-3997.112087,-5995.668130,1225.752797
59472.037188,-2442.679609,-9474.636058,3600.648841
59472.037498,-7476.080014,-5625.565159,-2374.896044
59472.037808,-5329.482782,-9844.739029,612.876398
59472.038118,-7105.977043,-8364.327145,-2451.505594
59472.038427,-8734.430116,-11843.295072,-2298.286494
59472.038737,-10214.842000,-13693.809927,-2757.943793
59472.039047,-9844.739029,-13397.727550,-1991.848295
59472.039357,-5403.503377,-14211.954086,-76.609550
59472.039666,-3034.844362,-8882.471304,1762.019645
59472.039976,-2368.659014,-4811.338623,1225.752797
59472.040286,4663.297435,-6883.915261,9729.412825
59472.040596,4071.132681,-2072.576638,5286.058936
59472.040905,0.000000,-3627.009116,4903.011187
59472.041215,-4737.318029,-8068.244768,1225.752797
59472.041525,-4293.194464,-8660.409521,-919.314598
59472.041835,-5329.482782,-9770.718434,-2911.162892
59472.042144,-8586.388927,-10881.027347,-3600.648841
59472.042454,-5995.668130,-13915.871710,-2528.115143
59472.042764,-74.020594,-11843.295072,-2528.115143
59472.043074,-1850.514855,-13027.624579,-76.609550
59472.043383,-6513.812290,-10732.986159,0.000000
59472.043693,-2368.659014,-12805.562797,2528.115143
59472.044003,296.082377,-7328.038826,2451.505594
59472.044313,2442.679609,-5329.482782,4519.963438
59472.044622,296.082377,-5625.565159,4903.011187
59472.044932,-666.185348,-6069.688724,3600.648841
59472.045242,1998.556043,-5107.421000,2374.896044
59472.045552,5255.462188,-7624.121203,4213.525239
59472.045861,2294.638420,-9474.636058,2374.896044
59472.046171,-4811.338623,-10658.965565,-2528.115143
59472.046481,-9474.636058,-10732.986159,-6128.763984
59472.046791,-4811.338623,-14804.118840,-3447.429741
59472.047100,-7179.997637,-11917.315666,-4903.011187
59472.047410,-5403.503377,-11843.295072,-2528.115143
59472.047720,-5033.400406,-11325.150913,-612.876398
59472.048030,-296.082377,-8882.471304,1915.238745
59472.048339,5329.482782,-5477.523971,5822.325785
59472.048649,8290.306550,-4219.173869,11031.775171
59472.048959,7031.956449,-4737.318029,8963.317327
59472.049269,-74.020594,-9474.636058,3600.648841
59472.049578,-7105.977043,-9548.656652,-2451.505594
59472.049888,-4811.338623,-12879.583391,-842.705048
59472.050198,-8956.491898,-8808.450710,-5592.497135
59472.050508,-9548.656652,-11843.295072,-4979.620737
59472.050817,-12139.377449,-12953.603985,-4979.620737
59472.051127,-8660.409521,-14211.954086,-1378.971896
59472.051437,-4367.215058,-11251.130318,1838.629195
59472.051747,-3552.988522,-4811.338623,3677.258390
59472.052056,1184.329507,-4811.338623,7967.393179
59472.052366,7031.956449,-3552.988522,9116.536426
59472.052676,1184.329507,-2442.679609,4903.011187
59472.052986,-74.020594,-9326.594869,4519.963438
59472.053295,-6587.832884,-10214.842000,-1608.800546
59472.053605,-7920.203579,-14211.954086,-1762.019645
59472.053915,-8956.491898,-12213.398043,-3907.087040
59472.054225,-8956.491898,-10066.800811,-4366.744339
59472.054534,-9326.594869,-10881.027347,-4060.306139
59472.054844,-11547.212695,-11325.150913,-2451.505594
59472.055154,-8290.306550,-11917.315666,0.000000
59472.055464,-4589.276840,-12213.398043,5209.449386
59472.055773,-74.020594,-6513.812290,4826.401637
59472.056083,2368.659014,-1850.514855,8580.269578
59472.056393,7031.956449,0.000000,9116.536426
59472.056703,5921.647536,0.000000,7507.735880
59472.057012,2368.659014,-2664.741391,3830.477490
59472.057322,-2220.617826,-8808.450710,689.485948
59472.057632,-7920.203579,-14434.015869,-4136.915689
59472.057942,-16284.530724,-17838.963202,-9806.022374
59472.058251,-18357.107362,-17246.798449,-9806.022374
59472.058561,-15396.283594,-19023.292709,-6128.763984
59472.058871,-7476.080014,-14211.954086,-2528.115143
59472.059181,-4737.318029,-7476.080014,-1225.752797
59472.059490,3182.885551,-7105.977043,7277.907231
59472.059800,7105.977043,-1850.514855,9499.584175
59472.060110,10288.862594,-592.164754,10648.727422
59472.060420,7550.100608,-370.102971,9959.241474
59472.060729,3552.988522,-2442.679609,6052.154434
59472.061039,-74.020594,-4885.359217,1149.143247
59472.061349,-8142.265362,-9548.656652,-2451.505594
59472.061659,-11843.295072,-15470.304188,-3677.258390
59472.061968,-10732.986159,-18949.272115,-6205.373534
59472.062278,-14211.954086,-16654.633695,-8580.269578
59472.062588,-9548.656652,-17764.942608,-3140.991542
59472.062898,-8290.306550,-11621.233289,-2451.505594
59472.063207,-444.123565,-7476.080014,1762.019645
59472.063517,4145.153275,-3923.091493,5822.325785
59472.063827,8068.244768,-814.226536,7354.516781
59472.064137,9104.533087,0.000000,6665.030833
59472.064446,5847.626942,-740.205942,5745.716235
59472.064756,1184.329507,-1258.350101,2451.505594
59472.065066,-74.020594,-9474.636058,2374.896044
59472.065376,-6513.812290,-8660.409521,-3677.258390
59472.065685,-8142.265362,-14285.974681,-4749.792088
59472.065995,-13619.789333,-17838.963202,-8580.269578
59472.066305,-11251.130318,-19097.313304,-7660.954980
59472.066615,-8882.471304,-21169.889941,-3753.867940
59472.066924,-4885.359217,-15100.201217,-842.705048
59472.067234,-74.020594,-9474.636058,4826.401637
59472.067544,4071.132681,-4737.318029,6665.030833
59472.067854,3627.009116,1850.514855,6818.249932
59472.068163,5329.482782,222.061783,11031.775171
59472.068473,4071.132681,0.000000,7277.907231
59472.068783,0.000000,-666.185348,4903.011187
59472.069093,-3404.947333,-5551.544565,1685.410096
59472.069402,-5773.606348,-9548.656652,-919.314598
59472.069712,-8068.244768,-13619.789333,-3217.601092
59472.070022,-9548.656652,-17320.819043,-3907.087040
59472.070332,-7476.080014,-18949.272115,-2528.115143
59472.070641,-4811.338623,-18949.272115,-76.609550
59472.070951,-2738.761985,-12435.459826,-689.485948
59472.071261,0.000000,-8364.327145,4903.011187
59472.071571,8216.285956,-7105.977043,9116.536426
59472.071880,5921.647536,-74.020594,9806.022374
59472.072190,9252.574275,592.164754,10572.117872
59472.072500,8142.265362,-74.020594,9806.022374
59472.072810,5033.400406,-3478.967927,8273.831378
59472.073119,444.123565,-6957.935855,4673.182538
59472.073429,-2664.741391,-13323.706956,3983.696590
59472.073739,-4811.338623,-15396.283594,1762.019645
59472.074049,-5995.668130,-16580.613101,-1915.238745
59472.074358,-8290.306550,-15470.304188,-2145.067394
59472.074668,-2516.700203,-17987.004391,4519.963438
59472.074978,-2960.823768,-10807.006753,1608.800546
59472.075288,2294.638420,-8586.388927,5745.716235
59472.075597,4219.173869,-7105.977043,8656.879127
59472.075907,6439.791695,-3478.967927,10418.898773
59472.076217,7920.203579,-3627.009116,11568.042020
59472.076527,5921.647536,-2442.679609,13483.280765
59472.076836,5625.565159,-1924.535449,10418.898773
59472.077146,4663.297435,-7105.977043,9729.412825
59472.077456,-2072.576638,-6587.832884,4290.134789
59472.077765,-74.020594,-13841.851115,6435.202183
59472.078075,-2738.761985,-16580.613101,2374.896044
59472.078385,-5403.503377,-18061.024985,2911.162892
59472.078695,-9400.615463,-17468.860231,2528.115143
59472.079004,-6957.935855,-14285.974681,3830.477490
59472.079314,-518.144159,-7105.977043,7354.516781
59472.079624,4737.318029,-74.020594,11031.775171
59472.079934,5921.647536,2294.638420,11031.775171
59472.080243,8808.450710,-2368.659014,15858.176809
59472.080553,3775.050304,-888.247130,10801.946522
59472.080863,1184.329507,-4811.338623,11184.994271
59472.081173,-74.020594,-7105.977043,4826.401637
59472.081482,-4515.256246,-9252.574275,3983.696590
59472.081792,-4515.256246,-10510.924376,1991.848295
59472.082102,-2664.741391,-13101.645173,2451.505594
59472.082412,-3552.988522,-14804.118840,2604.724693
59472.082721,-7105.977043,-14285.974681,0.000000
59472.083031,-8290.306550,-15470.304188,0.000000
59472.083341,-1628.453072,-14952.160028,5975.544884
59472.083651,1110.308913,-6217.729913,6052.154434
59472.083960,2516.700203,-2442.679609,9806.022374
59472.084270,7031.956449,0.000000,9729.412825
59472.084580,4071.132681,0.000000,8197.221829
59472.084890,3997.112087,-1480.411884,6052.154434
59472.085199,1480.411884,-3627.009116,4979.620737
59472.085509,-1184.329507,-9622.677246,3677.258390
59472.085819,-4071.132681,-11547.212695,76.609550
59472.086129,-7698.141797,-16580.613101,-2528.115143
59472.086438,-11843.295072,-19023.292709,-3677.258390
59472.086748,-7179.997637,-18949.272115,-1608.800546
59472.087058,-5403.503377,-13619.789333,-1302.362347
59472.087367,-444.123565,-11251.130318,3294.210641
59472.087677,1184.329507,-5699.585753,3217.601092
59472.087987,4663.297435,-4293.194464,5975.544884
59472.088297,7254.018232,-2220.617826,5822.325785
59472.088606,7179.997637,-1184.329507,4979.620737
59472.088916,4071.132681,-4737.318029,3600.648841
59472.089226,-666.185348,-7402.059420,1149.143247
59472.089536,-4145.153275,-9548.656652,0.000000
59472.089845,-370.102971,-13619.789333,-76.609550
59472.090155,-3923.091493,-9548.656652,-4903.011187
59472.090465,-4145.153275,-13397.727550,306.438199
59472.090775,-4145.153275,-11917.315666,-3370.820191
59472.091084,-740.205942,-13101.645173,-1685.410096
59472.091394,0.000000,-13027.624579,-459.657299
59472.091704,-1036.288319,-14359.995275,1378.971896
59472.092014,2294.638420,-10658.965565,2374.896044
59472.092323,4367.215058,-5921.647536,3600.648841
59472.092633,2368.659014,-370.102971,2604.724693
59472.092943,6143.709319,-2368.659014,5286.058936
59472.093253,2590.720797,-1184.329507,2374.896044
59472.093562,1184.329507,-4811.338623,3064.381992
59472.093872,296.082377,-7550.100608,0.000000
59472.094182,-2664.741391,-14952.160028,306.438199
59472.094492,-5255.462188,-18653.189738,-76.609550
59472.094801,-5477.523971,-16876.695478,-1532.190996
59472.095111,-1258.350101,-13027.624579,-76.609550
59472.095421,-74.020594,-11843.295072,4826.401637
59472.095730,2294.638420,-3330.926739,1762.019645
59472.096040,4145.153275,-4811.338623,4903.011187
59472.096350,2886.803174,-8290.306550,7277.907231
59472.096660,-2368.659014,-8364.327145,4903.011187
59472.096969,-962.267725,-11103.089130,5286.058936
59472.097279,0.000000,-7920.203579,5439.278036
59472.097589,-814.226536,-6069.688724,4673.182538
59472.097899,0.000000,-4811.338623,4443.353888
59472.098208,3108.864956,-8290.306550,7201.297681
59472.098518,3478.967927,-11547.212695,8503.660028
59472.098828,-1850.514855,-10658.965565,1149.143247
59472.099138,-6513.812290,-13397.727550,1225.752797
59472.099447,-1554.432478,-14211.954086,4826.401637
59472.099757,0.000000,-8956.491898,4903.011187
59472.100067,-74.020594,-6957.935855,4519.963438
59472.100377,-1628.453072,-6735.874072,4903.011187
59472.100686,962.267725,-8438.347739,6741.640382
59472.100996,1702.473667,-8290.306550,7737.564530
59472.101306,-74.020594,-9474.636058,9422.974625
59472.101616,-666.185348,-9474.636058,7277.907231
59472.101925,-3552.988522,-5995.668130,4903.011187
59472.102235,-74.020594,-10955.047942,8503.660028
59472.102545,-1628.453072,-7105.977043,4826.401637
59472.102855,-3552.988522,-5995.668130,5515.887586
59472.103164,-1406.391290,-7402.059420,4826.401637
59472.103474,1554.432478,-6587.832884,5822.325785
59472.103784,444.123565,-6809.894666,4673.182538
59472.104094,-1998.556043,-9992.780217,5056.230287
59472.104403,-370.102971,-11843.295072,6665.030833
59472.104713,-74.020594,-14211.954086,7277.907231
59472.105023,-3034.844362,-10214.842000,3983.696590
59472.105332,-148.041188,-8956.491898,7354.516781
59472.105642,-1258.350101,-6513.812290,4213.525239
59472.105952,0.000000,-6587.832884,6128.763984
59472.106262,0.000000,-5625.565159,4213.525239
59472.106571,296.082377,-7772.162391,4903.011187
59472.106881,1628.453072,-7254.018232,4519.963438
59472.107191,-518.144159,-7179.997637,3217.601092
59472.107501,-74.020594,-7105.977043,1762.019645
59472.107810,-1258.350101,-9474.636058,-76.609550
59472.108120,-3478.967927,-5403.503377,0.000000
59472.108430,592.164754,-9844.739029,1532.190996
59472.108740,-74.020594,-10658.965565,2374.896044
59472.109049,-2368.659014,-11769.274478,2374.896044
59472.109359,-888.247130,-12139.377449,1762.019645
59472.109669,-1184.329507,-9178.553681,536.266849
59472.109979,-666.185348,-8660.409521,689.485948
59472.110288,222.061783,-6587.832884,0.000000
59472.110598,1110.308913,-6513.812290,-76.609550
59472.110908,-74.020594,-6513.812290,-1915.238745
59472.111218,0.000000,-7772.162391,0.000000
59472.111527,1110.308913,-9474.636058,-1915.238745
59472.111837,-1776.494261,-9548.656652,-4903.011187
59472.112147,0.000000,-11917.315666,-536.266849
59472.112457,-1776.494261,-11177.109724,-3140.991542
59472.112766,-814.226536,-11251.130318,-2298.286494
59472.113076,222.061783,-10140.821405,-2298.286494
59472.113386,2072.576638,-9622.677246,-612.876398
59472.113695,4663.297435,-8290.306550,-76.609550
59472.114005,1998.556043,-9474.636058,-1302.362347
59472.114315,0.000000,-7772.162391,-4596.572988
59472.114625,2294.638420,-11547.212695,-2068.457845
59472.114934,-1480.411884,-10732.986159,-7354.516781
59472.115244,-2368.659014,-10732.986159,-4290.134789
59472.115554,-3552.988522,-10658.965565,-6435.202183
59472.115864,-3330.926739,-11769.274478,-5745.716235
59472.116173,-2220.617826,-9622.677246,-4519.963438
59472.116483,-814.226536,-9104.533087,-3753.867940
59472.116793,2886.803174,-10658.965565,-383.047749
59472.117103,4071.132681,-9474.636058,-76.609550
59472.117412,1110.308913,-8586.388927,-2528.115143
59472.117722,0.000000,-8364.327145,-1838.629195
59472.118032,2294.638420,-11251.130318,-76.609550
59472.118342,0.000000,-8364.327145,-2451.505594
59472.118651,296.082377,-9696.697840,-1532.190996
59472.118961,-1258.350101,-10658.965565,-2221.676944
59472.119271,-2294.638420,-11103.089130,-3140.991542
59472.119581,-1998.556043,-8956.491898,-3524.039291
59472.119890,-814.226536,-11251.130318,-1378.971896
59472.120200,1332.370696,-9474.636058,919.314598
59472.120510,2294.638420,-9474.636058,-76.609550
59472.120820,0.000000,-8364.327145,0.000000
59472.121129,2294.638420,-11769.274478,4213.525239
59472.121439,0.000000,-6291.750507,0.000000
59472.121749,2294.638420,-8290.306550,2374.896044
59472.122059,444.123565,-7328.038826,1838.629195
59472.122368,-666.185348,-9400.615463,1608.800546
59472.122678,-1628.453072,-10881.027347,1378.971896
59472.122988,-1776.494261,-9844.739029,1378.971896
59472.123297,-2368.659014,-9548.656652,2451.505594
59472.123607,-74.020594,-9474.636058,2374.896044
59472.123917,-1702.473667,-4959.379811,306.438199
59472.124227,962.267725,-9844.739029,4826.401637
59472.124536,-666.185348,-7105.977043,1225.752797
59472.124846,1036.288319,-9474.636058,4213.525239
59472.125156,962.267725,-9622.677246,4443.353888
59472.125466,0.000000,-10140.821405,4749.792088
59472.125775,-1036.288319,-9474.636058,4136.915689
59472.126085,-2368.659014,-9548.656652,3677.258390
59472.126395,-2368.659014,-7179.997637,4903.011187
59472.126705,-74.020594,-9474.636058,4826.401637
59472.127014,0.000000,-4811.338623,2757.943793
59472.127324,1110.308913,-8290.306550,6052.154434
59472.127634,-666.185348,-7031.956449,2374.896044
59472.127944,0.000000,-8438.347739,4443.353888
59472.128253,962.267725,-9326.594869,4903.011187
59472.128563,1850.514855,-9326.594869,5286.058936
59472.128873,592.164754,-9622.677246,4596.572988
59472.129183,-1776.494261,-9548.656652,2604.724693
59472.129492,-4737.318029,-10140.821405,2451.505594
59472.129802,-1332.370696,-11621.233289,4903.011187
59472.130112,-1850.514855,-9770.718434,3600.648841
59472.130422,1184.329507,-8512.368333,6741.640382
59472.130731,3478.967927,-5921.647536,4826.401637
59472.131041,0.000000,-6291.750507,4903.011187
59472.131351,444.123565,-6217.729913,3830.477490
59472.131661,370.102971,-7105.977043,2298.286494
59472.131970,0.000000,-9030.512492,2451.505594
59472.132280,-1776.494261,-7846.182985,1225.752797
59472.132590,-3627.009116,-9548.656652,-995.924147
59472.132899,-4737.318029,-11917.315666,612.876398
59472.133209,-1258.350101,-9474.636058,-689.485948
59472.133519,-6439.791695,-10732.986159,0.000000
59472.133829,2886.803174,-9178.553681,2374.896044
59472.134138,0.000000,-7772.162391,919.314598
59472.134448,-296.082377,-8734.430116,1762.019645
59472.134758,444.123565,-6365.771101,919.314598
59472.135068,962.267725,-9030.512492,2068.457845
59472.135377,1702.473667,-7105.977043,229.828649
59472.135687,-74.020594,-7698.141797,-1302.362347
59472.135997,-1776.494261,-8364.327145,0.000000
59472.136307,-74.020594,-11843.295072,-76.609550
59472.136616,-2368.659014,-9548.656652,0.000000
59472.136926,-74.020594,-12731.542202,-76.609550
59472.137236,0.000000,-9548.656652,-1225.752797
59472.137546,370.102971,-9178.553681,-689.485948
59472.137855,1406.391290,-10436.903782,383.047749
59472.138165,1406.391290,-9030.512492,536.266849
59472.138475,2294.638420,-9474.636058,-76.609550
59472.138785,4663.297435,-8290.306550,-76.609550
59472.139094,0.000000,-7179.997637,0.000000
59472.139404,1702.473667,-10510.924376,-689.485948
59472.139714,-4737.318029,-7772.162391,-4903.011187
59472.140024,-1776.494261,-13249.686362,-1838.629195
59472.140333,-3182.885551,-12065.356855,-4290.134789
59472.140643,-2220.617826,-8734.430116,-3983.696590
59472.140953,-2220.617826,-9104.533087,-3524.039291
59472.141262,-444.123565,-9104.533087,-2221.676944
59472.141572,2886.803174,-9474.636058,-76.609550
59472.141882,4663.297435,-11843.295072,-76.609550
59472.142192,296.082377,-7476.080014,-1455.581446
59472.142501,1258.350101,-10288.862594,1149.143247
59472.142811,-2516.700203,-7772.162391,-3600.648841
59472.143121,-1184.329507,-8660.409521,-1225.752797
59472.143431,-2442.679609,-8290.306550,-3753.867940
59472.143740,-1776.494261,-8068.244768,-3524.039291
59472.144050,-666.185348,-8142.265362,-3447.429741
59472.144360,-1110.308913,-11843.295072,-1455.581446
59472.144670,-74.020594,-13027.624579,153.219100
59472.144979,1776.494261,-12731.542202,2221.676944
59472.145289,2294.638420,-9474.636058,1149.143247
59472.145599,1776.494261,-8364.327145,2451.505594
59472.145909,4663.297435,-9474.636058,2374.896044
59472.146218,0.000000,-8660.409521,612.876398
59472.146528,-370.102971,-9178.553681,383.047749
59472.146838,-2146.597232,-8808.450710,-689.485948
59472.147148,-2220.617826,-7920.203579,-306.438199
59472.147457,-1850.514855,-7179.997637,-383.047749
59472.147767,-1628.453072,-9844.739029,2451.505594
59472.148077,1184.329507,-10732.986159,4596.572988
59472.148387,2294.638420,-8882.471304,3294.210641
59472.148696,592.164754,-7179.997637,3064.381992
59472.149006,4071.132681,-8290.306550,3600.648841
59472.149316,0.000000,-5995.668130,1838.629195
59472.149626,148.041188,-10510.924376,2604.724693
59472.149935,-1924.535449,-10288.862594,1225.752797
59472.150245,-3997.112087,-11399.171507,383.047749
59472.150555,-2664.741391,-10584.944971,1225.752797
59472.150864,-2368.659014,-5995.668130,1532.190996
59472.151174,-2368.659014,-6587.832884,2757.943793
59472.151484,2294.638420,-7105.977043,4826.401637
59472.151794,2146.597232,-5329.482782,2374.896044
59472.152103,2368.659014,-8956.491898,6435.202183
59472.152413,1776.494261,-8364.327145,3830.477490
59472.152723,1110.308913,-10214.842000,3600.648841
59472.153033,-962.267725,-11473.192101,2757.943793
59472.153342,-2146.597232,-10732.986159,1915.238745
59472.153652,-3182.885551,-10732.986159,1149.143247
59472.153962,-4145.153275,-8364.327145,1532.190996
59472.154272,-3552.988522,-7179.997637,1838.629195
59472.154581,-74.020594,-10732.986159,4443.353888
59472.154891,814.226536,-7105.977043,2987.772442
59472.155201,0.000000,-7179.997637,4903.011187
59472.155511,2146.597232,-6513.812290,2757.943793
59472.155820,2072.576638,-7402.059420,5209.449386
59472.156130,1628.453072,-8364.327145,4136.915689
59472.156440,-296.082377,-9622.677246,2451.505594
59472.156750,-3552.988522,-9474.636058,229.828649
59472.157059,-7105.977043,-10658.965565,-1455.581446
59472.157369,-6957.935855,-8364.327145,-2757.943793
59472.157679,-4737.318029,-9548.656652,0.000000
59472.157989,-2146.597232,-14211.954086,3600.648841
59472.158298,-1850.514855,-6143.709319,536.266849
59472.158608,1036.288319,-7105.977043,2221.676944
59472.158918,2886.803174,-5403.503377,4290.134789
59472.159227,3775.050304,-4811.338623,3907.087040
59472.159537,3849.070898,-5403.503377,2911.162892
59472.159847,-888.247130,-9104.533087,2374.896044
59472.160157,-1850.514855,-9474.636058,-1302.362347
59472.160466,-4219.173869,-10955.047942,-2681.334243
59472.160776,-4737.318029,-11029.068536,-1532.190996
59472.161086,-3627.009116,-8586.388927,-3753.867940
59472.161396,-3552.988522,-9548.656652,0.000000
59472.161705,2294.638420,-8290.306550,-76.609550
59472.162015,2368.659014,-6661.853478,995.924147
59472.162325,4885.359217,-5921.647536,2987.772442
59472.162635,5033.400406,-7105.977043,2987.772442
59472.162944,3478.967927,-10288.862594,3217.601092
59472.163254,2294.638420,-13323.706956,2374.896044
59472.163564,-666.185348,-9474.636058,-2528.115143
59472.163874,-4145.153275,-9548.656652,-3064.381992
59472.164183,-74.020594,-9474.636058,-1302.362347
59472.164493,-2886.803174,-6587.832884,-4213.525239
59472.164803,-74.020594,-11399.171507,-76.609550
59472.165113,-1998.556043,-11325.150913,-2298.286494
59472.165422,-888.247130,-13915.871710,-612.876398
59472.165732,1406.391290,-11399.171507,153.219100
59472.166042,3034.844362,-8808.450710,612.876398
59472.166352,4663.297435,-7402.059420,1149.143247
59472.166661,3478.967927,-7105.977043,-76.609550
59472.166971,-2368.659014,-5995.668130,-3677.258390
59472.167281,-1554.432478,-14211.954086,-1302.362347
59472.167591,-3627.009116,-10362.883188,-5592.497135
59472.167900,-4145.153275,-12435.459826,-2528.115143
59472.168210,-3108.864956,-10288.862594,-2834.553343
59472.168520,-1776.494261,-7254.018232,-2298.286494
59472.168829,1406.391290,-7179.997637,-536.266849
59472.169139,3182.885551,-7624.121203,0.000000
59472.169449,5181.441594,-10510.924376,2451.505594
59472.169759,4071.132681,-14211.954086,2374.896044
59472.170068,-666.185348,-10955.047942,-1915.238745
59472.170378,-2960.823768,-11029.068536,0.000000
59472.170688,-1258.350101,-9474.636058,-1915.238745
59472.170998,-1480.411884,-7105.977043,-76.609550
59472.171307,-666.185348,-7698.141797,-766.095498
59472.171617,-370.102971,-8364.327145,153.219100
59472.171927,74.020594,-8438.347739,536.266849
59472.172237,1110.308913,-9844.739029,1225.752797
59472.172546,1924.535449,-8512.368333,2451.505594
59472.172856,3997.112087,-9474.636058,4519.963438
59472.173166,1998.556043,-7402.059420,1608.800546
59472.173476,0.000000,-5995.668130,0.000000
59472.173785,-74.020594,-11547.212695,-76.609550
59472.174095,-4145.153275,-11325.150913,0.000000
59472.174405,-3034.844362,-9770.718434,-995.924147
59472.174715,-3701.029710,-10732.986159,-153.219100
59472.175024,-2146.597232,-9696.697840,1608.800546
59472.175334,222.061783,-7179.997637,2374.896044
59472.175644,2368.659014,-5995.668130,3064.381992
59472.175953,3552.988522,-5995.668130,5515.887586
59472.176263,3478.967927,-6513.812290,4213.525239
59472.176573,2294.638420,-8586.388927,2374.896044
59472.176882,296.082377,-9548.656652,4136.915689
59472.177192,-1554.432478,-12879.583391,3294.210641
59472.177502,-4441.235652,-11029.068536,1225.752797
59472.177812,-2442.679609,-11251.130318,-76.609550
59472.178121,-4515.256246,-10807.006753,76.609550
59472.178431,-2738.761985,-9548.656652,229.828649
59472.178741,0.000000,-8364.327145,2451.505594
59472.179050,3775.050304,-9326.594869,6971.469032
59472.179360,4663.297435,-6513.812290,6052.154434
59472.179670,2960.823768,-7179.997637,7967.393179
59472.179979,3478.967927,-8882.471304,4826.401637
59472.180289,0.000000,-9548.656652,3677.258390
59472.180599,-962.267725,-10436.903782,1532.190996
59472.180909,-3108.864956,-10807.006753,1149.143247
59472.181218,-2960.823768,-8956.491898,306.438199
59472.181528,-3182.885551,-9918.759623,-76.609550
59472.181838,-3552.988522,-9548.656652,0.000000
59472.182147,-1184.329507,-9548.656652,3677.258390
59472.182457,2294.638420,-9474.636058,4213.525239
59472.182767,1184.329507,-5995.668130,4903.011187
59472.183076,4663.297435,-8290.306550,7277.907231
59472.183386,814.226536,-5995.668130,3677.258390
59472.183696,1480.411884,-5921.647536,2374.896044
59472.184006,-1998.556043,-8586.388927,459.657299
59472.184315,-3034.844362,-7328.038826,-1225.752797
59472.184625,-5107.421000,-8882.471304,-1302.362347
59472.184935,-5921.647536,-9844.739029,-3294.210641
59472.185244,-5921.647536,-9548.656652,0.000000
59472.185554,-74.020594,-11843.295072,2987.772442
59472.185864,0.000000,-4811.338623,0.000000
59472.186173,4663.297435,-7994.224174,5745.716235
59472.186483,3256.906145,-3923.091493,1838.629195
59472.186793,2664.741391,-6883.915261,2298.286494
59472.187103,1184.329507,-8586.388927,842.705048
59472.187412,-888.247130,-10658.965565,-689.485948
59472.187722,-1850.514855,-11843.295072,-1302.362347
59472.188032,-4515.256246,-9548.656652,-3140.991542
59472.188341,-6513.812290,-9548.656652,-4596.572988
59472.188651,-814.226536,-10658.965565,-76.609550
59472.188961,-1110.308913,-6291.750507,-2451.505594
59472.189270,4441.235652,-9844.739029,2451.505594
59472.189580,2072.576638,-7772.162391,76.609550
59472.189890,2516.700203,-11621.233289,1915.238745
59472.190200,2146.597232,-11103.089130,459.657299
59472.190509,1036.288319,-9548.656652,-919.314598
59472.190819,518.144159,-10362.883188,-1302.362347
59472.191129,-814.226536,-7105.977043,-2528.115143
59472.191438,-4145.153275,-7179.997637,-4903.011187
59472.191748,-2960.823768,-11917.315666,-153.219100
59472.192058,-1258.350101,-9474.636058,-3753.867940
59472.192367,-2368.659014,-9548.656652,0.000000
59472.192677,1110.308913,-7994.224174,-689.485948
59472.192987,1628.453072,-7328.038826,612.876398
59472.193297,2442.679609,-8364.327145,536.266849
59472.193606,1924.535449,-8438.347739,0.000000
59472.193916,1332.370696,-10732.986159,-76.609550
59472.194226,-1258.350101,-13027.624579,-689.485948
59472.194535,-3923.091493,-9474.636058,-4519.963438
59472.194845,-6513.812290,-9548.656652,-4903.011187
59472.195155,-1258.350101,-13027.624579,-1302.362347
59472.195464,-3478.967927,-6291.750507,-3677.258390
59472.195774,1110.308913,-7105.977043,-76.609550
59472.196084,2664.741391,-6291.750507,2757.943793
59472.196394,3552.988522,-7031.956449,2834.553343
59472.196703,3256.906145,-9030.512492,3370.820191
59472.197013,2368.659014,-8364.327145,3370.820191
59472.197323,1702.473667,-9474.636058,2374.896044
59472.197632,-74.020594,-9178.553681,-76.609550
59472.197942,-3404.947333,-7179.997637,0.000000
59472.198252,-1258.350101,-13027.624579,-76.609550
59472.198561,-5033.400406,-9548.656652,-2834.553343
59472.198871,-1258.350101,-12731.542202,1762.019645
59472.199181,74.020594,-10658.965565,2987.772442
59472.199491,3404.947333,-6661.853478,4903.011187
59472.199800,3997.112087,-4219.173869,5209.449386
59472.200110,3552.988522,-2590.720797,3677.258390
59472.200420,4663.297435,-6291.750507,4903.011187
59472.200729,2294.638420,-9474.636058,2374.896044
59472.201039,-3256.906145,-10140.821405,0.000000
59472.201349,-2442.679609,-13027.624579,-1302.362347
59472.201658,-7698.141797,-11029.068536,-2834.553343
59472.201968,-2442.679609,-14211.954086,1149.143247
59472.202278,-1850.514855,-11177.109724,1532.190996
59472.202588,222.061783,-9918.759623,2834.553343
59472.202897,2072.576638,-7698.141797,3983.696590
59472.203207,1480.411884,-5995.668130,2451.505594
59472.203517,4737.318029,-7772.162391,6128.763984
59472.203826,4663.297435,-8290.306550,6052.154434
59472.204136,962.267725,-6587.832884,0.000000
59472.204446,-74.020594,-11843.295072,2374.896044
59472.204755,-3627.009116,-9474.636058,-383.047749
59472.205065,-4737.318029,-12805.562797,919.314598
59472.205375,-4515.256246,-11769.274478,-995.924147
59472.205685,-2886.803174,-9770.718434,306.438199
59472.205994,-592.164754,-9770.718434,2604.724693
59472.206304,444.123565,-6143.709319,1685.410096
59472.206614,0.000000,-6587.832884,3677.258390
59472.206923,2812.782580,-9252.574275,5669.106685
59472.207233,2294.638420,-6809.894666,2374.896044
59472.207543,592.164754,-7772.162391,3983.696590
59472.207852,-1258.350101,-7105.977043,-76.609550
59472.208162,-4737.318029,-6883.915261,0.000000
59472.208472,-4515.256246,-10288.862594,-1915.238745
59472.208782,-4737.318029,-10732.986159,-2298.286494
59472.209091,-3701.029710,-10881.027347,-919.314598
59472.209401,-1554.432478,-9918.759623,-383.047749
59472.209711,0.000000,-7179.997637,1225.752797
59472.210020,2368.659014,-8364.327145,4290.134789
59472.210330,3478.967927,-7698.141797,2374.896044
59472.210640,1184.329507,-5995.668130,2451.505594
59472.210949,3478.967927,-9474.636058,3600.648841
59472.211259,0.000000,-7179.997637,306.438199
59472.211569,-1332.370696,-8882.471304,-842.705048
59472.211879,-4293.194464,-11399.171507,-2451.505594
59472.212188,-3997.112087,-12435.459826,-1532.190996
59472.212498,-74.020594,-10658.965565,-76.609550
59472.212808,-1258.350101,-7698.141797,-689.485948
59472.213117,1184.329507,-5995.668130,1225.752797
59472.213427,6439.791695,-10584.944971,4826.401637
59472.213737,2886.803174,-7254.018232,919.314598
59472.214046,4737.318029,-10732.986159,4903.011187
59472.214356,0.000000,-10140.821405,0.000000
59472.214666,-666.185348,-11029.068536,-842.705048
59472.214976,-1702.473667,-9474.636058,-1991.848295
59472.215285,-3108.864956,-10362.883188,-2145.067394
59472.215595,-1850.514855,-10658.965565,-1302.362347
59472.215905,-1258.350101,-9178.553681,-1915.238745
59472.216214,0.000000,-9548.656652,0.000000
59472.216524,1184.329507,-9548.656652,2757.943793
59472.216834,3478.967927,-9474.636058,1762.019645
59472.217143,0.000000,-5995.668130,0.000000
59472.217453,962.267725,-5995.668130,-612.876398
59472.217763,0.000000,-7476.080014,-612.876398
59472.218073,-1702.473667,-8660.409521,-2374.896044
59472.218382,-3108.864956,-10066.800811,-3677.258390
59472.218692,-2442.679609,-15396.283594,-689.485948
59472.219002,-2442.679609,-11843.295072,-2528.115143
59472.219311,-3256.906145,-9030.512492,-2681.334243
59472.219621,0.000000,-7179.997637,612.876398
59472.219931,2294.638420,-7105.977043,-76.609550
59472.220240,0.000000,-5995.668130,0.000000
59472.220550,3034.844362,-6957.935855,1149.143247
59472.220860,1924.535449,-7846.182985,76.609550
59472.221170,444.123565,-9104.533087,0.000000
59472.221479,-1406.391290,-9178.553681,-1685.410096
59472.221789,-2294.638420,-11547.212695,-76.609550
59472.222099,-3034.844362,-13027.624579,-1302.362347
59472.222408,-3627.009116,-9474.636058,-2528.115143
59472.222718,-2960.823768,-8364.327145,0.000000
59472.223028,3478.967927,-9474.636058,2987.772442
59472.223337,0.000000,-4811.338623,0.000000
59472.223647,3478.967927,-8734.430116,2374.896044
59472.223957,2220.617826,-7920.203579,2451.505594
59472.224267,1480.411884,-8290.306550,1608.800546
59472.224576,592.164754,-8216.285956,919.314598
59472.224886,0.000000,-7476.080014,612.876398
59472.225196,-740.205942,-11399.171507,-76.609550
59472.225505,-3330.926739,-11843.295072,-1302.362347
59472.225815,-4737.318029,-10140.821405,0.000000
59472.226125,-74.020594,-14211.954086,1762.019645
59472.226434,-1776.494261,-7179.997637,229.828649
59472.226744,3478.967927,-9474.636058,4519.963438
59472.227054,2590.720797,-7254.018232,4519.963438
59472.227364,2812.782580,-5551.544565,4213.525239
59472.227673,2516.700203,-6661.853478,3983.696590
59472.227983,0.000000,-5995.668130,3064.381992
59472.228293,592.164754,-8216.285956,2911.162892
59472.228602,-1850.514855,-11251.130318,-76.609550
59472.228912,-7105.977043,-10732.986159,0.000000
59472.229222,-2442.679609,-14211.954086,-76.609550
59472.229531,-3627.009116,-10955.047942,-689.485948
59472.229841,-74.020594,-10658.965565,3600.648841
59472.230151,1406.391290,-7698.141797,3447.429741
59472.230461,3478.967927,-7328.038826,5362.668486
59472.230770,3849.070898,-5551.544565,5209.449386
59472.231080,0.000000,-4811.338623,4903.011187
59472.231390,1184.329507,-7179.997637,3983.696590
59472.231699,962.267725,-9474.636058,4519.963438
59472.232009,-3923.091493,-8364.327145,-1225.752797
59472.232319,-4145.153275,-11325.150913,919.314598
59472.232629,-1258.350101,-11251.130318,-76.609550
59472.232938,-1184.329507,-10510.924376,1838.629195
59472.233248,-296.082377,-8438.347739,1915.238745
59472.233558,148.041188,-8808.450710,2681.334243
59472.233867,1850.514855,-8808.450710,3447.429741
59472.234177,0.000000,-5773.606348,612.876398
59472.234487,0.000000,-7179.997637,1532.190996
59472.234796,444.123565,-7772.162391,2451.505594
59472.235106,-2294.638420,-5477.523971,-2221.676944
59472.235416,-1776.494261,-10881.027347,612.876398
59472.235726,-2442.679609,-14211.954086,-76.609550
59472.236035,-4737.318029,-11325.150913,-1532.190996
59472.236345,-2738.761985,-11547.212695,-689.485948
59472.236655,-444.123565,-9400.615463,1072.533697
59472.236964,814.226536,-7624.121203,1608.800546
59472.237274,1702.473667,-5625.565159,383.047749
59472.237584,666.185348,-4811.338623,612.876398
59472.237893,2960.823768,-8364.327145,2604.724693
59472.238203,0.000000,-7179.997637,0.000000
59472.238513,1702.473667,-12435.459826,-76.609550
59472.238823,-74.020594,-15100.201217,-76.609550
59472.239132,-4145.153275,-11029.068536,-2451.505594
59472.239442,-2294.638420,-9474.636058,-1915.238745
59472.239752,-1332.370696,-8586.388927,-689.485948
59472.240061,1332.370696,-7105.977043,0.000000
59472.240371,3478.967927,-8290.306550,1149.143247
59472.240681,888.247130,-8512.368333,459.657299
59472.240990,592.164754,-9548.656652,0.000000
59472.241300,4071.132681,-11843.295072,-76.609550
59472.241610,0.000000,-6587.832884,0.000000
59472.241920,2072.576638,-8512.368333,-76.609550
59472.242229,-2368.659014,-6587.832884,-2451.505594
59472.242539,-2220.617826,-9252.574275,-2528.115143
59472.242849,-2738.761985,-10881.027347,-2681.334243
59472.243158,-2072.576638,-12657.521608,-1072.533697
59472.243468,-74.020594,-11843.295072,-76.609550
59472.243778,518.144159,-10658.965565,689.485948
59472.244087,0.000000,-6587.832884,0.000000
