#time,accel_x,accel_y,accel_z
59236.941455,-444.123565,-8956.491898,766.095498
59236.941764,-444.123565,-8882.471304,995.924147
59236.942074,-518.144159,-8956.491898,842.705048
59236.942384,518.144159,-9030.512492,-76.609550
59236.942693,-74.020594,-9474.636058,2374.896044
59236.943003,-2368.659014,-7179.997637,0.000000
59236.943313,-74.020594,-10658.965565,2068.457845
59236.943622,-1776.494261,-8216.285956,306.438199
59236.943932,-370.102971,-8364.327145,0.000000
59236.944241,-74.020594,-9474.636058,1532.190996
59236.944551,-74.020594,-9400.615463,1072.533697
59236.944861,-370.102971,-9030.512492,766.095498
59236.945170,-222.061783,-9252.574275,1149.143247
59236.945480,0.000000,-8364.327145,306.438199
59236.945790,0.000000,-8364.327145,1838.629195
59236.946099,2294.638420,-11251.130318,-76.609550
59236.946409,-1776.494261,-7772.162391,0.000000
59236.946719,814.226536,-9474.636058,-76.609550
59236.947028,222.061783,-9178.553681,1762.019645
59236.947338,-666.185348,-8808.450710,306.438199
59236.947648,-592.164754,-9030.512492,1072.533697
59236.947957,-296.082377,-9178.553681,766.095498
59236.948267,-518.144159,-8660.409521,0.000000
59236.948577,-74.020594,-9474.636058,842.705048
59236.948886,-74.020594,-9474.636058,-76.609550
59236.949196,0.000000,-7772.162391,0.000000
59236.949506,-74.020594,-9474.636058,1608.800546
59236.949815,0.000000,-7179.997637,1532.190996
59236.950125,-592.164754,-7772.162391,1225.752797
59236.950434,-222.061783,-9326.594869,1072.533697
59236.950744,-296.082377,-9178.553681,995.924147
59236.951054,-666.185348,-8808.450710,842.705048
59236.951363,-222.061783,-9474.636058,-76.609550
59236.951673,-1628.453072,-8364.327145,0.000000
59236.951983,0.000000,-8660.409521,1225.752797
59236.952292,-74.020594,-9474.636058,-76.609550
59236.952602,-1184.329507,-8364.327145,1225.752797
59236.952912,-74.020594,-7105.977043,-76.609550
59236.953221,-74.020594,-9474.636058,1762.019645
59236.953531,-740.205942,-9178.553681,612.876398
59236.953841,-222.061783,-9104.533087,689.485948
59236.954150,-296.082377,-9030.512492,1072.533697
59236.954460,0.000000,-8364.327145,0.000000
59236.954770,-74.020594,-10658.965565,1762.019645
59236.955079,1702.473667,-10658.965565,1762.019645
59236.955389,-1776.494261,-7772.162391,0.000000
59236.955699,814.226536,-9178.553681,-76.609550
59236.956008,0.000000,-9548.656652,3064.381992
59236.956318,-1184.329507,-7772.162391,153.219100
59236.956627,0.000000,-9252.574275,995.924147
59236.956937,-518.144159,-9030.512492,536.266849
59236.957247,-518.144159,-8956.491898,612.876398
59236.957556,-74.020594,-9474.636058,-76.609550
59236.957866,-2072.576638,-7772.162391,0.000000
59236.958176,0.000000,-8660.409521,766.095498
59236.958485,-74.020594,-8882.471304,536.266849
59236.958795,0.000000,-8364.327145,1225.752797
59236.959105,-74.020594,-8882.471304,-689.485948
59236.959414,-74.020594,-10214.842000,1149.143247
59236.959724,-370.102971,-8956.491898,612.876398
59236.960034,0.000000,-9252.574275,995.924147
59236.960343,-444.123565,-8956.491898,689.485948
59236.960653,-2368.659014,-7772.162391,612.876398
59236.960963,1110.308913,-10658.965565,1915.238745
59236.961272,-74.020594,-9474.636058,1149.143247
59236.961582,-1184.329507,-8364.327145,0.000000
59236.961892,-74.020594,-9474.636058,-76.609550
59236.962201,0.000000,-8364.327145,1225.752797
59236.962511,-1480.411884,-8364.327145,306.438199
59236.962820,-518.144159,-9104.533087,766.095498
59236.963130,-370.102971,-9030.512492,995.924147
59236.963440,-222.061783,-8956.491898,1149.143247
59236.963749,2294.638420,-9474.636058,1762.019645
59236.964059,0.000000,-7179.997637,76.609550
59236.964369,0.000000,-7772.162391,612.876398
59236.964678,2886.803174,-11251.130318,2374.896044
59236.964988,0.000000,-7179.997637,0.000000
59236.965298,3478.967927,-8882.471304,-76.609550
59236.965607,3478.967927,-9474.636058,1762.019645
59236.965917,2590.720797,-8808.450710,1378.971896
59236.966227,2368.659014,-9326.594869,612.876398
59236.966536,2368.659014,-9400.615463,306.438199
59236.966846,1184.329507,-8364.327145,612.876398
59236.967156,4071.132681,-9992.780217,1149.143247
59236.967465,4071.132681,-10362.883188,-76.609550
59236.967775,2368.659014,-9548.656652,1225.752797
59236.968085,4663.297435,-9474.636058,-76.609550
59236.968394,4737.318029,-9548.656652,2757.943793
59236.968704,4737.318029,-7772.162391,612.876398
59236.969013,5329.482782,-8512.368333,1991.848295
59236.969323,4959.379811,-8512.368333,1378.971896
59236.969633,5403.503377,-8734.430116,1072.533697
59236.969942,7624.121203,-9474.636058,1149.143247
59236.970252,5329.482782,-8808.450710,0.000000
59236.970562,5847.626942,-8808.450710,76.609550
59236.970871,6143.709319,-9326.594869,-76.609550
59236.971181,6365.771101,-9844.739029,229.828649
59236.971491,4737.318029,-10732.986159,612.876398
59236.971800,3108.864956,-11917.315666,1149.143247
59236.972110,4663.297435,-14211.954086,-689.485948
59236.972420,0.000000,-11325.150913,0.000000
59236.972729,2294.638420,-11251.130318,-76.609550
59236.973039,3478.967927,-9474.636058,1149.143247
59236.973349,2886.803174,-5995.668130,1072.533697
59236.973658,3404.947333,-3627.009116,0.000000
59236.973968,9400.615463,-6513.812290,4213.525239
59236.974278,5329.482782,-3034.844362,1532.190996
59236.974587,8216.285956,-6365.771101,2298.286494
59236.974897,5699.585753,-8734.430116,1991.848295
59236.975206,370.102971,-12805.562797,-842.705048
59236.975516,-3627.009116,-16062.468941,-2834.553343
59236.975826,-6957.935855,-18727.210333,-3370.820191
59236.976135,-9474.636058,-15618.345376,-2451.505594
59236.976445,-6587.832884,-14137.933492,-1608.800546
59236.976755,-5995.668130,-9252.574275,76.609550
59236.977064,-3108.864956,-5625.565159,2298.286494
59236.977374,518.144159,-3256.906145,4979.620737
59236.977684,4663.297435,0.000000,7277.907231
59236.977993,4515.256246,296.082377,6052.154434
59236.978303,0.000000,-74.020594,3677.258390
59236.978613,-74.020594,-7105.977043,3600.648841
59236.978922,-7179.997637,-9326.594869,-1225.752797
59236.979232,-10362.883188,-12805.562797,-3983.696590
59236.979542,-11473.192101,-16876.695478,-4060.306139
59236.979851,-11399.171507,-15396.283594,-4903.011187
59236.980161,-10510.924376,-15618.345376,-2757.943793
59236.980471,-7846.182985,-12065.356855,-383.047749
59236.980780,-1776.494261,-9474.636058,2374.896044
59236.981090,2442.679609,-9474.636058,7277.907231
59236.981399,1332.370696,-666.185348,3447.429741
59236.981709,4737.318029,-5699.585753,7890.783629
59236.982019,2886.803174,-4589.276840,4826.401637
59236.982328,-1258.350101,-5921.647536,1225.752797
59236.982638,-5329.482782,-8660.409521,306.438199
59236.982948,-6883.915261,-10955.047942,-1991.848295
59236.983257,-7105.977043,-11843.295072,-2451.505594
59236.983567,-6439.791695,-11177.109724,-2528.115143
59236.983877,-3997.112087,-11769.274478,-76.609550
59236.984186,-666.185348,-9474.636058,2374.896044
59236.984496,222.061783,-6291.750507,766.095498
59236.984806,2664.741391,-6291.750507,3064.381992
59236.985115,4663.297435,-7698.141797,3600.648841
59236.985425,4071.132681,-7698.141797,2987.772442
59236.985735,2072.576638,-7328.038826,2298.286494
59236.986044,740.205942,-8068.244768,459.657299
59236.986354,0.000000,-7476.080014,-1072.533697
59236.986664,1184.329507,-6735.874072,-76.609550
59236.986973,1184.329507,-7476.080014,306.438199
59236.987283,2960.823768,-8364.327145,612.876398
59236.987592,7031.956449,-11843.295072,-76.609550
59236.987902,3701.029710,-9844.739029,0.000000
59236.988212,4737.318029,-13841.851115,2221.676944
59236.988521,4663.297435,-13249.686362,2374.896044
59236.988831,1480.411884,-12139.377449,459.657299
59236.989141,1406.391290,-10658.965565,689.485948
59236.989450,148.041188,-8734.430116,536.266849
59236.989760,-444.123565,-7254.018232,0.000000
59236.990070,0.000000,-5995.668130,0.000000
59236.990379,0.000000,-4811.338623,0.000000
59236.990689,4663.297435,-8290.306550,2374.896044
59236.990999,2368.659014,-5107.421000,306.438199
59236.991308,4441.235652,-8660.409521,2451.505594
59236.991618,2072.576638,-9474.636058,1762.019645
59236.991928,-1258.350101,-11695.253884,-1378.971896
59236.992237,-4145.153275,-13915.871710,-2221.676944
59236.992547,-3997.112087,-13989.892304,-1991.848295
59236.992857,-3923.091493,-12509.480420,-2145.067394
59236.993166,-4737.318029,-8660.409521,-1225.752797
59236.993476,-3182.885551,-5995.668130,-1838.629195
59236.993785,1776.494261,-6587.832884,3677.258390
59236.994095,4663.297435,-4441.235652,4213.525239
59236.994405,5033.400406,-3923.091493,5056.230287
59236.994714,4145.153275,-6143.709319,4749.792088
59236.995024,1258.350101,-8290.306550,1991.848295
59236.995334,-2960.823768,-10881.027347,-536.266849
59236.995643,-7772.162391,-14285.974681,-1915.238745
59236.995953,-8142.265362,-13693.809927,-4443.353888
59236.996263,-7179.997637,-12731.542202,-4596.572988
59236.996572,-8364.327145,-9622.677246,-3524.039291
59236.996882,-5921.647536,-8364.327145,0.000000
59236.997192,-74.020594,-8290.306550,4213.525239
59236.997501,1406.391290,-4589.276840,4826.401637
59236.997811,2368.659014,-4219.173869,6128.763984
59236.998121,3478.967927,-4071.132681,5286.058936
59236.998430,1554.432478,-4663.297435,3600.648841
59236.998740,-1554.432478,-7550.100608,1685.410096
59236.999050,-4515.256246,-9770.718434,-76.609550
59236.999359,-3627.009116,-11843.295072,-1302.362347
59236.999669,-3627.009116,-12435.459826,-2528.115143
59236.999978,-5921.647536,-10140.821405,-3064.381992
59237.000288,-1406.391290,-12435.459826,1455.581446
59237.000598,962.267725,-10510.924376,1762.019645
59237.000907,1184.329507,-7179.997637,1225.752797
59237.001217,3478.967927,-9104.533087,3294.210641
59237.001527,2442.679609,-8808.450710,3600.648841
59237.001836,1110.308913,-9252.574275,2757.943793
59237.002146,518.144159,-9474.636058,3907.087040
59237.002456,-74.020594,-9474.636058,2145.067394
59237.002765,-74.020594,-8882.471304,-76.609550
59237.003075,-2368.659014,-4811.338623,-1532.190996
59237.003385,1332.370696,-7846.182985,2374.896044
59237.003694,1628.453072,-8068.244768,306.438199
59237.004004,592.164754,-7179.997637,0.000000
59237.004314,1924.535449,-10436.903782,1455.581446
59237.004623,1406.391290,-10288.862594,612.876398
59237.004933,-1036.288319,-11843.295072,0.000000
59237.005243,-370.102971,-13619.789333,1149.143247
59237.005552,-592.164754,-11843.295072,0.000000
59237.005862,-74.020594,-11843.295072,-76.609550
59237.006171,-1258.350101,-6957.935855,-1302.362347
59237.006481,592.164754,-6587.832884,1149.143247
59237.006791,3330.926739,-4811.338623,0.000000
59237.007100,4663.297435,-4737.318029,2374.896044
59237.007410,5921.647536,-5181.441594,2911.162892
59237.007720,5921.647536,-6883.915261,2834.553343
59237.008029,3256.906145,-9474.636058,1455.581446
59237.008339,740.205942,-12953.603985,919.314598
59237.008649,-3552.988522,-14878.139434,-2451.505594
59237.008958,-2442.679609,-16580.613101,-1302.362347
59237.009268,-7105.977043,-11917.315666,-3983.696590
59237.009578,-4367.215058,-11843.295072,-76.609550
59237.009887,-3034.844362,-7179.997637,-2528.115143
59237.010197,1702.473667,-7105.977043,1762.019645
59237.010507,3256.906145,-4515.256246,3447.429741
59237.010816,5255.462188,-3627.009116,4596.572988
59237.011126,4959.379811,-3849.070898,4060.306139
59237.011436,2368.659014,-4811.338623,3064.381992
59237.011745,-2368.659014,-7179.997637,1225.752797
59237.012055,-2664.741391,-13619.789333,-76.609550
59237.012365,-5995.668130,-11843.295072,-4213.525239
59237.012675,-4589.276840,-14137.933492,-2451.505594
59237.012984,-4515.256246,-10732.986159,-4979.620737
59237.013294,-3256.906145,-10732.986159,-1991.848295
59237.013604,1110.308913,-11251.130318,1149.143247
59237.013913,1998.556043,-8068.244768,2528.115143
59237.014223,2664.741391,-7402.059420,3677.258390
59237.014533,2368.659014,-6735.874072,5056.230287
59237.014842,0.000000,-7179.997637,3983.696590
59237.015152,-74.020594,-9474.636058,5056.230287
59237.015462,-2442.679609,-7994.224174,-76.609550
59237.015772,-5921.647536,-7179.997637,0.000000
59237.016081,-3034.844362,-9474.636058,-76.609550
59237.016391,-2442.679609,-9474.636058,-1378.971896
59237.016701,-2590.720797,-9548.656652,76.609550
59237.017010,-740.205942,-10140.821405,995.924147
59237.017320,0.000000,-9474.636058,1302.362347
59237.017630,0.000000,-9474.636058,1838.629195
59237.017939,-2072.576638,-9548.656652,2451.505594
59237.018249,-2368.659014,-9548.656652,1225.752797
59237.018559,-74.020594,-11843.295072,2987.772442
59237.018868,-2960.823768,-7179.997637,0.000000
59237.019178,-444.123565,-7920.203579,1685.410096
59237.019488,1110.308913,-7476.080014,1762.019645
59237.019798,814.226536,-5625.565159,1072.533697
59237.020107,2738.761985,-6809.894666,2145.067394
59237.020417,3256.906145,-8142.265362,1762.019645
59237.020727,2886.803174,-9548.656652,612.876398
59237.021036,0.000000,-9548.656652,919.314598
59237.021346,-1110.308913,-13101.645173,1225.752797
59237.021656,-666.185348,-15396.283594,-76.609550
59237.021965,-4737.318029,-11917.315666,-2451.505594
59237.022275,-2442.679609,-12287.418637,-536.266849
59237.022585,-2368.659014,-10658.965565,1915.238745
59237.022895,-740.205942,-7105.977043,229.828649
59237.023204,1850.514855,-5477.523971,2068.457845
59237.023514,4663.297435,-4663.297435,3983.696590
59237.023824,5847.626942,-4219.173869,2451.505594
59237.024133,3775.050304,-3256.906145,2451.505594
59237.024443,0.000000,-5995.668130,0.000000
59237.024753,0.000000,-11325.150913,306.438199
59237.025062,-3034.844362,-13027.624579,-2834.553343
59237.025372,-4737.318029,-13397.727550,-3064.381992
59237.025682,-3997.112087,-14211.954086,-1685.410096
59237.025991,-2442.679609,-11843.295072,-2221.676944
59237.026301,-1110.308913,-9622.677246,-1225.752797
59237.026611,1924.535449,-8512.368333,1149.143247
59237.026921,4737.318029,-5403.503377,1762.019645
59237.027230,5847.626942,-4737.318029,2451.505594
59237.027540,2886.803174,-3627.009116,1685.410096
59237.027850,1776.494261,-7772.162391,3677.258390
59237.028159,-74.020594,-9474.636058,1149.143247
59237.028469,-3256.906145,-9844.739029,536.266849
59237.028779,-4589.276840,-10732.986159,0.000000
59237.029088,-3997.112087,-11325.150913,-1455.581446
59237.029398,-4145.153275,-10288.862594,-1685.410096
59237.029708,-2072.576638,-10436.903782,0.000000
59237.030018,-296.082377,-8882.471304,842.705048
59237.030327,2294.638420,-8290.306550,-76.609550
59237.030637,1702.473667,-6809.894666,1149.143247
59237.030947,0.000000,-7179.997637,1838.629195
59237.031256,-74.020594,-9178.553681,2374.896044
59237.031566,-3775.050304,-8142.265362,1532.190996
59237.031876,-4145.153275,-7179.997637,612.876398
59237.032185,-2960.823768,-8882.471304,612.876398
59237.032495,-2442.679609,-7994.224174,153.219100
59237.032805,-888.247130,-7402.059420,459.657299
59237.033114,814.226536,-8882.471304,2374.896044
59237.033424,3478.967927,-9474.636058,2298.286494
59237.033734,3478.967927,-10658.965565,2987.772442
59237.034044,0.000000,-8808.450710,612.876398
59237.034353,-1184.329507,-11917.315666,2757.943793
59237.034663,-2146.597232,-12435.459826,459.657299
59237.034973,-4737.318029,-9696.697840,-1225.752797
59237.035282,-4071.132681,-10584.944971,0.000000
59237.035592,-2886.803174,-8438.347739,612.876398
59237.035902,-1924.535449,-7105.977043,689.485948
59237.036211,518.144159,-7698.141797,3600.648841
59237.036521,3478.967927,-6513.812290,2604.724693
59237.036831,4663.297435,-6513.812290,3600.648841
59237.037140,2368.659014,-5995.668130,2757.943793
59237.037450,2294.638420,-9474.636058,1762.019645
59237.037760,-2368.659014,-9548.656652,0.000000
59237.038070,-3627.009116,-12287.418637,-2604.724693
59237.038379,-4441.235652,-12805.562797,-2451.505594
59237.038689,-3701.029710,-12213.398043,-2298.286494
59237.038999,-2960.823768,-10732.986159,-2068.457845
59237.039308,962.267725,-9770.718434,612.876398
59237.039618,2368.659014,-8068.244768,995.924147
59237.039928,7031.956449,-8290.306550,4519.963438
59237.040237,4811.338623,-4811.338623,2374.896044
59237.040547,4737.318029,-7328.038826,4903.011187
59237.040857,3478.967927,-8660.409521,995.924147
59237.041167,-74.020594,-10362.883188,-76.609550
59237.041476,-2294.638420,-11399.171507,0.000000
59237.041786,-2960.823768,-11621.233289,-1455.581446
59237.042096,-3552.988522,-10955.047942,-1915.238745
59237.042405,-2960.823768,-9548.656652,-1225.752797
59237.042715,-2368.659014,-9252.574275,-689.485948
59237.043025,0.000000,-8364.327145,1838.629195
59237.043334,4663.297435,-8290.306550,2374.896044
59237.043644,2294.638420,-5403.503377,0.000000
59237.043954,2368.659014,-6217.729913,2068.457845
59237.044263,2294.638420,-9474.636058,2374.896044
59237.044573,-1776.494261,-9474.636058,306.438199
59237.044883,-2664.741391,-10214.842000,-842.705048
59237.045193,-2960.823768,-10214.842000,-1378.971896
59237.045502,-3552.988522,-8364.327145,0.000000
59237.045812,-1776.494261,-7994.224174,536.266849
59237.046122,0.000000,-7179.997637,612.876398
59237.046431,4071.132681,-9474.636058,2987.772442
59237.046741,2294.638420,-6439.791695,76.609550
59237.047051,1776.494261,-9178.553681,2834.553343
59237.047360,2294.638420,-11843.295072,2681.334243
59237.047670,-1776.494261,-11325.150913,306.438199
59237.047980,-3775.050304,-11251.130318,0.000000
59237.048290,-4145.153275,-10362.883188,0.000000
59237.048599,-5329.482782,-7772.162391,-995.924147
59237.048909,-4145.153275,-5773.606348,-76.609550
59237.049219,-1776.494261,-6587.832884,2451.505594
59237.049528,2294.638420,-7105.977043,2374.896044
59237.049838,1184.329507,-4811.338623,0.000000
59237.050148,3404.947333,-8882.471304,4519.963438
59237.050457,2072.576638,-9104.533087,3064.381992
59237.050767,-444.123565,-9770.718434,1072.533697
59237.051077,-3330.926739,-11621.233289,-536.266849
59237.051386,-4441.235652,-12213.398043,-1302.362347
59237.051696,-5033.400406,-10732.986159,-1915.238745
59237.052006,-3182.885551,-10510.924376,-459.657299
59237.052316,-2960.823768,-7179.997637,-1532.190996
59237.052625,592.164754,-7772.162391,2451.505594
59237.052935,4367.215058,-7105.977043,3600.648841
59237.053245,4959.379811,-7179.997637,5669.106685
59237.053554,3552.988522,-6587.832884,4903.011187
59237.053864,2812.782580,-9104.533087,3294.210641
59237.054174,-370.102971,-10214.842000,1532.190996
59237.054483,-2738.761985,-11325.150913,0.000000
59237.054793,-3034.844362,-11843.295072,-1302.362347
59237.055103,-2442.679609,-13027.624579,-76.609550
59237.055412,-5403.503377,-8364.327145,-3294.210641
59237.055722,-2368.659014,-8956.491898,0.000000
59237.056032,3478.967927,-10955.047942,3294.210641
59237.056342,3552.988522,-7846.182985,3983.696590
59237.056651,2368.659014,-5995.668130,2451.505594
59237.056961,2664.741391,-7698.141797,2681.334243
59237.057271,888.247130,-8364.327145,1838.629195
59237.057580,-1110.308913,-9918.759623,689.485948
59237.057890,-1258.350101,-11843.295072,-383.047749
59237.058200,-2664.741391,-9844.739029,-1532.190996
59237.058509,-2442.679609,-9474.636058,-1915.238745
59237.058819,-2960.823768,-7772.162391,-1225.752797
59237.059129,2294.638420,-9474.636058,-76.609550
59237.059439,1184.329507,-5995.668130,612.876398
59237.059748,2368.659014,-6587.832884,995.924147
59237.060058,3923.091493,-8438.347739,2451.505594
59237.060368,1702.473667,-9844.739029,1762.019645
59237.060677,-518.144159,-11103.089130,459.657299
59237.060987,-1554.432478,-13027.624579,842.705048
59237.061297,-3849.070898,-11029.068536,-1608.800546
59237.061606,-2442.679609,-11547.212695,-689.485948
59237.061916,-4737.318029,-7772.162391,0.000000
59237.062226,-74.020594,-10658.965565,3294.210641
59237.062535,0.000000,-5995.668130,0.000000
59237.062845,2590.720797,-5921.647536,2374.896044
59237.063155,3552.988522,-6069.688724,3294.210641
59237.063465,3034.844362,-6883.915261,2451.505594
59237.063774,666.185348,-8290.306550,1149.143247
59237.064084,-1184.329507,-10140.821405,612.876398
59237.064394,-4737.318029,-10732.986159,0.000000
59237.064703,-1554.432478,-14211.954086,-383.047749
59237.065013,-3997.112087,-10140.821405,-2911.162892
59237.065323,-2368.659014,-9548.656652,0.000000
59237.065632,-1184.329507,-7476.080014,-1532.190996
59237.065942,2886.803174,-7698.141797,1762.019645
59237.066252,3034.844362,-6957.935855,2987.772442
59237.066562,4219.173869,-7179.997637,3830.477490
59237.066871,2442.679609,-8142.265362,3140.991542
59237.067181,0.000000,-8512.368333,1225.752797
59237.067491,-4737.318029,-9548.656652,0.000000
59237.067800,-1258.350101,-12731.542202,1455.581446
59237.068110,-3923.091493,-9178.553681,-1685.410096
59237.068420,-2368.659014,-10140.821405,1225.752797
59237.068729,-1258.350101,-8290.306550,-1302.362347
59237.069039,1110.308913,-9326.594869,1762.019645
59237.069349,1554.432478,-7772.162391,2298.286494
59237.069658,2590.720797,-7550.100608,2987.772442
59237.069968,1702.473667,-7994.224174,2911.162892
59237.070278,-1480.411884,-7772.162391,306.438199
59237.070588,-2886.803174,-8068.244768,-1072.533697
59237.070897,-4145.153275,-10140.821405,0.000000
59237.071207,-1406.391290,-11251.130318,-76.609550
59237.071517,-4737.318029,-7179.997637,0.000000
59237.071826,-74.020594,-8882.471304,-76.609550
59237.072136,1110.308913,-8364.327145,1532.190996
59237.072446,2294.638420,-7772.162391,1762.019645
59237.072755,3108.864956,-7402.059420,2145.067394
59237.073065,3182.885551,-8660.409521,2374.896044
59237.073375,592.164754,-8734.430116,1149.143247
59237.073685,-74.020594,-12287.418637,842.705048
59237.073994,-4145.153275,-11029.068536,-1608.800546
59237.074304,-4145.153275,-12213.398043,306.438199
59237.074614,-1258.350101,-11843.295072,-1302.362347
59237.074923,-1850.514855,-10658.965565,-76.609550
59237.075233,-1184.329507,-7624.121203,919.314598
59237.075543,814.226536,-6735.874072,1915.238745
59237.075852,2590.720797,-6069.688724,2604.724693
59237.076162,3923.091493,-5847.626942,3370.820191
59237.076472,4071.132681,-6513.812290,2374.896044
59237.076781,2294.638420,-9474.636058,2068.457845
59237.077091,-3849.070898,-9548.656652,-1838.629195
59237.077401,-2664.741391,-13323.706956,-76.609550
59237.077711,-6513.812290,-10732.986159,-4903.011187
59237.078020,-1924.535449,-13767.830521,-383.047749
59237.078330,-2368.659014,-9844.739029,-1225.752797
59237.078640,222.061783,-8808.450710,459.657299
59237.078949,2442.679609,-7328.038826,1915.238745
59237.079259,4145.153275,-6809.894666,3064.381992
59237.079569,5847.626942,-7698.141797,3983.696590
59237.079878,3775.050304,-7179.997637,3524.039291
59237.080188,1110.308913,-8586.388927,1455.581446
59237.080498,-2368.659014,-9548.656652,0.000000
59237.080807,-74.020594,-13915.871710,-76.609550
59237.081117,-3552.988522,-10732.986159,0.000000
59237.081427,-4737.318029,-9548.656652,-2145.067394
59237.081737,-2442.679609,-9548.656652,-766.095498
59237.082046,-962.267725,-8882.471304,76.609550
59237.082356,1110.308913,-8290.306550,1455.581446
59237.082666,4071.132681,-8882.471304,2987.772442
59237.082975,3775.050304,-9178.553681,4136.915689
59237.083285,2886.803174,-8882.471304,2987.772442
59237.083595,-1776.494261,-7772.162391,0.000000
59237.083904,-74.020594,-13027.624579,2987.772442
59237.084214,-4145.153275,-8364.327145,153.219100
59237.084524,-3552.988522,-7846.182985,-1455.581446
59237.084834,-2146.597232,-8438.347739,-536.266849
59237.085143,-370.102971,-8216.285956,-76.609550
59237.085453,1110.308913,-8216.285956,1149.143247
59237.085763,3627.009116,-8364.327145,2145.067394
59237.086072,2738.761985,-8438.347739,1838.629195
59237.086382,3034.844362,-11103.089130,2987.772442
59237.086692,-518.144159,-9104.533087,-1608.800546
59237.087001,-3552.988522,-11917.315666,1225.752797
59237.087311,-5921.647536,-9844.739029,0.000000
59237.087621,-3627.009116,-9918.759623,-766.095498
59237.087930,-3256.906145,-8660.409521,76.609550
59237.088240,-1628.453072,-7476.080014,1225.752797
59237.088550,222.061783,-6587.832884,2068.457845
59237.088860,2072.576638,-5403.503377,3064.381992
59237.089169,3108.864956,-5477.523971,3064.381992
59237.089479,3775.050304,-7994.224174,3600.648841
59237.089789,1110.308913,-8290.306550,-76.609550
59237.090098,-4737.318029,-9548.656652,0.000000
59237.090408,-4737.318029,-10732.986159,-3983.696590
59237.090718,-3627.009116,-13027.624579,-2068.457845
59237.091027,-4293.194464,-11917.315666,-2145.067394
59237.091337,-2812.782580,-10066.800811,-1378.971896
59237.091647,-518.144159,-8734.430116,229.828649
59237.091957,592.164754,-6809.894666,2374.896044
59237.092266,4367.215058,-6587.832884,3447.429741
59237.092576,4145.153275,-6291.750507,4290.134789
59237.092886,5847.626942,-9474.636058,4826.401637
59237.093195,0.000000,-5995.668130,306.438199
59237.093505,-370.102971,-9918.759623,-995.924147
59237.093815,-1850.514855,-11843.295072,-76.609550
59237.094124,-3627.009116,-11251.130318,-2068.457845
59237.094434,-3849.070898,-10807.006753,-1838.629195
59237.094744,-3108.864956,-9918.759623,-1225.752797
59237.095053,-2812.782580,-8512.368333,76.609550
59237.095363,-1184.329507,-6587.832884,0.000000
59237.095673,1776.494261,-7179.997637,3064.381992
59237.095983,4663.297435,-9474.636058,6052.154434
59237.096292,1258.350101,-5477.523971,1072.533697
59237.096602,1110.308913,-9178.553681,1149.143247
59237.096912,-74.020594,-10658.965565,1762.019645
59237.097221,-2072.576638,-9844.739029,0.000000
59237.097531,-2960.823768,-9844.739029,-1149.143247
59237.097841,-2812.782580,-8882.471304,-1225.752797
59237.098150,-666.185348,-7846.182985,536.266849
59237.098460,222.061783,-6957.935855,-689.485948
59237.098770,592.164754,-7772.162391,1225.752797
59237.099080,4589.276840,-11621.233289,5439.278036
59237.099389,2294.638420,-9474.636058,536.266849
59237.099699,2294.638420,-11843.295072,2374.896044
59237.100009,-1184.329507,-11621.233289,1302.362347
59237.100318,-2442.679609,-11177.109724,995.924147
59237.100628,-2886.803174,-10288.862594,536.266849
59237.100938,-2442.679609,-8956.491898,536.266849
59237.101247,-666.185348,-7846.182985,1685.410096
59237.101557,296.082377,-7105.977043,1685.410096
59237.101867,592.164754,-5329.482782,1685.410096
59237.102176,4145.153275,-8660.409521,5515.887586
59237.102486,3478.967927,-8290.306550,2374.896044
59237.102796,1406.391290,-10658.965565,3294.210641
59237.103106,-2368.659014,-10436.903782,0.000000
59237.103415,-3849.070898,-12139.377449,-1378.971896
59237.103725,-4589.276840,-12583.501014,-2145.067394
59237.104035,-3330.926739,-11547.212695,-1532.190996
59237.104344,-962.267725,-9770.718434,-766.095498
59237.104654,-74.020594,-9474.636058,-76.609550
59237.104964,148.041188,-5181.441594,766.095498
59237.105273,2960.823768,-5403.503377,4903.011187
59237.105583,7031.956449,-7105.977043,4826.401637
59237.105893,4293.194464,-8660.409521,5515.887586
59237.106202,444.123565,-7772.162391,1225.752797
59237.106512,-1554.432478,-11177.109724,306.438199
59237.106822,-3330.926739,-12065.356855,-689.485948
59237.107132,-4441.235652,-11769.274478,-1838.629195
59237.107441,-4145.153275,-10881.027347,-3064.381992
59237.107751,-2664.741391,-11029.068536,-612.876398
59237.108061,-370.102971,-8882.471304,-76.609550
59237.108370,0.000000,-4811.338623,0.000000
59237.108680,4145.153275,-8364.327145,4443.353888
59237.108990,3552.988522,-5995.668130,4290.134789
59237.109300,1998.556043,-6439.791695,1915.238745
59237.109610,814.226536,-8512.368333,2221.676944
59237.109920,-1258.350101,-10214.842000,842.705048
59237.110230,-2664.741391,-10732.986159,-612.876398
59237.110539,-3330.926739,-10214.842000,-1532.190996
59237.110849,-2664.741391,-10732.986159,-459.657299
59237.111159,-370.102971,-9474.636058,-76.609550
59237.111469,-3256.906145,-5403.503377,0.000000
59237.111779,2368.659014,-8364.327145,2451.505594
59237.112089,2368.659014,-5995.668130,1838.629195
59237.112399,2812.782580,-8438.347739,2221.676944
59237.112709,0.000000,-8956.491898,1225.752797
59237.113019,-1776.494261,-10807.006753,1072.533697
59237.113328,-3108.864956,-11029.068536,229.828649
59237.113638,-3849.070898,-9252.574275,-689.485948
59237.113948,-4441.235652,-8660.409521,0.000000
59237.114258,-1850.514855,-9178.553681,2987.772442
59237.114568,-74.020594,-8290.306550,-76.609550
59237.114878,148.041188,-5847.626942,1225.752797
59237.115188,0.000000,-4811.338623,1532.190996
59237.115498,3478.967927,-7105.977043,2987.772442
59237.115808,1184.329507,-7846.182985,1225.752797
59237.116117,-444.123565,-9770.718434,612.876398
59237.116427,-4737.318029,-10140.821405,-1838.629195
59237.116737,-4145.153275,-11843.295072,-1302.362347
59237.117047,-4737.318029,-10732.986159,-2451.505594
59237.117357,-2664.741391,-11177.109724,-76.609550
59237.117667,-74.020594,-7698.141797,-1302.362347
59237.117977,0.000000,-6587.832884,1838.629195
59237.118287,2886.803174,-5033.400406,1455.581446
59237.118597,5847.626942,-7105.977043,4826.401637
59237.118907,4811.338623,-6883.915261,3753.867940
59237.119216,2590.720797,-8142.265362,2681.334243
59237.119526,-222.061783,-10362.883188,1225.752797
59237.119836,-2442.679609,-13027.624579,-76.609550
59237.120146,-4737.318029,-10436.903782,-2451.505594
59237.120456,-4737.318029,-11325.150913,-306.438199
59237.120766,-2442.679609,-9474.636058,-2528.115143
59237.121076,-4441.235652,-7179.997637,-2145.067394
59237.121386,-74.020594,-8290.306550,-383.047749
59237.121696,2664.741391,-7328.038826,2451.505594
59237.122005,4145.153275,-7031.956449,3983.696590
59237.122315,3552.988522,-7031.956449,3600.648841
59237.122625,1184.329507,-7846.182985,2145.067394
59237.122935,-74.020594,-11251.130318,2374.896044
59237.123245,-1924.535449,-10584.944971,0.000000
59237.123555,-4145.153275,-9548.656652,0.000000
59237.123865,-74.020594,-11843.295072,-689.485948
59237.124175,-4145.153275,-7476.080014,-2451.505594
59237.124485,2294.638420,-9474.636058,-76.609550
59237.124795,2368.659014,-8142.265362,1685.410096
59237.125104,3034.844362,-8142.265362,2145.067394
59237.125414,2812.782580,-8882.471304,1915.238745
59237.125724,1110.308913,-9770.718434,1762.019645
59237.126034,-370.102971,-10955.047942,2298.286494
59237.126344,-2442.679609,-11843.295072,-76.609550
59237.126654,-3701.029710,-10732.986159,0.000000
59237.126964,-3182.885551,-8882.471304,-383.047749
59237.127274,-2664.741391,-8068.244768,1225.752797
59237.127584,-74.020594,-9474.636058,2374.896044
59237.127893,0.000000,-5995.668130,2451.505594
59237.128203,2590.720797,-7328.038826,3294.210641
59237.128513,2442.679609,-7105.977043,2221.676944
59237.128823,1480.411884,-7920.203579,1532.190996
59237.129133,-74.020594,-10658.965565,1762.019645
59237.129443,-2738.761985,-11103.089130,-2221.676944
59237.129753,-4737.318029,-11917.315666,-2451.505594
59237.130063,-1258.350101,-13619.789333,-1302.362347
59237.130373,-4737.318029,-9548.656652,-2451.505594
59237.130683,-74.020594,-10658.965565,1762.019645
59237.130992,0.000000,-7179.997637,919.314598
59237.131302,2516.700203,-6735.874072,2757.943793
59237.131612,4885.359217,-5921.647536,3983.696590
59237.131922,4663.297435,-6957.935855,3600.648841
59237.132232,3552.988522,-8068.244768,4136.915689
59237.132542,1406.391290,-11251.130318,2068.457845
59237.132852,-3256.906145,-10140.821405,0.000000
59237.133162,-1258.350101,-14211.954086,-76.609550
59237.133472,-5403.503377,-10362.883188,-3140.991542
59237.133781,-3478.967927,-11843.295072,-689.485948
59237.134091,-2960.823768,-8956.491898,-1072.533697
59237.134401,222.061783,-8364.327145,1072.533697
59237.134711,2886.803174,-7476.080014,2987.772442
59237.135021,4145.153275,-6217.729913,3830.477490
59237.135331,2960.823768,-5995.668130,3677.258390
59237.135641,2072.576638,-7328.038826,2911.162892
59237.135951,-74.020594,-9474.636058,-76.609550
59237.136261,-2368.659014,-9548.656652,612.876398
59237.136570,-1258.350101,-11843.295072,-689.485948
59237.136880,-2960.823768,-10955.047942,-153.219100
59237.137190,-2368.659014,-9474.636058,-1378.971896
59237.137500,-1184.329507,-8512.368333,-842.705048
59237.137810,1406.391290,-7920.203579,612.876398
59237.138120,2590.720797,-8216.285956,1915.238745
59237.138430,1184.329507,-6291.750507,0.000000
59237.138740,1480.411884,-9548.656652,2451.505594
59237.139050,1702.473667,-13619.789333,3600.648841
59237.139360,-3997.112087,-8660.409521,-1225.752797
59237.139669,-2960.823768,-11177.109724,1225.752797
59237.139979,-4071.132681,-8956.491898,919.314598
59237.140289,-2442.679609,-8290.306550,153.219100
59237.140599,-1850.514855,-7624.121203,689.485948
59237.140909,-296.082377,-6809.894666,1378.971896
59237.141219,1702.473667,-7254.018232,2145.067394
59237.141529,1776.494261,-5699.585753,0.000000
59237.141839,740.205942,-6735.874072,1225.752797
59237.142149,1628.453072,-11547.212695,3600.648841
59237.142458,-3034.844362,-9178.553681,-2221.676944
59237.142768,-4441.235652,-12213.398043,-919.314598
59237.143078,-5033.400406,-11029.068536,-1225.752797
59237.143388,-2738.761985,-11695.253884,-995.924147
59237.143698,-1628.453072,-9400.615463,-76.609550
59237.144008,296.082377,-7772.162391,1072.533697
59237.144318,2886.803174,-6661.853478,2911.162892
59237.144628,4663.297435,-5921.647536,2374.896044
59237.144938,3552.988522,-5403.503377,2757.943793
59237.145248,4663.297435,-10658.965565,5898.935335
59237.145557,-666.185348,-8586.388927,76.609550
59237.145867,-2368.659014,-11547.212695,766.095498
59237.146177,-4515.256246,-11177.109724,-1532.190996
59237.146487,-3923.091493,-11991.336260,-1685.410096
59237.146797,-4367.215058,-10584.944971,-1762.019645
59237.147107,-2590.720797,-9104.533087,-919.314598
59237.147417,0.000000,-7624.121203,1072.533697
59237.147727,3478.967927,-7698.141797,3600.648841
59237.148037,2812.782580,-5551.544565,2528.115143
59237.148346,1184.329507,-4811.338623,2451.505594
59237.148656,4663.297435,-9474.636058,3600.648841
59237.148966,-1776.494261,-7772.162391,153.219100
59237.149276,-1554.432478,-10362.883188,-1838.629195
59237.149586,-2590.720797,-11177.109724,-383.047749
59237.149896,-2664.741391,-10362.883188,-1149.143247
59237.150206,-2220.617826,-9844.739029,-995.924147
59237.150516,-370.102971,-8734.430116,229.828649
59237.150826,3330.926739,-9474.636058,3600.648841
59237.151135,2886.803174,-7402.059420,1762.019645
59237.151445,592.164754,-5995.668130,306.438199
59237.151755,3552.988522,-10436.903782,3907.087040
59237.152065,1110.308913,-11103.089130,1762.019645
59237.152375,-1258.350101,-11251.130318,0.000000
59237.152685,-3404.947333,-10955.047942,306.438199
59237.152995,-3108.864956,-9844.739029,0.000000
59237.153305,-2664.741391,-8438.347739,0.000000
59237.153615,-1776.494261,-7624.121203,2374.896044
59237.153925,1258.350101,-8734.430116,3217.601092
59237.154234,2294.638420,-7402.059420,4213.525239
59237.154544,3478.967927,-6809.894666,1762.019645
59237.154854,0.000000,-5995.668130,1225.752797
59237.155164,1406.391290,-10066.800811,1608.800546
59237.155474,-1258.350101,-10658.965565,-689.485948
59237.155784,-4737.318029,-11473.192101,-1991.848295
59237.156094,-4441.235652,-11917.315666,-1532.190996
59237.156404,-3627.009116,-10955.047942,-1225.752797
59237.156714,-2368.659014,-9178.553681,-306.438199
59237.157023,592.164754,-8364.327145,2451.505594
59237.157333,4071.132681,-7698.141797,3447.429741
59237.157643,1702.473667,-3627.009116,919.314598
59237.157953,5699.585753,-8142.265362,5362.668486
59237.158263,3478.967927,-7698.141797,2374.896044
59237.158573,1924.535449,-9844.739029,2374.896044
59237.158883,-2220.617826,-11177.109724,76.609550
59237.159193,-3775.050304,-11843.295072,-1225.752797
59237.159503,-4293.194464,-11769.274478,-1762.019645
59237.159813,-4367.215058,-10732.986159,-2451.505594
59237.160122,-3552.988522,-7772.162391,0.000000
59237.160432,-74.020594,-8808.450710,1225.752797
59237.160742,4663.297435,-9474.636058,3600.648841
59237.161052,1184.329507,-4811.338623,2451.505594
59237.161362,4959.379811,-7698.141797,4826.401637
59237.161672,3108.864956,-8290.306550,4826.401637
59237.161982,518.144159,-8882.471304,1532.190996
59237.162292,-1628.453072,-9696.697840,306.438199
59237.162602,-3108.864956,-10881.027347,-459.657299
59237.162911,-3330.926739,-9992.780217,-2451.505594
59237.163221,-4737.318029,-7179.997637,-2451.505594
59237.163531,-1480.411884,-8364.327145,0.000000
59237.163841,3478.967927,-10658.965565,2374.896044
59237.164151,2590.720797,-6957.935855,536.266849
59237.164461,2368.659014,-7772.162391,3064.381992
59237.164771,2664.741391,-9474.636058,3524.039291
59237.165081,1110.308913,-10436.903782,1991.848295
59237.165391,-1776.494261,-11325.150913,1072.533697
59237.165700,-2886.803174,-10732.986159,459.657299
59237.166010,-3108.864956,-9548.656652,-1532.190996
59237.166320,-4663.297435,-7179.997637,-2451.505594
59237.166630,-3256.906145,-7624.121203,0.000000
59237.166940,-74.020594,-7698.141797,-76.609550
59237.167250,0.000000,-5403.503377,612.876398
59237.167560,3478.967927,-7994.224174,4213.525239
59237.167870,740.205942,-7179.997637,3064.381992
59237.168180,1480.411884,-8882.471304,1762.019645
59237.168490,-1554.432478,-10362.883188,-459.657299
59237.168799,-3404.947333,-11399.171507,-1225.752797
59237.169109,-3997.112087,-11473.192101,-1915.238745
59237.169419,-3923.091493,-10658.965565,-3140.991542
59237.169729,-2960.823768,-8364.327145,-3677.258390
59237.170039,0.000000,-8660.409521,2451.505594
59237.170349,3478.967927,-8290.306550,2374.896044
59237.170659,2368.659014,-5699.585753,3830.477490
59237.170969,3552.988522,-5403.503377,3677.258390
59237.171279,3849.070898,-7920.203579,3524.039291
59237.171588,814.226536,-9252.574275,1685.410096
59237.171898,-1554.432478,-11103.089130,383.047749
59237.172208,-3034.844362,-12435.459826,-76.609550
59237.172518,-3034.844362,-12287.418637,-2528.115143
59237.172828,-4737.318029,-8068.244768,-4366.744339
59237.173138,-4737.318029,-9548.656652,0.000000
59237.173448,-74.020594,-9474.636058,1149.143247
59237.173758,814.226536,-7105.977043,1225.752797
59237.174068,1480.411884,-4811.338623,2451.505594
59237.174378,3775.050304,-6735.874072,3524.039291
59237.174687,2664.741391,-7031.956449,2757.943793
59237.174997,740.205942,-8660.409521,1302.362347
59237.175307,-814.226536,-11843.295072,2374.896044
59237.175617,-74.020594,-12731.542202,-76.609550
59237.175927,-2738.761985,-10658.965565,-1915.238745
59237.176237,-4737.318029,-9548.656652,0.000000
59237.176547,-74.020594,-10658.965565,-76.609550
59237.176857,222.061783,-7031.956449,0.000000
59237.177167,1924.535449,-6587.832884,0.000000
59237.177476,3256.906145,-7624.121203,2451.505594
59237.177786,3404.947333,-8956.491898,2681.334243
59237.178096,1036.288319,-10140.821405,1838.629195
59237.178406,-74.020594,-12287.418637,2987.772442
59237.178716,-1258.350101,-14211.954086,3600.648841
59237.179026,-2442.679609,-13027.624579,-76.609550
59237.179336,-4737.318029,-7179.997637,-2145.067394
59237.179646,-1480.411884,-9474.636058,1838.629195
59237.179956,-370.102971,-6883.915261,-1072.533697
59237.180265,1110.308913,-6809.894666,1455.581446
59237.180575,1480.411884,-6069.688724,2451.505594
59237.180885,2072.576638,-6809.894666,2298.286494
59237.181195,1332.370696,-8142.265362,1455.581446
59237.181505,-592.164754,-9844.739029,1302.362347
59237.181815,-2960.823768,-12805.562797,1532.190996
59237.182125,-2738.761985,-14211.954086,-76.609550
59237.182435,-6513.812290,-9548.656652,-3677.258390
59237.182745,-666.185348,-11843.295072,-76.609550
59237.183055,-74.020594,-6883.915261,-995.924147
59237.183364,3182.885551,-8290.306550,2987.772442
59237.183674,3330.926739,-6439.791695,3064.381992
59237.183984,4737.318029,-6735.874072,3524.039291
59237.184294,4219.173869,-7179.997637,3447.429741
59237.184604,1776.494261,-7179.997637,2451.505594
59237.184914,-1776.494261,-10140.821405,2451.505594
59237.185224,-1776.494261,-14211.954086,2068.457845
59237.185534,-4811.338623,-10955.047942,-3140.991542
59237.185844,-5921.647536,-11325.150913,-2145.067394
59237.186153,-3034.844362,-11251.130318,-1302.362347
59237.186463,-74.020594,-9474.636058,-76.609550
59237.186773,962.267725,-7698.141797,1302.362347
59237.187083,3256.906145,-7105.977043,3600.648841
59237.187393,4293.194464,-6143.709319,3677.258390
59237.187703,2368.659014,-5107.421000,1225.752797
59237.188013,0.000000,-5995.668130,1225.752797
59237.188323,0.000000,-9548.656652,2451.505594
59237.188633,-1258.350101,-11251.130318,-76.609550
59237.188943,-4441.235652,-10140.821405,-1838.629195
59237.189252,-2886.803174,-11843.295072,-689.485948
59237.189562,-2368.659014,-10288.862594,-612.876398
59237.189872,-370.102971,-8882.471304,-536.266849
59237.190182,2072.576638,-7476.080014,1455.581446
59237.190492,3404.947333,-8068.244768,2451.505594
59237.190802,1702.473667,-6883.915261,1225.752797
59237.191112,0.000000,-7179.997637,0.000000
59237.191422,0.000000,-9548.656652,2451.505594
59237.191732,-74.020594,-13027.624579,2987.772442
59237.192041,-4441.235652,-8512.368333,0.000000
59237.192351,-1258.350101,-10658.965565,2374.896044
59237.192661,-3552.988522,-7179.997637,306.438199
59237.192971,-1554.432478,-7994.224174,995.924147
59237.193281,0.000000,-6883.915261,766.095498
59237.193591,962.267725,-7550.100608,1532.190996
59237.193901,1702.473667,-7105.977043,1149.143247
59237.194211,-74.020594,-6365.771101,-76.609550
59237.194521,-1258.350101,-8586.388927,-1915.238745
59237.194831,-4145.153275,-10732.986159,0.000000
59237.195140,-2738.761985,-11843.295072,-1302.362347
59237.195450,-2664.741391,-12213.398043,612.876398
59237.195760,-3552.988522,-8364.327145,0.000000
59237.196070,-222.061783,-8364.327145,612.876398
59237.196380,1776.494261,-7179.997637,2451.505594
59237.196690,3404.947333,-6513.812290,2681.334243
59237.197000,6735.874072,-7994.224174,3600.648841
59237.197310,4663.297435,-7105.977043,4826.401637
59237.197620,0.000000,-6143.709319,0.000000
59237.197929,-148.041188,-12213.398043,1838.629195
59237.198239,-3775.050304,-11251.130318,-2068.457845
59237.198549,-4737.318029,-11325.150913,0.000000
59237.198859,-6069.688724,-10288.862594,-3294.210641
59237.199169,-4219.173869,-9252.574275,-1915.238745
59237.199479,-1258.350101,-8586.388927,459.657299
59237.199789,1110.308913,-7105.977043,1991.848295
59237.200099,4663.297435,-8882.471304,4826.401637
59237.200409,6439.791695,-5921.647536,4826.401637
59237.200718,1702.473667,-3923.091493,995.924147
59237.201028,3108.864956,-9104.533087,3370.820191
59237.201338,-1554.432478,-9474.636058,-229.828649
59237.201648,-2368.659014,-10732.986159,0.000000
59237.201958,-4589.276840,-10288.862594,-2451.505594
59237.202268,-3627.009116,-11251.130318,-1915.238745
59237.202578,-2294.638420,-10288.862594,-1532.190996
59237.202888,-222.061783,-8808.450710,-229.828649
59237.203198,4663.297435,-9474.636058,2374.896044
59237.203508,4663.297435,-7698.141797,3600.648841
59237.203817,3478.967927,-6217.729913,995.924147
59237.204127,1184.329507,-8660.409521,3064.381992
59237.204437,1110.308913,-10362.883188,1149.143247
59237.204747,-2960.823768,-10140.821405,1225.752797
59237.205057,-4737.318029,-9548.656652,-1685.410096
59237.205367,-3330.926739,-9844.739029,-306.438199
59237.205677,-3182.885551,-8882.471304,0.000000
59237.205987,-2072.576638,-8364.327145,612.876398
59237.206297,-74.020594,-8290.306550,2374.896044
59237.206606,592.164754,-8364.327145,2451.505594
59237.206916,3997.112087,-9252.574275,4826.401637
59237.207226,1702.473667,-7105.977043,842.705048
59237.207536,-2368.659014,-7476.080014,0.000000
59237.207846,-1406.391290,-13027.624579,-76.609550
59237.208156,-4811.338623,-11103.089130,-1915.238745
59237.208466,-4441.235652,-11251.130318,-1378.971896
59237.208776,-3182.885551,-10066.800811,-383.047749
59237.209086,-1480.411884,-8586.388927,153.219100
59237.209396,0.000000,-5995.668130,0.000000
59237.209705,1184.329507,-4811.338623,3064.381992
59237.210015,4737.318029,-7179.997637,5515.887586
59237.210325,4663.297435,-7105.977043,2987.772442
59237.210635,2368.659014,-8364.327145,2604.724693
59237.210945,-74.020594,-11547.212695,2068.457845
59237.211255,-1258.350101,-13841.851115,-76.609550
59237.211565,-4145.153275,-12657.521608,-1762.019645
59237.211874,-4885.359217,-11917.315666,-1838.629195
59237.212184,-4441.235652,-10658.965565,-1302.362347
59237.212494,-3849.070898,-7476.080014,-2451.505594
59237.212804,0.000000,-3627.009116,0.000000
59237.213113,2368.659014,-7179.997637,4903.011187
59237.213423,6439.791695,-7105.977043,4826.401637
59237.213733,4441.235652,-5403.503377,612.876398
59237.214043,5847.626942,-9474.636058,4826.401637
59237.214352,1702.473667,-9474.636058,-76.609550
59237.214662,-1406.391290,-11843.295072,2374.896044
59237.214972,-2738.761985,-11843.295072,-1685.410096
59237.215282,-3849.070898,-11029.068536,-2451.505594
59237.215591,-4737.318029,-9548.656652,-3677.258390
59237.215901,-2368.659014,-5995.668130,0.000000
59237.216211,592.164754,-7179.997637,1225.752797
59237.216521,5551.544565,-8290.306550,2374.896044
59237.216831,2960.823768,-6587.832884,1838.629195
59237.217140,4663.297435,-9474.636058,4826.401637
59237.217450,2590.720797,-11177.109724,3600.648841
59237.217760,-666.185348,-10658.965565,1149.143247
59237.218070,-2146.597232,-10436.903782,536.266849
59237.218379,-3034.844362,-10066.800811,-229.828649
59237.218689,-4441.235652,-7179.997637,-2145.067394
59237.218999,-4441.235652,-5995.668130,-2451.505594
59237.219309,0.000000,-7179.997637,1225.752797
59237.219618,2294.638420,-9474.636058,2374.896044
59237.219928,0.000000,-6587.832884,689.485948
59237.220238,2294.638420,-9474.636058,2987.772442
59237.220548,0.000000,-9252.574275,1685.410096
59237.220857,-2220.617826,-10140.821405,-306.438199
59237.221167,-3552.988522,-11103.089130,-1149.143247
59237.221477,-3997.112087,-10732.986159,-1608.800546
59237.221787,-3034.844362,-9400.615463,-1608.800546
59237.222097,-2442.679609,-6957.935855,-1608.800546
59237.222406,-962.267725,-5477.523971,0.000000
59237.222716,0.000000,-5995.668130,2451.505594
59237.223026,5255.462188,-7994.224174,4826.401637
59237.223336,4367.215058,-7624.121203,4366.744339
59237.223645,1184.329507,-7179.997637,2451.505594
59237.223955,-74.020594,-10658.965565,995.924147
59237.224265,-2442.679609,-11769.274478,-306.438199
59237.224575,-4219.173869,-12583.501014,-1302.362347
59237.224884,-4811.338623,-12731.542202,-1302.362347
59237.225194,-3923.091493,-9474.636058,-1915.238745
59237.225504,-5625.565159,-6143.709319,-2451.505594
59237.225814,0.000000,-7476.080014,2451.505594
59237.226123,3478.967927,-7105.977043,4213.525239
59237.226433,2960.823768,-4811.338623,4290.134789
59237.226743,2368.659014,-4959.379811,2604.724693
59237.227053,2368.659014,-7179.997637,2911.162892
59237.227363,0.000000,-9178.553681,1149.143247
59237.227672,-1924.535449,-10288.862594,229.828649
59237.227982,-1554.432478,-14211.954086,-76.609550
59237.228292,-1258.350101,-13027.624579,-76.609550
59237.228602,-5033.400406,-8364.327145,-3677.258390
59237.228911,-1184.329507,-10140.821405,306.438199
59237.229221,2294.638420,-8290.306550,-76.609550
59237.229531,592.164754,-5995.668130,0.000000
59237.229841,2738.761985,-6883.915261,1762.019645
59237.230150,2960.823768,-8586.388927,2834.553343
59237.230460,1480.411884,-10066.800811,2528.115143
59237.230770,-740.205942,-10436.903782,1915.238745
59237.231080,-666.185348,-12435.459826,2987.772442
59237.231389,-74.020594,-12435.459826,2604.724693
59237.231699,-74.020594,-9474.636058,-76.609550
59237.232009,-4145.153275,-7179.997637,0.000000
59237.232319,-74.020594,-8882.471304,1762.019645
59237.232629,0.000000,-5699.585753,0.000000
59237.232938,1702.473667,-7105.977043,1149.143247
59237.233248,962.267725,-8068.244768,919.314598
59237.233558,-74.020594,-9474.636058,229.828649
59237.233868,-2368.659014,-10584.944971,-995.924147
59237.234177,-3552.988522,-11917.315666,0.000000
59237.234487,-2368.659014,-12805.562797,0.000000
59237.234797,-74.020594,-12731.542202,-76.609550
59237.235107,-1554.432478,-7550.100608,-689.485948
59237.235416,0.000000,-6587.832884,1225.752797
59237.235726,2886.803174,-5625.565159,2604.724693
59237.236036,5255.462188,-7105.977043,3600.648841
59237.236346,4515.256246,-6069.688724,2757.943793
59237.236655,3108.864956,-8068.244768,2528.115143
59237.236965,444.123565,-9918.759623,1378.971896
59237.237275,-4441.235652,-11917.315666,0.000000
59237.237585,-5921.647536,-11917.315666,-3677.258390
59237.237895,-4737.318029,-14285.974681,-919.314598
59237.238204,-4811.338623,-11251.130318,-3140.991542
59237.238514,-4589.276840,-9548.656652,0.000000
59237.238824,1702.473667,-8290.306550,-76.609550
59237.239134,4071.132681,-8216.285956,4213.525239
59237.239443,4663.297435,-5181.441594,4366.744339
59237.239753,5477.523971,-5033.400406,4903.011187
59237.240063,4441.235652,-5773.606348,3907.087040
59237.240373,0.000000,-5995.668130,612.876398
59237.240682,-3552.988522,-8364.327145,-995.924147
59237.240992,-4737.318029,-11325.150913,0.000000
59237.241302,-2442.679609,-14211.954086,-1302.362347
59237.241612,-4737.318029,-10214.842000,-4903.011187
59237.241921,-666.185348,-11843.295072,-76.609550
59237.242231,1036.288319,-9918.759623,995.924147
59237.242541,3478.967927,-8142.265362,1762.019645
59237.242851,4663.297435,-7920.203579,3064.381992
59237.243161,4071.132681,-8142.265362,3907.087040
59237.243470,1332.370696,-6883.915261,1225.752797
59237.243780,-2220.617826,-8882.471304,1149.143247
59237.244090,-4737.318029,-9548.656652,612.876398
59237.244400,-666.185348,-11251.130318,2068.457845
59237.244709,-4589.276840,-7328.038826,-2451.505594
59237.245019,-1258.350101,-10658.965565,2068.457845
59237.245329,-2220.617826,-8068.244768,306.438199
59237.245639,-148.041188,-7994.224174,1149.143247
59237.245948,888.247130,-7402.059420,995.924147
59237.246258,0.000000,-8512.368333,1072.533697
59237.246568,-74.020594,-7698.141797,-689.485948
59237.246878,-1850.514855,-11251.130318,-76.609550
59237.247187,-4367.215058,-9548.656652,-1762.019645
59237.247497,-4145.153275,-10732.986159,0.000000
59237.247807,-2738.761985,-10658.965565,-76.609550
59237.248117,-1776.494261,-8364.327145,1378.971896
59237.248427,-1776.494261,-6587.832884,1225.752797
59237.248736,1480.411884,-6957.935855,2221.676944
59237.249046,2664.741391,-6365.771101,2451.505594
59237.249356,4071.132681,-7105.977043,2987.772442
59237.249666,4663.297435,-9474.636058,3294.210641
59237.249975,3478.967927,-11843.295072,2374.896044
59237.250285,-3108.864956,-10214.842000,-1915.238745
59237.250595,-2664.741391,-14211.954086,-306.438199
59237.250905,-5477.523971,-11399.171507,-4060.306139
59237.251214,-5921.647536,-11917.315666,0.000000
59237.251524,-4441.235652,-8660.409521,-1838.629195
59237.251834,-888.247130,-7698.141797,995.924147
59237.252144,2368.659014,-6661.853478,2757.943793
59237.252454,5181.441594,-5329.482782,4366.744339
59237.252763,8808.450710,-7105.977043,6665.030833
59237.253073,7624.121203,-7105.977043,5975.544884
59237.253383,4071.132681,-8882.471304,2374.896044
59237.253693,-3256.906145,-9548.656652,0.000000
59237.254002,-666.185348,-14211.954086,-76.609550
59237.254312,-5921.647536,-11325.150913,-3064.381992
59237.254622,-4515.256246,-11029.068536,-3907.087040
59237.254932,-2664.741391,-10732.986159,-2298.286494
59237.255241,0.000000,-9474.636058,-842.705048
59237.255551,2960.823768,-7550.100608,1225.752797
59237.255861,6439.791695,-9844.739029,4443.353888
59237.256171,6217.729913,-8660.409521,5515.887586
59237.256480,4663.297435,-8882.471304,3600.648841
59237.256790,0.000000,-8660.409521,2451.505594
59237.257100,-74.020594,-11843.295072,2374.896044
59237.257410,-4737.318029,-7772.162391,0.000000
59237.257720,-2442.679609,-9326.594869,-76.609550
59237.258029,-2738.761985,-8586.388927,-459.657299
59237.258339,-2146.597232,-9030.512492,229.828649
59237.258649,-814.226536,-8438.347739,689.485948
59237.258959,1184.329507,-8364.327145,2451.505594
59237.259268,0.000000,-7179.997637,1838.629195
59237.259578,1776.494261,-10288.862594,2374.896044
59237.259888,-2516.700203,-8660.409521,-995.924147
59237.260198,-1850.514855,-13027.624579,2068.457845
59237.260507,-4515.256246,-9548.656652,-3140.991542
59237.260817,-2738.761985,-10510.924376,-383.047749
59237.261127,-2516.700203,-8364.327145,153.219100
59237.261437,-814.226536,-7105.977043,919.314598
59237.261746,1332.370696,-6217.729913,2528.115143
59237.262056,1184.329507,-5995.668130,2451.505594
59237.262366,592.164754,-4811.338623,2451.505594
59237.262676,4663.297435,-10066.800811,4290.134789
59237.262986,814.226536,-9474.636058,1149.143247
59237.263295,-2368.659014,-12509.480420,1532.190996
59237.263605,-3627.009116,-12879.583391,-1915.238745
59237.263915,-4219.173869,-13545.768739,-1302.362347
59237.264225,-5403.503377,-11325.150913,-1915.238745
59237.264534,-4293.194464,-8956.491898,-1608.800546
59237.264844,-1628.453072,-7698.141797,612.876398
59237.265154,0.000000,-4811.338623,1225.752797
59237.265464,1702.473667,-3627.009116,1991.848295
59237.265773,4737.318029,-5995.668130,4903.011187
59237.266083,4663.297435,-7105.977043,3600.648841
59237.266393,1776.494261,-8364.327145,3983.696590
59237.266703,-74.020594,-11251.130318,-76.609550
59237.267012,-2590.720797,-12731.542202,-689.485948
59237.267322,-3923.091493,-13027.624579,-2221.676944
59237.267632,-3923.091493,-12879.583391,-2681.334243
59237.267942,-2812.782580,-10881.027347,-2221.676944
59237.268252,-1850.514855,-7994.224174,-1608.800546
59237.268561,3182.885551,-6809.894666,995.924147
59237.268871,3552.988522,-5995.668130,1838.629195
59237.269181,5329.482782,-7179.997637,5898.935335
59237.269491,4663.297435,-7105.977043,2374.896044
59237.269800,3775.050304,-10658.965565,4213.525239
59237.270110,-1184.329507,-10436.903782,1378.971896
59237.270420,-2516.700203,-11399.171507,76.609550
59237.270730,-3552.988522,-10140.821405,-919.314598
59237.271039,-3256.906145,-9548.656652,-1072.533697
59237.271349,-2442.679609,-8882.471304,-76.609550
59237.271659,-74.020594,-8290.306550,-76.609550
59237.271969,0.000000,-6291.750507,0.000000
59237.272278,1480.411884,-7179.997637,1225.752797
59237.272588,4663.297435,-9474.636058,3600.648841
59237.272898,1110.308913,-9474.636058,2374.896044
59237.273208,-2368.659014,-8956.491898,0.000000
59237.273518,-3034.844362,-10658.965565,-383.047749
59237.273827,-3182.885551,-10214.842000,-459.657299
59237.274137,-2664.741391,-9548.656652,-536.266849
59237.274447,-74.020594,-9474.636058,-76.609550
59237.274757,2294.638420,-9474.636058,2374.896044
59237.275066,1702.473667,-5921.647536,1455.581446
59237.275376,2368.659014,-6587.832884,2451.505594
59237.275686,5847.626942,-9474.636058,4213.525239
59237.275996,1184.329507,-9548.656652,3064.381992
59237.276305,-1776.494261,-10288.862594,0.000000
59237.276615,-3108.864956,-12361.439231,-612.876398
59237.276925,-4663.297435,-12657.521608,-1455.581446
59237.277235,-4959.379811,-11251.130318,-1685.410096
59237.277544,-2442.679609,-11251.130318,-689.485948
59237.277854,-222.061783,-10214.842000,2374.896044
59237.278164,-74.020594,-5921.647536,1149.143247
59237.278474,1776.494261,-4811.338623,2451.505594
59237.278784,7031.956449,-7105.977043,4826.401637
59237.279093,1776.494261,-4811.338623,3677.258390
59237.279403,518.144159,-7179.997637,1532.190996
59237.279713,-1480.411884,-9548.656652,229.828649
59237.280023,-3256.906145,-11473.192101,-306.438199
59237.280332,-3775.050304,-12139.377449,-2221.676944
59237.280642,-3552.988522,-13101.645173,-1838.629195
59237.280952,-2368.659014,-11991.336260,-612.876398
59237.281262,-74.020594,-9474.636058,-689.485948
59237.281571,888.247130,-5403.503377,-2145.067394
59237.281881,4737.318029,-8364.327145,3677.258390
59237.282191,2960.823768,-5995.668130,3064.381992
59237.282501,3478.967927,-8734.430116,2987.772442
59237.282810,1480.411884,-10436.903782,2911.162892
59237.283120,-444.123565,-10807.006753,1762.019645
59237.283430,-2220.617826,-10510.924376,1455.581446
59237.283740,-2368.659014,-8660.409521,0.000000
59237.284050,-3552.988522,-8364.327145,0.000000
59237.284359,-370.102971,-9474.636058,-76.609550
59237.284669,-1628.453072,-5403.503377,-2068.457845
59237.284979,0.000000,-7179.997637,1532.190996
59237.285289,222.061783,-5699.585753,0.000000
59237.285598,1998.556043,-8290.306550,1762.019645
59237.285908,-592.164754,-8734.430116,306.438199
59237.286218,-2516.700203,-10288.862594,-766.095498
59237.286528,-3775.050304,-11325.150913,-1072.533697
59237.286837,-4737.318029,-9548.656652,-1685.410096
59237.287147,-4145.153275,-8364.327145,0.000000
59237.287457,0.000000,-9252.574275,1838.629195
59237.287767,2294.638420,-8290.306550,2374.896044
59237.288076,0.000000,-4811.338623,1225.752797
59237.288386,4663.297435,-5329.482782,1762.019645
59237.288696,4811.338623,-7402.059420,3064.381992
59237.289006,3478.967927,-8586.388927,2374.896044
59237.289316,148.041188,-10436.903782,383.047749
59237.289625,-3108.864956,-11843.295072,-1149.143247
59237.289935,-6513.812290,-12435.459826,-2528.115143
59237.290245,-7105.977043,-11029.068536,-3677.258390
59237.290555,-3849.070898,-12065.356855,-459.657299
59237.290864,-1850.514855,-9474.636058,-76.609550
59237.291174,0.000000,-5995.668130,306.438199
59237.291484,4663.297435,-6809.894666,2987.772442
59237.291794,4441.235652,-5403.503377,4443.353888
59237.292103,5033.400406,-5403.503377,4519.963438
59237.292413,3404.947333,-6513.812290,3140.991542
59237.292723,0.000000,-8512.368333,1378.971896
59237.293033,-2442.679609,-10955.047942,-76.609550
59237.293342,-4589.276840,-10140.821405,-3524.039291
59237.293652,-3552.988522,-13101.645173,-1532.190996
59237.293962,-3182.885551,-10658.965565,-3140.991542
59237.294272,-4737.318029,-8364.327145,-2451.505594
59237.294582,3478.967927,-9474.636058,-76.609550
59237.294891,2960.823768,-8438.347739,2451.505594
59237.295201,4145.153275,-8512.368333,3294.210641
59237.295511,3997.112087,-8734.430116,3677.258390
59237.295821,2220.617826,-9252.574275,3600.648841
59237.296130,-74.020594,-10066.800811,2987.772442
59237.296440,-1258.350101,-9474.636058,1149.143247
59237.296750,-4441.235652,-7179.997637,0.000000
59237.297060,-1850.514855,-11843.295072,-76.609550
59237.297369,-3034.844362,-7105.977043,-1915.238745
59237.297679,-1628.453072,-9326.594869,-76.609550
59237.297989,-1184.329507,-7920.203579,0.000000
59237.298299,518.144159,-8808.450710,919.314598
59237.298609,148.041188,-8808.450710,1072.533697
59237.298918,-1258.350101,-9548.656652,383.047749
59237.299228,-666.185348,-11547.212695,1532.190996
59237.299538,-1554.432478,-11843.295072,-76.609550
59237.299848,-4219.173869,-9548.656652,-995.924147
59237.300157,-74.020594,-11473.192101,3370.820191
59237.300467,-1258.350101,-6513.812290,-383.047749
59237.300777,666.185348,-7772.162391,3294.210641
59237.301087,1998.556043,-6365.771101,1915.238745
59237.301396,3775.050304,-6365.771101,2528.115143
59237.301706,3997.112087,-7476.080014,2681.334243
59237.302016,2146.597232,-8808.450710,1762.019645
59237.302326,-592.164754,-11769.274478,612.876398
59237.302635,-666.185348,-14211.954086,-689.485948
59237.302945,-6217.729913,-12731.542202,-3064.381992
59237.303255,-3034.844362,-15396.283594,-76.609550
59237.303565,-3923.091493,-10955.047942,-2528.115143
59237.303875,-3552.988522,-9548.656652,1225.752797
59237.304184,1110.308913,-6957.935855,2221.676944
59237.304494,3404.947333,-5181.441594,3983.696590
59237.304804,5403.503377,-3997.112087,5132.839837
59237.305114,5477.523971,-4515.256246,4443.353888
59237.305423,2960.823768,-5403.503377,1838.629195
59237.305733,888.247130,-10214.842000,2604.724693
59237.306043,-1850.514855,-11843.295072,-689.485948
59237.306353,-7105.977043,-9548.656652,-4903.011187
59237.306662,-3552.988522,-14582.057057,-2145.067394
59237.306972,-3997.112087,-11917.315666,-2834.553343
59237.307282,-1258.350101,-10658.965565,-1915.238745
59237.307592,1554.432478,-9030.512492,153.219100
59237.307901,4367.215058,-7698.141797,2451.505594
59237.308211,5255.462188,-7328.038826,3753.867940
59237.308521,4737.318029,-5995.668130,3677.258390
59237.308831,3552.988522,-8512.368333,4903.011187
59237.309141,2294.638420,-10658.965565,3600.648841
59237.309450,-4441.235652,-7179.997637,0.000000
59237.309760,-3256.906145,-10140.821405,1225.752797
59237.310070,-4145.153275,-7772.162391,-1838.629195
59237.310380,-2738.761985,-9400.615463,-689.485948
59237.310689,-2664.741391,-8660.409521,-766.095498
59237.310999,-666.185348,-8660.409521,0.000000
59237.311309,592.164754,-8808.450710,1072.533697
59237.311619,0.000000,-7179.997637,536.266849
59237.311929,-2368.659014,-7179.997637,0.000000
59237.312238,-1036.288319,-10066.800811,2374.896044
59237.312548,-4663.297435,-7550.100608,-2221.676944
59237.312858,-3552.988522,-10732.986159,1225.752797
59237.313168,-3478.967927,-7772.162391,0.000000
59237.313477,-1406.391290,-8216.285956,1149.143247
59237.313787,-666.185348,-5995.668130,842.705048
59237.314097,1036.288319,-6883.915261,1838.629195
59237.314407,2738.761985,-7105.977043,2757.943793
59237.314717,3182.885551,-7105.977043,2374.896044
59237.315026,444.123565,-7179.997637,612.876398
59237.315336,0.000000,-11029.068536,1838.629195
59237.315646,-3923.091493,-10584.944971,-2528.115143
59237.315956,-4145.153275,-14434.015869,-612.876398
59237.316265,-4811.338623,-12435.459826,-2604.724693
59237.316575,-5033.400406,-10436.903782,-1762.019645
59237.316885,-2886.803174,-8364.327145,153.219100
59237.317195,-148.041188,-6957.935855,1762.019645
59237.317505,2294.638420,-5699.585753,4213.525239
59237.317814,4663.297435,-6513.812290,4826.401637
59237.318124,4663.297435,-4737.318029,3294.210641
59237.318434,2664.741391,-5107.421000,1225.752797
59237.318744,3478.967927,-11251.130318,2374.896044
59237.319054,-4145.153275,-9548.656652,-2145.067394
59237.319363,-2516.700203,-13027.624579,-2374.896044
59237.319673,-4737.318029,-12879.583391,-3064.381992
59237.319983,-3923.091493,-12287.418637,-2451.505594
59237.320293,-2368.659014,-10362.883188,-1915.238745
59237.320602,740.205942,-9030.512492,1149.143247
59237.320912,4663.297435,-9474.636058,3600.648841
59237.321222,6439.791695,-7994.224174,3600.648841
59237.321532,4293.194464,-4811.338623,1225.752797
59237.321842,5921.647536,-10362.883188,6052.154434
59237.322151,1110.308913,-9178.553681,1762.019645
59237.322461,-370.102971,-10881.027347,1149.143247
59237.322771,-2886.803174,-9844.739029,0.000000
59237.323081,-3256.906145,-9992.780217,-536.266849
59237.323391,-3404.947333,-9326.594869,-1149.143247
59237.323700,-2812.782580,-9400.615463,0.000000
59237.324010,-74.020594,-8734.430116,1838.629195
59237.324320,2294.638420,-9474.636058,1762.019645
59237.324630,1036.288319,-6069.688724,-76.609550
59237.324939,2368.659014,-9474.636058,2911.162892
59237.325249,-74.020594,-8882.471304,-76.609550
59237.325559,-1554.432478,-10658.965565,-76.609550
59237.325869,-3478.967927,-10140.821405,-306.438199
59237.326179,-2590.720797,-10066.800811,-229.828649
59237.326488,-1480.411884,-8586.388927,153.219100
59237.326798,-592.164754,-7772.162391,0.000000
59237.327108,1184.329507,-7179.997637,3064.381992
59237.327418,3775.050304,-8882.471304,3370.820191
59237.327727,3478.967927,-7105.977043,2374.896044
59237.328037,0.000000,-7179.997637,1225.752797
59237.328347,1702.473667,-11251.130318,1762.019645
59237.328657,-2960.823768,-13027.624579,1149.143247
59237.328967,-4219.173869,-12805.562797,-1455.581446
59237.329276,-5329.482782,-12287.418637,-1685.410096
59237.329586,-4515.256246,-10732.986159,-1072.533697
59237.329896,-3330.926739,-8068.244768,-1838.629195
59237.330206,-2368.659014,-5403.503377,0.000000
59237.330516,1776.494261,-6661.853478,3677.258390
59237.330825,4663.297435,-7105.977043,4826.401637
59237.331135,2368.659014,-4811.338623,3677.258390
59237.331445,4663.297435,-8290.306550,4213.525239
59237.331755,0.000000,-9400.615463,3064.381992
59237.332064,-1924.535449,-10658.965565,-76.609550
59237.332374,-3478.967927,-12287.418637,-1915.238745
59237.332684,-4145.153275,-12731.542202,-2451.505594
59237.332994,-3627.009116,-10732.986159,-3753.867940
59237.333304,-3552.988522,-8364.327145,-4290.134789
59237.333613,0.000000,-8364.327145,306.438199
59237.333923,4737.318029,-8364.327145,4596.572988
59237.334233,6439.791695,-7105.977043,2987.772442
59237.334543,4737.318029,-6587.832884,4979.620737
59237.334853,3552.988522,-7476.080014,4903.011187
59237.335162,1776.494261,-10362.883188,2834.553343
59237.335472,-1258.350101,-10881.027347,842.705048
59237.335782,-2886.803174,-11029.068536,306.438199
59237.336092,-4145.153275,-10066.800811,-689.485948
59237.336401,-4219.173869,-8438.347739,-3753.867940
59237.336711,-4145.153275,-8364.327145,-1225.752797
59237.337021,0.000000,-9844.739029,3064.381992
59237.337331,2294.638420,-8290.306550,1149.143247
59237.337641,1184.329507,-6587.832884,2451.505594
59237.337950,1184.329507,-5995.668130,1225.752797
59237.338260,518.144159,-8364.327145,1685.410096
59237.338570,-2220.617826,-9474.636058,76.609550
59237.338880,-3404.947333,-10584.944971,-612.876398
59237.339189,-2738.761985,-11547.212695,-76.609550
59237.339499,-1850.514855,-9474.636058,-1302.362347
59237.339809,-2368.659014,-6883.915261,0.000000
59237.340119,-3552.988522,-5995.668130,0.000000
59237.340429,3330.926739,-8956.491898,2834.553343
59237.340738,4071.132681,-7698.141797,1991.848295
59237.341048,1776.494261,-6143.709319,612.876398
59237.341358,1258.350101,-9696.697840,2068.457845
59237.341668,-1258.350101,-10807.006753,0.000000
59237.341978,-3404.947333,-12287.418637,-766.095498
59237.342287,-3627.009116,-13619.789333,-76.609550
59237.342597,-3330.926739,-11843.295072,-76.609550
59237.342907,-4219.173869,-8364.327145,-1378.971896
59237.343217,-1776.494261,-8364.327145,3677.258390
59237.343526,2294.638420,-7105.977043,2374.896044
59237.343836,1480.411884,-4811.338623,2451.505594
59237.344146,3478.967927,-5329.482782,2681.334243
59237.344456,3108.864956,-6069.688724,3064.381992
59237.344766,1332.370696,-7994.224174,1762.019645
59237.345075,-1258.350101,-9992.780217,612.876398
59237.345385,-2146.597232,-13027.624579,689.485948
59237.345695,-2442.679609,-14211.954086,-76.609550
59237.346005,-3627.009116,-12287.418637,-2528.115143
59237.346315,-5921.647536,-7476.080014,-4290.134789
59237.346624,1480.411884,-10510.924376,1149.143247
59237.346934,3182.885551,-6883.915261,0.000000
59237.347244,4663.297435,-7105.977043,2374.896044
59237.347554,4441.235652,-7179.997637,4290.134789
59237.347863,4219.173869,-8512.368333,4290.134789
59237.348173,1554.432478,-9548.656652,2604.724693
59237.348483,-592.164754,-9992.780217,2451.505594
59237.348793,-1036.288319,-12139.377449,3140.991542
59237.349103,-1850.514855,-10658.965565,-76.609550
59237.349412,-4811.338623,-6513.812290,-2834.553343
59237.349722,-2368.659014,-9548.656652,459.657299
59237.350032,-74.020594,-8882.471304,-76.609550
59237.350342,2294.638420,-9474.636058,1455.581446
59237.350651,1702.473667,-7624.121203,1302.362347
59237.350961,1628.453072,-7624.121203,1608.800546
59237.351271,0.000000,-8808.450710,919.314598
59237.351581,-2960.823768,-9548.656652,0.000000
59237.351891,-2960.823768,-11029.068536,1225.752797
59237.352200,-2294.638420,-11621.233289,1762.019645
59237.352510,-2442.679609,-8290.306550,-1302.362347
59237.352820,-2368.659014,-7179.997637,0.000000
59237.353130,1702.473667,-8290.306550,2374.896044
59237.353440,4071.132681,-8290.306550,3294.210641
59237.353749,3182.885551,-6809.894666,1915.238745
59237.354059,2960.823768,-7254.018232,2451.505594
59237.354369,1702.473667,-9548.656652,1608.800546
59237.354679,-2960.823768,-9548.656652,0.000000
59237.354988,-4737.318029,-10732.986159,0.000000
59237.355298,-4589.276840,-13989.892304,-612.876398
59237.355608,-4811.338623,-11251.130318,-3140.991542
59237.355918,-4737.318029,-9548.656652,0.000000
59237.356228,-74.020594,-9474.636058,2374.896044
59237.356537,2072.576638,-7846.182985,3907.087040
59237.356847,3182.885551,-6143.709319,3983.696590
59237.357157,3997.112087,-5181.441594,3753.867940
59237.357467,4293.194464,-5847.626942,3447.429741
59237.357777,1702.473667,-6069.688724,842.705048
59237.358086,-3552.988522,-6587.832884,0.000000
59237.358396,-3552.988522,-11029.068536,0.000000
59237.358706,-1258.350101,-14211.954086,-1302.362347
59237.359016,-6513.812290,-11325.150913,-4290.134789
59237.359325,-1998.556043,-13027.624579,-383.047749
59237.359635,-1184.329507,-8956.491898,0.000000
59237.359945,2368.659014,-8586.388927,1455.581446
59237.360255,4737.318029,-6957.935855,3294.210641
59237.360565,5847.626942,-7179.997637,4519.963438
59237.360874,5847.626942,-6957.935855,3600.648841
59237.361184,222.061783,-6661.853478,919.314598
59237.361494,-1184.329507,-9548.656652,0.000000
59237.361804,-592.164754,-12509.480420,2757.943793
59237.362113,-4589.276840,-9548.656652,-1762.019645
59237.362423,-2812.782580,-11325.150913,919.314598
59237.362733,-4737.318029,-8364.327145,-1838.629195
59237.363043,-1850.514855,-9030.512492,-536.266849
59237.363353,0.000000,-8438.347739,919.314598
59237.363662,1628.453072,-7698.141797,1838.629195
59237.363972,3478.967927,-8882.471304,2374.896044
59237.364282,1702.473667,-7994.224174,1149.143247
59237.364592,-2368.659014,-7772.162391,0.000000
59237.364902,-74.020594,-13027.624579,2374.896044
59237.365211,-4441.235652,-8364.327145,-1838.629195
59237.365521,-2368.659014,-9548.656652,1225.752797
59237.365831,-2664.741391,-7179.997637,0.000000
59237.366141,-222.061783,-8068.244768,1225.752797
59237.366450,1702.473667,-7476.080014,2298.286494
59237.366760,2664.741391,-7179.997637,2221.676944
59237.367070,4071.132681,-9474.636058,3600.648841
59237.367380,4663.297435,-9474.636058,1762.019645
59237.367690,-962.267725,-8586.388927,-1915.238745
59237.367999,-2072.576638,-13175.665768,1072.533697
59237.368309,-5107.421000,-11843.295072,-2221.676944
59237.368619,-5921.647536,-10732.986159,0.000000
59237.368929,-4811.338623,-9178.553681,-1302.362347
59237.369239,-2590.720797,-7476.080014,612.876398
59237.369548,444.123565,-6587.832884,2604.724693
59237.369858,2738.761985,-5403.503377,3217.601092
59237.370168,5403.503377,-7328.038826,5975.544884
59237.370478,7031.956449,-8882.471304,4826.401637
59237.370787,2294.638420,-7105.977043,-76.609550
59237.371097,-2368.659014,-9548.656652,612.876398
59237.371407,-2442.679609,-11843.295072,-1302.362347
59237.371717,-7031.956449,-10732.986159,-4903.011187
59237.372027,-4367.215058,-13027.624579,-3140.991542
59237.372336,-3997.112087,-10881.027347,-2451.505594
59237.372646,-1776.494261,-9474.636058,-766.095498
59237.372956,1702.473667,-7624.121203,1225.752797
59237.373266,4737.318029,-6143.709319,4903.011187
59237.373576,8068.244768,-8882.471304,6818.249932
59237.373885,7031.956449,-9474.636058,7277.907231
59237.374195,1406.391290,-6291.750507,1608.800546
59237.374505,1480.411884,-11251.130318,2987.772442
59237.374815,-3330.926739,-8808.450710,-1608.800546
59237.375124,-2442.679609,-12435.459826,-689.485948
59237.375434,-4293.194464,-10732.986159,-1149.143247
59237.375744,-4071.132681,-9992.780217,-1532.190996
59237.376054,-2738.761985,-9104.533087,-1225.752797
59237.376364,0.000000,-7772.162391,1225.752797
59237.376673,2368.659014,-8364.327145,3677.258390
59237.376983,4663.297435,-10362.883188,5745.716235
59237.377293,1110.308913,-6291.750507,536.266849
59237.377603,0.000000,-8660.409521,2451.505594
59237.377912,-74.020594,-9474.636058,-76.609550
59237.378222,-1258.350101,-11547.212695,1149.143247
59237.378532,-2368.659014,-9326.594869,-229.828649
59237.378842,-2294.638420,-9104.533087,-383.047749
59237.379152,-1036.288319,-8068.244768,229.828649
59237.379461,0.000000,-5403.503377,0.000000
59237.379771,592.164754,-7179.997637,1838.629195
59237.380081,2960.823768,-8364.327145,3677.258390
59237.380391,3478.967927,-9474.636058,2068.457845
59237.380701,0.000000,-9548.656652,0.000000
59237.381010,-74.020594,-13619.789333,-76.609550
59237.381320,-3701.029710,-12731.542202,-76.609550
59237.381630,-4589.276840,-11991.336260,-689.485948
59237.381940,-4071.132681,-9918.759623,-306.438199
59237.382249,-2368.659014,-7698.141797,306.438199
59237.382559,-1480.411884,-4515.256246,0.000000
59237.382869,0.000000,-3627.009116,2451.505594
59237.383179,5033.400406,-7179.997637,7354.516781
59237.383489,4663.297435,-5329.482782,2374.896044
59237.383798,2664.741391,-8068.244768,3370.820191
59237.384108,-74.020594,-11843.295072,2374.896044
59237.384418,-3108.864956,-11325.150913,-1225.752797
59237.384728,-4293.194464,-12953.603985,-2221.676944
59237.385038,-4737.318029,-12953.603985,-2451.505594
59237.385347,-3849.070898,-11621.233289,-2221.676944
59237.385657,-1850.514855,-9178.553681,-3140.991542
59237.385967,0.000000,-5995.668130,0.000000
59237.386277,0.000000,-4811.338623,1225.752797
59237.386586,8216.285956,-8290.306550,6358.592633
59237.386896,4737.318029,-4811.338623,3064.381992
59237.387206,5847.626942,-9474.636058,6665.030833
59237.387516,0.000000,-8956.491898,1532.190996
59237.387826,-2146.597232,-11177.109724,995.924147
59237.388135,-3552.988522,-11251.130318,-995.924147
59237.388445,-4515.256246,-11621.233289,-1991.848295
59237.388755,-3034.844362,-11251.130318,-2528.115143
59237.389065,-3034.844362,-8882.471304,-2528.115143
59237.389374,-2294.638420,-5995.668130,-1915.238745
59237.389684,0.000000,-7179.997637,1838.629195
59237.389994,4071.132681,-7698.141797,2987.772442
59237.390304,1184.329507,-6291.750507,3064.381992
59237.390614,0.000000,-7179.997637,1225.752797
59237.390923,-1776.494261,-9326.594869,536.266849
59237.391233,-2664.741391,-10140.821405,76.609550
59237.391543,-2886.803174,-9770.718434,-383.047749
59237.391853,-74.020594,-10658.965565,-76.609550
59237.392163,-74.020594,-9474.636058,-76.609550
59237.392472,-74.020594,-7698.141797,-76.609550
59237.392782,0.000000,-5995.668130,0.000000
59237.393092,3775.050304,-9474.636058,4826.401637
59237.393402,1184.329507,-7772.162391,2451.505594
59237.393711,0.000000,-9030.512492,229.828649
59237.394021,-2146.597232,-11325.150913,-612.876398
59237.394331,-3701.029710,-12065.356855,-766.095498
59237.394641,-4293.194464,-11547.212695,-689.485948
59237.394951,-2442.679609,-11843.295072,1762.019645
59237.395260,-666.185348,-9474.636058,2374.896044
59237.395570,-74.020594,-7105.977043,-76.609550
59237.395880,0.000000,-5107.421000,2451.505594
59237.396190,4663.297435,-6809.894666,4519.963438
59237.396500,1184.329507,-3627.009116,1225.752797
59237.396809,3330.926739,-7105.977043,1915.238745
59237.397119,0.000000,-9252.574275,612.876398
59237.397429,-2442.679609,-11325.150913,-919.314598
59237.397739,-4219.173869,-13323.706956,-1838.629195
59237.398048,-2960.823768,-14063.912898,-76.609550
59237.398358,-1702.473667,-13323.706956,-612.876398
59237.398668,-74.020594,-11843.295072,-76.609550
59237.398978,-370.102971,-6587.832884,-995.924147
59237.399288,3701.029710,-7254.018232,4749.792088
59237.399597,5255.462188,-5033.400406,1991.848295
59237.399907,7031.956449,-7105.977043,4826.401637
59237.400217,4441.235652,-7476.080014,3907.087040
59237.400527,2220.617826,-9474.636058,2834.553343
59237.400836,-962.267725,-11103.089130,995.924147
59237.401146,-4737.318029,-10732.986159,1225.752797
59237.401456,-3256.906145,-12213.398043,0.000000
59237.401766,-2738.761985,-10658.965565,-2528.115143
59237.402076,-5921.647536,-7772.162391,-2451.505594
59237.402385,-592.164754,-9400.615463,1225.752797
59237.402695,2294.638420,-7105.977043,-383.047749
59237.403005,3775.050304,-7994.224174,2987.772442
59237.403315,2220.617826,-6735.874072,2451.505594
59237.403625,962.267725,-7772.162391,2068.457845
59237.403934,-962.267725,-8956.491898,1225.752797
59237.404244,-4145.153275,-8364.327145,0.000000
59237.404554,-4145.153275,-9548.656652,0.000000
59237.404864,-74.020594,-11843.295072,-76.609550
59237.405173,-1850.514855,-7402.059420,-1302.362347
59237.405483,0.000000,-8364.327145,1225.752797
59237.405793,3478.967927,-8882.471304,-76.609550
59237.406103,3034.844362,-9030.512492,2528.115143
59237.406413,1702.473667,-8882.471304,1455.581446
59237.406722,74.020594,-9770.718434,536.266849
59237.407032,-1998.556043,-11251.130318,0.000000
59237.407342,-5921.647536,-9548.656652,-2451.505594
59237.407652,-6513.812290,-9548.656652,-3370.820191
59237.407962,-4737.318029,-10140.821405,612.876398
59237.408271,-666.185348,-9474.636058,-76.609550
59237.408581,-2072.576638,-5403.503377,0.000000
59237.408891,3478.967927,-7994.224174,4826.401637
59237.409201,2960.823768,-6365.771101,3830.477490
59237.409510,3923.091493,-6291.750507,3140.991542
59237.409820,3034.844362,-7179.997637,2451.505594
59237.410130,592.164754,-9030.512492,919.314598
59237.410440,-3330.926739,-9548.656652,-1915.238745
59237.410750,-5181.441594,-11843.295072,-2528.115143
59237.411059,-5921.647536,-13101.645173,-2451.505594
59237.411369,-3034.844362,-13027.624579,-2528.115143
59237.411679,-4145.153275,-8660.409521,-4903.011187
59237.411989,2294.638420,-11103.089130,2374.896044
59237.412298,2664.741391,-6291.750507,2451.505594
59237.412608,5551.544565,-6291.750507,4519.963438
59237.412918,6513.812290,-5551.544565,5056.230287
59237.413228,5699.585753,-6883.915261,4596.572988
59237.413537,3478.967927,-8882.471304,2374.896044
59237.413847,-1258.350101,-11843.295072,-76.609550
59237.414157,-1258.350101,-13027.624579,-76.609550
59237.414466,-6217.729913,-10881.027347,-3370.820191
59237.414776,-3034.844362,-14211.954086,-76.609550
59237.415086,-3923.091493,-11547.212695,-689.485948
59237.415396,-1406.391290,-9474.636058,-76.609550
59237.415705,2886.803174,-9474.636058,2987.772442
59237.416015,2960.823768,-6291.750507,2145.067394
59237.416325,3330.926739,-6809.894666,3294.210641
59237.416634,814.226536,-5329.482782,842.705048
59237.416944,-1258.350101,-7698.141797,-76.609550
59237.417254,-4737.318029,-7772.162391,0.000000
59237.417563,-666.185348,-11843.295072,1455.581446
59237.417873,-3552.988522,-8660.409521,-3677.258390
59237.418183,-74.020594,-11251.130318,1762.019645
59237.418493,-1184.329507,-8068.244768,306.438199
59237.418802,592.164754,-8068.244768,1072.533697
59237.419112,1554.432478,-8290.306550,1072.533697
59237.419422,1554.432478,-8660.409521,1455.581446
59237.419731,1110.308913,-9474.636058,-76.609550
59237.420041,-1850.514855,-11843.295072,-76.609550
59237.420351,-5921.647536,-9548.656652,0.000000
59237.420661,-2442.679609,-13027.624579,-76.609550
59237.420970,-4737.318029,-8660.409521,-3064.381992
59237.421280,-2368.659014,-9548.656652,2604.724693
59237.421590,-2294.638420,-6291.750507,1225.752797
59237.421899,666.185348,-6291.750507,2451.505594
59237.422209,2368.659014,-6365.771101,2987.772442
59237.422519,3701.029710,-6513.812290,3140.991542
59237.422828,4663.297435,-8882.471304,4213.525239
59237.423138,2294.638420,-11843.295072,3600.648841
59237.423448,-2960.823768,-8586.388927,-2221.676944
59237.423758,-3552.988522,-13101.645173,-1072.533697
59237.424067,-3627.009116,-13027.624579,-2528.115143
59237.424377,-5921.647536,-10732.986159,-2145.067394
59237.424687,-4071.132681,-9548.656652,-2374.896044
59237.424996,-444.123565,-8512.368333,0.000000
59237.425306,2886.803174,-7105.977043,2451.505594
59237.425616,5403.503377,-6513.812290,3907.087040
59237.425926,9104.533087,-9178.553681,6665.030833
59237.426235,7328.038826,-8808.450710,6281.983084
59237.426545,4663.297435,-9474.636058,3294.210641
59237.426855,-1776.494261,-9548.656652,612.876398
59237.427164,-74.020594,-14211.954086,2374.896044
59237.427474,-5921.647536,-9548.656652,-2451.505594
59237.427784,-4811.338623,-11251.130318,-2374.896044
59237.428093,-4441.235652,-10214.842000,-1991.848295
59237.428403,-2072.576638,-8882.471304,-842.705048
59237.428713,888.247130,-7994.224174,995.924147
59237.429023,4145.153275,-7920.203579,3524.039291
59237.429332,4737.318029,-7179.997637,4903.011187
59237.429642,2886.803174,-7105.977043,2068.457845
59237.429952,0.000000,-7772.162391,1225.752797
59237.430261,-962.267725,-10362.883188,-76.609550
59237.430571,-4737.318029,-7772.162391,0.000000
59237.430881,-666.185348,-10066.800811,-76.609550
59237.431191,-1702.473667,-9030.512492,0.000000
59237.431500,-814.226536,-8290.306550,306.438199
59237.431810,148.041188,-8438.347739,1149.143247
59237.432120,1184.329507,-7772.162391,2451.505594
59237.432429,0.000000,-7179.997637,1225.752797
59237.432739,2294.638420,-11251.130318,3294.210641
59237.433049,-1554.432478,-9474.636058,-229.828649
59237.433358,-1776.494261,-13101.645173,2604.724693
59237.433668,-3627.009116,-10362.883188,-2221.676944
59237.433978,-3997.112087,-10214.842000,383.047749
59237.434288,-3034.844362,-8290.306550,-76.609550
59237.434597,-1628.453072,-7031.956449,1378.971896
59237.434907,370.102971,-6365.771101,2374.896044
59237.435217,592.164754,-4811.338623,1532.190996
59237.435526,0.000000,-3627.009116,1225.752797
59237.435836,4663.297435,-8882.471304,4213.525239
59237.436146,0.000000,-7179.997637,0.000000
59237.436456,-370.102971,-11843.295072,-76.609550
59237.436765,-2442.679609,-11843.295072,-2528.115143
59237.437075,-4737.318029,-12805.562797,-2298.286494
59237.437385,-4441.235652,-12583.501014,-2298.286494
59237.437694,-3478.967927,-10066.800811,-1915.238745
59237.438004,-1406.391290,-7846.182985,-459.657299
59237.438314,592.164754,-4811.338623,229.828649
59237.438623,3478.967927,-3849.070898,1149.143247
59237.438933,5329.482782,-5403.503377,4903.011187
59237.439243,7031.956449,-7105.977043,4519.963438
59237.439553,3478.967927,-10658.965565,5209.449386
59237.439862,2294.638420,-11843.295072,2374.896044
59237.440172,-3552.988522,-11399.171507,-1072.533697
59237.440482,-4219.173869,-12731.542202,-1455.581446
59237.440791,-4663.297435,-11843.295072,-2221.676944
59237.441101,-4219.173869,-10584.944971,-2221.676944
59237.441411,-1554.432478,-9474.636058,-689.485948
59237.441720,1702.473667,-7105.977043,-76.609550
59237.442030,1332.370696,-5107.421000,1225.752797
59237.442340,4145.153275,-6587.832884,5515.887586
59237.442650,4663.297435,-5921.647536,2374.896044
59237.442959,2220.617826,-9030.512492,3600.648841
59237.443269,-2072.576638,-9104.533087,612.876398
59237.443579,-2368.659014,-10658.965565,-383.047749
59237.443888,-2664.741391,-10140.821405,-919.314598
59237.444198,-2738.761985,-9770.718434,-1532.190996
59237.444508,-370.102971,-9474.636058,-76.609550
59237.444818,-74.020594,-9474.636058,-76.609550
59237.445127,0.000000,-7179.997637,0.000000
59237.445437,2368.659014,-8660.409521,2451.505594
59237.445747,3478.967927,-9474.636058,-76.609550
59237.446056,0.000000,-10584.944971,1685.410096
59237.446366,-2146.597232,-10510.924376,-229.828649
59237.446676,-3552.988522,-10510.924376,0.000000
59237.446985,-3923.091493,-10140.821405,0.000000
59237.447295,-3478.967927,-8216.285956,-229.828649
59237.447605,-74.020594,-8290.306550,1762.019645
59237.447915,2886.803174,-8882.471304,3600.648841
59237.448224,518.144159,-5255.462188,1608.800546
59237.448534,1776.494261,-6587.832884,3677.258390
59237.448844,1702.473667,-6513.812290,1149.143247
59237.449153,0.000000,-8364.327145,1225.752797
59237.449463,-666.185348,-10362.883188,-76.609550
59237.449773,-3108.864956,-12139.377449,-1378.971896
59237.450083,-4293.194464,-12805.562797,-1838.629195
59237.450392,-4219.173869,-12509.480420,-2145.067394
59237.450702,-2664.741391,-11769.274478,-1072.533697
59237.451012,444.123565,-10140.821405,2298.286494
59237.451321,2886.803174,-7105.977043,2068.457845
59237.451631,3552.988522,-4811.338623,2451.505594
59237.451941,9400.615463,-8290.306550,4826.401637
59237.452250,3849.070898,-4811.338623,3677.258390
59237.452560,3997.112087,-8734.430116,3600.648841
59237.452870,0.000000,-10584.944971,306.438199
59237.453180,-2812.782580,-12657.521608,-459.657299
59237.453489,-4219.173869,-13101.645173,-1838.629195
59237.453799,-5329.482782,-12213.398043,-3064.381992
59237.454109,-4737.318029,-11917.315666,-612.876398
59237.454418,-814.226536,-10658.965565,-76.609550
59237.454728,222.061783,-7994.224174,-76.609550
59237.455038,1184.329507,-5995.668130,2451.505594
59237.455348,3552.988522,-4811.338623,3677.258390
59237.455657,4367.215058,-7031.956449,4213.525239
59237.455967,1480.411884,-7254.018232,2374.896044
59237.456277,-814.226536,-9030.512492,1149.143247
59237.456586,-2368.659014,-10066.800811,229.828649
59237.456896,-3552.988522,-9548.656652,-1991.848295
59237.457206,-4737.318029,-9548.656652,0.000000
59237.457515,-370.102971,-11251.130318,-76.609550
59237.457825,-74.020594,-9474.636058,-76.609550
59237.458135,0.000000,-6291.750507,0.000000
59237.458445,2146.597232,-7772.162391,0.000000
59237.458754,2368.659014,-8660.409521,2604.724693
59237.459064,222.061783,-9178.553681,766.095498
59237.459374,-1628.453072,-10732.986159,153.219100
59237.459683,-2886.803174,-10881.027347,383.047749
59237.459993,-5329.482782,-9548.656652,0.000000
59237.460303,-5921.647536,-7179.997637,0.000000
59237.460613,-1258.350101,-8882.471304,1149.143247
59237.460922,-2072.576638,-5995.668130,1225.752797
59237.461232,3478.967927,-8882.471304,3294.210641
59237.461542,2886.803174,-6957.935855,689.485948
59237.461851,2368.659014,-7179.997637,2451.505594
59237.462161,1924.535449,-7920.203579,1838.629195
59237.462471,-296.082377,-9474.636058,306.438199
59237.462780,-2664.741391,-11325.150913,-76.609550
59237.463090,-4959.379811,-11843.295072,-1915.238745
59237.463400,-5551.544565,-10955.047942,-4060.306139
59237.463710,-4145.153275,-11325.150913,-1532.190996
59237.464019,-1258.350101,-9474.636058,-1302.362347
59237.464329,0.000000,-5403.503377,0.000000
59237.464639,4663.297435,-6957.935855,1762.019645
59237.464948,5107.421000,-5995.668130,3677.258390
59237.465258,5403.503377,-6587.832884,4443.353888
59237.465568,3701.029710,-8364.327145,3524.039291
59237.465878,1036.288319,-9918.759623,2757.943793
59237.466187,-1850.514855,-11843.295072,1149.143247
59237.466497,-2442.679609,-13027.624579,-689.485948
59237.466807,-5329.482782,-11325.150913,-1838.629195
59237.467116,-3034.844362,-13027.624579,-76.609550
59237.467426,-3034.844362,-8438.347739,-2374.896044
59237.467736,666.185348,-8216.285956,1762.019645
59237.468045,1924.535449,-6735.874072,2145.067394
59237.468355,3404.947333,-6587.832884,3294.210641
59237.468665,3256.906145,-7105.977043,3140.991542
59237.468975,1480.411884,-8290.306550,2451.505594
59237.469284,-74.020594,-10955.047942,2221.676944
59237.469594,-370.102971,-11843.295072,-76.609550
59237.469904,-4441.235652,-9548.656652,0.000000
59237.470213,-74.020594,-12287.418637,2681.334243
59237.470523,-666.185348,-9474.636058,-1302.362347
59237.470833,-592.164754,-9178.553681,2374.896044
59237.471142,666.185348,-7402.059420,229.828649
59237.471452,1924.535449,-7920.203579,1455.581446
59237.471762,2146.597232,-8290.306550,1762.019645
59237.472072,74.020594,-8660.409521,0.000000
59237.472381,-444.123565,-11547.212695,1225.752797
59237.472691,-1258.350101,-13027.624579,-76.609550
59237.473001,-4959.379811,-9918.759623,-1455.581446
59237.473310,-1480.411884,-12361.439231,2987.772442
59237.473620,-1850.514855,-7105.977043,-76.609550
59237.473930,0.000000,-8660.409521,3140.991542
59237.474240,1702.473667,-6735.874072,2681.334243
59237.474549,3034.844362,-6217.729913,2681.334243
59237.474859,3404.947333,-6883.915261,3064.381992
59237.475169,2220.617826,-7179.997637,76.609550
59237.475478,0.000000,-9548.656652,0.000000
59237.475788,-1776.494261,-12065.356855,0.000000
59237.476098,-3627.009116,-12953.603985,-2528.115143
59237.476407,-4145.153275,-13693.809927,0.000000
59237.476717,-1850.514855,-13027.624579,-689.485948
59237.477027,-2368.659014,-9844.739029,0.000000
59237.477337,1554.432478,-7846.182985,1225.752797
59237.477646,4071.132681,-6291.750507,2681.334243
59237.477956,5699.585753,-6069.688724,4213.525239
59237.478266,6513.812290,-4885.359217,3600.648841
59237.478575,3849.070898,-5995.668130,2451.505594
59237.478885,1184.329507,-9548.656652,2451.505594
59237.479195,-666.185348,-13027.624579,-76.609550
59237.479505,-4737.318029,-10732.986159,-2451.505594
59237.479814,-3034.844362,-14211.954086,-76.609550
59237.480124,-5625.565159,-10436.903782,-3370.820191
59237.480434,-3627.009116,-10881.027347,-1532.190996
59237.480743,-814.226536,-8438.347739,-306.438199
59237.481053,2368.659014,-7402.059420,2068.457845
59237.481363,4367.215058,-6513.812290,4519.963438
59237.481672,3552.988522,-4811.338623,2681.334243
59237.481982,1184.329507,-5995.668130,3677.258390
59237.482292,1480.411884,-9400.615463,4213.525239
59237.482602,-4589.276840,-7179.997637,0.000000
59237.482911,-1110.308913,-11621.233289,2145.067394
59237.483221,-4441.235652,-8364.327145,-2145.067394
59237.483531,-2664.741391,-9918.759623,-1225.752797
59237.483840,-1332.370696,-9400.615463,-536.266849
59237.484150,0.000000,-9030.512492,229.828649
59237.484460,1332.370696,-9474.636058,1762.019645
59237.484770,1406.391290,-7550.100608,1149.143247
59237.485079,0.000000,-7772.162391,0.000000
59237.485389,-296.082377,-11399.171507,2374.896044
59237.485699,-5255.462188,-8364.327145,-2298.286494
59237.486008,-2516.700203,-11621.233289,1225.752797
59237.486318,-3627.009116,-7476.080014,0.000000
59237.486628,-2664.741391,-7254.018232,919.314598
59237.486937,-888.247130,-6513.812290,1532.190996
59237.487247,888.247130,-6291.750507,2681.334243
59237.487557,3478.967927,-8290.306550,4596.572988
59237.487867,2886.803174,-8290.306550,3600.648841
59237.488176,666.185348,-7402.059420,229.828649
59237.488486,-1480.411884,-9844.739029,1838.629195
59237.488796,-4663.297435,-9548.656652,-3294.210641
59237.489105,-5921.647536,-12509.480420,-3677.258390
59237.489415,-5403.503377,-12287.418637,-2987.772442
59237.489725,-4219.173869,-11769.274478,-1915.238745
59237.490035,-1998.556043,-9252.574275,-153.219100
59237.490344,1554.432478,-7698.141797,2068.457845
59237.490654,4663.297435,-7105.977043,5745.716235
59237.490964,6291.750507,-6513.812290,5745.716235
59237.491273,5847.626942,-4811.338623,3294.210641
59237.491583,4737.318029,-7254.018232,5975.544884
59237.491893,1110.308913,-7698.141797,-76.609550
59237.492202,-2368.659014,-10140.821405,0.000000
59237.492512,-2442.679609,-13619.789333,-689.485948
59237.492822,-5329.482782,-12805.562797,-2604.724693
59237.493132,-5477.523971,-11917.315666,-2681.334243
59237.493441,-4071.132681,-10362.883188,-2451.505594
59237.493751,-1184.329507,-8364.327145,612.876398
59237.494061,4071.132681,-8660.409521,3677.258390
59237.494370,4515.256246,-5329.482782,2987.772442
59237.494680,4737.318029,-4811.338623,4903.011187
59237.494990,7031.956449,-8290.306550,4213.525239
59237.495300,0.000000,-4811.338623,0.000000
59237.495609,-74.020594,-10658.965565,1455.581446
59237.495919,-2738.761985,-10881.027347,-689.485948
59237.496229,-3330.926739,-11029.068536,-306.438199
59237.496538,-3701.029710,-10214.842000,-2221.676944
59237.496848,-3552.988522,-8660.409521,-2451.505594
59237.497158,1258.350101,-9844.739029,1838.629195
59237.497467,4071.132681,-9474.636058,2374.896044
59237.497777,2146.597232,-5403.503377,0.000000
59237.498087,3256.906145,-10140.821405,3830.477490
59237.498397,-74.020594,-9474.636058,-76.609550
59237.498706,-740.205942,-11843.295072,2068.457845
59237.499016,-3108.864956,-10881.027347,459.657299
59237.499326,-3775.050304,-10066.800811,-76.609550
59237.499635,-3108.864956,-8586.388927,0.000000
59237.499945,-3552.988522,-5995.668130,0.000000
59237.500255,592.164754,-7772.162391,3064.381992
59237.500564,3478.967927,-8290.306550,2374.896044
59237.500874,592.164754,-4811.338623,0.000000
59237.501184,4663.297435,-10658.965565,4826.401637
59237.501494,-962.267725,-7698.141797,-76.609550
59237.501803,-296.082377,-11547.212695,842.705048
59237.502113,-3552.988522,-11547.212695,-1455.581446
59237.502423,-4589.276840,-11769.274478,-1838.629195
59237.502732,-4293.194464,-11473.192101,-1608.800546
59237.503042,-4441.235652,-7772.162391,-3064.381992
59237.503352,1110.308913,-8364.327145,3064.381992
59237.503662,3478.967927,-6513.812290,2374.896044
59237.503971,3552.988522,-5107.421000,3677.258390
59237.504281,5847.626942,-5625.565159,3447.429741
59237.504591,4737.318029,-7698.141797,3907.087040
59237.504900,4071.132681,-11251.130318,3294.210641
59237.505210,-1406.391290,-11399.171507,153.219100
59237.505520,-3627.009116,-12953.603985,-612.876398
59237.505829,-4441.235652,-12657.521608,-1915.238745
59237.506139,-6809.894666,-10140.821405,-4290.134789
59237.506449,-4145.153275,-9548.656652,-2068.457845
59237.506759,-3108.864956,-7179.997637,-1225.752797
59237.507068,888.247130,-7179.997637,612.876398
59237.507378,6439.791695,-8586.388927,5439.278036
59237.507688,4663.297435,-4737.318029,3677.258390
59237.507997,3256.906145,-5995.668130,4903.011187
59237.508307,1998.556043,-8734.430116,2374.896044
59237.508617,-1332.370696,-9474.636058,536.266849
59237.508927,-2516.700203,-11103.089130,-153.219100
59237.509236,-2516.700203,-10658.965565,-689.485948
59237.509546,-4145.153275,-9548.656652,-2987.772442
59237.509856,-3552.988522,-9548.656652,-1838.629195
59237.510165,370.102971,-10066.800811,2911.162892
59237.510475,2294.638420,-7105.977043,-76.609550
59237.510785,1184.329507,-7179.997637,2451.505594
59237.511094,1184.329507,-7179.997637,1225.752797
59237.511404,666.185348,-9326.594869,1532.190996
59237.511714,-1776.494261,-10288.862594,383.047749
59237.512024,-2812.782580,-10510.924376,612.876398
59237.512334,-3182.885551,-11547.212695,-76.609550
59237.512644,-3849.070898,-7476.080014,-76.609550
59237.512953,-3552.988522,-5995.668130,0.000000
59237.513263,1110.308913,-8290.306550,3600.648841
59237.513573,-666.185348,-4811.338623,76.609550
59237.513883,1776.494261,-7772.162391,2451.505594
59237.514192,1110.308913,-6291.750507,766.095498
59237.514502,592.164754,-8734.430116,1225.752797
59237.514812,-1258.350101,-9992.780217,-229.828649
59237.515122,-3552.988522,-11325.150913,-1685.410096
59237.515431,-3627.009116,-13915.871710,-153.219100
59237.515741,-3330.926739,-13619.789333,-1302.362347
59237.516051,-4367.215058,-8586.388927,-2451.505594
59237.516361,-1184.329507,-8068.244768,1225.752797
59237.516670,3478.967927,-7105.977043,1762.019645
59237.516980,2368.659014,-4811.338623,1225.752797
59237.517290,5847.626942,-5625.565159,3600.648841
59237.517600,5329.482782,-6735.874072,3830.477490
59237.517909,3404.947333,-9104.533087,2834.553343
59237.518219,0.000000,-10955.047942,995.924147
59237.518529,-1850.514855,-13101.645173,612.876398
59237.518839,-2738.761985,-14211.954086,-383.047749
59237.519149,-4811.338623,-11843.295072,-2528.115143
59237.519458,-5921.647536,-9548.656652,-4903.011187
59237.519768,-666.185348,-11251.130318,1149.143247
59237.520078,1110.308913,-6587.832884,-689.485948
59237.520388,4071.132681,-6957.935855,2374.896044
59237.520697,3775.050304,-5403.503377,3830.477490
59237.521007,3552.988522,-6069.688724,3370.820191
59237.521317,1406.391290,-7772.162391,2221.676944
59237.521627,-1776.494261,-8364.327145,1838.629195
59237.521936,-1258.350101,-12731.542202,2298.286494
59237.522246,-1850.514855,-11251.130318,-689.485948
59237.522556,-3552.988522,-9548.656652,-3677.258390
59237.522866,-74.020594,-11843.295072,-76.609550
59237.523175,-1776.494261,-7328.038826,-1302.362347
59237.523485,3182.885551,-9474.636058,1762.019645
59237.523795,2442.679609,-7698.141797,1225.752797
59237.524105,2220.617826,-8364.327145,2145.067394
59237.524414,518.144159,-9178.553681,1455.581446
59237.524724,-3256.906145,-9548.656652,0.000000
59237.525034,-2368.659014,-10732.986159,1532.190996
59237.525344,-2442.679609,-11843.295072,-76.609550
59237.525653,-4145.153275,-7476.080014,-3064.381992
59237.525963,-1184.329507,-8660.409521,2757.943793
59237.526273,-74.020594,-7105.977043,-76.609550
59237.526583,2516.700203,-7994.224174,3294.210641
59237.526892,2294.638420,-6883.915261,2528.115143
59237.527202,2664.741391,-7179.997637,1915.238745
59237.527512,1258.350101,-8734.430116,1302.362347
59237.527822,-2960.823768,-7772.162391,-2451.505594
59237.528132,-4737.318029,-10140.821405,-2451.505594
59237.528441,-3182.885551,-13915.871710,-1302.362347
59237.528751,-5403.503377,-10732.986159,-4903.011187
59237.529061,-1258.350101,-13027.624579,-76.609550
59237.529371,-1258.350101,-9474.636058,-76.609550
59237.529680,1480.411884,-6587.832884,2757.943793
59237.529990,4663.297435,-5847.626942,3600.648841
59237.530300,6143.709319,-5995.668130,4519.963438
59237.530610,6291.750507,-6587.832884,4366.744339
59237.530919,3775.050304,-7698.141797,1762.019645
59237.531229,0.000000,-9548.656652,0.000000
59237.531539,-2220.617826,-12805.562797,459.657299
59237.531849,-3034.844362,-13619.789333,-2528.115143
59237.532158,-8290.306550,-11029.068536,-3677.258390
59237.532468,-2442.679609,-14211.954086,-76.609550
59237.532778,-4145.153275,-8660.409521,-1225.752797
59237.533088,148.041188,-7846.182985,919.314598
59237.533397,3182.885551,-6587.832884,2374.896044
59237.533707,5181.441594,-5551.544565,4213.525239
59237.534017,5847.626942,-5921.647536,4826.401637
59237.534327,1406.391290,-5403.503377,1532.190996
59237.534636,0.000000,-8364.327145,1225.752797
59237.534946,-962.267725,-12435.459826,-76.609550
59237.535256,-4737.318029,-9548.656652,0.000000
59237.535566,-1776.494261,-12213.398043,1225.752797
59237.535875,-4441.235652,-9548.656652,-2451.505594
59237.536185,-1332.370696,-9252.574275,-842.705048
59237.536495,444.123565,-8660.409521,306.438199
59237.536805,2146.597232,-7698.141797,1302.362347
59237.537115,4071.132681,-9474.636058,4519.963438
59237.537424,1998.556043,-8290.306550,1762.019645
59237.537734,-2072.576638,-8956.491898,306.438199
59237.538044,-1480.411884,-12509.480420,3983.696590
59237.538354,-4515.256246,-8364.327145,-1149.143247
59237.538663,-3552.988522,-8364.327145,612.876398
59237.538973,-2738.761985,-7254.018232,-383.047749
59237.539283,-1406.391290,-7179.997637,1455.581446
59237.539593,518.144159,-7698.141797,2374.896044
59237.539902,1628.453072,-7920.203579,2298.286494
59237.540212,3478.967927,-9474.636058,4826.401637
59237.540522,2294.638420,-9474.636058,1762.019645
59237.540832,-2812.782580,-8364.327145,-995.924147
59237.541141,-1850.514855,-13027.624579,-76.609550
59237.541451,-7105.977043,-10732.986159,-2451.505594
59237.541761,-5921.647536,-10732.986159,-3064.381992
59237.542071,-2442.679609,-10066.800811,-1302.362347
59237.542380,-1332.370696,-7920.203579,536.266849
59237.542690,1480.411884,-6291.750507,2298.286494
59237.543000,3849.070898,-5181.441594,3064.381992
59237.543310,5921.647536,-7031.956449,5669.106685
59237.543619,7031.956449,-8882.471304,4826.401637
59237.543929,2516.700203,-8438.347739,2298.286494
59237.544239,518.144159,-13027.624579,3294.210641
59237.544549,-4737.318029,-10732.986159,-1838.629195
59237.544858,-4737.318029,-12213.398043,-2451.505594
59237.545168,-3923.091493,-13027.624579,-1915.238745
59237.545478,-5181.441594,-11325.150913,-2451.505594
59237.545788,-3034.844362,-9030.512492,-1072.533697
59237.546097,-148.041188,-7476.080014,919.314598
59237.546407,2368.659014,-5403.503377,3064.381992
59237.546717,6587.832884,-6513.812290,6052.154434
59237.547027,5847.626942,-5773.606348,4826.401637
59237.547337,0.000000,-4811.338623,2451.505594
59237.547646,2294.638420,-9474.636058,2374.896044
59237.547956,-2886.803174,-8142.265362,-1608.800546
59237.548266,-1554.432478,-13027.624579,-76.609550
59237.548576,-3182.885551,-11473.192101,-2298.286494
59237.548885,-2812.782580,-11103.089130,-1991.848295
59237.549195,-2072.576638,-10140.821405,-1225.752797
59237.549505,0.000000,-7179.997637,0.000000
59237.549815,2368.659014,-8512.368333,1838.629195
59237.550124,4367.215058,-9178.553681,3600.648841
59237.550434,0.000000,-5403.503377,0.000000
59237.550744,2294.638420,-11251.130318,2987.772442
59237.551054,-1850.514855,-10658.965565,-76.609550
59237.551363,-1480.411884,-11251.130318,2068.457845
59237.551673,-2516.700203,-9400.615463,459.657299
59237.551983,-2516.700203,-7846.182985,459.657299
59237.552293,-1406.391290,-7476.080014,919.314598
59237.552602,-1776.494261,-4811.338623,0.000000
59237.552912,0.000000,-6291.750507,1532.190996
59237.553222,2220.617826,-8068.244768,3064.381992
59237.553532,-666.185348,-7031.956449,-766.095498
59237.553841,-74.020594,-10658.965565,1149.143247
59237.554151,-2442.679609,-11843.295072,-383.047749
59237.554461,-4145.153275,-11917.315666,-1072.533697
59237.554771,-4367.215058,-11843.295072,-1302.362347
59237.555080,-3775.050304,-10288.862594,-1149.143247
59237.555390,-1776.494261,-8290.306550,0.000000
59237.555700,518.144159,-5329.482782,0.000000
59237.556010,2368.659014,-3627.009116,2451.505594
59237.556320,5033.400406,-5699.585753,4903.011187
59237.556629,5551.544565,-5329.482782,2374.896044
59237.556939,4737.318029,-9252.574275,4443.353888
59237.557249,3478.967927,-13619.789333,3600.648841
59237.557559,-3256.906145,-11917.315666,0.000000
59237.557868,-4441.235652,-14359.995275,-1302.362347
59237.558178,-5403.503377,-12953.603985,-2451.505594
59237.558488,-5773.606348,-11843.295072,-2834.553343
59237.558798,-2442.679609,-9178.553681,-2528.115143
59237.559107,-1850.514855,-6291.750507,-1149.143247
59237.559417,1184.329507,-5995.668130,2451.505594
59237.559727,6439.791695,-5921.647536,4213.525239
59237.560037,3552.988522,-4811.338623,4903.011187
59237.560346,5329.482782,-7254.018232,6741.640382
59237.560656,0.000000,-7179.997637,766.095498
59237.560966,-1924.535449,-9992.780217,76.609550
59237.561276,-3256.906145,-11843.295072,-1302.362347
59237.561585,-3330.926739,-11621.233289,-2298.286494
59237.561895,-370.102971,-12435.459826,-1302.362347
59237.562205,-1258.350101,-9474.636058,-1915.238745
59237.562515,-1184.329507,-7772.162391,-3370.820191
59237.562824,3849.070898,-9474.636058,3217.601092
59237.563134,3478.967927,-7105.977043,1762.019645
59237.563444,1184.329507,-7179.997637,3064.381992
59237.563754,740.205942,-8438.347739,842.705048
59237.564063,-1480.411884,-10510.924376,1225.752797
59237.564373,-2368.659014,-10362.883188,1149.143247
59237.564683,-2442.679609,-9474.636058,383.047749
59237.564993,-666.185348,-10658.965565,2374.896044
59237.565303,-74.020594,-8290.306550,1149.143247
59237.565612,-1258.350101,-6217.729913,-383.047749
59237.565922,0.000000,-7179.997637,2451.505594
59237.566232,3478.967927,-9474.636058,2987.772442
59237.566542,0.000000,-5403.503377,0.000000
59237.566851,-666.185348,-9178.553681,-383.047749
59237.567161,-2516.700203,-10436.903782,-995.924147
59237.567471,-3404.947333,-11695.253884,-1302.362347
59237.567781,-4219.173869,-11917.315666,-1532.190996
59237.568090,-3404.947333,-12065.356855,612.876398
59237.568400,-74.020594,-10658.965565,1149.143247
59237.568710,1110.308913,-5625.565159,-76.609550
59237.569020,3552.988522,-6587.832884,4290.134789
59237.569329,5847.626942,-6513.812290,3600.648841
59237.569639,2960.823768,-4811.338623,612.876398
59237.569949,4663.297435,-8882.471304,3294.210641
59237.570259,592.164754,-9770.718434,1072.533697
59237.570568,-2368.659014,-11251.130318,-842.705048
59237.570878,-4663.297435,-13989.892304,-1762.019645
59237.571188,-7105.977043,-12213.398043,-1532.190996
59237.571498,-4737.318029,-12879.583391,-1378.971896
59237.571807,-2442.679609,-13027.624579,-76.609550
59237.572117,-1998.556043,-5995.668130,-1302.362347
59237.572427,1776.494261,-7179.997637,3677.258390
59237.572737,5847.626942,-4737.318029,2374.896044
59237.573046,6735.874072,-5921.647536,5745.716235
59237.573356,3849.070898,-5699.585753,3830.477490
59237.573666,814.226536,-7994.224174,1608.800546
59237.573976,-2072.576638,-9992.780217,153.219100
59237.574285,-4737.318029,-10732.986159,0.000000
59237.574595,-4737.318029,-11917.315666,-1838.629195
59237.574905,-1258.350101,-14211.954086,-76.609550
59237.575215,-3034.844362,-10066.800811,-2834.553343
59237.575525,0.000000,-8660.409521,0.000000
59237.575834,4663.297435,-9474.636058,2374.896044
59237.576144,4663.297435,-7846.182985,3140.991542
59237.576454,3552.988522,-7254.018232,2987.772442
59237.576764,1480.411884,-8660.409521,2298.286494
59237.577073,-1258.350101,-10658.965565,1302.362347
59237.577383,-4145.153275,-8364.327145,0.000000
59237.577693,-4145.153275,-9548.656652,0.000000
59237.578003,-1258.350101,-11843.295072,2987.772442
59237.578312,-3330.926739,-5995.668130,-1225.752797
59237.578622,-888.247130,-8364.327145,1532.190996
59237.578932,3478.967927,-9474.636058,3600.648841
59237.579242,1850.514855,-7624.121203,2451.505594
59237.579551,2220.617826,-8290.306550,1762.019645
59237.579861,370.102971,-9104.533087,995.924147
59237.580171,-1776.494261,-9770.718434,-536.266849
59237.580481,-3923.091493,-9622.677246,-3064.381992
59237.580790,-5625.565159,-11029.068536,-2451.505594
59237.581100,-4737.318029,-10732.986159,0.000000
59237.581410,-1258.350101,-9474.636058,-689.485948
59237.581720,-1776.494261,-5995.668130,0.000000
59237.582029,4145.153275,-8586.388927,4826.401637
59237.582339,3552.988522,-5551.544565,2451.505594
59237.582649,5773.606348,-7031.956449,4136.915689
59237.582959,4885.359217,-7920.203579,3217.601092
59237.583268,1924.535449,-9474.636058,2298.286494
59237.583578,-74.020594,-10955.047942,-1302.362347
59237.583888,-4441.235652,-12213.398043,-1762.019645
59237.584198,-4737.318029,-12509.480420,0.000000
59237.584508,-2442.679609,-14211.954086,-1302.362347
59237.584817,-5921.647536,-8660.409521,-2451.505594
59237.585127,-2738.761985,-6883.915261,0.000000
59237.585437,1702.473667,-7550.100608,2068.457845
59237.585747,3404.947333,-5403.503377,3064.381992
59237.586056,4737.318029,-5403.503377,4060.306139
59237.586366,3775.050304,-5921.647536,3447.429741
59237.586676,592.164754,-8364.327145,3677.258390
59237.586986,-518.144159,-9844.739029,1838.629195
59237.587295,-2738.761985,-10362.883188,-1608.800546
59237.587605,-4737.318029,-10732.986159,-1838.629195
59237.587915,-2442.679609,-12435.459826,-689.485948
59237.588225,-1258.350101,-11251.130318,-689.485948
59237.588534,-888.247130,-9252.574275,0.000000
59237.588844,2220.617826,-8364.327145,919.314598
59237.589154,3330.926739,-7476.080014,1762.019645
59237.589464,3256.906145,-7994.224174,2528.115143
59237.589773,1110.308913,-8438.347739,536.266849
59237.590083,-1036.288319,-8586.388927,-995.924147
59237.590393,-3552.988522,-10140.821405,1225.752797
59237.590703,-2442.679609,-11251.130318,-76.609550
59237.591012,-4441.235652,-7179.997637,-2451.505594
59237.591322,-2960.823768,-5995.668130,0.000000
59237.591632,-74.020594,-7254.018232,1608.800546
59237.591942,518.144159,-7328.038826,2298.286494
59237.592251,1554.432478,-7254.018232,2145.067394
59237.592561,1406.391290,-8142.265362,1532.190996
59237.592871,666.185348,-9400.615463,1838.629195
59237.593181,-74.020594,-12139.377449,2374.896044
59237.593490,-3923.091493,-10658.965565,-2068.457845
59237.593800,-5921.647536,-11325.150913,-1838.629195
59237.594110,-2442.679609,-14211.954086,-76.609550
59237.594420,-1258.350101,-9474.636058,-383.047749
59237.594730,-1184.329507,-6883.915261,1072.533697
59237.595039,2368.659014,-5921.647536,2987.772442
59237.595349,4811.338623,-5773.606348,4213.525239
59237.595659,5921.647536,-5921.647536,4903.011187
59237.595969,4663.297435,-7105.977043,2987.772442
59237.596278,1110.308913,-7179.997637,153.219100
59237.596588,0.000000,-11917.315666,1072.533697
59237.596898,-3627.009116,-12879.583391,-2068.457845
59237.597208,-6513.812290,-12509.480420,0.000000
59237.597517,-6735.874072,-13101.645173,-2145.067394
59237.597827,-4515.256246,-11547.212695,-2221.676944
59237.598137,-2368.659014,-8956.491898,-536.266849
59237.598447,666.185348,-7105.977043,1762.019645
59237.598756,3552.988522,-5329.482782,3294.210641
59237.599066,5625.565159,-5329.482782,4903.011187
59237.599376,7031.956449,-7105.977043,6052.154434
59237.599686,1406.391290,-5551.544565,1608.800546
59237.599995,-74.020594,-9844.739029,2374.896044
59237.600305,-4515.256246,-8364.327145,-4443.353888
59237.600615,-3627.009116,-11843.295072,-2528.115143
59237.600925,-4145.153275,-11769.274478,-2911.162892
59237.601234,-3478.967927,-11473.192101,-2068.457845
59237.601544,-1184.329507,-9844.739029,-995.924147
59237.601854,1480.411884,-9252.574275,2145.067394
59237.602164,3034.844362,-8290.306550,2374.896044
59237.602473,1776.494261,-5403.503377,1225.752797
59237.602783,3775.050304,-9474.636058,3753.867940
59237.603093,-222.061783,-7772.162391,0.000000
59237.603403,-2368.659014,-10732.986159,2451.505594
59237.603713,-2960.823768,-10436.903782,1685.410096
59237.604022,-2886.803174,-9474.636058,536.266849
59237.604332,-2368.659014,-7624.121203,306.438199
59237.604642,-1036.288319,-7846.182985,1072.533697
59237.604952,518.144159,-7105.977043,536.266849
59237.605261,592.164754,-7179.997637,2451.505594
59237.605571,3775.050304,-9474.636058,3600.648841
59237.605881,814.226536,-8290.306550,536.266849
59237.606191,-518.144159,-11769.274478,2374.896044
59237.606500,-4663.297435,-8364.327145,-3524.039291
59237.606810,-4219.173869,-10955.047942,-1915.238745
59237.607120,-4145.153275,-11029.068536,-1685.410096
59237.607430,-2738.761985,-9992.780217,-383.047749
59237.607739,-888.247130,-7698.141797,842.705048
59237.608049,2516.700203,-7179.997637,3983.696590
59237.608359,4663.297435,-5921.647536,3294.210641
59237.608669,3256.906145,-4811.338623,2145.067394
59237.608978,5625.565159,-8290.306550,4519.963438
59237.609288,0.000000,-7179.997637,0.000000
59237.609598,2294.638420,-14211.954086,3294.210641
59237.609908,-2368.659014,-13397.727550,-229.828649
59237.610217,-4589.276840,-13693.809927,-1532.190996
59237.610527,-5403.503377,-12435.459826,-2298.286494
59237.610837,-4959.379811,-10955.047942,-1838.629195
59237.611147,-3627.009116,-6957.935855,-2834.553343
59237.611456,0.000000,-6587.832884,1225.752797
59237.611766,4589.276840,-6957.935855,4519.963438
59237.612076,4367.215058,-3034.844362,1225.752797
59237.612386,7031.956449,-7698.141797,6665.030833
59237.612696,0.000000,-3627.009116,1225.752797
59237.613005,74.020594,-8586.388927,689.485948
59237.613315,-2590.720797,-10955.047942,229.828649
59237.613625,-3330.926739,-12139.377449,-1378.971896
59237.613935,-3627.009116,-11917.315666,-2068.457845
59237.614244,-2072.576638,-12657.521608,-76.609550
59237.614554,-666.185348,-10066.800811,-689.485948
59237.614864,0.000000,-7254.018232,0.000000
59237.615174,2368.659014,-7179.997637,2451.505594
59237.615484,5033.400406,-8882.471304,4136.915689
59237.615794,4663.297435,-9474.636058,3600.648841
59237.616103,1184.329507,-10140.821405,2451.505594
59237.616413,-296.082377,-11029.068536,2604.724693
59237.616723,-2146.597232,-10658.965565,-76.609550
59237.617033,-2960.823768,-9548.656652,76.609550
59237.617343,-3552.988522,-7476.080014,0.000000
59237.617653,-296.082377,-8808.450710,1149.143247
59237.617962,-74.020594,-8290.306550,1762.019645
59237.618272,0.000000,-4811.338623,0.000000
59237.618582,3478.967927,-9474.636058,2374.896044
59237.618892,0.000000,-8364.327145,1838.629195
59237.619202,-1480.411884,-8660.409521,0.000000
59237.619512,-2812.782580,-10436.903782,-383.047749
59237.619821,-4071.132681,-10881.027347,-1302.362347
59237.620131,-4293.194464,-11251.130318,-1149.143247
59237.620441,-1258.350101,-10658.965565,-383.047749
59237.620751,-1628.453072,-8068.244768,612.876398
59237.621061,1406.391290,-6883.915261,2068.457845
59237.621370,3182.885551,-5995.668130,2681.334243
59237.621680,4515.256246,-6365.771101,3217.601092
59237.621990,5329.482782,-7476.080014,4903.011187
59237.622300,3923.091493,-9474.636058,3600.648841
59237.622610,-2368.659014,-7772.162391,0.000000
59237.622920,-74.020594,-14211.954086,-76.609550
59237.623229,-5921.647536,-12213.398043,-3064.381992
59237.623539,-3627.009116,-13619.789333,-1608.800546
59237.623849,-5551.544565,-11103.089130,-2681.334243
59237.624159,-4441.235652,-8364.327145,-2451.505594
59237.624469,2294.638420,-9474.636058,3600.648841
59237.624779,2294.638420,-5329.482782,2374.896044
59237.625088,4071.132681,-3330.926739,2528.115143
59237.625398,5329.482782,-5625.565159,4979.620737
59237.625708,3330.926739,-6809.894666,3524.039291
59237.626018,-148.041188,-8438.347739,1455.581446
59237.626328,-2442.679609,-10510.924376,-153.219100
59237.626638,-4737.318029,-10881.027347,-1838.629195
59237.626947,-3627.009116,-11843.295072,-2145.067394
59237.627257,-3923.091493,-11621.233289,-2528.115143
59237.627567,-2072.576638,-10140.821405,-1302.362347
59237.627877,592.164754,-8734.430116,153.219100
59237.628187,3478.967927,-7698.141797,1762.019645
59237.628497,3108.864956,-6217.729913,995.924147
59237.628806,1184.329507,-7179.997637,2451.505594
59237.629116,2294.638420,-10510.924376,2374.896044
59237.629426,-2368.659014,-9548.656652,612.876398
59237.629736,-2368.659014,-9844.739029,153.219100
59237.630046,-2442.679609,-9770.718434,536.266849
59237.630355,-2590.720797,-8586.388927,612.876398
59237.630665,-1924.535449,-7624.121203,766.095498
59237.630975,-1036.288319,-7624.121203,995.924147
59237.631285,2294.638420,-8290.306550,2374.896044
59237.631595,1110.308913,-7698.141797,-76.609550
59237.631905,0.000000,-7179.997637,612.876398
59237.632214,1702.473667,-10658.965565,2068.457845
59237.632524,-2442.679609,-9770.718434,-1225.752797
59237.632834,-4737.318029,-9622.677246,-1225.752797
59237.633144,-4071.132681,-11621.233289,-842.705048
59237.633454,-3627.009116,-10510.924376,-919.314598
59237.633764,-2072.576638,-8364.327145,-306.438199
59237.634073,370.102971,-6957.935855,1608.800546
59237.634383,4663.297435,-7105.977043,3600.648841
59237.634693,4959.379811,-7105.977043,3600.648841
59237.635003,2368.659014,-4811.338623,2451.505594
59237.635313,5551.544565,-9474.636058,4213.525239
59237.635623,518.144159,-9474.636058,842.705048
59237.635932,-1554.432478,-12287.418637,-1838.629195
59237.636242,-4293.194464,-13249.686362,-1455.581446
59237.636552,-5181.441594,-13101.645173,-2068.457845
59237.636862,-5403.503377,-11843.295072,-2221.676944
59237.637172,-3478.967927,-9770.718434,-383.047749
59237.637482,-296.082377,-9326.594869,2911.162892
59237.637791,2590.720797,-7105.977043,3600.648841
59237.638101,2516.700203,-3034.844362,2451.505594
59237.638411,5033.400406,-5699.585753,5515.887586
59237.638721,3923.091493,-6513.812290,3447.429741
59237.639031,1406.391290,-8882.471304,76.609550
59237.639341,-2960.823768,-9918.759623,0.000000
59237.639650,-3849.070898,-12139.377449,-1915.238745
59237.639960,-3923.091493,-12435.459826,-2681.334243
59237.640270,-3404.947333,-11399.171507,-919.314598
59237.640580,-3552.988522,-10140.821405,0.000000
59237.640890,2294.638420,-11843.295072,2987.772442
59237.641199,4071.132681,-7994.224174,1149.143247
59237.641509,2516.700203,-5995.668130,2451.505594
59237.641819,4663.297435,-8142.265362,4213.525239
59237.642129,3182.885551,-9474.636058,2374.896044
59237.642439,-740.205942,-9622.677246,1225.752797
59237.642749,-2146.597232,-9992.780217,689.485948
59237.643058,-2960.823768,-10362.883188,0.000000
59237.643368,-3552.988522,-9030.512492,0.000000
59237.643678,-4441.235652,-7179.997637,0.000000
59237.643988,-592.164754,-8956.491898,2451.505594
59237.644298,2294.638420,-9474.636058,2374.896044
59237.644608,0.000000,-6587.832884,842.705048
59237.644917,1480.411884,-7920.203579,2451.505594
59237.645227,1036.288319,-9474.636058,2374.896044
59237.645537,-1554.432478,-9474.636058,-153.219100
59237.645847,-3256.906145,-10436.903782,-306.438199
59237.646157,-3997.112087,-10955.047942,-995.924147
59237.646467,-3552.988522,-10214.842000,-2451.505594
59237.646776,-3552.988522,-7179.997637,0.000000
59237.647086,0.000000,-7179.997637,2451.505594
59237.647396,4071.132681,-7105.977043,3294.210641
59237.647706,2590.720797,-4811.338623,1685.410096
59237.648016,5477.523971,-7402.059420,4673.182538
59237.648326,3552.988522,-9474.636058,4749.792088
59237.648635,962.267725,-9844.739029,1149.143247
59237.648945,-1924.535449,-11769.274478,-229.828649
59237.649255,-4293.194464,-13249.686362,-1685.410096
59237.649565,-5773.606348,-13101.645173,-3677.258390
59237.649875,-6661.853478,-9622.677246,-4060.306139
59237.650184,-4737.318029,-9548.656652,0.000000
59237.650494,-74.020594,-9474.636058,2374.896044
59237.650804,444.123565,-5107.421000,1838.629195
59237.651114,4441.235652,-5995.668130,5132.839837
59237.651424,4885.359217,-5403.503377,6435.202183
59237.651734,4959.379811,-6513.812290,4519.963438
59237.652043,962.267725,-8068.244768,1915.238745
59237.652353,-1998.556043,-10214.842000,306.438199
59237.652663,-3552.988522,-10362.883188,-2528.115143
59237.652973,-3627.009116,-12435.459826,-3140.991542
59237.653283,-6809.894666,-9548.656652,-4290.134789
59237.653593,-1480.411884,-12361.439231,-153.219100
59237.653902,-74.020594,-8882.471304,-689.485948
59237.654212,2072.576638,-7328.038826,2068.457845
59237.654522,3849.070898,-7179.997637,3064.381992
59237.654832,4663.297435,-7402.059420,3217.601092
59237.655142,2516.700203,-8438.347739,2298.286494
59237.655452,296.082377,-10288.862594,1685.410096
59237.655761,-2146.597232,-10362.883188,1762.019645
59237.656071,-2442.679609,-10658.965565,76.609550
59237.656381,-1258.350101,-9474.636058,-76.609550
59237.656691,-4737.318029,-7179.997637,0.000000
59237.657001,-74.020594,-9474.636058,2374.896044
59237.657311,370.102971,-7105.977043,1915.238745
59237.657620,1184.329507,-5403.503377,1225.752797
59237.657930,2220.617826,-7994.224174,2221.676944
59237.658240,814.226536,-8808.450710,842.705048
59237.658550,-1554.432478,-9918.759623,-689.485948
59237.658860,-2664.741391,-12435.459826,-76.609550
59237.659169,-2442.679609,-12435.459826,-76.609550
59237.659479,-2442.679609,-11251.130318,-1915.238745
59237.659789,-4145.153275,-8364.327145,0.000000
59237.660099,-74.020594,-8882.471304,1762.019645
59237.660409,1184.329507,-5255.462188,1225.752797
59237.660719,3330.926739,-4811.338623,2451.505594
59237.661028,5329.482782,-6661.853478,4213.525239
59237.661338,4663.297435,-7846.182985,3294.210641
59237.661648,1776.494261,-9622.677246,2298.286494
59237.661958,-74.020594,-12879.583391,1149.143247
59237.662268,-2368.659014,-14211.954086,-306.438199
59237.662578,-2442.679609,-15396.283594,-1302.362347
59237.662887,-7624.121203,-10140.821405,-4136.915689
59237.663197,-4441.235652,-11177.109724,-76.609550
59237.663507,-1554.432478,-8290.306550,0.000000
59237.663817,518.144159,-5921.647536,1762.019645
59237.664127,3256.906145,-5403.503377,3907.087040
59237.664437,4885.359217,-4811.338623,4519.963438
59237.664746,4293.194464,-5847.626942,4213.525239
59237.665056,2220.617826,-7920.203579,3370.820191
59237.665366,-2072.576638,-9474.636058,-76.609550
59237.665676,-2516.700203,-12657.521608,-153.219100
59237.665986,-4515.256246,-11251.130318,-3447.429741
59237.666296,-4737.318029,-11621.233289,-1838.629195
59237.666605,-2442.679609,-10288.862594,-3447.429741
59237.666915,-74.020594,-9474.636058,-76.609550
59237.667225,1480.411884,-7846.182985,842.705048
59237.667535,4219.173869,-7105.977043,2681.334243
59237.667845,4515.256246,-7105.977043,3600.648841
59237.668155,2368.659014,-7772.162391,3064.381992
59237.668464,0.000000,-8364.327145,2681.334243
59237.668774,-1776.494261,-11029.068536,2451.505594
59237.669084,-1258.350101,-11251.130318,-76.609550
59237.669394,-4737.318029,-8660.409521,0.000000
59237.669704,-2442.679609,-9178.553681,-76.609550
59237.670013,-74.020594,-9474.636058,-76.609550
59237.670323,296.082377,-8216.285956,1378.971896
59237.670633,1406.391290,-7772.162391,1532.190996
59237.670943,2294.638420,-7772.162391,2451.505594
59237.671253,0.000000,-6587.832884,306.438199
59237.671563,-1628.453072,-7772.162391,0.000000
59237.671872,-4737.318029,-9548.656652,0.000000
59237.672182,-1850.514855,-12435.459826,-76.609550
59237.672492,-4737.318029,-9548.656652,-4290.134789
59237.672802,-1850.514855,-10658.965565,-76.609550
59237.673112,-74.020594,-9178.553681,1991.848295
59237.673422,1480.411884,-6957.935855,2068.457845
59237.673731,3256.906145,-6439.791695,2911.162892
59237.674041,4885.359217,-6439.791695,3064.381992
59237.674351,2886.803174,-5699.585753,2145.067394
59237.674661,2294.638420,-9474.636058,2604.724693
59237.674971,-2960.823768,-9548.656652,0.000000
59237.675281,-1850.514855,-13767.830521,-76.609550
59237.675590,-5699.585753,-12213.398043,-4903.011187
59237.675900,-5107.421000,-13619.789333,-689.485948
59237.676210,-4737.318029,-10732.986159,-612.876398
59237.676520,-1998.556043,-8734.430116,229.828649
59237.676830,592.164754,-7105.977043,2068.457845
59237.677140,3478.967927,-5921.647536,3983.696590
59237.677449,5255.462188,-4737.318029,4519.963438
59237.677759,4663.297435,-5995.668130,4443.353888
59237.678069,296.082377,-5995.668130,1225.752797
59237.678379,-592.164754,-10436.903782,1532.190996
59237.678689,-3034.844362,-10362.883188,-1915.238745
59237.678998,-3701.029710,-12583.501014,-612.876398
59237.679308,-4737.318029,-10732.986159,-3064.381992
59237.679618,-3330.926739,-11251.130318,-1915.238745
59237.679928,-1332.370696,-9252.574275,-766.095498
59237.680238,1406.391290,-7772.162391,612.876398
59237.680548,4663.297435,-7698.141797,2834.553343
59237.680857,5847.626942,-6587.832884,4443.353888
59237.681167,4663.297435,-9178.553681,3600.648841
