#time,accel_x,accel_y,accel_z
59455.393284,-296.082377,-9178.553681,842.705048
59455.393594,-296.082377,-9252.574275,1072.533697
59455.393903,1110.308913,-10658.965565,1302.362347
59455.394213,74.020594,-9770.718434,1608.800546
59455.394523,-74.020594,-8882.471304,-76.609550
59455.394833,0.000000,-8956.491898,2298.286494
59455.395142,-370.102971,-7698.141797,-76.609550
59455.395452,-2368.659014,-8364.327145,1225.752797
59455.395762,-814.226536,-8512.368333,459.657299
59455.396072,-666.185348,-8956.491898,766.095498
59455.396381,-296.082377,-9178.553681,612.876398
59455.396691,-222.061783,-8956.491898,919.314598
59455.397001,296.082377,-10140.821405,1302.362347
59455.397311,0.000000,-8660.409521,766.095498
59455.397620,-74.020594,-10510.924376,1762.019645
59455.397930,-1480.411884,-7476.080014,0.000000
59455.398240,2146.597232,-11843.295072,2987.772442
59455.398549,-2368.659014,-7179.997637,0.000000
59455.398859,-74.020594,-8882.471304,536.266849
59455.399169,-370.102971,-9252.574275,995.924147
59455.399479,-148.041188,-8808.450710,919.314598
59455.399788,-370.102971,-8882.471304,995.924147
59455.400098,0.000000,-8068.244768,919.314598
59455.400408,-962.267725,-8364.327145,153.219100
59455.400718,148.041188,-9622.677246,1838.629195
59455.401027,-518.144159,-7476.080014,-1915.238745
59455.401337,0.000000,-9548.656652,2451.505594
59455.401647,-1406.391290,-7772.162391,0.000000
59455.401957,-74.020594,-9474.636058,995.924147
59455.402266,-370.102971,-9104.533087,842.705048
59455.402576,0.000000,-9104.533087,919.314598
59455.402886,-296.082377,-8956.491898,612.876398
59455.403195,-2368.659014,-7476.080014,306.438199
59455.403505,-2146.597232,-7476.080014,0.000000
59455.403815,-592.164754,-9548.656652,1225.752797
59455.404125,-74.020594,-9474.636058,-76.609550
59455.404434,0.000000,-8660.409521,1225.752797
59455.404744,-74.020594,-9178.553681,76.609550
59455.405054,-74.020594,-9474.636058,1378.971896
59455.405364,-518.144159,-8882.471304,689.485948
59455.405673,-296.082377,-8956.491898,1149.143247
59455.405983,-74.020594,-9252.574275,766.095498
59455.406293,-2072.576638,-8586.388927,0.000000
59455.406602,-814.226536,-7846.182985,-229.828649
59455.406912,-1776.494261,-8364.327145,0.000000
59455.407222,-74.020594,-8290.306550,-689.485948
59455.407532,0.000000,-9548.656652,2145.067394
59455.407841,2294.638420,-9474.636058,1149.143247
59455.408151,-592.164754,-8956.491898,842.705048
59455.408461,-148.041188,-9326.594869,995.924147
59455.408771,-222.061783,-8882.471304,689.485948
59455.409080,-296.082377,-9252.574275,1072.533697
59455.409390,-74.020594,-9474.636058,1149.143247
59455.409700,-74.020594,-8882.471304,-76.609550
59455.410010,-2368.659014,-7476.080014,0.000000
59455.410319,1110.308913,-11251.130318,2374.896044
59455.410629,-3256.906145,-7179.997637,0.000000
59455.410939,2294.638420,-10658.965565,2374.896044
59455.411248,-1184.329507,-8660.409521,229.828649
59455.411558,-296.082377,-8956.491898,995.924147
59455.411868,-888.247130,-9030.512492,459.657299
59455.412178,-592.164754,-9104.533087,689.485948
59455.412487,-74.020594,-9474.636058,2374.896044
59455.412797,-74.020594,-9474.636058,1608.800546
59455.413107,-1258.350101,-7920.203579,0.000000
59455.413417,888.247130,-11251.130318,3524.039291
59455.413726,-1258.350101,-7550.100608,-689.485948
59455.414036,888.247130,-10362.883188,2834.553343
59455.414346,-814.226536,-8364.327145,76.609550
59455.414656,0.000000,-8956.491898,1072.533697
59455.414965,74.020594,-8586.388927,689.485948
59455.415275,666.185348,-8882.471304,536.266849
59455.415585,2294.638420,-9178.553681,2451.505594
59455.415894,2146.597232,-9400.615463,2068.457845
59455.416204,2294.638420,-9474.636058,842.705048
59455.416514,1184.329507,-9548.656652,2451.505594
59455.416824,2886.803174,-9474.636058,-76.609550
59455.417133,1776.494261,-9548.656652,2451.505594
59455.417443,2886.803174,-9326.594869,1149.143247
59455.417753,2960.823768,-9400.615463,689.485948
59455.418063,2886.803174,-9844.739029,995.924147
59455.418372,888.247130,-7772.162391,0.000000
59455.418682,2960.823768,-9548.656652,0.000000
59455.418992,3552.988522,-8956.491898,1225.752797
59455.419302,5255.462188,-9474.636058,1608.800546
59455.419611,3552.988522,-7179.997637,2451.505594
59455.419921,7031.956449,-9474.636058,1762.019645
59455.420231,4737.318029,-7476.080014,1225.752797
59455.420540,5847.626942,-8290.306550,1149.143247
59455.420850,5329.482782,-8364.327145,689.485948
59455.421160,5551.544565,-8882.471304,229.828649
59455.421470,5995.668130,-9252.574275,766.095498
59455.421779,5329.482782,-8364.327145,0.000000
59455.422089,4737.318029,-8956.491898,0.000000
59455.422399,6439.791695,-11843.295072,-76.609550
59455.422709,1184.329507,-9548.656652,0.000000
59455.423018,5847.626942,-14211.954086,-76.609550
59455.423328,740.205942,-11325.150913,0.000000
59455.423638,3034.844362,-11695.253884,459.657299
59455.423948,2146.597232,-9622.677246,842.705048
59455.424257,3182.885551,-7031.956449,1685.410096
59455.424567,4293.194464,-5181.441594,2068.457845
59455.424877,4737.318029,-2442.679609,1149.143247
59455.425186,6143.709319,-2738.761985,1838.629195
59455.425496,8882.471304,-5699.585753,3064.381992
59455.425806,7624.121203,-5625.565159,842.705048
59455.426116,7105.977043,-10732.986159,2145.067394
59455.426425,1998.556043,-12583.501014,-1225.752797
59455.426735,-1480.411884,-17172.777854,-2451.505594
59455.427045,-3849.070898,-17616.901420,-2834.553343
59455.427355,-4071.132681,-14582.057057,-2987.772442
59455.427664,-3330.926739,-10955.047942,-1608.800546
59455.427974,-1110.308913,-7105.977043,-76.609550
59455.428284,1998.556043,-5847.626942,1762.019645
59455.428594,3552.988522,-3627.009116,2451.505594
59455.428903,7031.956449,-7105.977043,6052.154434
59455.429213,1184.329507,-3627.009116,3830.477490
59455.429523,2886.803174,-4663.297435,1838.629195
59455.429832,2368.659014,-4219.173869,3064.381992
59455.430142,3552.988522,-4145.153275,1915.238745
59455.430452,2590.720797,-6439.791695,536.266849
59455.430762,0.000000,-11029.068536,-689.485948
59455.431071,-3034.844362,-18357.107362,-1302.362347
59455.431381,-5403.503377,-21021.848753,-3140.991542
59455.431691,-7994.224174,-16062.468941,-6358.592633
59455.432001,-4737.318029,-11917.315666,-2451.505594
59455.432310,-74.020594,-8290.306550,-76.609550
59455.432620,3478.967927,-4589.276840,1149.143247
59455.432930,4145.153275,-3627.009116,4519.963438
59455.433240,5181.441594,-4145.153275,4903.011187
59455.433549,6661.853478,-5403.503377,5745.716235
59455.433859,8364.327145,-4367.215058,6971.469032
59455.434169,9400.615463,-5625.565159,7124.688131
59455.434478,7031.956449,-7105.977043,4673.182538
59455.434788,0.000000,-9548.656652,0.000000
59455.435098,-74.020594,-17468.860231,-1302.362347
59455.435408,-1850.514855,-16580.613101,-4366.744339
59455.435717,-1258.350101,-15914.427753,-3140.991542
59455.436027,-4737.318029,-14878.139434,-4136.915689
59455.436337,-3923.091493,-11917.315666,-3677.258390
59455.436647,-888.247130,-10140.821405,-1455.581446
59455.436956,5255.462188,-5773.606348,2451.505594
59455.437266,11917.315666,-1850.514855,6128.763984
59455.437576,13175.665768,-1924.535449,7967.393179
59455.437886,12953.603985,-5921.647536,7890.783629
59455.438195,7105.977043,-5995.668130,4903.011187
59455.438505,7920.203579,-9474.636058,3294.210641
59455.438815,2960.823768,-11843.295072,1762.019645
59455.439124,-1702.473667,-11843.295072,-3983.696590
59455.439434,-3701.029710,-15248.242405,-4826.401637
59455.439744,148.041188,-14359.995275,-3907.087040
59455.440054,3849.070898,-11621.233289,-3064.381992
59455.440363,2368.659014,-9548.656652,0.000000
59455.440673,1332.370696,-10732.986159,306.438199
59455.440983,4663.297435,-11843.295072,2374.896044
59455.441293,5921.647536,-2442.679609,1838.629195
59455.441602,8882.471304,-3330.926739,5515.887586
59455.441912,5477.523971,-5181.441594,3830.477490
59455.442222,5403.503377,-7105.977043,1762.019645
59455.442532,7105.977043,-8660.409521,1685.410096
59455.442841,5625.565159,-10140.821405,2298.286494
59455.443151,-296.082377,-11325.150913,-2374.896044
59455.443461,-4737.318029,-12509.480420,-4903.011187
59455.443770,-3552.988522,-12509.480420,-3677.258390
59455.444080,-74.020594,-15100.201217,-76.609550
59455.444390,-2294.638420,-7179.997637,-2068.457845
59455.444700,4145.153275,-8290.306550,3600.648841
59455.445009,6513.812290,-4811.338623,3677.258390
59455.445319,7031.956449,-5921.647536,3600.648841
59455.445629,3330.926739,-6661.853478,3447.429741
59455.445939,2146.597232,-6957.935855,2298.286494
59455.446248,2368.659014,-6217.729913,-76.609550
59455.446558,1258.350101,-7179.997637,-2374.896044
59455.446868,0.000000,-9548.656652,0.000000
59455.447178,1776.494261,-12213.398043,2451.505594
59455.447487,-74.020594,-13027.624579,-1915.238745
59455.447797,-3552.988522,-13101.645173,-1225.752797
59455.448107,-2368.659014,-10732.986159,0.000000
59455.448416,814.226536,-9400.615463,842.705048
59455.448726,4145.153275,-6809.894666,2145.067394
59455.449036,5403.503377,-6365.771101,3677.258390
59455.449346,5847.626942,-6513.812290,4826.401637
59455.449655,5847.626942,-5625.565159,3294.210641
59455.449965,1998.556043,-6661.853478,1225.752797
59455.450275,2368.659014,-8956.491898,3677.258390
59455.450585,3478.967927,-9474.636058,-76.609550
59455.450894,0.000000,-9548.656652,0.000000
59455.451204,-2368.659014,-8956.491898,-2757.943793
59455.451514,-2664.741391,-11917.315666,-2298.286494
59455.451824,-2738.761985,-12657.521608,-1991.848295
59455.452133,-1332.370696,-11399.171507,-536.266849
59455.452443,1702.473667,-9474.636058,2068.457845
59455.452753,3182.885551,-9474.636058,3600.648841
59455.453062,3478.967927,-7698.141797,2834.553343
59455.453372,1184.329507,-7179.997637,3677.258390
59455.453682,2886.803174,-9474.636058,2987.772442
59455.453992,0.000000,-5995.668130,0.000000
59455.454301,518.144159,-7550.100608,995.924147
59455.454611,-592.164754,-8364.327145,1302.362347
59455.454921,-4145.153275,-10362.883188,383.047749
59455.455231,-4959.379811,-9696.697840,-1608.800546
59455.455540,-4811.338623,-11769.274478,-919.314598
59455.455850,-2442.679609,-11251.130318,-76.609550
59455.456160,-1258.350101,-8882.471304,-76.609550
59455.456470,-1554.432478,-5921.647536,-1302.362347
59455.456779,0.000000,-8364.327145,1225.752797
59455.457089,-1110.308913,-7254.018232,-1149.143247
59455.457399,-74.020594,-9474.636058,-76.609550
59455.457708,-1554.432478,-8216.285956,383.047749
59455.458018,-1036.288319,-9770.718434,1762.019645
59455.458328,-1850.514855,-10658.965565,1378.971896
59455.458638,-3552.988522,-9844.739029,1225.752797
59455.458947,-2886.803174,-12509.480420,2604.724693
59455.459257,-2442.679609,-9474.636058,-76.609550
59455.459567,-4737.318029,-3627.009116,0.000000
59455.459877,592.164754,-6809.894666,2757.943793
59455.460186,-74.020594,-5329.482782,1762.019645
59455.460496,-74.020594,-7994.224174,2068.457845
59455.460806,-888.247130,-8364.327145,612.876398
59455.461116,-740.205942,-10288.862594,383.047749
59455.461425,-444.123565,-9622.677246,76.609550
59455.461735,-2368.659014,-9844.739029,0.000000
59455.462045,-2664.741391,-11325.150913,612.876398
59455.462355,-1850.514855,-12583.501014,-76.609550
59455.462664,-3182.885551,-10214.842000,-3140.991542
59455.462974,-2368.659014,-10732.986159,1225.752797
59455.463284,2294.638420,-7105.977043,1762.019645
59455.463594,1998.556043,-5921.647536,995.924147
59455.463903,4663.297435,-8882.471304,4826.401637
59455.464213,4071.132681,-4071.132681,2757.943793
59455.464523,2886.803174,-8882.471304,3524.039291
59455.464833,3478.967927,-7105.977043,2987.772442
59455.465142,3182.885551,-11843.295072,3600.648841
59455.465452,3478.967927,-10658.965565,-76.609550
59455.465762,-3849.070898,-10140.821405,-4290.134789
59455.466072,-2220.617826,-16284.530724,-76.609550
59455.466381,-666.185348,-13619.789333,-1302.362347
59455.466691,-74.020594,-13027.624579,-76.609550
59455.467001,2368.659014,-7179.997637,766.095498
59455.467311,2590.720797,-7179.997637,3064.381992
59455.467620,4515.256246,-4441.235652,3524.039291
59455.467930,4071.132681,-6883.915261,4290.134789
59455.468240,4367.215058,-7328.038826,4596.572988
59455.468550,4071.132681,-9474.636058,2374.896044
59455.468859,444.123565,-7179.997637,0.000000
59455.469169,3478.967927,-14211.954086,-76.609550
59455.469479,-3627.009116,-10288.862594,-2757.943793
59455.469789,-3552.988522,-12731.542202,-1915.238745
59455.470098,-4145.153275,-13397.727550,-1915.238745
59455.470408,-2368.659014,-10214.842000,-766.095498
59455.470718,296.082377,-8586.388927,1302.362347
59455.471028,1776.494261,-6439.791695,1838.629195
59455.471337,2368.659014,-5995.668130,4903.011187
59455.471647,4663.297435,-7105.977043,4213.525239
59455.471957,2072.576638,-3775.050304,229.828649
59455.472267,2368.659014,-7179.997637,3370.820191
59455.472576,-74.020594,-8290.306550,-383.047749
59455.472886,-3849.070898,-11843.295072,-153.219100
59455.473196,-6365.771101,-12583.501014,-3983.696590
59455.473506,-8290.306550,-14285.974681,-3983.696590
59455.473816,-6957.935855,-14137.933492,-2911.162892
59455.474125,-3108.864956,-10436.903782,-2145.067394
59455.474435,0.000000,-6587.832884,2451.505594
59455.474745,2368.659014,-7031.956449,5056.230287
59455.475055,3478.967927,-5921.647536,4826.401637
59455.475364,2368.659014,-4811.338623,4903.011187
59455.475674,5551.544565,-5921.647536,4826.401637
59455.475984,1480.411884,-7031.956449,3064.381992
59455.476294,-962.267725,-8734.430116,-76.609550
59455.476603,-4737.318029,-11325.150913,-1915.238745
59455.476913,-7105.977043,-12583.501014,-4136.915689
59455.477223,-8142.265362,-13693.809927,-5515.887586
59455.477533,-8290.306550,-11029.068536,-4903.011187
59455.477842,-2960.823768,-10732.986159,0.000000
59455.478152,3256.906145,-11251.130318,6435.202183
59455.478462,2886.803174,-5181.441594,2068.457845
59455.478772,2368.659014,-4811.338623,5209.449386
59455.479081,3701.029710,-5403.503377,6128.763984
59455.479391,5773.606348,-5847.626942,4826.401637
59455.479701,3775.050304,-5329.482782,2681.334243
59455.480011,888.247130,-8364.327145,1455.581446
59455.480320,-2220.617826,-9178.553681,-1302.362347
59455.480630,-6513.812290,-11029.068536,-5132.839837
59455.480940,-8290.306550,-14285.974681,-4826.401637
59455.481250,-4145.153275,-15322.262999,-459.657299
59455.481559,-1258.350101,-10510.924376,-1915.238745
59455.481869,0.000000,-7476.080014,1838.629195
59455.482179,1332.370696,-6291.750507,3677.258390
59455.482489,4663.297435,-7105.977043,4673.182538
59455.482798,6957.935855,-5625.565159,4979.620737
59455.483108,7254.018232,-5477.523971,5592.497135
59455.483418,5847.626942,-6217.729913,4826.401637
59455.483728,2590.720797,-7402.059420,842.705048
59455.484037,-2960.823768,-8364.327145,-1225.752797
59455.484347,-3404.947333,-14211.954086,-1302.362347
59455.484657,-8512.368333,-11917.315666,-5439.278036
59455.484967,-5329.482782,-12805.562797,-1838.629195
59455.485276,-2368.659014,-8364.327145,-1991.848295
59455.485586,888.247130,-9030.512492,2145.067394
59455.485896,1850.514855,-7846.182985,3294.210641
59455.486206,3330.926739,-7105.977043,3677.258390
59455.486515,5699.585753,-7105.977043,5439.278036
59455.486825,7031.956449,-4737.318029,4826.401637
59455.487135,2442.679609,-5403.503377,1991.848295
59455.487445,0.000000,-8364.327145,2451.505594
59455.487754,-2442.679609,-10658.965565,-2528.115143
59455.488064,-8882.471304,-11917.315666,-4903.011187
59455.488374,-8660.409521,-12361.439231,-5745.716235
59455.488684,-5625.565159,-11399.171507,-3370.820191
59455.488993,-2368.659014,-10214.842000,-1225.752797
59455.489303,-814.226536,-9178.553681,995.924147
59455.489613,1702.473667,-9474.636058,4519.963438
59455.489923,6439.791695,-8882.471304,6052.154434
59455.490233,6439.791695,-5625.565159,5439.278036
59455.490542,4737.318029,-3034.844362,4903.011187
59455.490852,4663.297435,-7105.977043,3600.648841
59455.491162,-1776.494261,-6587.832884,0.000000
59455.491472,-5107.421000,-10066.800811,-2528.115143
59455.491781,-9474.636058,-13175.665768,-5362.668486
59455.492091,-10066.800811,-14952.160028,-5286.058936
59455.492401,-6439.791695,-11769.274478,-4366.744339
59455.492711,-2442.679609,-11029.068536,-612.876398
59455.493020,-1258.350101,-11547.212695,2374.896044
59455.493330,-74.020594,-8290.306550,2374.896044
59455.493640,0.000000,-3627.009116,2451.505594
59455.493950,7402.059420,-7550.100608,7507.735880
59455.494259,7031.956449,-3775.050304,4213.525239
59455.494569,5847.626942,-5921.647536,4826.401637
59455.494879,1184.329507,-7550.100608,1532.190996
59455.495189,-3775.050304,-10066.800811,-1915.238745
59455.495498,-7920.203579,-14434.015869,-3294.210641
59455.495808,-8290.306550,-13101.645173,-3677.258390
59455.496118,-3849.070898,-13397.727550,-1532.190996
59455.496428,-1258.350101,-11547.212695,-76.609550
59455.496737,-74.020594,-8290.306550,-76.609550
59455.497047,0.000000,-7179.997637,3064.381992
59455.497357,7031.956449,-6809.894666,4826.401637
59455.497667,9400.615463,-5921.647536,6665.030833
59455.497976,7254.018232,-4737.318029,5056.230287
59455.498286,5329.482782,-7179.997637,4213.525239
59455.498596,1480.411884,-8882.471304,1149.143247
59455.498906,-4737.318029,-9844.739029,-3370.820191
59455.499215,-7105.977043,-14285.974681,-2451.505594
59455.499525,-5995.668130,-13989.892304,-2528.115143
59455.499835,-3034.844362,-11251.130318,-4979.620737
59455.500145,-4441.235652,-9548.656652,-2451.505594
59455.500454,1110.308913,-10658.965565,3294.210641
59455.500764,5551.544565,-9474.636058,4673.182538
59455.501074,7031.956449,-7105.977043,5745.716235
59455.501384,8586.388927,-4811.338623,6665.030833
59455.501693,9252.574275,-5033.400406,6128.763984
59455.502003,4737.318029,-5403.503377,3064.381992
59455.502313,0.000000,-5995.668130,612.876398
59455.502623,-3627.009116,-12361.439231,-153.219100
59455.502932,-8660.409521,-13323.706956,-6205.373534
59455.503242,-7105.977043,-13397.727550,-3677.258390
59455.503552,-4811.338623,-14211.954086,-3140.991542
59455.503862,-4441.235652,-12805.562797,-1225.752797
59455.504171,-1776.494261,-9622.677246,76.609550
59455.504481,1702.473667,-8290.306550,2987.772442
59455.504791,5329.482782,-4885.359217,5056.230287
59455.505101,5551.544565,-1998.556043,4519.963438
59455.505410,4737.318029,-1258.350101,4903.011187
59455.505720,5921.647536,-5403.503377,5209.449386
59455.506030,-74.020594,-8882.471304,-76.609550
59455.506340,-7105.977043,-10732.986159,-2451.505594
59455.506650,-9548.656652,-17764.942608,-2528.115143
59455.506959,-6513.812290,-12509.480420,-4290.134789
59455.507269,-4811.338623,-12139.377449,-3140.991542
59455.507579,-5773.606348,-11843.295072,-1915.238745
59455.507889,-4515.256246,-10288.862594,76.609550
59455.508198,1998.556043,-7105.977043,2374.896044
59455.508508,2590.720797,-3034.844362,2451.505594
59455.508818,4737.318029,-3627.009116,3677.258390
59455.509128,9400.615463,-5921.647536,9116.536426
59455.509437,3627.009116,-4367.215058,3294.210641
59455.509747,1184.329507,-8660.409521,3064.381992
59455.510057,-7698.141797,-11325.150913,-2451.505594
59455.510367,-9178.553681,-13027.624579,-4826.401637
59455.510676,-8142.265362,-13249.686362,-5209.449386
59455.510986,-8290.306550,-13101.645173,-4366.744339
59455.511296,-5995.668130,-14211.954086,-1302.362347
59455.511606,-3627.009116,-9474.636058,-76.609550
59455.511915,740.205942,-4811.338623,0.000000
59455.512225,4737.318029,-5995.668130,7354.516781
59455.512535,9400.615463,-4145.153275,7277.907231
59455.512845,9474.636058,-2442.679609,8580.269578
59455.513154,5921.647536,-2738.761985,3677.258390
59455.513464,0.000000,-7624.121203,306.438199
59455.513774,-5699.585753,-13175.665768,-3140.991542
59455.514084,-8068.244768,-13249.686362,-4903.011187
59455.514393,-5403.503377,-14211.954086,-2528.115143
59455.514703,-5403.503377,-14211.954086,-3753.867940
59455.515013,-6513.812290,-9548.656652,-4903.011187
59455.515323,-2368.659014,-10732.986159,2451.505594
59455.515632,5551.544565,-8290.306550,4826.401637
59455.515942,4737.318029,-3627.009116,6128.763984
59455.516252,9400.615463,-2886.803174,6588.421283
59455.516562,10214.842000,-3627.009116,7201.297681
59455.516871,6143.709319,-6439.791695,4596.572988
59455.517181,-222.061783,-8512.368333,76.609550
59455.517491,-3701.029710,-14211.954086,-229.828649
59455.517801,-3627.009116,-14211.954086,-3753.867940
59455.518110,-6587.832884,-13027.624579,-6205.373534
59455.518420,-8290.306550,-14285.974681,-2451.505594
59455.518730,-3627.009116,-13027.624579,-2528.115143
59455.519040,-3552.988522,-8364.327145,0.000000
59455.519349,4441.235652,-7105.977043,3830.477490
59455.519659,7550.100608,-5699.585753,7048.078582
59455.519969,10214.842000,-4071.132681,8120.612279
59455.520279,9178.553681,-3330.926739,6281.983084
59455.520588,5329.482782,-5995.668130,4596.572988
59455.520898,-74.020594,-11251.130318,-76.609550
59455.521208,-5403.503377,-14211.954086,-1608.800546
59455.521518,-9104.533087,-10140.821405,-7660.954980
59455.521827,-7994.224174,-13693.809927,-5515.887586
59455.522137,-8660.409521,-13323.706956,-6358.592633
59455.522447,-4811.338623,-13619.789333,-2528.115143
59455.522757,-1850.514855,-10436.903782,612.876398
59455.523066,2812.782580,-8882.471304,3753.867940
59455.523376,7994.224174,-5699.585753,7431.126331
59455.523686,11843.295072,-3034.844362,9806.022374
59455.523996,11843.295072,-3849.070898,9652.803275
59455.524306,7031.956449,-7698.141797,5898.935335
59455.524615,-2442.679609,-7698.141797,-1915.238745
59455.524925,-7105.977043,-11917.315666,-3064.381992
59455.525235,-7179.997637,-12435.459826,-5592.497135
59455.525545,-8364.327145,-14211.954086,-4979.620737
59455.525854,-9844.739029,-13841.851115,-5209.449386
59455.526164,-6291.750507,-12139.377449,-2604.724693
59455.526474,-1110.308913,-10214.842000,1608.800546
59455.526784,592.164754,-7476.080014,4903.011187
59455.527093,7105.977043,-4811.338623,8886.707777
59455.527403,12953.603985,-6809.894666,11568.042020
59455.527713,7328.038826,-1184.329507,4826.401637
59455.528023,1776.494261,-6587.832884,2451.505594
59455.528332,-1258.350101,-10658.965565,-76.609550
59455.528642,-6143.709319,-12213.398043,-2528.115143
59455.528952,-7476.080014,-12213.398043,-5286.058936
59455.529262,-9104.533087,-13545.768739,-5132.839837
59455.529571,-7846.182985,-13397.727550,-3370.820191
59455.529881,-6809.894666,-10140.821405,0.000000
59455.530191,0.000000,-7772.162391,1225.752797
59455.530501,4737.318029,-7179.997637,7354.516781
59455.530810,11621.233289,-4737.318029,9116.536426
59455.531120,8882.471304,-2146.597232,6435.202183
59455.531430,8216.285956,-7105.977043,7277.907231
59455.531740,1480.411884,-8734.430116,2374.896044
59455.532049,-4219.173869,-10881.027347,-1915.238745
59455.532359,-6883.915261,-11251.130318,-4290.134789
59455.532669,-7476.080014,-11843.295072,-5286.058936
59455.532979,-9548.656652,-12435.459826,-7354.516781
59455.533288,-9178.553681,-11325.150913,-4903.011187
59455.533598,-4737.318029,-9548.656652,0.000000
59455.533908,3256.906145,-9844.739029,3907.087040
59455.534218,5847.626942,-6513.812290,4826.401637
59455.534527,10510.924376,-6143.709319,10265.679673
59455.534837,10658.965565,-3923.091493,7660.954980
59455.535147,6661.853478,-5329.482782,4213.525239
59455.535457,1258.350101,-8068.244768,766.095498
59455.535766,-2072.576638,-10436.903782,-2068.457845
59455.536076,-3775.050304,-10658.965565,-4673.182538
59455.536386,-8290.306550,-10881.027347,-6205.373534
59455.536696,-10658.965565,-10732.986159,-7354.516781
59455.537005,-6513.812290,-13693.809927,-2451.505594
59455.537315,-1258.350101,-11547.212695,-383.047749
59455.537625,1184.329507,-9548.656652,3753.867940
59455.537935,4737.318029,-5995.668130,5515.887586
59455.538244,10658.965565,-4367.215058,7354.516781
59455.538554,10584.944971,-3182.885551,6894.859482
59455.538864,5255.462188,-5329.482782,2987.772442
59455.539174,-74.020594,-9474.636058,-76.609550
59455.539483,-3034.844362,-9474.636058,-3140.991542
59455.539793,-8734.430116,-8364.327145,-6741.640382
59455.540103,-8290.306550,-13693.809927,-4596.572988
59455.540413,-8660.409521,-15396.283594,-4979.620737
59455.540723,-7105.977043,-12213.398043,-2451.505594
59455.541032,-2368.659014,-10436.903782,0.000000
59455.541342,2516.700203,-9400.615463,4519.963438
59455.541652,7550.100608,-5625.565159,6818.249932
59455.541962,10807.006753,-4071.132681,8503.660028
59455.542271,11769.274478,-4737.318029,8503.660028
59455.542581,5847.626942,-5921.647536,3600.648841
59455.542891,-1258.350101,-6809.894666,-1915.238745
59455.543201,-4737.318029,-10140.821405,-2451.505594
59455.543510,-5403.503377,-12731.542202,-4366.744339
59455.543820,-11843.295072,-11917.315666,-6128.763984
59455.544130,-11473.192101,-13915.871710,-5515.887586
59455.544440,-7772.162391,-12213.398043,-3447.429741
59455.544749,-2738.761985,-10955.047942,689.485948
59455.545059,1480.411884,-8660.409521,4749.792088
59455.545369,8364.327145,-7105.977043,9729.412825
59455.545679,11769.274478,-4737.318029,11874.480219
59455.545988,9400.615463,-1776.494261,6052.154434
59455.546298,1184.329507,-4811.338623,2451.505594
59455.546608,-74.020594,-10658.965565,2374.896044
59455.546918,-5329.482782,-7179.997637,-3677.258390
59455.547227,-6291.750507,-11843.295072,-3753.867940
59455.547537,-10066.800811,-13915.871710,-5209.449386
59455.547847,-10436.903782,-14952.160028,-4826.401637
59455.548157,-6883.915261,-12361.439231,-2221.676944
59455.548466,-1480.411884,-13101.645173,3983.696590
59455.548776,4071.132681,-10658.965565,7048.078582
59455.549086,9400.615463,-7105.977043,8503.660028
59455.549396,7698.141797,-1258.350101,7354.516781
59455.549705,9252.574275,-3478.967927,7890.783629
59455.550015,814.226536,-3923.091493,0.000000
59455.550325,-814.226536,-8586.388927,-76.609550
59455.550635,-3775.050304,-9104.533087,-2681.334243
59455.550944,-6883.915261,-12361.439231,-4060.306139
59455.551254,-9030.512492,-14211.954086,-4903.011187
59455.551564,-10362.883188,-13101.645173,-3064.381992
59455.551874,-5921.647536,-13989.892304,-1225.752797
59455.552183,-74.020594,-14211.954086,2374.896044
59455.552493,3775.050304,-6809.894666,4060.306139
59455.552803,8290.306550,-4811.338623,7354.516781
59455.553113,11769.274478,-2960.823768,6358.592633
59455.553422,9400.615463,-4145.153275,6052.154434
59455.553732,3923.091493,-5995.668130,1838.629195
59455.554042,-740.205942,-8364.327145,-1072.533697
59455.554352,-3627.009116,-9548.656652,-4213.525239
59455.554661,-8290.306550,-11029.068536,-4903.011187
59455.554971,-9474.636058,-13693.809927,-7354.516781
59455.555281,-5773.606348,-16580.613101,-2221.676944
59455.555591,-3923.091493,-12139.377449,-2834.553343
59455.555900,0.000000,-11325.150913,2451.505594
59455.556210,7031.956449,-9474.636058,4826.401637
59455.556520,10436.903782,-4737.318029,7584.345430
59455.556830,8512.368333,-2886.803174,6894.859482
59455.557140,6809.894666,-2812.782580,4749.792088
59455.557449,2738.761985,-6883.915261,1762.019645
59455.557759,-2072.576638,-5403.503377,0.000000
59455.558069,-4737.318029,-7179.997637,-6128.763984
59455.558379,-5625.565159,-14582.057057,-2604.724693
59455.558688,-7476.080014,-14211.954086,-6205.373534
59455.558998,-9474.636058,-13101.645173,-7354.516781
59455.559308,-2442.679609,-15396.283594,-383.047749
59455.559618,148.041188,-12879.583391,3983.696590
59455.559927,5403.503377,-8142.265362,6205.373534
59455.560237,9474.636058,-4515.256246,7967.393179
59455.560547,9548.656652,-2442.679609,8273.831378
59455.560856,5033.400406,-666.185348,3370.820191
59455.561166,0.000000,-2442.679609,0.000000
59455.561475,-1184.329507,-7476.080014,0.000000
59455.561785,-3627.009116,-10658.965565,-2528.115143
59455.562095,-11843.295072,-13693.809927,-7967.393179
59455.562404,-9622.677246,-16284.530724,-4979.620737
59455.562714,-8660.409521,-16580.613101,-4366.744339
59455.563024,-5625.565159,-13693.809927,-612.876398
59455.563333,-962.267725,-10362.883188,2681.334243
59455.563643,3923.091493,-6957.935855,6971.469032
59455.563953,5921.647536,-666.185348,7967.393179
59455.564262,7105.977043,-1258.350101,7967.393179
59455.564572,8216.285956,-6809.894666,8427.050478
59455.564882,370.102971,-4367.215058,229.828649
59455.565191,-74.020594,-7698.141797,-76.609550
59455.565501,-4811.338623,-9474.636058,-3140.991542
59455.565811,-9030.512492,-14211.954086,-4136.915689
59455.566120,-10214.842000,-14211.954086,-6128.763984
59455.566430,-9548.656652,-15840.407159,-4366.744339
59455.566739,-4885.359217,-13323.706956,-995.924147
59455.567049,-1776.494261,-8956.491898,1225.752797
59455.567359,1184.329507,-5403.503377,4903.011187
59455.567668,5921.647536,-2442.679609,6128.763984
59455.567978,10584.944971,-5921.647536,9116.536426
59455.568288,4737.318029,-1924.535449,3983.696590
59455.568597,4663.297435,-8290.306550,4519.963438
59455.568907,0.000000,-7031.956449,-612.876398
59455.569217,-3849.070898,-10066.800811,-2834.553343
59455.569526,-8290.306550,-13175.665768,-4519.963438
59455.569836,-8808.450710,-13841.851115,-5898.935335
59455.570146,-8364.327145,-14878.139434,-6358.592633
59455.570455,-4737.318029,-10140.821405,-2451.505594
59455.570765,592.164754,-9548.656652,2451.505594
59455.571075,8216.285956,-9474.636058,6665.030833
59455.571384,5921.647536,-3627.009116,5209.449386
59455.571694,11177.109724,-8290.306550,9729.412825
59455.572004,6513.812290,-4811.338623,4903.011187
59455.572313,3182.885551,-6217.729913,1762.019645
59455.572623,-518.144159,-6069.688724,-1072.533697
59455.572932,-4293.194464,-8364.327145,-3753.867940
59455.573242,-5995.668130,-11843.295072,-4366.744339
59455.573552,-7920.203579,-12361.439231,-5592.497135
59455.573861,-9474.636058,-11917.315666,-6128.763984
59455.574171,-3552.988522,-13693.809927,0.000000
59455.574481,3478.967927,-11843.295072,3600.648841
59455.574790,5329.482782,-7179.997637,5515.887586
59455.575100,5329.482782,-4219.173869,5056.230287
59455.575410,7328.038826,-5107.421000,6052.154434
59455.575719,7105.977043,-4885.359217,4519.963438
59455.576029,3701.029710,-5403.503377,2145.067394
59455.576339,-74.020594,-7698.141797,-76.609550
59455.576648,-4219.173869,-9474.636058,-2528.115143
59455.576958,-10658.965565,-9548.656652,-6128.763984
59455.577268,-7179.997637,-15100.201217,-3217.601092
59455.577577,-5995.668130,-14211.954086,-3140.991542
59455.577887,-3552.988522,-10732.986159,0.000000
59455.578197,1480.411884,-8956.491898,2604.724693
59455.578506,4885.359217,-7179.997637,5669.106685
59455.578816,5107.421000,-5625.565159,5439.278036
59455.579125,4737.318029,-4959.379811,4366.744339
59455.579435,4663.297435,-7105.977043,4826.401637
59455.579745,2294.638420,-7105.977043,-76.609550
59455.580054,-4811.338623,-5107.421000,-3447.429741
59455.580364,-5329.482782,-11917.315666,-612.876398
59455.580674,-5995.668130,-11547.212695,-3753.867940
59455.580983,-11843.295072,-11917.315666,-4903.011187
59455.581293,-7179.997637,-13027.624579,-3217.601092
59455.581603,-2072.576638,-10881.027347,1225.752797
59455.581912,2442.679609,-9770.718434,3600.648841
59455.582222,4293.194464,-7846.182985,5209.449386
59455.582532,5847.626942,-9474.636058,7277.907231
59455.582841,6439.791695,-7994.224174,7277.907231
59455.583151,4367.215058,-4737.318029,2068.457845
59455.583461,1184.329507,-5995.668130,1838.629195
59455.583770,-2146.597232,-8290.306550,-995.924147
59455.584080,-8882.471304,-9548.656652,-4596.572988
59455.584390,-7179.997637,-12731.542202,-4366.744339
59455.584699,-9030.512492,-13693.809927,-3753.867940
59455.585009,-6291.750507,-13397.727550,-2298.286494
59455.585318,-962.267725,-10881.027347,1915.238745
59455.585628,3849.070898,-9548.656652,5822.325785
59455.585938,7031.956449,-7550.100608,6435.202183
59455.586247,7031.956449,-7105.977043,4826.401637
59455.586557,2368.659014,-3627.009116,2451.505594
59455.586867,4515.256246,-7105.977043,4826.401637
59455.587176,814.226536,-4959.379811,-2604.724693
59455.587486,-1258.350101,-10214.842000,-689.485948
59455.587796,-4737.318029,-10732.986159,-2757.943793
59455.588105,-6513.812290,-12583.501014,-3677.258390
59455.588415,-6735.874072,-13693.809927,-3983.696590
59455.588725,-4145.153275,-13101.645173,0.000000
59455.589034,2368.659014,-10732.986159,2451.505594
59455.589344,7328.038826,-9474.636058,6358.592633
59455.589654,5847.626942,-6809.894666,4826.401637
59455.589963,3552.988522,-4811.338623,1225.752797
59455.590273,5847.626942,-6217.729913,3294.210641
59455.590583,5551.544565,-7105.977043,3447.429741
59455.590892,2886.803174,-5921.647536,1149.143247
59455.591202,-370.102971,-8734.430116,-76.609550
59455.591511,-4071.132681,-9992.780217,-2834.553343
59455.591821,-7105.977043,-11917.315666,-4903.011187
59455.592131,-8142.265362,-14285.974681,-4903.011187
59455.592440,-2368.659014,-15692.365970,-76.609550
59455.592750,2294.638420,-11251.130318,1762.019645
59455.593060,2368.659014,-7179.997637,766.095498
59455.593369,5847.626942,-7105.977043,4826.401637
59455.593679,5477.523971,-6513.812290,4596.572988
59455.593989,4663.297435,-6217.729913,3677.258390
59455.594298,2886.803174,-4737.318029,1455.581446
59455.594608,518.144159,-7105.977043,0.000000
59455.594918,-4145.153275,-7772.162391,-2451.505594
59455.595227,-6513.812290,-8364.327145,-4673.182538
59455.595537,-7105.977043,-13101.645173,-2451.505594
59455.595847,-4811.338623,-15396.283594,-2528.115143
59455.596156,-4145.153275,-11029.068536,-2451.505594
59455.596466,2294.638420,-11251.130318,2987.772442
59455.596776,2072.576638,-8660.409521,3983.696590
59455.597085,2368.659014,-7105.977043,3830.477490
59455.597395,2590.720797,-6587.832884,3370.820191
59455.597704,2664.741391,-6365.771101,3294.210641
59455.598014,1406.391290,-2812.782580,536.266849
59455.598324,0.000000,-4589.276840,-76.609550
59455.598633,-3552.988522,-7179.997637,0.000000
59455.598943,-3034.844362,-11251.130318,-1915.238745
59455.599253,-8808.450710,-11917.315666,-4903.011187
59455.599562,-5403.503377,-15248.242405,-2528.115143
59455.599872,-2886.803174,-12139.377449,-1302.362347
59455.600182,-370.102971,-10807.006753,995.924147
59455.600491,888.247130,-9770.718434,3524.039291
59455.600801,1998.556043,-7476.080014,3677.258390
59455.601111,1332.370696,-5995.668130,4060.306139
59455.601420,3256.906145,-4811.338623,2451.505594
59455.601730,4663.297435,-7105.977043,4826.401637
59455.602040,-74.020594,-5625.565159,0.000000
59455.602349,-2368.659014,-8660.409521,919.314598
59455.602659,-3627.009116,-9474.636058,-3140.991542
59455.602969,-5625.565159,-13175.665768,-2221.676944
59455.603278,-4811.338623,-13619.789333,-1915.238745
59455.603588,-1776.494261,-10881.027347,0.000000
59455.603897,296.082377,-10955.047942,1302.362347
59455.604207,592.164754,-9548.656652,3064.381992
59455.604517,1184.329507,-7772.162391,1225.752797
59455.604826,4663.297435,-10658.965565,4826.401637
59455.605136,1628.453072,-4737.318029,1838.629195
59455.605446,3849.070898,-5107.421000,4213.525239
59455.605755,3478.967927,-5921.647536,1762.019645
59455.606065,962.267725,-8290.306550,995.924147
59455.606375,-3330.926739,-10362.883188,-1762.019645
59455.606684,-6143.709319,-12509.480420,-3064.381992
59455.606994,-4515.256246,-13027.624579,-2604.724693
59455.607304,-3552.988522,-9548.656652,0.000000
59455.607613,0.000000,-9548.656652,0.000000
59455.607923,1776.494261,-10881.027347,3983.696590
59455.608233,2886.803174,-9474.636058,3600.648841
59455.608542,2072.576638,-6587.832884,3677.258390
59455.608852,4663.297435,-6513.812290,3600.648841
59455.609162,4737.318029,-4515.256246,3064.381992
59455.609471,4145.153275,-6809.894666,2987.772442
59455.609781,0.000000,-8216.285956,459.657299
59455.610090,-5033.400406,-10732.986159,-2681.334243
59455.610400,-7698.141797,-13101.645173,-3677.258390
59455.610710,-3552.988522,-9548.656652,-3677.258390
59455.611019,0.000000,-10732.986159,1225.752797
59455.611329,2294.638420,-11843.295072,2374.896044
59455.611639,-2368.659014,-8364.327145,0.000000
59455.611948,3478.967927,-9474.636058,2374.896044
59455.612258,2072.576638,-8142.265362,2757.943793
59455.612568,1998.556043,-5477.523971,2221.676944
59455.612877,2664.741391,-5033.400406,2298.286494
59455.613187,1850.514855,-6513.812290,1838.629195
59455.613497,-1776.494261,-5995.668130,0.000000
59455.613806,-5921.647536,-8660.409521,-2681.334243
59455.614116,-4737.318029,-11325.150913,-1225.752797
59455.614426,-1258.350101,-13027.624579,-689.485948
59455.614735,-2368.659014,-10140.821405,0.000000
59455.615045,-74.020594,-14211.954086,3600.648841
59455.615355,-814.226536,-10584.944971,1838.629195
59455.615664,370.102971,-9178.553681,1915.238745
59455.615974,1554.432478,-7328.038826,2374.896044
59455.616283,3182.885551,-5107.421000,2834.553343
59455.616593,2738.761985,-3923.091493,2681.334243
59455.616903,592.164754,-4885.359217,1762.019645
59455.617212,-3552.988522,-7772.162391,0.000000
59455.617522,-3627.009116,-11843.295072,-1302.362347
59455.617832,-6957.935855,-10732.986159,-4903.011187
59455.618141,-1702.473667,-13027.624579,1762.019645
59455.618451,-2072.576638,-11547.212695,306.438199
59455.618761,-2294.638420,-10881.027347,766.095498
59455.619070,-1776.494261,-9622.677246,612.876398
59455.619380,-666.185348,-8956.491898,1378.971896
59455.619690,-74.020594,-6513.812290,1762.019645
59455.619999,2294.638420,-5625.565159,2374.896044
59455.620309,1184.329507,-4811.338623,2451.505594
59455.620619,3182.885551,-8882.471304,3600.648841
59455.620928,-2664.741391,-7179.997637,-3064.381992
59455.621238,-3552.988522,-12509.480420,612.876398
59455.621548,-3552.988522,-10436.903782,-1838.629195
59455.621857,-1036.288319,-10807.006753,153.219100
59455.622167,-1554.432478,-11473.192101,383.047749
59455.622476,-1998.556043,-10066.800811,76.609550
59455.622786,-74.020594,-9474.636058,-76.609550
59455.623096,-74.020594,-11547.212695,3600.648841
59455.623405,0.000000,-4811.338623,306.438199
59455.623715,2960.823768,-5403.503377,3677.258390
59455.624025,3775.050304,-4737.318029,-76.609550
59455.624334,0.000000,-7179.997637,1838.629195
59455.624644,-2442.679609,-9400.615463,-1378.971896
59455.624954,-3478.967927,-11621.233289,-1378.971896
59455.625263,-2220.617826,-11621.233289,-1378.971896
59455.625573,-518.144159,-11325.150913,-612.876398
59455.625883,2294.638420,-13619.789333,2374.896044
59455.626192,2072.576638,-13027.624579,3600.648841
59455.626502,1702.473667,-9474.636058,1149.143247
59455.626812,0.000000,-7179.997637,1225.752797
59455.627121,4367.215058,-8290.306550,4826.401637
59455.627431,2960.823768,-3627.009116,1838.629195
59455.627741,3627.009116,-5847.626942,2374.896044
59455.628050,592.164754,-7920.203579,919.314598
59455.628360,-2368.659014,-9696.697840,-919.314598
59455.628669,-3997.112087,-10584.944971,-1838.629195
59455.628979,-148.041188,-14211.954086,1072.533697
59455.629289,4145.153275,-11473.192101,3294.210641
59455.629598,-74.020594,-13027.624579,-76.609550
59455.629908,-3552.988522,-7772.162391,-1838.629195
59455.630218,-2294.638420,-14211.954086,2374.896044
59455.630527,-2368.659014,-5995.668130,0.000000
59455.630837,2294.638420,-7105.977043,2068.457845
59455.631147,3404.947333,-5403.503377,2757.943793
59455.631456,3034.844362,-5995.668130,2374.896044
59455.631766,1628.453072,-7105.977043,2145.067394
59455.632076,592.164754,-9548.656652,766.095498
59455.632385,-1184.329507,-10732.986159,2757.943793
59455.632695,-74.020594,-10658.965565,-383.047749
59455.633005,-2960.823768,-11917.315666,-1225.752797
59455.633314,-74.020594,-13989.892304,2757.943793
59455.633624,-3775.050304,-10066.800811,-1838.629195
59455.633934,-666.185348,-10658.965565,536.266849
59455.634243,-370.102971,-8068.244768,1532.190996
59455.634553,2442.679609,-6069.688724,2451.505594
59455.634862,2738.761985,-5921.647536,3524.039291
59455.635172,296.082377,-5995.668130,2451.505594
59455.635482,-3552.988522,-4811.338623,0.000000
59455.635791,-74.020594,-11547.212695,1762.019645
59455.636101,-2368.659014,-9326.594869,-919.314598
59455.636411,-1776.494261,-9548.656652,1532.190996
59455.636720,-1850.514855,-11251.130318,-1915.238745
59455.637030,-3627.009116,-12065.356855,-919.314598
59455.637340,-3997.112087,-11695.253884,-1225.752797
59455.637649,-3478.967927,-11251.130318,-536.266849
59455.637959,-888.247130,-7772.162391,1762.019645
59455.638269,1184.329507,-4811.338623,1532.190996
59455.638578,296.082377,-2442.679609,1225.752797
59455.638888,3552.988522,-6883.915261,4903.011187
59455.639198,518.144159,-6365.771101,1149.143247
59455.639507,-74.020594,-10732.986159,3677.258390
59455.639817,-74.020594,-9474.636058,-689.485948
59455.640126,-2220.617826,-10881.027347,-842.705048
59455.640436,-3404.947333,-12805.562797,-1072.533697
59455.640746,-5181.441594,-11843.295072,-2374.896044
59455.641055,-5403.503377,-11917.315666,-2221.676944
59455.641365,-4737.318029,-9548.656652,-2451.505594
59455.641675,-2960.823768,-5403.503377,0.000000
59455.641984,2368.659014,-6291.750507,3677.258390
59455.642294,4663.297435,-6957.935855,4826.401637
59455.642604,1776.494261,-4811.338623,4903.011187
59455.642913,4663.297435,-8290.306550,2374.896044
59455.643223,2072.576638,-8364.327145,2604.724693
59455.643533,1998.556043,-9104.533087,1225.752797
59455.643842,-444.123565,-10807.006753,0.000000
59455.644152,-2294.638420,-11917.315666,-1225.752797
59455.644462,-3923.091493,-11473.192101,-2834.553343
59455.644771,-4219.173869,-11251.130318,-3140.991542
59455.645081,-4737.318029,-11029.068536,0.000000
59455.645391,1110.308913,-10066.800811,1608.800546
59455.645700,0.000000,-4811.338623,0.000000
59455.646010,6735.874072,-8290.306550,6665.030833
59455.646319,2738.761985,-4441.235652,3217.601092
59455.646629,2738.761985,-6069.688724,2528.115143
59455.646939,2368.659014,-7402.059420,1838.629195
59455.647248,1480.411884,-8586.388927,1302.362347
59455.647558,-74.020594,-11251.130318,-76.609550
59455.647868,-1850.514855,-11843.295072,-2528.115143
59455.648177,-5921.647536,-11325.150913,-3677.258390
59455.648487,-3627.009116,-14211.954086,-1608.800546
59455.648797,-4959.379811,-9030.512492,-3140.991542
59455.649106,1480.411884,-10066.800811,3294.210641
59455.649416,2738.761985,-6439.791695,2604.724693
59455.649726,2960.823768,-5625.565159,4290.134789
59455.650035,2812.782580,-5699.585753,3447.429741
59455.650345,3552.988522,-6513.812290,2987.772442
59455.650655,5255.462188,-8882.471304,4213.525239
59455.650964,4663.297435,-9474.636058,-76.609550
59455.651274,-2960.823768,-8364.327145,0.000000
59455.651584,-2146.597232,-12435.459826,-689.485948
59455.651893,-8290.306550,-10140.821405,-4903.011187
59455.652203,-6217.729913,-14730.098246,-612.876398
59455.652512,-4219.173869,-11843.295072,-1302.362347
59455.652822,0.000000,-8364.327145,919.314598
59455.653132,1924.535449,-7105.977043,3217.601092
59455.653441,1998.556043,-5625.565159,3677.258390
59455.653751,4663.297435,-7105.977043,5209.449386
59455.654061,6439.791695,-8882.471304,6052.154434
59455.654370,2294.638420,-6069.688724,1608.800546
59455.654680,592.164754,-8956.491898,2374.896044
59455.654990,-2738.761985,-8882.471304,-2068.457845
59455.655299,-6513.812290,-11029.068536,-1225.752797
59455.655609,-7031.956449,-12879.583391,-3753.867940
59455.655919,-8512.368333,-14063.912898,-3217.601092
59455.656228,-4071.132681,-10807.006753,-1302.362347
59455.656538,74.020594,-8734.430116,995.924147
59455.656848,2072.576638,-8364.327145,3677.258390
59455.657157,4663.297435,-8290.306550,6052.154434
59455.657467,2590.720797,-4219.173869,2681.334243
59455.657777,4145.153275,-5995.668130,5209.449386
59455.658086,3478.967927,-5921.647536,2374.896044
59455.658396,0.000000,-5995.668130,612.876398
59455.658705,-1258.350101,-11251.130318,536.266849
59455.659015,-4071.132681,-11325.150913,-2451.505594
59455.659325,-6957.935855,-14063.912898,-3447.429741
59455.659634,-7254.018232,-13693.809927,-3294.210641
59455.659944,-4441.235652,-11325.150913,-2451.505594
59455.660254,0.000000,-9548.656652,1225.752797
59455.660563,2886.803174,-9474.636058,4213.525239
59455.660873,1998.556043,-4811.338623,306.438199
59455.661183,6513.812290,-7476.080014,6205.373534
59455.661492,4737.318029,-4367.215058,4903.011187
59455.661802,5329.482782,-6513.812290,3907.087040
59455.662112,1702.473667,-8068.244768,1915.238745
59455.662421,-2072.576638,-9548.656652,-689.485948
59455.662731,-4515.256246,-11769.274478,-2451.505594
59455.663041,-7105.977043,-12509.480420,-4749.792088
59455.663350,-4737.318029,-13693.809927,-1838.629195
59455.663660,-370.102971,-13027.624579,-76.609550
59455.663970,222.061783,-7254.018232,-995.924147
59455.664279,2072.576638,-8364.327145,3370.820191
59455.664589,2294.638420,-4737.318029,2834.553343
59455.664899,5329.482782,-6883.915261,4903.011187
59455.665208,8216.285956,-7698.141797,4826.401637
59455.665518,3997.112087,-6661.853478,2298.286494
59455.665828,1258.350101,-9104.533087,1608.800546
59455.666138,-2368.659014,-8364.327145,-1378.971896
59455.666447,-6513.812290,-9548.656652,-3677.258390
59455.666757,-5033.400406,-14952.160028,-1532.190996
59455.667067,-5403.503377,-11843.295072,-3140.991542
59455.667376,-4737.318029,-7179.997637,0.000000
59455.667686,-222.061783,-8142.265362,0.000000
59455.667996,1184.329507,-7476.080014,3064.381992
59455.668305,3108.864956,-6513.812290,3447.429741
59455.668615,5551.544565,-6365.771101,4136.915689
59455.668925,5995.668130,-5847.626942,4826.401637
59455.669234,2516.700203,-6217.729913,2681.334243
59455.669544,0.000000,-7402.059420,0.000000
59455.669854,-2072.576638,-11325.150913,-612.876398
59455.670163,-5995.668130,-11843.295072,-4979.620737
59455.670473,-11843.295072,-12509.480420,-4903.011187
59455.670783,-5995.668130,-12731.542202,-3677.258390
59455.671092,-2590.720797,-9548.656652,-383.047749
59455.671402,-592.164754,-8586.388927,1685.410096
59455.671712,370.102971,-6513.812290,3524.039291
59455.672021,3108.864956,-5773.606348,6665.030833
59455.672331,4663.297435,-4441.235652,4213.525239
59455.672641,3478.967927,-5033.400406,3294.210641
59455.672950,2368.659014,-5995.668130,2757.943793
59455.673260,2294.638420,-8882.471304,-76.609550
59455.673570,-5921.647536,-9548.656652,0.000000
59455.673880,-5995.668130,-13027.624579,-3753.867940
59455.674189,-9696.697840,-14878.139434,-4443.353888
59455.674499,-4885.359217,-11547.212695,-2757.943793
59455.674809,-3034.844362,-10732.986159,-1302.362347
59455.675118,-2442.679609,-8882.471304,1532.190996
59455.675428,-370.102971,-9178.553681,3600.648841
59455.675738,4663.297435,-6513.812290,3600.648841
59455.676047,4145.153275,-5403.503377,4903.011187
59455.676357,7031.956449,-7105.977043,7277.907231
59455.676667,1480.411884,-3775.050304,1225.752797
59455.676976,2664.741391,-8586.388927,3294.210641
59455.677286,-2738.761985,-9548.656652,-1532.190996
59455.677596,-7254.018232,-14211.954086,-2757.943793
59455.677905,-8290.306550,-13767.830521,-3983.696590
59455.678215,-5033.400406,-12065.356855,-3370.820191
59455.678525,-74.020594,-10362.883188,-153.219100
59455.678834,-74.020594,-9474.636058,1762.019645
59455.679144,0.000000,-5995.668130,1378.971896
59455.679454,6439.791695,-9474.636058,7277.907231
59455.679763,4145.153275,-3627.009116,3217.601092
59455.680073,6809.894666,-5921.647536,7277.907231
59455.680383,4219.173869,-6735.874072,3217.601092
59455.680693,1702.473667,-9252.574275,689.485948
59455.681002,-2812.782580,-11251.130318,-2145.067394
59455.681312,-7031.956449,-13397.727550,-4903.011187
59455.681622,-5995.668130,-14211.954086,-3064.381992
59455.681931,-2442.679609,-13027.624579,-1915.238745
59455.682241,-2442.679609,-9696.697840,-1455.581446
59455.682551,-2368.659014,-8364.327145,1532.190996
59455.682860,3478.967927,-8290.306550,3600.648841
59455.683170,5329.482782,-7105.977043,6665.030833
59455.683480,7031.956449,-5033.400406,5439.278036
59455.683789,7254.018232,-4885.359217,5286.058936
59455.684099,5329.482782,-6439.791695,3753.867940
59455.684409,1998.556043,-8364.327145,0.000000
59455.684718,-4145.153275,-11917.315666,-3677.258390
59455.685028,-7254.018232,-16284.530724,-2681.334243
59455.685338,-5551.544565,-14211.954086,-3753.867940
59455.685647,-7105.977043,-9548.656652,-4903.011187
59455.685957,-1924.535449,-12805.562797,919.314598
59455.686267,-2960.823768,-9844.739029,2145.067394
59455.686576,1036.288319,-7994.224174,2911.162892
59455.686886,4885.359217,-5699.585753,4749.792088
59455.687196,6809.894666,-4663.297435,6205.373534
59455.687505,7179.997637,-3627.009116,4826.401637
59455.687815,5329.482782,-4811.338623,2451.505594
59455.688125,1184.329507,-8068.244768,1532.190996
59455.688435,-4219.173869,-11843.295072,-1302.362347
59455.688744,-11843.295072,-11325.150913,-4903.011187
59455.689054,-5107.421000,-14211.954086,-2528.115143
59455.689364,-6365.771101,-11325.150913,-3064.381992
59455.689673,-4515.256246,-11843.295072,-153.219100
59455.689983,-2738.761985,-9622.677246,612.876398
59455.690293,962.267725,-7402.059420,2834.553343
59455.690602,4589.276840,-4737.318029,4519.963438
59455.690912,4737.318029,-3034.844362,3064.381992
59455.691222,5921.647536,-4811.338623,6128.763984
59455.691531,6439.791695,-7698.141797,4826.401637
59455.691841,-2368.659014,-5995.668130,0.000000
59455.692151,-4811.338623,-14211.954086,-76.609550
59455.692460,-9474.636058,-12509.480420,-4903.011187
59455.692770,-5699.585753,-11843.295072,-4366.744339
59455.693080,-5329.482782,-12657.521608,-2987.772442
59455.693389,-4885.359217,-11473.192101,-459.657299
59455.693699,-1554.432478,-10658.965565,2374.896044
59455.694009,2072.576638,-6143.709319,3294.210641
59455.694318,2960.823768,-3627.009116,4903.011187
59455.694628,8068.244768,-5773.606348,7277.907231
59455.694938,5329.482782,-2442.679609,4903.011187
59455.695247,6735.874072,-8290.306550,5209.449386
59455.695557,-2368.659014,-7179.997637,-2145.067394
59455.695867,-7105.977043,-13249.686362,-3370.820191
59455.696177,-8142.265362,-13397.727550,-4596.572988
59455.696486,-6069.688724,-12065.356855,-4673.182538
59455.696796,-5699.585753,-13915.871710,-2528.115143
59455.697106,-5551.544565,-10658.965565,-689.485948
59455.697415,-2368.659014,-8660.409521,306.438199
59455.697725,4145.153275,-7772.162391,6128.763984
59455.698035,8216.285956,-4737.318029,4826.401637
59455.698344,7105.977043,-2442.679609,5515.887586
59455.698654,9622.677246,-2220.617826,5209.449386
59455.698964,6143.709319,-5403.503377,3370.820191
59455.699273,-1036.288319,-9474.636058,-536.266849
59455.699583,-7179.997637,-13619.789333,-4673.182538
59455.699893,-7179.997637,-15692.365970,-4213.525239
59455.700202,-5403.503377,-14211.954086,-3753.867940
59455.700512,-5403.503377,-13545.768739,-3830.477490
59455.700822,-5921.647536,-11325.150913,-4290.134789
59455.701131,-74.020594,-13027.624579,3294.210641
59455.701441,1776.494261,-5403.503377,1225.752797
59455.701751,7624.121203,-4145.153275,6358.592633
59455.702060,9104.533087,-3034.844362,7431.126331
59455.702370,9770.718434,-3552.988522,6358.592633
59455.702680,5403.503377,-5773.606348,2911.162892
59455.702990,-1036.288319,-9548.656652,612.876398
59455.703299,-5995.668130,-14211.954086,-2528.115143
59455.703609,-7179.997637,-13915.871710,-5286.058936
59455.703919,-8290.306550,-11917.315666,-8580.269578
59455.704228,-5921.647536,-15766.386565,-1532.190996
59455.704538,-3923.091493,-11991.336260,-2221.676944
59455.704848,-74.020594,-10658.965565,2068.457845
59455.705157,2738.761985,-7254.018232,3907.087040
59455.705467,6513.812290,-4811.338623,6588.421283
59455.705777,9252.574275,-3330.926739,7431.126331
59455.706086,7698.141797,-2442.679609,7354.516781
59455.706396,5551.544565,-7105.977043,4596.572988
59455.706706,-1850.514855,-9474.636058,-689.485948
59455.707015,-8882.471304,-10732.986159,-4903.011187
59455.707325,-5995.668130,-15988.448347,-3753.867940
59455.707635,-9474.636058,-11251.130318,-6511.811733
59455.707944,-5995.668130,-15396.283594,-2528.115143
59455.708254,-5847.626942,-11695.253884,-1608.800546
59455.708564,-1406.391290,-9992.780217,1762.019645
59455.708873,3923.091493,-7105.977043,4979.620737
59455.709183,6217.729913,-3034.844362,4903.011187
59455.709493,10955.047942,-3627.009116,9806.022374
59455.709802,9400.615463,-4737.318029,7277.907231
59455.710112,1998.556043,-5995.668130,0.000000
59455.710422,-2664.741391,-11621.233289,-76.609550
59455.710732,-5995.668130,-14211.954086,-2528.115143
59455.711041,-7031.956449,-13619.789333,-4749.792088
59455.711351,-8216.285956,-13249.686362,-5209.449386
59455.711661,-7402.059420,-13101.645173,-2757.943793
59455.711970,-3552.988522,-11473.192101,-459.657299
59455.712280,0.000000,-7179.997637,612.876398
59455.712590,2368.659014,-5403.503377,4903.011187
59455.712899,9474.636058,-5329.482782,8810.098227
59455.713209,11769.274478,-3552.988522,7277.907231
59455.713519,7105.977043,-3034.844362,5515.887586
59455.713828,3478.967927,-9474.636058,3600.648841
59455.714138,-4737.318029,-11325.150913,-1685.410096
59455.714448,-7179.997637,-12509.480420,-4136.915689
59455.714757,-8068.244768,-12435.459826,-6358.592633
59455.715067,-8956.491898,-13101.645173,-5439.278036
59455.715377,-6883.915261,-11399.171507,-3753.867940
59455.715686,-4441.235652,-9548.656652,-2145.067394
59455.715996,2368.659014,-10140.821405,3983.696590
59455.716306,5847.626942,-7105.977043,4826.401637
59455.716615,9474.636058,-4811.338623,7660.954980
59455.716925,13545.768739,-6809.894666,9729.412825
59455.717235,7105.977043,-3034.844362,4903.011187
59455.717544,1924.535449,-8512.368333,1455.581446
59455.717854,-3849.070898,-10955.047942,-1608.800546
59455.718164,-5921.647536,-11843.295072,-4673.182538
59455.718474,-7476.080014,-11251.130318,-6818.249932
59455.718783,-10362.883188,-12065.356855,-6435.202183
59455.719093,-5921.647536,-11917.315666,-2451.505594
59455.719403,-74.020594,-14211.954086,2374.896044
59455.719712,1110.308913,-8142.265362,1302.362347
59455.720022,6217.729913,-7179.997637,7354.516781
59455.720332,7698.141797,-3627.009116,6128.763984
59455.720641,9918.759623,-3627.009116,6741.640382
59455.720951,5625.565159,-4663.297435,2911.162892
59455.721261,-740.205942,-8290.306550,0.000000
59455.721570,-2442.679609,-11843.295072,-1302.362347
59455.721880,-5995.668130,-10658.965565,-4979.620737
59455.722190,-9474.636058,-11917.315666,-4903.011187
59455.722499,-7105.977043,-15322.262999,-1455.581446
59455.722809,-5995.668130,-10658.965565,-3753.867940
59455.723119,-3552.988522,-9548.656652,0.000000
59455.723428,0.000000,-8512.368333,2757.943793
59455.723738,5625.565159,-6143.709319,6435.202183
59455.724048,9992.780217,-4219.173869,7890.783629
59455.724357,9992.780217,-2960.823768,6971.469032
59455.724667,6735.874072,-7105.977043,4826.401637
59455.724977,-74.020594,-9474.636058,-76.609550
59455.725287,-6291.750507,-9548.656652,-3447.429741
59455.725596,-4811.338623,-14211.954086,-1685.410096
59455.725906,-9844.739029,-12509.480420,-6511.811733
59455.726216,-11843.295072,-12509.480420,-4903.011187
59455.726525,-7772.162391,-11547.212695,-3753.867940
59455.726835,-2738.761985,-11251.130318,153.219100
59455.727145,1480.411884,-8808.450710,3983.696590
59455.727454,6217.729913,-5033.400406,6818.249932
59455.727764,11695.253884,-5033.400406,10035.851024
59455.728074,11769.274478,-4737.318029,7277.907231
59455.728383,3478.967927,-4663.297435,1762.019645
59455.728693,-2368.659014,-9548.656652,1838.629195
59455.729003,-3627.009116,-11251.130318,-2528.115143
59455.729312,-9474.636058,-9548.656652,-7354.516781
59455.729622,-9548.656652,-13915.871710,-5439.278036
59455.729932,-9474.636058,-13545.768739,-4519.963438
59455.730241,-4515.256246,-12435.459826,-2451.505594
59455.730551,-1184.329507,-11621.233289,1225.752797
59455.730861,3256.906145,-8956.491898,6741.640382
59455.731170,9400.615463,-6513.812290,8503.660028
59455.731480,10288.862594,-2368.659014,7277.907231
59455.731790,7105.977043,-1258.350101,7354.516781
59455.732099,5847.626942,-8290.306550,4213.525239
59455.732409,-2738.761985,-5995.668130,-1915.238745
59455.732719,-2442.679609,-10658.965565,-1915.238745
59455.733029,-5995.668130,-11843.295072,-4290.134789
59455.733338,-9474.636058,-13471.748144,-4979.620737
59455.733648,-8660.409521,-13693.809927,-5132.839837
59455.733958,-5921.647536,-11917.315666,-3677.258390
59455.734267,-296.082377,-12509.480420,2757.943793
59455.734577,4663.297435,-9474.636058,4826.401637
59455.734887,4737.318029,-2442.679609,4903.011187
59455.735196,12953.603985,-4737.318029,9116.536426
59455.735506,8808.450710,-2072.576638,4519.963438
59455.735816,5773.606348,-7105.977043,4060.306139
59455.736125,444.123565,-7920.203579,536.266849
59455.736435,-2368.659014,-9104.533087,-2221.676944
59455.736745,-5699.585753,-12139.377449,-3983.696590
59455.737054,-9474.636058,-11917.315666,-4903.011187
59455.737364,-8290.306550,-13693.809927,-4290.134789
59455.737674,-3034.844362,-15248.242405,-689.485948
59455.737983,-3182.885551,-9548.656652,-1225.752797
59455.738293,4441.235652,-10140.821405,6052.154434
59455.738603,9400.615463,-4737.318029,6052.154434
59455.738912,10807.006753,-3775.050304,8427.050478
59455.739222,7476.080014,-3849.070898,5439.278036
59455.739532,3182.885551,-6291.750507,2451.505594
59455.739841,-666.185348,-7624.121203,-459.657299
59455.740151,-6365.771101,-7179.997637,-3983.696590
59455.740461,-9474.636058,-11325.150913,-4903.011187
59455.740771,-9474.636058,-15914.427753,-3370.820191
59455.741080,-7179.997637,-13619.789333,-5592.497135
59455.741390,-8290.306550,-11917.315666,-3370.820191
59455.741700,1406.391290,-14211.954086,4826.401637
59455.742009,4959.379811,-8364.327145,6741.640382
59455.742319,8512.368333,-5107.421000,7584.345430
59455.742629,8586.388927,-1998.556043,7201.297681
59455.742938,6587.832884,-3182.885551,5439.278036
59455.743248,2294.638420,-4737.318029,536.266849
59455.743558,-2368.659014,-5995.668130,0.000000
59455.743867,-4441.235652,-9104.533087,-2451.505594
59455.744177,-5995.668130,-15396.283594,-3140.991542
59455.744487,-12731.542202,-12509.480420,-7354.516781
59455.744796,-8290.306550,-18357.107362,-2528.115143
59455.745106,-7698.141797,-14285.974681,-2451.505594
59455.745416,-814.226536,-11103.089130,2528.115143
59455.745725,4515.256246,-7031.956449,5669.106685
59455.746035,7772.162391,-3182.885551,6281.983084
59455.746345,9400.615463,-2368.659014,5745.716235
59455.746654,4515.256246,-2146.597232,3677.258390
59455.746964,1184.329507,-5699.585753,0.000000
59455.747274,2294.638420,-9474.636058,-76.609550
59455.747584,-5921.647536,-8364.327145,-4443.353888
59455.747893,-7105.977043,-14285.974681,-1838.629195
59455.748203,-10066.800811,-13693.809927,-5669.106685
59455.748513,-8734.430116,-14656.077652,-3983.696590
59455.748822,-4811.338623,-14211.954086,-1149.143247
59455.749132,74.020594,-10658.965565,2451.505594
59455.749442,8216.285956,-8290.306550,6665.030833
59455.749751,8808.450710,-2812.782580,6052.154434
59455.750061,6513.812290,-1850.514855,3064.381992
59455.750371,8808.450710,-7105.977043,7277.907231
59455.750680,1184.329507,-4811.338623,919.314598
59455.750990,0.000000,-6587.832884,0.000000
59455.751300,-4737.318029,-8956.491898,-3830.477490
59455.751609,-7846.182985,-12509.480420,-4749.792088
59455.751919,-9400.615463,-14359.995275,-5592.497135
59455.752229,-8438.347739,-15100.201217,-4903.011187
59455.752538,-1258.350101,-14211.954086,-76.609550
59455.752848,3478.967927,-11547.212695,3600.648841
59455.753158,6217.729913,-5403.503377,3677.258390
59455.753467,11177.109724,-6513.812290,9116.536426
59455.753777,5403.503377,-2220.617826,4213.525239
59455.754087,2368.659014,-4811.338623,4903.011187
59455.754396,3478.967927,-4737.318029,1225.752797
59455.754706,-370.102971,-7476.080014,76.609550
59455.755016,-4145.153275,-9548.656652,-2757.943793
59455.755326,-7179.997637,-12213.398043,-4290.134789
59455.755635,-6587.832884,-15840.407159,-3217.601092
59455.755945,-5403.503377,-15988.448347,-2834.553343
59455.756255,-4737.318029,-10955.047942,-2987.772442
59455.756564,296.082377,-11029.068536,3677.258390
59455.756874,5847.626942,-8290.306550,4826.401637
59455.757184,2368.659014,-1258.350101,2451.505594
59455.757493,5847.626942,-4737.318029,4826.401637
59455.757803,4293.194464,-4959.379811,3524.039291
59455.758113,2664.741391,-6291.750507,1915.238745
59455.758422,-370.102971,-7254.018232,-229.828649
59455.758732,-4145.153275,-11917.315666,-612.876398
59455.759042,-5403.503377,-14211.954086,-2528.115143
59455.759351,-8068.244768,-13915.871710,-4979.620737
59455.759661,-9474.636058,-13101.645173,-4596.572988
59455.759971,-1850.514855,-13619.789333,1149.143247
59455.760280,1998.556043,-7550.100608,1302.362347
59455.760590,6735.874072,-7994.224174,6358.592633
59455.760900,5403.503377,-3997.112087,6281.983084
59455.761210,5255.462188,-4219.173869,4903.011187
59455.761520,3182.885551,-4959.379811,3447.429741
59455.761830,0.000000,-5995.668130,1225.752797
59455.762139,-1184.329507,-8142.265362,-229.828649
59455.762449,-4811.338623,-13619.789333,-76.609550
59455.762759,-7476.080014,-10732.986159,-5439.278036
59455.763068,-8882.471304,-13101.645173,-3677.258390
59455.763378,-5995.668130,-14211.954086,-3140.991542
59455.763688,-74.020594,-13027.624579,-76.609550
59455.763997,2294.638420,-10510.924376,4136.915689
59455.764307,5477.523971,-6513.812290,4826.401637
59455.764617,4737.318029,-5625.565159,4673.182538
59455.764926,2960.823768,-3627.009116,3064.381992
59455.765236,3552.988522,-7179.997637,4290.134789
59455.765546,4071.132681,-9474.636058,4519.963438
59455.765855,-2960.823768,-5995.668130,0.000000
59455.766165,-3034.844362,-10658.965565,-153.219100
59455.766475,-3627.009116,-11843.295072,-3140.991542
59455.766784,-6883.915261,-14063.912898,-3140.991542
59455.767094,-5773.606348,-13471.748144,-2528.115143
59455.767404,-1036.288319,-11325.150913,536.266849
59455.767713,2442.679609,-9400.615463,3140.991542
59455.768023,1776.494261,-4219.173869,2451.505594
59455.768333,2368.659014,-4811.338623,3677.258390
59455.768642,5699.585753,-8956.491898,6511.811733
59455.768952,2886.803174,-5477.523971,1608.800546
59455.769262,2368.659014,-7179.997637,1991.848295
59455.769571,-74.020594,-9474.636058,-76.609550
59455.769881,-4737.318029,-10436.903782,-1838.629195
59455.770191,-5847.626942,-11251.130318,-3753.867940
59455.770500,-6365.771101,-14137.933492,-3294.210641
59455.770810,-3923.091493,-12953.603985,-1608.800546
59455.771120,-814.226536,-8660.409521,0.000000
59455.771429,2664.741391,-7179.997637,2451.505594
59455.771739,5329.482782,-7179.997637,6128.763984
59455.772049,6439.791695,-7105.977043,4826.401637
59455.772359,3552.988522,-5995.668130,3677.258390
59455.772668,5847.626942,-9474.636058,6052.154434
59455.772978,1480.411884,-6069.688724,689.485948
59455.773288,-1110.308913,-8438.347739,-153.219100
59455.773597,-4293.194464,-10362.883188,-2221.676944
59455.773907,-6661.853478,-12213.398043,-3907.087040
59455.774217,-7179.997637,-13619.789333,-4979.620737
59455.774526,-5699.585753,-12509.480420,-2068.457845
59455.774836,0.000000,-9548.656652,2451.505594
59455.775146,5847.626942,-9474.636058,4826.401637
59455.775455,2664.741391,-4811.338623,3677.258390
59455.775765,3849.070898,-4515.256246,3370.820191
59455.776075,4071.132681,-6809.894666,2987.772442
59455.776384,2072.576638,-6069.688724,1685.410096
59455.776694,888.247130,-7328.038826,766.095498
59455.777004,-1628.453072,-9326.594869,-766.095498
59455.777313,-3552.988522,-12213.398043,-842.705048
59455.777623,-4811.338623,-13027.624579,-76.609550
59455.777933,-4811.338623,-14211.954086,-1915.238745
59455.778242,-4737.318029,-10140.821405,0.000000
59455.778552,2886.803174,-10955.047942,3600.648841
59455.778862,4663.297435,-8882.471304,3600.648841
59455.779171,1332.370696,-5995.668130,3370.820191
59455.779481,2738.761985,-6217.729913,3524.039291
59455.779791,2368.659014,-6365.771101,2987.772442
59455.780100,1554.432478,-5625.565159,1608.800546
59455.780410,-518.144159,-5329.482782,0.000000
59455.780720,-3256.906145,-7772.162391,-3677.258390
59455.781029,-3256.906145,-12953.603985,-76.609550
59455.781339,-6587.832884,-11843.295072,-3753.867940
59455.781649,-7105.977043,-12509.480420,-3677.258390
59455.781958,-3552.988522,-11029.068536,0.000000
59455.782268,962.267725,-10362.883188,1455.581446
59455.782578,2146.597232,-8660.409521,3294.210641
59455.782887,1554.432478,-7550.100608,2987.772442
59455.783197,1406.391290,-7698.141797,2528.115143
59455.783507,3627.009116,-7550.100608,4136.915689
59455.783816,4663.297435,-9178.553681,4826.401637
59455.784126,1702.473667,-4441.235652,229.828649
59455.784436,-1184.329507,-8660.409521,612.876398
59455.784746,-3034.844362,-11251.130318,-1302.362347
59455.785055,-5995.668130,-13619.789333,-3753.867940
59455.785365,-6661.853478,-14285.974681,-2757.943793
59455.785675,-2294.638420,-11177.109724,-766.095498
59455.785984,740.205942,-10140.821405,1685.410096
59455.786294,1628.453072,-8586.388927,4213.525239
59455.786604,0.000000,-6587.832884,1225.752797
59455.786913,0.000000,-5107.421000,306.438199
59455.787223,2812.782580,-7328.038826,3983.696590
59455.787533,2738.761985,-4441.235652,842.705048
59455.787842,0.000000,-4811.338623,1225.752797
59455.788152,-1184.329507,-9030.512492,919.314598
59455.788462,-3182.885551,-11103.089130,-1915.238745
59455.788771,-5181.441594,-13175.665768,-2451.505594
59455.789081,-3775.050304,-12361.439231,-1915.238745
59455.789391,-518.144159,-10140.821405,-1225.752797
59455.789700,3478.967927,-10510.924376,3447.429741
59455.790010,4663.297435,-10658.965565,4826.401637
59455.790320,2590.720797,-7328.038826,2374.896044
59455.790629,4293.194464,-8068.244768,4826.401637
59455.790939,1184.329507,-4219.173869,0.000000
59455.791249,2368.659014,-3478.967927,689.485948
59455.791558,1480.411884,-7031.956449,1378.971896
59455.791868,-1480.411884,-8734.430116,-76.609550
59455.792178,-3997.112087,-10732.986159,-2374.896044
59455.792487,-4811.338623,-14211.954086,-689.485948
59455.792797,-4737.318029,-11029.068536,-2528.115143
59455.793107,-4145.153275,-9548.656652,-1838.629195
59455.793416,666.185348,-11695.253884,2451.505594
59455.793726,1110.308913,-8290.306550,-76.609550
59455.794036,592.164754,-8364.327145,3217.601092
59455.794345,4219.173869,-8882.471304,4673.182538
59455.794655,3997.112087,-5329.482782,3600.648841
59455.794965,4145.153275,-5329.482782,3064.381992
59455.795274,1776.494261,-8068.244768,2604.724693
59455.795584,-3552.988522,-5403.503377,-2451.505594
59455.795894,-4811.338623,-12509.480420,-919.314598
59455.796204,-2442.679609,-13915.871710,-76.609550
59455.796513,-3478.967927,-9548.656652,-1685.410096
59455.796823,0.000000,-12509.480420,3064.381992
59455.797133,-74.020594,-9474.636058,1685.410096
59455.797442,-3478.967927,-8438.347739,0.000000
59455.797752,0.000000,-8216.285956,1149.143247
59455.798062,-148.041188,-8290.306550,1991.848295
59455.798371,2220.617826,-5107.421000,2298.286494
59455.798681,4663.297435,-8882.471304,4826.401637
59455.798991,1110.308913,-5477.523971,1455.581446
59455.799300,-2960.823768,-7179.997637,0.000000
59455.799610,-3923.091493,-11251.130318,-76.609550
59455.799920,-6883.915261,-9844.739029,-4366.744339
59455.800229,-2442.679609,-12731.542202,-842.705048
59455.800539,-666.185348,-13027.624579,-76.609550
59455.800849,-1628.453072,-11029.068536,459.657299
59455.801158,-1406.391290,-9326.594869,383.047749
59455.801468,-444.123565,-9474.636058,1225.752797
59455.801778,0.000000,-4811.338623,612.876398
59455.802087,4367.215058,-6957.935855,3983.696590
59455.802397,6439.791695,-5921.647536,4213.525239
59455.802707,1776.494261,-5995.668130,2451.505594
59455.803016,-74.020594,-10658.965565,-76.609550
59455.803326,-4737.318029,-10881.027347,-1225.752797
59455.803636,-5921.647536,-10732.986159,-2451.505594
59455.803945,-2812.782580,-11399.171507,-1608.800546
59455.804255,-2590.720797,-10584.944971,-766.095498
59455.804565,-2664.741391,-10510.924376,-383.047749
59455.804874,-74.020594,-11251.130318,2374.896044
59455.805184,-1036.288319,-7920.203579,1225.752797
59455.805494,1184.329507,-6587.832884,3064.381992
59455.805803,4515.256246,-3256.906145,1149.143247
59455.806113,5921.647536,-6439.791695,5515.887586
59455.806423,3478.967927,-5329.482782,-689.485948
59455.806732,-666.185348,-9992.780217,-76.609550
59455.807042,-3552.988522,-11843.295072,-1378.971896
59455.807352,-2516.700203,-12065.356855,-1532.190996
59455.807661,-1258.350101,-11843.295072,-689.485948
59455.807971,-3552.988522,-9548.656652,0.000000
59455.808281,-814.226536,-11695.253884,995.924147
59455.808591,-74.020594,-10658.965565,842.705048
59455.808900,0.000000,-7179.997637,2451.505594
59455.809210,4663.297435,-7698.141797,4213.525239
59455.809520,4145.153275,-5255.462188,5209.449386
59455.809829,2960.823768,-4811.338623,2834.553343
59455.810139,1184.329507,-7105.977043,1378.971896
59455.810449,-1924.535449,-9992.780217,0.000000
59455.810758,-3182.885551,-11843.295072,-919.314598
59455.811068,-74.020594,-11547.212695,-1302.362347
59455.811378,-2220.617826,-10140.821405,-1225.752797
59455.811687,-2368.659014,-11029.068536,612.876398
59455.811997,-1258.350101,-11843.295072,-1302.362347
59455.812307,-4737.318029,-9844.739029,0.000000
59455.812616,-2294.638420,-8882.471304,0.000000
59455.812926,2294.638420,-6957.935855,2374.896044
59455.813236,4441.235652,-5107.421000,4290.134789
59455.813545,4663.297435,-5181.441594,4366.744339
59455.813855,2590.720797,-5995.668130,3064.381992
59455.814165,0.000000,-8956.491898,2451.505594
59455.814474,-1258.350101,-10288.862594,1072.533697
59455.814784,-1554.432478,-9992.780217,-153.219100
59455.815094,-1776.494261,-11251.130318,-766.095498
59455.815403,-3775.050304,-11917.315666,-919.314598
59455.815713,-4811.338623,-11251.130318,-3370.820191
59455.816023,-3997.112087,-11029.068536,-3294.210641
59455.816332,-2368.659014,-10140.821405,1378.971896
59455.816642,2886.803174,-7105.977043,2374.896044
59455.816952,2960.823768,-3849.070898,2757.943793
59455.817261,2368.659014,-4219.173869,3677.258390
59455.817571,1702.473667,-7105.977043,2374.896044
59455.817881,-1554.432478,-9474.636058,536.266849
59455.818190,-1776.494261,-10140.821405,153.219100
59455.818500,-1628.453072,-10214.842000,0.000000
59455.818810,-1554.432478,-10658.965565,-1608.800546
59455.819119,-4071.132681,-11621.233289,-3677.258390
59455.819429,-3552.988522,-13101.645173,612.876398
59455.819739,-1554.432478,-11843.295072,-383.047749
59455.820048,-2368.659014,-8068.244768,0.000000
59455.820358,1776.494261,-4811.338623,1378.971896
59455.820668,4663.297435,-5181.441594,4060.306139
59455.820978,3108.864956,-4959.379811,3217.601092
59455.821287,1258.350101,-6883.915261,2145.067394
59455.821597,-592.164754,-9178.553681,383.047749
59455.821907,-74.020594,-10658.965565,-76.609550
59455.822216,-2146.597232,-8734.430116,-2528.115143
59455.822526,-2368.659014,-11917.315666,0.000000
59455.822836,-3627.009116,-11547.212695,-2528.115143
59455.823145,-5921.647536,-11325.150913,-3064.381992
59455.823455,-4441.235652,-10436.903782,-1762.019645
59455.823765,-222.061783,-9474.636058,1608.800546
59455.824074,3552.988522,-5995.668130,2834.553343
59455.824384,4811.338623,-4515.256246,4290.134789
59455.824694,3627.009116,-4737.318029,4213.525239
59455.825003,4663.297435,-7994.224174,4519.963438
59455.825313,1998.556043,-8882.471304,1149.143247
59455.825623,0.000000,-9548.656652,1225.752797
59455.825932,1702.473667,-11843.295072,-76.609550
59455.826242,-4145.153275,-11325.150913,-2451.505594
59455.826552,-4885.359217,-11399.171507,-3677.258390
59455.826861,-5033.400406,-13397.727550,-1915.238745
59455.827171,-3404.947333,-11991.336260,-1072.533697
59455.827481,74.020594,-9548.656652,536.266849
59455.827790,2960.823768,-6883.915261,3294.210641
59455.828100,5329.482782,-7105.977043,6052.154434
59455.828410,4663.297435,-7105.977043,5898.935335
59455.828719,2368.659014,-4219.173869,1685.410096
59455.829029,3404.947333,-8512.368333,4290.134789
59455.829339,1110.308913,-7994.224174,842.705048
59455.829648,-370.102971,-10066.800811,-1685.410096
59455.829958,-3256.906145,-10214.842000,-1225.752797
59455.830268,-4515.256246,-12657.521608,-2451.505594
59455.830577,-4885.359217,-13175.665768,-2145.067394
59455.830887,-4145.153275,-12213.398043,-229.828649
59455.831197,370.102971,-10881.027347,2681.334243
59455.831506,3478.967927,-9474.636058,4213.525239
59455.831816,1332.370696,-4145.153275,2145.067394
59455.832126,3552.988522,-5995.668130,4290.134789
59455.832436,4663.297435,-7105.977043,3600.648841
59455.832745,4663.297435,-7994.224174,2068.457845
59455.833055,2368.659014,-7772.162391,1991.848295
59455.833365,-370.102971,-10288.862594,459.657299
59455.833674,-3997.112087,-11473.192101,-1532.190996
59455.833984,-6217.729913,-12953.603985,-1685.410096
59455.834294,-7105.977043,-13101.645173,-2451.505594
59455.834603,-3923.091493,-13545.768739,995.924147
59455.834913,-74.020594,-8882.471304,-76.609550
59455.835223,0.000000,-5995.668130,1532.190996
59455.835532,1850.514855,-7105.977043,3907.087040
59455.835842,3478.967927,-5921.647536,2374.896044
59455.836152,2590.720797,-6883.915261,3064.381992
59455.836461,3404.947333,-7179.997637,3064.381992
59455.836771,2368.659014,-7698.141797,1685.410096
59455.837081,-1110.308913,-9770.718434,612.876398
59455.837390,-5329.482782,-10140.821405,-1838.629195
59455.837700,-6809.894666,-13989.892304,-1838.629195
59455.838010,-7179.997637,-14211.954086,-3907.087040
59455.838319,-9178.553681,-11029.068536,-3064.381992
59455.838629,-592.164754,-9474.636058,919.314598
59455.838939,3997.112087,-6513.812290,4826.401637
59455.839248,2442.679609,-5773.606348,4366.744339
59455.839558,3034.844362,-3627.009116,3830.477490
59455.839868,3034.844362,-6957.935855,4136.915689
59455.840177,3923.091493,-4885.359217,2451.505594
59455.840487,0.000000,-7179.997637,919.314598
59455.840797,-3552.988522,-9548.656652,0.000000
59455.841106,-3627.009116,-14211.954086,-2528.115143
59455.841416,-7105.977043,-13693.809927,-3064.381992
59455.841726,-4811.338623,-15248.242405,-1991.848295
59455.842035,-3256.906145,-12731.542202,-76.609550
59455.842345,518.144159,-7920.203579,153.219100
59455.842655,1258.350101,-8068.244768,2834.553343
59455.842964,3330.926739,-6587.832884,4443.353888
59455.843274,5625.565159,-4811.338623,3064.381992
59455.843584,4737.318029,-4811.338623,4290.134789
59455.843893,2960.823768,-3627.009116,2451.505594
59455.844203,2886.803174,-11251.130318,2987.772442
59455.844513,-2146.597232,-9104.533087,-2221.676944
59455.844823,-4145.153275,-11991.336260,-1532.190996
59455.845132,-5921.647536,-14211.954086,-2374.896044
59455.845442,-5847.626942,-13323.706956,-3064.381992
59455.845752,-2294.638420,-10214.842000,-1608.800546
59455.846061,888.247130,-9400.615463,689.485948
59455.846371,1924.535449,-6587.832884,1072.533697
59455.846681,2590.720797,-5033.400406,2528.115143
59455.846990,3627.009116,-4811.338623,2451.505594
59455.847300,6809.894666,-6291.750507,5515.887586
59455.847610,4663.297435,-6217.729913,2987.772442
59455.847919,1184.329507,-7476.080014,2374.896044
59455.848229,-2220.617826,-10436.903782,0.000000
59455.848539,-4219.173869,-11843.295072,-2604.724693
59455.848848,-7105.977043,-13175.665768,-4060.306139
59455.849158,-5477.523971,-13027.624579,-2528.115143
59455.849468,-1110.308913,-10066.800811,-995.924147
59455.849777,2294.638420,-9178.553681,1762.019645
59455.850087,3478.967927,-7105.977043,3294.210641
59455.850397,1184.329507,-4811.338623,2757.943793
59455.850706,7031.956449,-7105.977043,7277.907231
59455.851016,5255.462188,-5921.647536,4826.401637
59455.851326,1702.473667,-5403.503377,2451.505594
59455.851635,-74.020594,-9474.636058,1302.362347
59455.851945,-2590.720797,-10066.800811,-1378.971896
59455.852255,-4885.359217,-12435.459826,-2681.334243
59455.852564,-7476.080014,-14211.954086,-2528.115143
59455.852874,-5107.421000,-13323.706956,-1302.362347
59455.853184,-4811.338623,-7328.038826,-3600.648841
59455.853493,-2368.659014,-8660.409521,1532.190996
59455.853803,-74.020594,-8882.471304,4213.525239
59455.854113,1258.350101,-4959.379811,3064.381992
59455.854422,2960.823768,-3627.009116,3677.258390
59455.854732,5403.503377,-5329.482782,4673.182538
59455.855042,3478.967927,-6069.688724,3447.429741
59455.855351,-296.082377,-8438.347739,1149.143247
59455.855661,-3849.070898,-11843.295072,-1915.238745
59455.855971,-5403.503377,-14211.954086,-4290.134789
59455.856280,-7179.997637,-16580.613101,-3753.867940
59455.856590,-7105.977043,-11917.315666,-3677.258390
59455.856900,-666.185348,-11251.130318,-76.609550
59455.857210,-370.102971,-8808.450710,612.876398
59455.857519,-1184.329507,-6587.832884,2451.505594
59455.857829,3552.988522,-6661.853478,4903.011187
59455.858139,6291.750507,-5107.421000,5286.058936
59455.858448,5847.626942,-4885.359217,4826.401637
59455.858758,4663.297435,-7994.224174,4826.401637
59455.859068,1258.350101,-9474.636058,612.876398
59455.859377,-1258.350101,-12731.542202,-1302.362347
59455.859687,-9474.636058,-11917.315666,-4903.011187
59455.859997,-7476.080014,-15396.283594,-2528.115143
59455.860306,-5403.503377,-10732.986159,-4903.011187
59455.860616,-2738.761985,-9474.636058,-1915.238745
59455.860926,0.000000,-8364.327145,1225.752797
59455.861235,1850.514855,-7254.018232,2604.724693
59455.861545,4515.256246,-6587.832884,3983.696590
59455.861855,7624.121203,-6587.832884,5822.325785
59455.862164,7402.059420,-6143.709319,4213.525239
59455.862474,7402.059420,-7698.141797,5056.230287
59455.862784,2294.638420,-8290.306550,536.266849
59455.863093,-3552.988522,-11621.233289,-766.095498
59455.863403,-6587.832884,-13693.809927,-5286.058936
59455.863713,-6587.832884,-14211.954086,-3753.867940
59455.864022,-4441.235652,-11621.233289,-3370.820191
59455.864332,-3404.947333,-9696.697840,-2145.067394
59455.864642,-962.267725,-9548.656652,2068.457845
59455.864951,2664.741391,-6883.915261,3983.696590
59455.865261,5329.482782,-4959.379811,5898.935335
59455.865571,5921.647536,-3627.009116,6741.640382
59455.865880,8216.285956,-4441.235652,5439.278036
59455.866190,3552.988522,-4811.338623,1225.752797
59455.866500,1480.411884,-7994.224174,842.705048
59455.866809,-2738.761985,-12435.459826,-1915.238745
59455.867119,-8438.347739,-14211.954086,-4366.744339
59455.867429,-7772.162391,-14211.954086,-5286.058936
59455.867738,-4737.318029,-12435.459826,-3753.867940
59455.868048,-4737.318029,-11917.315666,-2145.067394
59455.868358,-2960.823768,-9548.656652,2068.457845
59455.868667,0.000000,-6587.832884,3064.381992
59455.868977,7105.977043,-5773.606348,7048.078582
59455.869287,8216.285956,-4737.318029,7890.783629
59455.869596,7254.018232,-2368.659014,6052.154434
59455.869906,7031.956449,-6365.771101,5745.716235
59455.870216,518.144159,-6957.935855,536.266849
59455.870525,-5995.668130,-12213.398043,-2681.334243
59455.870835,-9918.759623,-14211.954086,-4979.620737
59455.871145,-9474.636058,-13101.645173,-6741.640382
59455.871454,-6513.812290,-12361.439231,-3830.477490
59455.871764,-7105.977043,-11325.150913,-3370.820191
59455.872074,-1998.556043,-12509.480420,2145.067394
59455.872383,1110.308913,-9474.636058,3600.648841
59455.872693,4071.132681,-6513.812290,6052.154434
59455.873003,6883.915261,-4515.256246,7048.078582
59455.873312,7920.203579,-3552.988522,5669.106685
59455.873622,5403.503377,-4811.338623,4136.915689
59455.873932,74.020594,-8142.265362,689.485948
59455.874241,-6513.812290,-10732.986159,-2604.724693
59455.874551,-7476.080014,-14211.954086,-3294.210641
59455.874861,-8882.471304,-11325.150913,-4903.011187
59455.875170,-4811.338623,-12731.542202,-2221.676944
59455.875480,-5995.668130,-11251.130318,-1608.800546
59455.875790,-1554.432478,-10214.842000,2221.676944
59455.876099,2368.659014,-8660.409521,4290.134789
59455.876409,4293.194464,-5921.647536,4979.620737
59455.876719,7105.977043,-2812.782580,5056.230287
59455.877028,7920.203579,-3701.029710,5822.325785
59455.877338,5255.462188,-4145.153275,3600.648841
59455.877648,-74.020594,-8364.327145,-153.219100
59455.877957,-5995.668130,-11251.130318,-3753.867940
59455.878267,-7994.224174,-13397.727550,-4136.915689
59455.878577,-5403.503377,-16580.613101,-3753.867940
59455.878886,-4811.338623,-13323.706956,-2451.505594
59455.879196,-4737.318029,-12065.356855,0.000000
59455.879506,296.082377,-9918.759623,1991.848295
59455.879815,2886.803174,-8512.368333,3677.258390
59455.880125,4737.318029,-6661.853478,5132.839837
59455.880435,9400.615463,-4737.318029,6052.154434
59455.880744,9992.780217,-3034.844362,6435.202183
59455.881054,7031.956449,-4737.318029,4826.401637
59455.881364,0.000000,-6587.832884,0.000000
59455.881673,-3627.009116,-14211.954086,-76.609550
59455.881983,-7105.977043,-13397.727550,-2451.505594
59455.882293,-6809.894666,-12213.398043,-4903.011187
59455.882602,-5995.668130,-13397.727550,-3447.429741
59455.882912,-4811.338623,-13175.665768,-1072.533697
59455.883222,-666.185348,-10584.944971,1072.533697
59455.883531,4071.132681,-10362.883188,4673.182538
59455.883841,5403.503377,-5107.421000,4903.011187
59455.884151,9400.615463,-4737.318029,6052.154434
59455.884460,7550.100608,-2442.679609,4903.011187
59455.884770,7994.224174,-7920.203579,7507.735880
59455.885080,0.000000,-6587.832884,0.000000
59455.885389,-5773.606348,-9548.656652,-2911.162892
59455.885699,-5181.441594,-13397.727550,-3064.381992
59455.886009,-5699.585753,-12583.501014,-4673.182538
59455.886318,-6809.894666,-13471.748144,-3447.429741
59455.886628,-3775.050304,-13619.789333,-459.657299
59455.886938,-592.164754,-10881.027347,1225.752797
59455.887247,3478.967927,-10658.965565,4213.525239
59455.887557,4071.132681,-5403.503377,3907.087040
59455.887867,4737.318029,-1258.350101,4903.011187
59455.888176,7698.141797,-2442.679609,4903.011187
59455.888486,4071.132681,-4145.153275,2681.334243
59455.888796,-2516.700203,-8660.409521,-383.047749
59455.889105,-5699.585753,-11103.089130,-2451.505594
59455.889415,-5329.482782,-10955.047942,-3677.258390
59455.889725,-5921.647536,-11917.315666,-4749.792088
59455.890034,-9474.636058,-11917.315666,-3677.258390
59455.890344,-4219.173869,-15396.283594,-689.485948
59455.890654,-1850.514855,-11843.295072,-76.609550
59455.890963,-2220.617826,-7179.997637,1225.752797
59455.891273,3552.988522,-3923.091493,3677.258390
59455.891583,9400.615463,-4145.153275,6665.030833
59455.891892,8956.491898,-2886.803174,6281.983084
59455.892202,4959.379811,-5551.544565,4213.525239
59455.892512,-2146.597232,-9030.512492,-766.095498
59455.892821,-7105.977043,-10140.821405,-3677.258390
59455.893131,-9474.636058,-10732.986159,-5822.325785
59455.893441,-8882.471304,-15026.180623,-4596.572988
59455.893750,-9548.656652,-14211.954086,-4979.620737
59455.894060,-7105.977043,-11917.315666,0.000000
59455.894370,-1554.432478,-9622.677246,842.705048
59455.894679,4663.297435,-9474.636058,6052.154434
59455.894989,7105.977043,-4219.173869,6818.249932
59455.895299,10288.862594,-1480.411884,6971.469032
59455.895608,8438.347739,-2442.679609,6052.154434
59455.895918,1776.494261,-5995.668130,1225.752797
59455.896228,-4811.338623,-10066.800811,-2374.896044
59455.896537,-5625.565159,-12509.480420,-2451.505594
59455.896847,-4811.338623,-12435.459826,-4979.620737
59455.897157,-10658.965565,-10732.986159,-6128.763984
59455.897466,-8068.244768,-11991.336260,-4903.011187
59455.897776,-2442.679609,-12731.542202,-1302.362347
59455.898086,1258.350101,-9548.656652,1225.752797
59455.898395,4663.297435,-8808.450710,5362.668486
59455.898705,8216.285956,-5551.544565,6894.859482
59455.899015,9474.636058,-2738.761985,6128.763984
59455.899324,7624.121203,-4145.153275,5132.839837
59455.899634,2368.659014,-7179.997637,3524.039291
59455.899944,-1258.350101,-10658.965565,-229.828649
59455.900253,-4737.318029,-7179.997637,-2451.505594
59455.900563,-4811.338623,-10066.800811,-5286.058936
59455.900873,-5995.668130,-13915.871710,-3753.867940
59455.901182,-7254.018232,-13915.871710,-3600.648841
59455.901492,-3923.091493,-12435.459826,-2068.457845
59455.901802,-296.082377,-11325.150913,1685.410096
59455.902111,2960.823768,-7179.997637,4290.134789
59455.902421,7105.977043,-2442.679609,6128.763984
59455.902731,11251.130318,-4219.173869,7967.393179
59455.903040,7624.121203,-4737.318029,4213.525239
59455.903350,0.000000,-5995.668130,0.000000
59455.903660,-3256.906145,-9548.656652,-1762.019645
59455.903969,-2442.679609,-11547.212695,-2221.676944
59455.904279,-5181.441594,-11473.192101,-4060.306139
59455.904589,-7105.977043,-13101.645173,-3830.477490
59455.904898,-6069.688724,-13545.768739,-2451.505594
59455.905208,-3552.988522,-11917.315666,0.000000
59455.905518,-2368.659014,-8364.327145,1225.752797
59455.905827,3552.988522,-6587.832884,5209.449386
59455.906137,9400.615463,-4737.318029,8503.660028
59455.906447,5329.482782,-666.185348,3677.258390
59455.906756,4663.297435,-3552.988522,3600.648841
59455.907066,-74.020594,-9474.636058,2068.457845
59455.907376,-3701.029710,-10214.842000,-2221.676944
59455.907685,-5477.523971,-10510.924376,-4060.306139
59455.907995,-8364.327145,-11621.233289,-4443.353888
59455.908305,-10362.883188,-13545.768739,-4979.620737
59455.908614,-7105.977043,-13101.645173,-3064.381992
59455.908924,-4737.318029,-9548.656652,0.000000
59455.909234,3034.844362,-11843.295072,4826.401637
59455.909543,4663.297435,-5921.647536,5132.839837
59455.909853,7920.203579,-3552.988522,6971.469032
59455.910163,10584.944971,-4145.153275,7277.907231
59455.910472,4367.215058,-5477.523971,3983.696590
59455.910782,0.000000,-8438.347739,1072.533697
59455.911092,-2886.803174,-10584.944971,-1762.019645
59455.911401,-7105.977043,-10140.821405,-4903.011187
59455.911711,-9770.718434,-11029.068536,-6971.469032
59455.912021,-9474.636058,-13101.645173,-4290.134789
59455.912330,-5995.668130,-14211.954086,-2528.115143
59455.912640,-3627.009116,-9252.574275,-1608.800546
59455.912950,1110.308913,-10658.965565,4213.525239
59455.913259,7476.080014,-5329.482782,7507.735880
59455.913569,9104.533087,-2516.700203,6358.592633
59455.913879,7994.224174,-3256.906145,5362.668486
59455.914188,4737.318029,-6365.771101,3140.991542
59455.914498,-1332.370696,-7846.182985,-383.047749
59455.914808,-2590.720797,-11695.253884,-1302.362347
59455.915117,-7105.977043,-9548.656652,-5515.887586
59455.915427,-7698.141797,-14804.118840,-3753.867940
59455.915737,-7772.162391,-12435.459826,-5592.497135
59455.916046,-2738.761985,-15100.201217,-76.609550
59455.916356,0.000000,-12213.398043,1532.190996
59455.916666,3108.864956,-9474.636058,4826.401637
59455.916975,8068.244768,-4737.318029,6818.249932
59455.917285,10584.944971,-2294.638420,6741.640382
59455.917595,8216.285956,-3552.988522,6971.469032
59455.917904,3849.070898,-4959.379811,3677.258390
59455.918214,1702.473667,-8290.306550,536.266849
59455.918524,-2960.823768,-8956.491898,-1838.629195
59455.918834,-3923.091493,-13619.789333,-3140.991542
59455.919143,-8068.244768,-15100.201217,-2681.334243
59455.919453,-9474.636058,-14285.974681,-4903.011187
59455.919763,-4811.338623,-14211.954086,-2987.772442
59455.920072,-2368.659014,-13619.789333,612.876398
59455.920382,3627.009116,-9548.656652,4519.963438
59455.920692,9400.615463,-5921.647536,7124.688131
59455.921001,9474.636058,-2590.720797,7507.735880
59455.921311,8216.285956,-3256.906145,5745.716235
59455.921621,3256.906145,-5403.503377,4903.011187
59455.921930,4071.132681,-9474.636058,2374.896044
59455.922240,-1776.494261,-8956.491898,-612.876398
59455.922550,-7105.977043,-9548.656652,-3983.696590
59455.922859,-8882.471304,-13323.706956,-4443.353888
59455.923169,-9252.574275,-14359.995275,-4596.572988
59455.923479,-6957.935855,-15026.180623,-2604.724693
59455.923788,-2442.679609,-14804.118840,1532.190996
59455.924098,2368.659014,-8512.368333,3983.696590
59455.924408,7624.121203,-5329.482782,6052.154434
59455.924717,6513.812290,-1850.514855,4903.011187
59455.925027,9400.615463,-5773.606348,8197.221829
59455.925337,3552.988522,-4811.338623,3064.381992
59455.925646,0.000000,-6365.771101,0.000000
59455.925956,-2960.823768,-8142.265362,-2681.334243
59455.926266,-7328.038826,-12435.459826,-4060.306139
59455.926575,-9104.533087,-14804.118840,-5286.058936
59455.926885,-8438.347739,-16062.468941,-4903.011187
59455.927195,-7402.059420,-15174.221811,-2451.505594
59455.927504,-74.020594,-14211.954086,2681.334243
59455.927814,3330.926739,-5329.482782,2987.772442
59455.928124,7105.977043,-3034.844362,7967.393179
59455.928433,5921.647536,-666.185348,6741.640382
59455.928743,5181.441594,-2072.576638,4519.963438
59455.929053,3108.864956,-5995.668130,2757.943793
59455.929362,296.082377,-6735.874072,-306.438199
59455.929672,-4441.235652,-8586.388927,-3600.648841
59455.929982,-8290.306550,-11621.233289,-5056.230287
59455.930291,-9474.636058,-13693.809927,-4903.011187
59455.930601,-7772.162391,-16580.613101,-4366.744339
59455.930911,-7402.059420,-13101.645173,-4903.011187
59455.931220,-592.164754,-13545.768739,3677.258390
59455.931530,2960.823768,-5403.503377,3677.258390
59455.931840,9104.533087,-4145.153275,7277.907231
59455.932149,8290.306550,-2960.823768,7354.516781
59455.932459,6587.832884,-3552.988522,5515.887586
59455.932769,3997.112087,-6143.709319,2911.162892
59455.933078,0.000000,-6069.688724,0.000000
59455.933388,-5921.647536,-7476.080014,-4290.134789
59455.933698,-7402.059420,-13989.892304,-3677.258390
59455.934007,-7772.162391,-14804.118840,-5592.497135
59455.934317,-9474.636058,-14285.974681,-4903.011187
59455.934627,-4515.256246,-14137.933492,-2911.162892
59455.934936,2294.638420,-11843.295072,3140.991542
59455.935246,6291.750507,-7402.059420,6665.030833
59455.935556,8216.285956,-3182.885551,7124.688131
59455.935865,7550.100608,-3404.947333,6894.859482
59455.936175,4737.318029,-3923.091493,4903.011187
59455.936485,2590.720797,-6291.750507,2221.676944
59455.936794,0.000000,-7179.997637,0.000000
59455.937104,-3627.009116,-7254.018232,-4979.620737
59455.937414,-6809.894666,-13101.645173,-3064.381992
59455.937723,-8364.327145,-12435.459826,-7124.688131
59455.938033,-7624.121203,-16580.613101,-3753.867940
59455.938343,-3923.091493,-15026.180623,-1378.971896
59455.938652,1554.432478,-12213.398043,2681.334243
59455.938962,7179.997637,-6883.915261,5592.497135
59455.939272,7179.997637,-3701.029710,6665.030833
59455.939581,7624.121203,-4219.173869,6358.592633
59455.939891,5033.400406,-4811.338623,4903.011187
59455.940201,4663.297435,-9326.594869,5975.544884
59455.940510,-74.020594,-5329.482782,-1608.800546
59455.940820,-2442.679609,-10658.965565,-2528.115143
59455.941130,-5551.544565,-12509.480420,-2528.115143
59455.941439,-7846.182985,-13619.789333,-5286.058936
59455.941749,-8438.347739,-15026.180623,-4596.572988
59455.942059,-5551.544565,-14804.118840,-1302.362347
59455.942368,1998.556043,-10214.842000,2987.772442
59455.942678,4663.297435,-6809.894666,4213.525239
59455.942988,4737.318029,-3627.009116,5209.449386
59455.943297,7105.977043,-5403.503377,7967.393179
59455.943607,7031.956449,-7105.977043,5439.278036
59455.943917,4663.297435,-7105.977043,2374.896044
59455.944226,-1110.308913,-6883.915261,0.000000
59455.944536,-4589.276840,-10066.800811,-2145.067394
59455.944846,-6735.874072,-12435.459826,-3600.648841
59455.945155,-8290.306550,-13545.768739,-5056.230287
59455.945465,-6883.915261,-15248.242405,-2528.115143
59455.945775,-2738.761985,-13027.624579,-76.609550
59455.946084,592.164754,-7772.162391,1378.971896
59455.946394,5921.647536,-9252.574275,8120.612279
59455.946704,6439.791695,-5921.647536,6052.154434
59455.947013,7031.956449,-7105.977043,7277.907231
59455.947323,3256.906145,-5403.503377,4903.011187
59455.947633,2294.638420,-5773.606348,1991.848295
59455.947942,-1628.453072,-5699.585753,-919.314598
59455.948252,-7105.977043,-10732.986159,-2451.505594
59455.948562,-6587.832884,-11251.130318,-3677.258390
59455.948871,-6587.832884,-14211.954086,-3753.867940
59455.949181,-8882.471304,-13101.645173,-3677.258390
59455.949491,-2368.659014,-13101.645173,2757.943793
59455.949800,3478.967927,-9474.636058,2374.896044
59455.950110,5033.400406,-7994.224174,7201.297681
59455.950420,2960.823768,-5107.421000,4903.011187
59455.950729,4663.297435,-5995.668130,4213.525239
59455.951039,3330.926739,-6587.832884,3830.477490
59455.951349,2812.782580,-6365.771101,1608.800546
59455.951658,740.205942,-7994.224174,0.000000
59455.951968,-2442.679609,-11843.295072,-689.485948
59455.952278,-6143.709319,-10955.047942,-4673.182538
59455.952587,-7105.977043,-14878.139434,-1838.629195
59455.952897,-3627.009116,-15988.448347,-1302.362347
59455.953207,-1184.329507,-11473.192101,1838.629195
59455.953516,2368.659014,-7772.162391,2757.943793
59455.953826,4367.215058,-6809.894666,4903.011187
59455.954136,4663.297435,-5181.441594,4596.572988
59455.954445,4959.379811,-6143.709319,4290.134789
59455.954755,3997.112087,-5995.668130,2451.505594
59455.955065,3552.988522,-6957.935855,2681.334243
59455.955374,-1258.350101,-7698.141797,-1302.362347
59455.955684,-4145.153275,-10140.821405,0.000000
59455.955994,-4811.338623,-13027.624579,-4979.620737
59455.956303,-9474.636058,-14285.974681,-4290.134789
59455.956613,-5181.441594,-13989.892304,-2221.676944
59455.956923,148.041188,-11325.150913,689.485948
59455.957232,4293.194464,-7994.224174,3370.820191
59455.957542,5033.400406,-6439.791695,5209.449386
59455.957852,5403.503377,-4367.215058,3524.039291
59455.958161,4145.153275,-6291.750507,4290.134789
59455.958471,4071.132681,-7105.977043,4213.525239
59455.958781,0.000000,-2442.679609,0.000000
59455.959090,-296.082377,-9252.574275,1455.581446
59455.959400,-5625.565159,-7772.162391,-2451.505594
59455.959710,-7476.080014,-11843.295072,-4519.963438
59455.960019,-9030.512492,-15174.221811,-3830.477490
59455.960329,-4811.338623,-13915.871710,-1685.410096
59455.960639,1258.350101,-10955.047942,1532.190996
59455.960948,3330.926739,-8142.265362,3600.648841
59455.961258,1776.494261,-6587.832884,3677.258390
59455.961568,3701.029710,-7772.162391,5056.230287
59455.961877,3478.967927,-7994.224174,2987.772442
59455.962187,-2368.659014,-4811.338623,612.876398
59455.962497,-4145.153275,-4811.338623,0.000000
59455.962807,-3923.091493,-8808.450710,-76.609550
59455.963116,-7550.100608,-10288.862594,-2451.505594
59455.963426,-10362.883188,-12657.521608,-3524.039291
59455.963736,-11695.253884,-13841.851115,-2757.943793
59455.964045,-9696.697840,-12139.377449,-689.485948
59455.964355,-4811.338623,-9400.615463,766.095498
59455.964665,-1480.411884,-8364.327145,4903.011187
59455.964975,-74.020594,-7105.977043,4826.401637
59455.965284,1110.308913,-6513.812290,4213.525239
59455.965594,-3775.050304,-3108.864956,842.705048
59455.965904,-2442.679609,-6513.812290,1762.019645
59455.966214,-6735.874072,-5847.626942,-1915.238745
59455.966523,-5921.647536,-8364.327145,-459.657299
59455.966833,-6957.935855,-10807.006753,-689.485948
59455.967143,-10807.006753,-12139.377449,-2834.553343
59455.967453,-12509.480420,-14211.954086,-3753.867940
59455.967762,-10510.924376,-14730.098246,-612.876398
59455.968072,-4811.338623,-11843.295072,-76.609550
59455.968382,-6217.729913,-7179.997637,2757.943793
59455.968692,-4737.318029,-370.102971,3064.381992
59455.969001,3034.844362,-2368.659014,6971.469032
59455.969311,3478.967927,-3330.926739,7201.297681
59455.969621,296.082377,-5773.606348,4749.792088
59455.969931,-5255.462188,-7698.141797,1455.581446
59455.970240,-6217.729913,-8586.388927,-1302.362347
59455.970550,-9474.636058,-8364.327145,-4903.011187
59455.970860,-11251.130318,-11917.315666,-3677.258390
59455.971170,-5995.668130,-14211.954086,-3753.867940
59455.971479,-5107.421000,-10807.006753,-2757.943793
59455.971789,-4515.256246,-10436.903782,-3064.381992
59455.972099,-4219.173869,-14211.954086,1149.143247
59455.972409,-2368.659014,-10066.800811,2374.896044
59455.972718,2368.659014,-6735.874072,4443.353888
59455.973028,2220.617826,-5255.462188,5669.106685
59455.973338,-1258.350101,-6809.894666,4826.401637
59455.973648,-1776.494261,-5403.503377,2068.457845
59455.973957,2368.659014,-4811.338623,2757.943793
59455.974267,5847.626942,-5921.647536,2374.896044
59455.974577,-4441.235652,-5995.668130,-1838.629195
59455.974887,-7179.997637,-11843.295072,-4979.620737
59455.975196,-7994.224174,-13989.892304,-5362.668486
59455.975506,-6587.832884,-14730.098246,-4673.182538
59455.975816,-4885.359217,-14211.954086,-2221.676944
59455.976126,-4441.235652,-12509.480420,-919.314598
59455.976435,-74.020594,-11843.295072,2068.457845
59455.976745,5255.462188,-7402.059420,5056.230287
59455.977055,8290.306550,-2738.761985,7354.516781
59455.977365,11769.274478,-4737.318029,9729.412825
59455.977674,2886.803174,-2368.659014,3600.648841
59455.977984,-1258.350101,-9326.594869,-76.609550
59455.978294,-4737.318029,-13545.768739,-1225.752797
59455.978604,-6883.915261,-13323.706956,-3524.039291
59455.978913,-8216.285956,-11991.336260,-4903.011187
59455.979223,-10214.842000,-12213.398043,-5592.497135
59455.979533,-9622.677246,-15322.262999,-2528.115143
59455.979843,-5995.668130,-12879.583391,-383.047749
59455.980152,-3404.947333,-6587.832884,0.000000
59455.980462,3849.070898,-6217.729913,7890.783629
59455.980772,7031.956449,-2368.659014,8503.660028
59455.981082,8216.285956,-1776.494261,9116.536426
59455.981391,3552.988522,-4811.338623,6281.983084
59455.981701,-2664.741391,-9252.574275,1532.190996
59455.982011,-8808.450710,-13693.809927,-2987.772442
59455.982321,-10955.047942,-15100.201217,-5822.325785
59455.982630,-10362.883188,-12805.562797,-5669.106685
59455.982940,-10955.047942,-11991.336260,-5592.497135
59455.983250,-10362.883188,-11695.253884,-4979.620737
59455.983560,-9474.636058,-12213.398043,0.000000
59455.983869,-4811.338623,-15248.242405,3600.648841
59455.984179,-1258.350101,-9474.636058,6665.030833
59455.984489,0.000000,-2590.720797,6435.202183
59455.984799,3330.926739,0.000000,9652.803275
59455.985108,5921.647536,3182.885551,8580.269578
59455.985418,4145.153275,1110.308913,5975.544884
59455.985728,1184.329507,-4811.338623,3677.258390
59455.986038,-6291.750507,-10955.047942,-2298.286494
59455.986347,-12509.480420,-15396.283594,-8656.879127
59455.986657,-20725.766376,-20207.622217,-9806.022374
59455.986967,-18949.272115,-21836.075289,-8886.707777
59455.987277,-12287.418637,-18949.272115,-3753.867940
59455.987586,-9918.759623,-14952.160028,-1608.800546
59455.987896,-1184.329507,-4885.359217,4213.525239
59455.988206,4589.276840,-2886.803174,9499.584175
59455.988516,8956.491898,0.000000,11184.994271
59455.988825,7698.141797,2294.638420,9806.022374
59455.989135,6513.812290,-1628.453072,9346.365076
59455.989445,2294.638420,-4737.318029,4213.525239
59455.989755,-4737.318029,-8364.327145,612.876398
59455.990064,-7476.080014,-12435.459826,-3753.867940
59455.990374,-14211.954086,-16358.551318,-5515.887586
59455.990684,-15840.407159,-20577.725188,-8963.317327
59455.990994,-14804.118840,-17764.942608,-7431.126331
59455.991303,-11399.171507,-16432.571912,-4903.011187
59455.991613,-4515.256246,-10066.800811,-229.828649
59455.991923,148.041188,-4811.338623,3677.258390
59455.992233,7402.059420,-3034.844362,8580.269578
59455.992542,11769.274478,0.000000,11568.042020
59455.992852,7105.977043,2294.638420,7660.954980
59455.993162,8216.285956,-3552.988522,7890.783629
59455.993472,1184.329507,-5403.503377,3370.820191
59455.993781,-2442.679609,-9474.636058,-459.657299
59455.994091,-6661.853478,-11769.274478,-4979.620737
59455.994401,-9770.718434,-16432.571912,-6665.030833
59455.994710,-11695.253884,-19911.539840,-7660.954980
59455.995020,-10584.944971,-20207.622217,-9039.926876
59455.995330,-7105.977043,-19023.292709,-2298.286494
59455.995640,-1258.350101,-16580.613101,3600.648841
59455.995949,0.000000,-4811.338623,2451.505594
59455.996259,6365.771101,-4737.318029,9729.412825
59455.996569,5625.565159,1998.556043,9806.022374
59455.996879,5847.626942,888.247130,10035.851024
59455.997188,3330.926739,1184.329507,6665.030833
59455.997498,222.061783,-3330.926739,4060.306139
59455.997808,-3923.091493,-7772.162391,1532.190996
59455.998118,-6587.832884,-10510.924376,-3753.867940
59455.998427,-9474.636058,-13101.645173,-5822.325785
59455.998737,-8956.491898,-20725.766376,-3753.867940
59455.999047,-10436.903782,-15840.407159,-6358.592633
59455.999357,-7105.977043,-16062.468941,-1838.629195
59455.999666,-2516.700203,-12805.562797,2911.162892
59455.999976,3775.050304,-7550.100608,6358.592633
59456.000286,8364.327145,-3775.050304,9116.536426
59456.000596,10066.800811,-1036.288319,12180.918418
59456.000905,9178.553681,740.205942,11261.603821
59456.001215,8808.450710,-1184.329507,9729.412825
59456.001525,1776.494261,-3034.844362,4903.011187
59456.001835,-74.020594,-11843.295072,6665.030833
59456.002144,-7476.080014,-10955.047942,0.000000
59456.002454,-7994.224174,-11917.315666,-2451.505594
59456.002764,-8068.244768,-14804.118840,-2451.505594
59456.003074,-5329.482782,-17246.798449,766.095498
59456.003383,-3552.988522,-16284.530724,3140.991542
59456.003693,-1036.288319,-13693.809927,6052.154434
59456.004003,2146.597232,-8956.491898,8273.831378
59456.004313,6439.791695,-7105.977043,10955.165621
59456.004622,6439.791695,-1332.370696,10035.851024
59456.004932,2368.659014,-74.020594,9806.022374
59456.005242,7624.121203,-2368.659014,12793.794817
59456.005552,4219.173869,-814.226536,7814.174080
59456.005861,1332.370696,-5477.523971,4903.011187
59456.006171,-1110.308913,-9178.553681,4290.134789
59456.006481,-2960.823768,-14211.954086,3907.087040
59456.006791,-5477.523971,-16654.633695,2451.505594
59456.007100,-8808.450710,-19245.354492,2374.896044
59456.007410,-8364.327145,-18949.272115,3600.648841
59456.007720,-4811.338623,-12879.583391,4826.401637
59456.008030,0.000000,-1850.514855,6128.763984
59456.008339,8290.306550,222.061783,12870.404366
59456.008649,8808.450710,1184.329507,14019.547613
59456.008959,5329.482782,-222.061783,16088.005458
59456.009269,2368.659014,-1258.350101,11031.775171
59456.009578,888.247130,-4071.132681,8580.269578
59456.009888,-2368.659014,-6809.894666,5822.325785
59456.010198,-4367.215058,-8512.368333,2834.553343
59456.010508,-4737.318029,-9548.656652,1838.629195
59456.010817,-1924.535449,-14211.954086,2068.457845
59456.011127,-2442.679609,-17764.942608,3600.648841
59456.011437,-8290.306550,-16654.633695,0.000000
59456.011747,-5995.668130,-20725.766376,4290.134789
59456.012056,-2368.659014,-12213.398043,4290.134789
59456.012366,2146.597232,-6513.812290,6665.030833
59456.012676,3775.050304,-740.205942,8963.317327
59456.012986,5181.441594,962.267725,8120.612279
59456.013295,4367.215058,592.164754,7890.783629
59456.013605,2368.659014,-74.020594,4903.011187
59456.013915,1184.329507,-5403.503377,4903.011187
59456.014225,-74.020594,-13027.624579,4826.401637
59456.014534,-6143.709319,-13693.809927,-1378.971896
59456.014844,-7698.141797,-19467.416275,-612.876398
59456.015154,-10658.965565,-20503.704593,-2298.286494
59456.015464,-7179.997637,-17690.922014,-2528.115143
59456.015773,-3627.009116,-12879.583391,-536.266849
59456.016083,444.123565,-7402.059420,2145.067394
59456.016393,3034.844362,-3997.112087,4443.353888
59456.016703,5255.462188,-666.185348,4826.401637
59456.017012,6513.812290,-370.102971,5515.887586
59456.017322,7105.977043,-4811.338623,7967.393179
59456.017632,3478.967927,-7698.141797,3600.648841
59456.017942,-2368.659014,-9548.656652,1225.752797
59456.018251,-2368.659014,-11029.068536,153.219100
59456.018561,-2886.803174,-11621.233289,-1225.752797
59456.018871,-4515.256246,-11917.315666,-2528.115143
59456.019181,-4515.256246,-13323.706956,-2145.067394
59456.019490,-1924.535449,-12361.439231,-2451.505594
59456.019800,-74.020594,-12657.521608,-1302.362347
59456.020110,-1776.494261,-11917.315666,0.000000
59456.020420,1184.329507,-13693.809927,4903.011187
59456.020729,1702.473667,-8586.388927,1762.019645
59456.021039,2960.823768,-2442.679609,3064.381992
59456.021349,2812.782580,-74.020594,2451.505594
59456.021659,3108.864956,-2368.659014,3983.696590
59456.021968,2072.576638,-3997.112087,2298.286494
59456.022278,1332.370696,-6957.935855,689.485948
59456.022588,-1332.370696,-11029.068536,0.000000
59456.022898,-3627.009116,-16580.613101,-76.609550
59456.023207,-5699.585753,-17542.880825,-1455.581446
59456.023517,-7105.977043,-13101.645173,0.000000
59456.023827,-74.020594,-13027.624579,2374.896044
59456.024137,0.000000,-5699.585753,2298.286494
59456.024446,4663.297435,-3627.009116,2451.505594
59456.024756,4293.194464,-4071.132681,4903.011187
59456.025066,888.247130,-7105.977043,4596.572988
59456.025376,-1850.514855,-10881.027347,4596.572988
59456.025685,-592.164754,-10214.842000,4979.620737
59456.025995,-74.020594,-9474.636058,6665.030833
59456.026305,-1850.514855,-7105.977043,3600.648841
59456.026614,0.000000,-4811.338623,4903.011187
59456.026924,4071.132681,-9474.636058,6052.154434
59456.027234,-370.102971,-7698.141797,2987.772442
59456.027544,-2442.679609,-11695.253884,383.047749
59456.027853,-3552.988522,-13693.809927,3217.601092
59456.028163,-148.041188,-11991.336260,5132.839837
59456.028473,1184.329507,-8438.347739,5439.278036
59456.028783,-222.061783,-5847.626942,6665.030833
59456.029092,1110.308913,-7920.203579,8197.221829
59456.029402,2294.638420,-7105.977043,6818.249932
59456.029712,0.000000,-6587.832884,6128.763984
59456.030022,-370.102971,-12435.459826,8503.660028
59456.030331,-1998.556043,-9474.636058,4826.401637
59456.030641,-222.061783,-10362.883188,4826.401637
59456.030951,-2886.803174,-9104.533087,5362.668486
59456.031261,-2072.576638,-5847.626942,4596.572988
59456.031570,-1628.453072,-5995.668130,4443.353888
59456.031880,666.185348,-5995.668130,6205.373534
59456.032190,2368.659014,-5995.668130,6741.640382
59456.032500,1110.308913,-8882.471304,6052.154434
59456.032809,-3627.009116,-8290.306550,1762.019645
59456.033119,-2368.659014,-10732.986159,4903.011187
59456.033429,-74.020594,-11547.212695,4826.401637
59456.033739,-1258.350101,-10658.965565,4826.401637
59456.034048,-1924.535449,-7772.162391,3447.429741
59456.034358,-592.164754,-8956.491898,4136.915689
59456.034668,-1406.391290,-9474.636058,2681.334243
59456.034978,-1406.391290,-8512.368333,2757.943793
59456.035287,0.000000,-7772.162391,2451.505594
59456.035597,2294.638420,-8290.306550,4213.525239
59456.035907,2294.638420,-5921.647536,-76.609550
59456.036217,-2368.659014,-5995.668130,0.000000
59456.036526,-666.185348,-11547.212695,1608.800546
59456.036836,1258.350101,-9474.636058,-76.609550
59456.037146,-962.267725,-10214.842000,-995.924147
59456.037456,-962.267725,-11325.150913,-1072.533697
59456.037765,-370.102971,-11325.150913,-383.047749
59456.038075,0.000000,-11917.315666,0.000000
59456.038385,-2368.659014,-9548.656652,-2451.505594
59456.038695,-2072.576638,-9548.656652,-2451.505594
59456.039004,2294.638420,-11843.295072,-383.047749
59456.039314,592.164754,-4811.338623,-2987.772442
59456.039624,2664.741391,-7105.977043,-383.047749
59456.039934,0.000000,-10510.924376,-689.485948
59456.040243,-518.144159,-9696.697840,-3600.648841
59456.040553,296.082377,-10214.842000,-4060.306139
59456.040863,-888.247130,-11843.295072,-3370.820191
59456.041173,-2516.700203,-10140.821405,-4903.011187
59456.041482,-3552.988522,-9548.656652,-6741.640382
59456.041792,-1184.329507,-11917.315666,-2451.505594
59456.042102,2886.803174,-13027.624579,-76.609550
59456.042412,-1258.350101,-9104.533087,-2681.334243
59456.042721,888.247130,-8660.409521,-1072.533697
59456.043031,2590.720797,-6143.709319,-153.219100
59456.043341,2294.638420,-6809.894666,-1608.800546
59456.043651,-74.020594,-7105.977043,-3140.991542
59456.043960,-222.061783,-9104.533087,-4136.915689
59456.044270,518.144159,-9548.656652,-5056.230287
59456.044580,-2738.761985,-12583.501014,-6128.763984
59456.044890,-2960.823768,-11917.315666,-3677.258390
59456.045199,-74.020594,-14211.954086,-383.047749
59456.045509,-1554.432478,-10658.965565,-1915.238745
59456.045819,-1776.494261,-7846.182985,0.000000
59456.046129,-888.247130,-7772.162391,1225.752797
59456.046438,2590.720797,-6957.935855,1762.019645
59456.046748,2590.720797,-5033.400406,1302.362347
59456.047058,1850.514855,-5699.585753,383.047749
59456.047368,0.000000,-6365.771101,-76.609550
59456.047677,-74.020594,-6217.729913,-3140.991542
59456.047987,-1702.473667,-6291.750507,-3907.087040
59456.048297,-2960.823768,-11917.315666,0.000000
59456.048607,-1850.514855,-12731.542202,-689.485948
59456.048916,-3552.988522,-11917.315666,-612.876398
59456.049226,-4145.153275,-11917.315666,0.000000
59456.049536,-2664.741391,-11473.192101,459.657299
59456.049846,-814.226536,-9326.594869,2374.896044
59456.050155,2368.659014,-6883.915261,4596.572988
59456.050465,4367.215058,-4145.153275,4826.401637
59456.050775,4663.297435,-4737.318029,4213.525239
59456.051085,2072.576638,-4145.153275,2987.772442
59456.051394,592.164754,-5403.503377,3677.258390
59456.051704,-74.020594,-9474.636058,2374.896044
59456.052014,-3478.967927,-11621.233289,1225.752797
59456.052324,-4145.153275,-9844.739029,0.000000
59456.052633,-2960.823768,-13693.809927,842.705048
59456.052943,-4219.173869,-12583.501014,842.705048
59456.053253,-3997.112087,-11991.336260,1455.581446
59456.053563,-1554.432478,-12731.542202,4519.963438
59456.053872,3182.885551,-9474.636058,4826.401637
59456.054182,1702.473667,-4737.318029,3294.210641
59456.054492,1184.329507,-6587.832884,7354.516781
59456.054802,4071.132681,-4737.318029,6052.154434
59456.055111,2368.659014,-3034.844362,3677.258390
59456.055421,222.061783,-5403.503377,2604.724693
59456.055731,-1850.514855,-9696.697840,3370.820191
59456.056041,-2072.576638,-11769.274478,2298.286494
59456.056350,-3552.988522,-13471.748144,2145.067394
59456.056660,-4219.173869,-13767.830521,3140.991542
59456.056970,-3256.906145,-13027.624579,4213.525239
59456.057279,-1258.350101,-11843.295072,4213.525239
59456.057589,-74.020594,-4737.318029,2374.896044
59456.057899,0.000000,-3627.009116,3677.258390
59456.058209,2812.782580,-5107.421000,3983.696590
59456.058518,2294.638420,-6809.894666,4826.401637
59456.058828,3552.988522,-6069.688724,3677.258390
59456.059138,518.144159,-9104.533087,3600.648841
59456.059448,-148.041188,-8290.306550,2757.943793
59456.059757,-592.164754,-11029.068536,1225.752797
59456.060067,-3701.029710,-14952.160028,2374.896044
59456.060377,-2442.679609,-14211.954086,-76.609550
59456.060687,-5107.421000,-11621.233289,-3140.991542
59456.060996,-3552.988522,-10140.821405,0.000000
59456.061306,888.247130,-6587.832884,153.219100
59456.061616,2886.803174,-7105.977043,2374.896044
59456.061926,1776.494261,-5625.565159,2451.505594
59456.062235,3923.091493,-4959.379811,2757.943793
59456.062545,4219.173869,-6735.874072,2757.943793
59456.062855,2664.741391,-8364.327145,2451.505594
59456.063165,296.082377,-10732.986159,1532.190996
59456.063474,-74.020594,-15396.283594,-76.609550
59456.063784,-6513.812290,-11029.068536,-4903.011187
59456.064094,-4737.318029,-12805.562797,-2757.943793
59456.064404,-3627.009116,-12435.459826,-3753.867940
59456.064713,-74.020594,-11251.130318,-1915.238745
59456.065023,-666.185348,-8290.306550,-1532.190996
59456.065333,592.164754,-7105.977043,-689.485948
59456.065643,2442.679609,-7328.038826,1838.629195
59456.065952,2960.823768,-4811.338623,1225.752797
59456.066262,3552.988522,-5403.503377,1838.629195
59456.066572,2960.823768,-8956.491898,3370.820191
59456.066882,2886.803174,-8290.306550,-689.485948
59456.067191,-2960.823768,-10732.986159,-2451.505594
59456.067501,-3627.009116,-14211.954086,-2528.115143
59456.067811,-4811.338623,-15248.242405,-4979.620737
59456.068121,-5995.668130,-13027.624579,-4979.620737
59456.068430,-2812.782580,-8882.471304,-3600.648841
59456.068740,-592.164754,-6143.709319,-2068.457845
59456.069050,-1776.494261,-4811.338623,-2451.505594
59456.069360,0.000000,-4811.338623,0.000000
59456.069669,2368.659014,-5107.421000,612.876398
59456.069979,5847.626942,-11547.212695,3600.648841
59456.070289,1184.329507,-8364.327145,306.438199
59456.070599,3849.070898,-10658.965565,-76.609550
59456.070908,148.041188,-12139.377449,-76.609550
59456.071218,-2442.679609,-10955.047942,-2145.067394
59456.071528,-4737.318029,-11473.192101,-3447.429741
59456.071837,-3849.070898,-12583.501014,-2451.505594
59456.072147,-3701.029710,-9696.697840,-2757.943793
59456.072457,-4737.318029,-6291.750507,-3064.381992
59456.072767,-4737.318029,-7179.997637,0.000000
59456.073076,4071.132681,-7994.224174,4060.306139
59456.073386,3997.112087,-4145.153275,2068.457845
59456.073696,4663.297435,-7698.141797,5745.716235
59456.074006,3256.906145,-6291.750507,3983.696590
59456.074315,2368.659014,-8586.388927,2528.115143
59456.074625,-2072.576638,-11769.274478,1072.533697
59456.074935,-5181.441594,-13841.851115,-919.314598
59456.075245,-5995.668130,-11843.295072,-2528.115143
59456.075554,-6587.832884,-9548.656652,-2528.115143
59456.075864,-4737.318029,-4811.338623,-3064.381992
59456.076174,-1184.329507,-7179.997637,2451.505594
59456.076484,2294.638420,-7105.977043,3600.648841
59456.076793,3404.947333,-5699.585753,4903.011187
59456.077103,2960.823768,-6291.750507,3983.696590
59456.077413,3478.967927,-9770.718434,5439.278036
59456.077723,2368.659014,-9030.512492,4749.792088
59456.078032,1924.535449,-9474.636058,3370.820191
59456.078342,-74.020594,-11547.212695,2374.896044
59456.078652,-3627.009116,-9474.636058,-689.485948
59456.078962,-6883.915261,-9548.656652,-3753.867940
59456.079271,-5921.647536,-11029.068536,0.000000
59456.079581,-1332.370696,-9474.636058,1762.019645
59456.079891,-2368.659014,-9548.656652,2451.505594
59456.080201,0.000000,-7179.997637,3064.381992
59456.080510,3552.988522,-5995.668130,5592.497135
59456.080820,6069.688724,-4663.297435,6358.592633
59456.081130,4737.318029,-5403.503377,6435.202183
59456.081440,5847.626942,-7105.977043,7277.907231
59456.081749,4663.297435,-10658.965565,6052.154434
59456.082059,-1850.514855,-10658.965565,-383.047749
59456.082369,-5329.482782,-13397.727550,0.000000
59456.082679,-6587.832884,-13915.871710,-2528.115143
59456.082988,-7105.977043,-9548.656652,-2451.505594
59456.083298,-4441.235652,-7179.997637,-1378.971896
59456.083608,-2368.659014,-7179.997637,1225.752797
59456.083917,740.205942,-6217.729913,3294.210641
59456.084227,2812.782580,-5773.606348,4443.353888
59456.084537,6143.709319,-8882.471304,8120.612279
59456.084847,6439.791695,-8882.471304,7277.907231
59456.085156,3182.885551,-4441.235652,2374.896044
59456.085466,1184.329507,-8660.409521,3064.381992
59456.085776,-1258.350101,-9474.636058,-76.609550
59456.086086,-9474.636058,-9548.656652,-4903.011187
59456.086395,-6291.750507,-13027.624579,-3753.867940
59456.086705,-5551.544565,-11325.150913,-2911.162892
59456.087015,-4293.194464,-11251.130318,-1302.362347
59456.087325,-1406.391290,-9844.739029,766.095498
59456.087634,1776.494261,-8660.409521,4903.011187
59456.087944,7031.956449,-7105.977043,5515.887586
59456.088254,7031.956449,-7105.977043,4826.401637
59456.088564,3552.988522,-3627.009116,2451.505594
59456.088873,5033.400406,-7254.018232,4290.134789
59456.089183,444.123565,-9622.677246,0.000000
59456.089493,-1258.350101,-11251.130318,-2834.553343
59456.089803,-6957.935855,-12805.562797,-4903.011187
59456.090112,-7476.080014,-13249.686362,-5362.668486
59456.090422,-4811.338623,-11695.253884,-4290.134789
59456.090732,-4145.153275,-10732.986159,-1225.752797
59456.091042,-592.164754,-11029.068536,0.000000
59456.091351,2664.741391,-8956.491898,3370.820191
59456.091661,7031.956449,-7105.977043,3600.648841
59456.091971,4737.318029,-4811.338623,3677.258390
59456.092281,7031.956449,-4441.235652,2987.772442
59456.092590,7031.956449,-7105.977043,2374.896044
59456.092900,1184.329507,-10066.800811,612.876398
59456.093210,-1850.514855,-10881.027347,-2757.943793
59456.093520,-6735.874072,-13397.727550,-5132.839837
59456.093829,-9474.636058,-13101.645173,-6128.763984
59456.094139,-7105.977043,-9844.739029,-7048.078582
59456.094449,-6513.812290,-10732.986159,-3677.258390
59456.094758,-666.185348,-11843.295072,-76.609550
59456.095068,2294.638420,-6513.812290,-76.609550
59456.095378,5255.462188,-5625.565159,2987.772442
59456.095688,7476.080014,-6513.812290,5669.106685
59456.095997,6883.915261,-4293.194464,3907.087040
59456.096307,4737.318029,-6513.812290,2681.334243
59456.096617,888.247130,-9548.656652,995.924147
59456.096927,-4737.318029,-9548.656652,-3677.258390
59456.097236,-8290.306550,-10732.986159,-7277.907231
59456.097546,-5551.544565,-14804.118840,-3140.991542
59456.097856,-5995.668130,-11251.130318,-4979.620737
59456.098166,-5329.482782,-10140.821405,-4903.011187
59456.098475,-74.020594,-11843.295072,1762.019645
59456.098785,2590.720797,-8290.306550,3677.258390
59456.099095,5551.544565,-7031.956449,4443.353888
59456.099405,6809.894666,-5995.668130,6741.640382
59456.099714,7254.018232,-4663.297435,5975.544884
59456.100024,2442.679609,-6069.688724,2834.553343
59456.100334,-2368.659014,-7550.100608,1149.143247
59456.100644,-5921.647536,-9548.656652,-2451.505594
59456.100953,-5995.668130,-14211.954086,-1302.362347
59456.101263,-7772.162391,-10140.821405,-5975.544884
59456.101573,-4811.338623,-12953.603985,-689.485948
59456.101883,-4441.235652,-10732.986159,0.000000
59456.102192,-1406.391290,-9474.636058,1302.362347
59456.102502,1702.473667,-6365.771101,2757.943793
59456.102812,5107.421000,-6291.750507,5286.058936
59456.103122,6735.874072,-4737.318029,4826.401637
59456.103431,5551.544565,-6513.812290,7277.907231
59456.103741,1332.370696,-7179.997637,4903.011187
59456.104051,2812.782580,-10658.965565,4519.963438
59456.104361,-3552.988522,-6661.853478,-4290.134789
59456.104670,-4811.338623,-12509.480420,-229.828649
59456.104980,-7698.141797,-10732.986159,-2451.505594
59456.105290,-5995.668130,-11399.171507,-2451.505594
59456.105600,-5625.565159,-13101.645173,-1149.143247
59456.105909,-2516.700203,-9770.718434,536.266849
59456.106219,2294.638420,-8290.306550,3600.648841
59456.106529,5847.626942,-7105.977043,6052.154434
59456.106838,4145.153275,-1850.514855,4290.134789
59456.107148,7402.059420,-5107.421000,6741.640382
59456.107458,4367.215058,-6883.915261,2374.896044
59456.107768,592.164754,-9548.656652,3677.258390
59456.108077,-4737.318029,-10140.821405,-2451.505594
59456.108387,-6957.935855,-12213.398043,-3217.601092
59456.108697,-6365.771101,-10807.006753,-3830.477490
59456.109007,-5551.544565,-11103.089130,-3447.429741
59456.109316,-1850.514855,-13619.789333,-76.609550
59456.109626,-74.020594,-11843.295072,2068.457845
59456.109936,3478.967927,-9474.636058,2987.772442
59456.110246,4145.153275,-5995.668130,4903.011187
59456.110555,8808.450710,-8290.306550,9422.974625
59456.110865,5329.482782,-4811.338623,6128.763984
59456.111175,2886.803174,-7179.997637,4290.134789
59456.111485,888.247130,-7402.059420,1302.362347
59456.111794,-4293.194464,-11177.109724,-2068.457845
59456.112104,-7402.059420,-11103.089130,-3753.867940
59456.112414,-5107.421000,-12731.542202,-2834.553343
59456.112724,-5107.421000,-14211.954086,-1302.362347
59456.113033,-4811.338623,-13027.624579,-2528.115143
59456.113343,-3330.926739,-9992.780217,-1225.752797
59456.113653,1184.329507,-7179.997637,3677.258390
59456.113963,3849.070898,-4811.338623,5209.449386
59456.114272,7328.038826,-3034.844362,5439.278036
59456.114582,6661.853478,-5181.441594,5515.887586
59456.114892,5551.544565,-6661.853478,4443.353888
59456.115202,1924.535449,-7920.203579,1378.971896
59456.115511,-2368.659014,-11473.192101,-1225.752797
59456.115821,-6513.812290,-10140.821405,-3677.258390
59456.116131,-3627.009116,-11843.295072,-3753.867940
59456.116441,-7846.182985,-11325.150913,-5592.497135
59456.116750,-6513.812290,-11917.315666,-2451.505594
59456.117060,-2738.761985,-9918.759623,-2451.505594
59456.117370,3478.967927,-11251.130318,2834.553343
59456.117679,5107.421000,-6217.729913,5056.230287
59456.117989,7402.059420,-4663.297435,5286.058936
59456.118299,7031.956449,-4737.318029,5515.887586
59456.118609,6513.812290,-6587.832884,4903.011187
59456.118918,0.000000,-7179.997637,612.876398
59456.119228,-2368.659014,-12361.439231,-612.876398
59456.119538,-4811.338623,-11843.295072,-3753.867940
59456.119848,-9474.636058,-10732.986159,-6128.763984
59456.120157,-7179.997637,-13027.624579,-5898.935335
59456.120467,-5403.503377,-13027.624579,-2528.115143
59456.120777,-2442.679609,-10510.924376,-995.924147
59456.121087,2294.638420,-8216.285956,2068.457845
59456.121396,5995.668130,-6069.688724,3907.087040
59456.121706,4737.318029,-5995.668130,4290.134789
59456.122016,3552.988522,-5995.668130,3677.258390
59456.122326,2960.823768,-6587.832884,3064.381992
59456.122635,-74.020594,-9178.553681,-76.609550
59456.122945,-4145.153275,-10732.986159,-1225.752797
59456.123255,-5403.503377,-10362.883188,-4366.744339
59456.123565,-5995.668130,-11843.295072,-4213.525239
59456.123874,-7994.224174,-11917.315666,-4366.744339
59456.124184,-5477.523971,-11621.233289,-2451.505594
59456.124494,-888.247130,-9696.697840,153.219100
59456.124804,296.082377,-6587.832884,1838.629195
59456.125113,3775.050304,-3627.009116,2834.553343
