#time,accel_x,accel_y,accel_z
59245.731383,-1184.329507,-7994.224174,306.438199
59245.731693,0.000000,-8956.491898,612.876398
59245.732002,-518.144159,-9030.512492,1149.143247
59245.732312,-518.144159,-8956.491898,306.438199
59245.732622,1110.308913,-11251.130318,2834.553343
59245.732932,2294.638420,-11843.295072,1762.019645
59245.733242,-74.020594,-9474.636058,-76.609550
59245.733552,-2368.659014,-7179.997637,0.000000
59245.733862,-74.020594,-9474.636058,1149.143247
59245.734172,-3256.906145,-7179.997637,0.000000
59245.734482,-74.020594,-9474.636058,-76.609550
59245.734792,-444.123565,-8808.450710,306.438199
59245.735102,-148.041188,-9400.615463,1149.143247
59245.735412,-74.020594,-9252.574275,995.924147
59245.735722,0.000000,-8956.491898,2451.505594
59245.736031,888.247130,-10732.986159,2451.505594
59245.736341,814.226536,-9474.636058,-76.609550
59245.736651,-2368.659014,-7179.997637,0.000000
59245.736961,1110.308913,-10658.965565,1762.019645
59245.737271,-1702.473667,-7328.038826,-995.924147
59245.737581,-74.020594,-10362.883188,1455.581446
59245.737891,-444.123565,-9030.512492,766.095498
59245.738201,-444.123565,-8956.491898,995.924147
59245.738511,-148.041188,-9030.512492,766.095498
59245.738821,-2368.659014,-7772.162391,0.000000
59245.739131,0.000000,-8364.327145,612.876398
59245.739441,1184.329507,-11029.068536,3524.039291
59245.739750,-370.102971,-8142.265362,-383.047749
59245.740060,0.000000,-8956.491898,1225.752797
59245.740370,-74.020594,-9474.636058,-76.609550
59245.740680,518.144159,-9474.636058,1608.800546
59245.740990,-222.061783,-9400.615463,383.047749
59245.741300,-370.102971,-8882.471304,766.095498
59245.741610,-222.061783,-8956.491898,1072.533697
59245.741920,-2294.638420,-6587.832884,0.000000
59245.742230,-2960.823768,-7179.997637,0.000000
59245.742540,0.000000,-7772.162391,612.876398
59245.742850,-74.020594,-9474.636058,1455.581446
59245.743160,0.000000,-8364.327145,612.876398
59245.743470,2294.638420,-11843.295072,2987.772442
59245.743779,0.000000,-9252.574275,1225.752797
59245.744089,-74.020594,-9474.636058,1149.143247
59245.744399,-148.041188,-9400.615463,689.485948
59245.744709,-370.102971,-9104.533087,1072.533697
59245.745019,-74.020594,-8586.388927,-995.924147
59245.745329,-1702.473667,-7179.997637,0.000000
59245.745639,-3552.988522,-5995.668130,0.000000
59245.745949,1998.556043,-11251.130318,2374.896044
59245.746259,-1776.494261,-7772.162391,0.000000
59245.746569,962.267725,-10436.903782,3294.210641
59245.746879,-1776.494261,-8364.327145,0.000000
59245.747189,-296.082377,-8956.491898,995.924147
59245.747499,-592.164754,-8734.430116,306.438199
59245.747808,-370.102971,-8734.430116,612.876398
59245.748118,-74.020594,-9474.636058,-76.609550
59245.748428,-74.020594,-8290.306550,-76.609550
59245.748738,-3552.988522,-5995.668130,0.000000
59245.749048,740.205942,-10214.842000,2298.286494
59245.749358,-222.061783,-8586.388927,536.266849
59245.749668,0.000000,-8364.327145,1225.752797
59245.749978,-1184.329507,-8142.265362,153.219100
59245.750288,-444.123565,-9030.512492,689.485948
59245.750598,-148.041188,-9252.574275,689.485948
59245.750908,-222.061783,-9400.615463,689.485948
59245.751218,1998.556043,-10658.965565,2374.896044
59245.751527,-74.020594,-10658.965565,2987.772442
59245.751837,-666.185348,-7698.141797,-995.924147
59245.752147,0.000000,-8956.491898,1225.752797
59245.752457,-74.020594,-9474.636058,995.924147
59245.752767,-3552.988522,-5995.668130,0.000000
59245.753077,-370.102971,-9104.533087,229.828649
59245.753387,-370.102971,-8882.471304,919.314598
59245.753697,-592.164754,-8956.491898,612.876398
59245.754007,-370.102971,-8956.491898,766.095498
59245.754317,592.164754,-10658.965565,2451.505594
59245.754627,1406.391290,-10066.800811,1838.629195
59245.754937,2294.638420,-10658.965565,1762.019645
59245.755247,-2368.659014,-7179.997637,0.000000
59245.755556,1184.329507,-9326.594869,3600.648841
59245.755866,222.061783,-7105.977043,-1532.190996
59245.756176,1702.473667,-8882.471304,995.924147
59245.756486,1110.308913,-8586.388927,919.314598
59245.756796,1850.514855,-8364.327145,919.314598
59245.757106,2294.638420,-8956.491898,919.314598
59245.757416,1776.494261,-8364.327145,2451.505594
59245.757726,2960.823768,-9548.656652,0.000000
59245.758036,4663.297435,-11547.212695,2374.896044
59245.758346,1406.391290,-8290.306550,-689.485948
59245.758656,2960.823768,-9992.780217,2374.896044
59245.758966,3478.967927,-9326.594869,-76.609550
59245.759276,4663.297435,-10658.965565,1455.581446
59245.759585,4071.132681,-9400.615463,1149.143247
59245.759895,4811.338623,-9474.636058,1532.190996
59245.760205,5625.565159,-8660.409521,2145.067394
59245.760515,4737.318029,-7179.997637,0.000000
59245.760825,4737.318029,-6587.832884,0.000000
59245.761135,5921.647536,-8956.491898,2451.505594
59245.761445,6439.791695,-8882.471304,-76.609550
59245.761755,5033.400406,-8956.491898,2298.286494
59245.762065,8216.285956,-9474.636058,-76.609550
59245.762375,6217.729913,-9548.656652,0.000000
59245.762685,5995.668130,-9918.759623,-153.219100
59245.762995,5329.482782,-10807.006753,-612.876398
59245.763304,3849.070898,-11917.315666,0.000000
59245.763614,740.205942,-10732.986159,-2221.676944
59245.763924,0.000000,-11843.295072,-689.485948
59245.764234,592.164754,-10140.821405,0.000000
59245.764544,3478.967927,-8882.471304,1149.143247
59245.764854,2516.700203,-6587.832884,2451.505594
59245.765164,7624.121203,-7105.977043,4826.401637
59245.765474,5329.482782,-3923.091493,2757.943793
59245.765784,8142.265362,-4145.153275,2987.772442
59245.766094,8512.368333,-5033.400406,2451.505594
59245.766404,7031.956449,-7550.100608,1455.581446
59245.766714,2886.803174,-11695.253884,-1302.362347
59245.767024,-1258.350101,-17468.860231,-1302.362347
59245.767333,-5403.503377,-18653.189738,-4366.744339
59245.767643,-8882.471304,-16950.716072,-3983.696590
59245.767953,-6291.750507,-16580.613101,-689.485948
59245.768263,-6513.812290,-10584.944971,306.438199
59245.768573,-4441.235652,-5699.585753,689.485948
59245.768883,518.144159,-4293.194464,4596.572988
59245.769193,3923.091493,-1554.432478,6818.249932
59245.769503,4219.173869,-518.144159,6741.640382
59245.769813,4663.297435,-3552.988522,6665.030833
59245.770123,-74.020594,-6217.729913,4826.401637
59245.770433,-4811.338623,-8882.471304,-76.609550
59245.770743,-10658.965565,-10732.986159,-3677.258390
59245.771053,-9474.636058,-14285.974681,-2145.067394
59245.771362,-11843.295072,-13397.727550,-4290.134789
59245.771672,-10288.862594,-12583.501014,-4673.182538
59245.771982,-6735.874072,-12509.480420,-1762.019645
59245.772292,-3330.926739,-10807.006753,1072.533697
59245.772602,-1184.329507,-8956.491898,3524.039291
59245.772912,1998.556043,-9474.636058,6205.373534
59245.773222,2960.823768,-6291.750507,6281.983084
59245.773532,-74.020594,-5625.565159,4213.525239
59245.773842,-3552.988522,-2442.679609,1838.629195
59245.774152,-1258.350101,-7105.977043,4213.525239
59245.774462,-5921.647536,-3034.844362,0.000000
59245.774772,-3034.844362,-8290.306550,383.047749
59245.775082,-2738.761985,-10288.862594,-229.828649
59245.775391,-2516.700203,-11473.192101,-689.485948
59245.775701,-2812.782580,-13101.645173,-459.657299
59245.776011,-2368.659014,-13101.645173,0.000000
59245.776321,-4145.153275,-11917.315666,0.000000
59245.776631,-222.061783,-12583.501014,2298.286494
59245.776941,1702.473667,-9474.636058,1762.019645
59245.777251,1184.329507,-7179.997637,3983.696590
59245.777561,2294.638420,-3552.988522,306.438199
59245.777871,5255.462188,-4293.194464,2604.724693
59245.778181,5847.626942,-4885.359217,1762.019645
59245.778491,6439.791695,-6809.894666,1838.629195
59245.778801,5995.668130,-9622.677246,1149.143247
59245.779110,2368.659014,-11917.315666,0.000000
59245.779420,-888.247130,-13989.892304,-2451.505594
59245.779730,-2368.659014,-15618.345376,-1838.629195
59245.780040,-370.102971,-15988.448347,-76.609550
59245.780350,-2738.761985,-8512.368333,-3064.381992
59245.780660,1998.556043,-8290.306550,-76.609550
59245.780970,2960.823768,-6513.812290,2298.286494
59245.781280,4737.318029,-4737.318029,2987.772442
59245.781590,7031.956449,-4515.256246,4290.134789
59245.781900,7105.977043,-4071.132681,3600.648841
59245.782210,2664.741391,-4219.173869,612.876398
59245.782520,1702.473667,-7105.977043,-383.047749
59245.782830,-2368.659014,-11325.150913,-1225.752797
59245.783139,-3627.009116,-13027.624579,-3294.210641
59245.783449,-7105.977043,-11917.315666,-4903.011187
59245.783759,-1258.350101,-14211.954086,-2528.115143
59245.784069,-2664.741391,-10732.986159,-2451.505594
59245.784379,-222.061783,-10881.027347,0.000000
59245.784689,3330.926739,-8586.388927,2298.286494
59245.784999,5255.462188,-7846.182985,3830.477490
59245.785309,4663.297435,-6513.812290,3600.648841
59245.785619,3478.967927,-8290.306550,3600.648841
59245.785929,-2368.659014,-5995.668130,612.876398
59245.786239,-2220.617826,-9104.533087,2374.896044
59245.786549,-4811.338623,-6809.894666,-2528.115143
59245.786859,-5033.400406,-8586.388927,-153.219100
59245.787168,-6143.709319,-8660.409521,-3217.601092
59245.787478,-4663.297435,-10140.821405,-612.876398
59245.787788,-2516.700203,-11177.109724,0.000000
59245.788098,-2368.659014,-10881.027347,689.485948
59245.788408,-1258.350101,-12435.459826,2374.896044
59245.788718,-74.020594,-11843.295072,2374.896044
59245.789028,-2664.741391,-7031.956449,766.095498
59245.789338,-2368.659014,-7179.997637,3677.258390
59245.789648,-74.020594,-4737.318029,-76.609550
59245.789958,-1776.494261,-5403.503377,3064.381992
59245.790268,-74.020594,-6291.750507,1532.190996
59245.790578,222.061783,-7254.018232,1915.238745
59245.790887,222.061783,-8808.450710,1378.971896
59245.791197,-296.082377,-11843.295072,919.314598
59245.791507,-370.102971,-15174.221811,766.095498
59245.791817,-2960.823768,-15470.304188,1378.971896
59245.792127,-3923.091493,-13915.871710,-76.609550
59245.792437,-4737.318029,-9696.697840,0.000000
59245.792747,-74.020594,-9474.636058,2374.896044
59245.793057,-2220.617826,-4811.338623,1838.629195
59245.793367,1776.494261,-4589.276840,3217.601092
59245.793677,2738.761985,-4885.359217,3600.648841
59245.793987,4071.132681,-5107.421000,3064.381992
59245.794297,3256.906145,-7402.059420,2451.505594
59245.794607,1184.329507,-9548.656652,1225.752797
59245.794916,-2368.659014,-11917.315666,0.000000
59245.795226,-1258.350101,-13619.789333,-1302.362347
59245.795536,-4441.235652,-11029.068536,-4903.011187
59245.795846,-148.041188,-14211.954086,1455.581446
59245.796156,-1998.556043,-8364.327145,-1455.581446
59245.796466,1332.370696,-9474.636058,1149.143247
59245.796776,3478.967927,-7624.121203,1762.019645
59245.797086,5551.544565,-6809.894666,2911.162892
59245.797396,7402.059420,-7328.038826,4290.134789
59245.797706,4885.359217,-5403.503377,1915.238745
59245.798016,2368.659014,-7179.997637,1838.629195
59245.798326,2294.638420,-10658.965565,-76.609550
59245.798636,-3256.906145,-9844.739029,-1225.752797
59245.798945,-666.185348,-13619.789333,-76.609550
59245.799255,-3627.009116,-9474.636058,-3677.258390
59245.799565,-2220.617826,-10807.006753,-1225.752797
59245.799875,-370.102971,-10214.842000,-76.609550
59245.800185,1702.473667,-9474.636058,1302.362347
59245.800495,3478.967927,-8734.430116,3600.648841
59245.800804,2368.659014,-5995.668130,2068.457845
59245.801114,370.102971,-5995.668130,306.438199
59245.801424,888.247130,-9252.574275,1915.238745
59245.801733,-1258.350101,-7179.997637,-2451.505594
59245.802043,-4737.318029,-5403.503377,-2451.505594
59245.802353,-2960.823768,-7476.080014,-1838.629195
59245.802663,-666.185348,-7550.100608,-3447.429741
59245.802972,0.000000,-9548.656652,0.000000
59245.803282,1184.329507,-11621.233289,612.876398
59245.803592,222.061783,-12361.439231,842.705048
59245.803902,-2368.659014,-11029.068536,153.219100
59245.804211,-4737.318029,-10732.986159,0.000000
59245.804521,-740.205942,-11843.295072,2834.553343
59245.804831,-2442.679609,-7179.997637,0.000000
59245.805141,-74.020594,-7994.224174,4213.525239
59245.805450,-1850.514855,-3256.906145,0.000000
59245.805760,-888.247130,-4219.173869,2145.067394
59245.806070,-74.020594,-6513.812290,1915.238745
59245.806380,0.000000,-8142.265362,1455.581446
59245.806689,-1036.288319,-10214.842000,1149.143247
59245.806999,-4737.318029,-10510.924376,-383.047749
59245.807309,-7994.224174,-10140.821405,-2451.505594
59245.807619,-3627.009116,-14211.954086,-76.609550
59245.807928,-4367.215058,-9548.656652,-3140.991542
59245.808238,-2368.659014,-9844.739029,2451.505594
59245.808548,-370.102971,-7105.977043,536.266849
59245.808858,592.164754,-5773.606348,2298.286494
59245.809167,3182.885551,-5699.585753,4366.744339
59245.809477,4737.318029,-5995.668130,4443.353888
59245.809787,4663.297435,-7476.080014,5439.278036
59245.810097,2146.597232,-9474.636058,2374.896044
59245.810406,-962.267725,-9326.594869,-995.924147
59245.810716,-4145.153275,-11325.150913,0.000000
59245.811026,-3627.009116,-14211.954086,-76.609550
59245.811336,-6661.853478,-9548.656652,-3370.820191
59245.811645,-2146.597232,-10658.965565,-689.485948
59245.811955,-1776.494261,-8586.388927,0.000000
59245.812265,370.102971,-8512.368333,1762.019645
59245.812574,2664.741391,-7550.100608,2834.553343
59245.812884,4367.215058,-7254.018232,4290.134789
59245.813194,4663.297435,-7698.141797,4826.401637
59245.813504,3478.967927,-8290.306550,2374.896044
59245.813813,0.000000,-6883.915261,0.000000
59245.814123,-74.020594,-11843.295072,-76.609550
59245.814433,-2886.803174,-7846.182985,-3217.601092
59245.814743,-296.082377,-10658.965565,-1302.362347
59245.815052,0.000000,-10362.883188,-1838.629195
59245.815362,1406.391290,-10807.006753,-766.095498
59245.815672,2738.761985,-11325.150913,766.095498
59245.815982,2886.803174,-11769.274478,612.876398
59245.816291,3775.050304,-12435.459826,3064.381992
59245.816601,2294.638420,-11843.295072,-76.609550
59245.816911,-2072.576638,-7772.162391,0.000000
59245.817221,-74.020594,-9474.636058,4213.525239
59245.817530,-3256.906145,-3627.009116,0.000000
59245.817840,0.000000,-6513.812290,3064.381992
59245.818150,-74.020594,-6069.688724,0.000000
59245.818460,962.267725,-7328.038826,306.438199
59245.818769,1406.391290,-9178.553681,383.047749
59245.819079,518.144159,-10732.986159,0.000000
59245.819389,-2368.659014,-10881.027347,0.000000
59245.819699,-1258.350101,-15026.180623,1455.581446
59245.820008,-2442.679609,-13027.624579,-76.609550
59245.820318,-3627.009116,-9030.512492,-2528.115143
59245.820628,-3256.906145,-8364.327145,0.000000
59245.820938,-888.247130,-5921.647536,0.000000
59245.821247,1184.329507,-6587.832884,2451.505594
59245.821557,3701.029710,-6069.688724,3370.820191
59245.821867,4589.276840,-6957.935855,3600.648841
59245.822177,3478.967927,-7846.182985,4213.525239
59245.822486,370.102971,-9474.636058,1762.019645
59245.822796,-4293.194464,-9548.656652,-1838.629195
59245.823106,-3997.112087,-13397.727550,383.047749
59245.823416,-5995.668130,-10436.903782,-3447.429741
59245.823725,-4737.318029,-10732.986159,0.000000
59245.824035,-1850.514855,-10362.883188,-76.609550
59245.824345,-3330.926739,-7772.162391,306.438199
59245.824654,0.000000,-7402.059420,2451.505594
59245.824964,2368.659014,-7031.956449,3524.039291
59245.825274,3256.906145,-6735.874072,4903.011187
59245.825584,3478.967927,-7994.224174,4213.525239
59245.825893,1702.473667,-8290.306550,2374.896044
59245.826203,-2960.823768,-7772.162391,0.000000
59245.826513,-1850.514855,-10658.965565,-76.609550
59245.826823,-4219.173869,-8438.347739,-2834.553343
59245.827132,-1258.350101,-9548.656652,-383.047749
59245.827442,-2220.617826,-9548.656652,-1455.581446
59245.827752,0.000000,-9918.759623,153.219100
59245.828062,1628.453072,-10658.965565,1991.848295
59245.828371,1998.556043,-10436.903782,1225.752797
59245.828681,3182.885551,-11547.212695,3294.210641
59245.828991,2294.638420,-10658.965565,2374.896044
59245.829301,-2368.659014,-7772.162391,1225.752797
59245.829610,-74.020594,-8882.471304,3600.648841
59245.829920,-4145.153275,-3627.009116,0.000000
59245.830230,592.164754,-7698.141797,3600.648841
59245.830540,518.144159,-6883.915261,689.485948
59245.830849,1110.308913,-8512.368333,919.314598
59245.831159,666.185348,-10140.821405,153.219100
59245.831469,0.000000,-11177.109724,0.000000
59245.831779,-592.164754,-12213.398043,0.000000
59245.832088,-74.020594,-14211.954086,-76.609550
59245.832398,-3330.926739,-10510.924376,-1302.362347
59245.832708,-2368.659014,-9548.656652,1838.629195
59245.833018,-74.020594,-8290.306550,-76.609550
59245.833327,0.000000,-6587.832884,2298.286494
59245.833637,2294.638420,-5921.647536,1762.019645
59245.833947,3775.050304,-6069.688724,2145.067394
59245.834257,5107.421000,-7254.018232,2987.772442
59245.834566,3701.029710,-7772.162391,689.485948
59245.834876,592.164754,-10732.986159,0.000000
59245.835186,-1184.329507,-13545.768739,-76.609550
59245.835496,-3627.009116,-12731.542202,-2528.115143
59245.835805,-4737.318029,-11917.315666,0.000000
59245.836115,-2442.679609,-12435.459826,-76.609550
59245.836425,-3552.988522,-8364.327145,0.000000
59245.836734,-370.102971,-8290.306550,995.924147
59245.837044,1924.535449,-7328.038826,2757.943793
59245.837354,3627.009116,-6735.874072,3524.039291
59245.837664,4071.132681,-5921.647536,3600.648841
59245.837973,1776.494261,-5403.503377,0.000000
59245.838283,0.000000,-8364.327145,1838.629195
59245.838593,-1258.350101,-10658.965565,-76.609550
59245.838903,-7105.977043,-7772.162391,-4290.134789
59245.839212,-1850.514855,-12879.583391,-76.609550
59245.839522,-3256.906145,-9548.656652,-2451.505594
59245.839832,-1110.308913,-10140.821405,-229.828649
59245.840142,962.267725,-10066.800811,689.485948
59245.840451,2516.700203,-10288.862594,2374.896044
59245.840761,2738.761985,-11251.130318,4213.525239
59245.841071,444.123565,-8660.409521,2681.334243
59245.841381,-2368.659014,-7772.162391,1838.629195
59245.841690,-74.020594,-8808.450710,4826.401637
59245.842000,-4145.153275,-3627.009116,0.000000
59245.842310,-74.020594,-7105.977043,2757.943793
59245.842620,-2294.638420,-3923.091493,0.000000
59245.842929,-888.247130,-7179.997637,612.876398
59245.843239,-296.082377,-9178.553681,842.705048
59245.843549,-370.102971,-10732.986159,536.266849
59245.843859,-666.185348,-13027.624579,2068.457845
59245.844168,-2442.679609,-11843.295072,-76.609550
59245.844478,-4219.173869,-10584.944971,-1378.971896
59245.844788,-3256.906145,-10732.986159,1225.752797
59245.845098,-74.020594,-8290.306550,-76.609550
59245.845407,-3552.988522,-4811.338623,0.000000
59245.845717,-74.020594,-5329.482782,842.705048
59245.846027,1776.494261,-5329.482782,1991.848295
59245.846337,3849.070898,-6883.915261,2987.772442
59245.846646,3775.050304,-8290.306550,2834.553343
59245.846956,3108.864956,-11029.068536,2987.772442
59245.847266,-74.020594,-13027.624579,-76.609550
59245.847575,-3775.050304,-11621.233289,-2451.505594
59245.847885,-4737.318029,-12805.562797,0.000000
59245.848195,-1258.350101,-14211.954086,-76.609550
59245.848505,-4737.318029,-7772.162391,-3064.381992
59245.848814,-1258.350101,-8290.306550,-76.609550
59245.849124,-518.144159,-7179.997637,1225.752797
59245.849434,2368.659014,-6883.915261,2681.334243
59245.849744,4145.153275,-6143.709319,3907.087040
59245.850053,4737.318029,-6291.750507,4290.134789
59245.850363,4663.297435,-9178.553681,3907.087040
59245.850673,1110.308913,-9474.636058,-76.609550
59245.850983,-3552.988522,-9548.656652,-4903.011187
59245.851292,-1702.473667,-12953.603985,-689.485948
59245.851602,-3627.009116,-9474.636058,-3753.867940
59245.851912,-370.102971,-11843.295072,-1302.362347
59245.852222,-888.247130,-9770.718434,-1455.581446
59245.852531,1480.411884,-10288.862594,766.095498
59245.852841,3108.864956,-9844.739029,2451.505594
59245.853151,1480.411884,-7772.162391,1225.752797
59245.853461,3182.885551,-9548.656652,3830.477490
59245.853770,1998.556043,-9474.636058,2987.772442
59245.854080,-1332.370696,-6587.832884,0.000000
59245.854390,2294.638420,-9474.636058,3600.648841
59245.854700,-2146.597232,-5033.400406,-76.609550
59245.855009,-74.020594,-8290.306550,1149.143247
59245.855319,222.061783,-8290.306550,76.609550
59245.855629,814.226536,-9844.739029,536.266849
59245.855939,148.041188,-11325.150913,536.266849
59245.856248,-2368.659014,-10140.821405,0.000000
59245.856558,-3552.988522,-10732.986159,0.000000
59245.856868,-1628.453072,-12657.521608,1072.533697
59245.857178,-1850.514855,-10658.965565,-76.609550
59245.857487,-3552.988522,-7179.997637,612.876398
59245.857797,-74.020594,-8290.306550,2374.896044
59245.858107,592.164754,-5995.668130,2757.943793
59245.858417,2886.803174,-5625.565159,2374.896044
59245.858726,3552.988522,-6513.812290,3064.381992
59245.859036,3478.967927,-8438.347739,2681.334243
59245.859346,1110.308913,-8882.471304,383.047749
59245.859655,-3552.988522,-10140.821405,-2145.067394
59245.859965,-4441.235652,-13101.645173,0.000000
59245.860275,-3627.009116,-14211.954086,-76.609550
59245.860585,-7105.977043,-9548.656652,-2451.505594
59245.860894,-1258.350101,-11547.212695,2987.772442
59245.861204,-3552.988522,-7179.997637,612.876398
59245.861514,0.000000,-7105.977043,2374.896044
59245.861824,2220.617826,-6735.874072,3447.429741
59245.862133,3404.947333,-5921.647536,3447.429741
59245.862443,4663.297435,-7105.977043,4213.525239
59245.862753,370.102971,-6513.812290,229.828649
59245.863063,-2368.659014,-8660.409521,0.000000
59245.863372,-2442.679609,-13027.624579,-76.609550
59245.863682,-6513.812290,-9548.656652,-3677.258390
59245.863992,-2368.659014,-11917.315666,1225.752797
59245.864302,-3256.906145,-9548.656652,-2451.505594
59245.864611,-518.144159,-9992.780217,-229.828649
59245.864921,1776.494261,-9770.718434,1378.971896
59245.865231,2960.823768,-9770.718434,2451.505594
59245.865541,4367.215058,-11547.212695,4826.401637
59245.865850,1702.473667,-8882.471304,1762.019645
59245.866160,-1776.494261,-7772.162391,919.314598
59245.866470,-74.020594,-11251.130318,4673.182538
59245.866780,-3552.988522,-4811.338623,0.000000
59245.867089,-1184.329507,-7179.997637,1225.752797
59245.867399,-1850.514855,-5847.626942,-842.705048
59245.867709,0.000000,-8364.327145,0.000000
59245.868019,444.123565,-9844.739029,306.438199
59245.868328,0.000000,-10732.986159,536.266849
59245.868638,1110.308913,-13915.871710,2911.162892
59245.868948,-74.020594,-12435.459826,-76.609550
59245.869258,-2812.782580,-9844.739029,-1072.533697
59245.869567,-1184.329507,-11029.068536,2528.115143
59245.869877,-666.185348,-7105.977043,-995.924147
59245.870187,0.000000,-4811.338623,0.000000
59245.870496,1110.308913,-5625.565159,995.924147
59245.870806,2368.659014,-6143.709319,1685.410096
59245.871116,3701.029710,-7476.080014,2451.505594
59245.871426,3478.967927,-9252.574275,1915.238745
59245.871735,2368.659014,-11621.233289,2451.505594
59245.872045,-74.020594,-13619.789333,-76.609550
59245.872355,-3182.885551,-11843.295072,-1302.362347
59245.872665,-5921.647536,-10732.986159,0.000000
59245.872974,-1258.350101,-12731.542202,-76.609550
59245.873284,-3627.009116,-6957.935855,-689.485948
59245.873594,-74.020594,-8290.306550,1149.143247
59245.873904,222.061783,-6735.874072,2068.457845
59245.874213,2664.741391,-6513.812290,3140.991542
59245.874523,3775.050304,-6883.915261,3524.039291
59245.874833,1776.494261,-5995.668130,3677.258390
59245.875143,1628.453072,-9252.574275,3064.381992
59245.875452,-370.102971,-10510.924376,-76.609550
59245.875762,-7105.977043,-8364.327145,-3677.258390
59245.876072,-2590.720797,-12435.459826,-153.219100
59245.876382,-1850.514855,-9474.636058,-3140.991542
59245.876691,-962.267725,-10658.965565,-76.609550
59245.877001,-296.082377,-8956.491898,306.438199
59245.877311,1480.411884,-9400.615463,2374.896044
59245.877621,2442.679609,-9030.512492,2681.334243
59245.877930,0.000000,-6587.832884,2451.505594
59245.878240,592.164754,-8956.491898,3064.381992
59245.878550,-74.020594,-10066.800811,4213.525239
59245.878860,-3034.844362,-5995.668130,-995.924147
59245.879169,-1628.453072,-8364.327145,1838.629195
59245.879479,-74.020594,-8290.306550,-76.609550
59245.879789,-1184.329507,-8512.368333,1149.143247
59245.880099,-222.061783,-8734.430116,536.266849
59245.880408,148.041188,-9918.759623,919.314598
59245.880718,370.102971,-11029.068536,995.924147
59245.881028,-1036.288319,-9844.739029,-1838.629195
59245.881338,-2368.659014,-9844.739029,153.219100
59245.881647,-1036.288319,-10732.986159,2757.943793
59245.881957,-3182.885551,-7179.997637,-1455.581446
59245.882267,-1184.329507,-8660.409521,1532.190996
59245.882576,-74.020594,-9474.636058,2374.896044
59245.882886,0.000000,-5995.668130,919.314598
59245.883196,1998.556043,-6809.894666,1608.800546
59245.883506,3330.926739,-7846.182985,1838.629195
59245.883815,2590.720797,-9474.636058,1685.410096
59245.884125,1110.308913,-10066.800811,-1608.800546
59245.884435,-4145.153275,-10732.986159,-2145.067394
59245.884745,-3404.947333,-13397.727550,-76.609550
59245.885054,-2442.679609,-11843.295072,-1915.238745
59245.885364,-4737.318029,-8364.327145,0.000000
59245.885674,-74.020594,-10066.800811,3294.210641
59245.885984,-1776.494261,-5995.668130,612.876398
59245.886293,1998.556043,-6883.915261,2834.553343
59245.886603,3478.967927,-6439.791695,3447.429741
59245.886913,4071.132681,-6809.894666,3370.820191
59245.887223,4663.297435,-8290.306550,2374.896044
59245.887532,-370.102971,-8142.265362,-383.047749
59245.887842,-3552.988522,-9696.697840,0.000000
59245.888152,-1258.350101,-14211.954086,-383.047749
59245.888462,-4737.318029,-9548.656652,-3140.991542
59245.888771,-2368.659014,-10732.986159,0.000000
59245.889081,-1850.514855,-8364.327145,-1378.971896
59245.889391,1110.308913,-9252.574275,1455.581446
59245.889701,3108.864956,-9326.594869,2911.162892
59245.890010,3849.070898,-8956.491898,3524.039291
59245.890320,4663.297435,-9474.636058,3600.648841
59245.890630,814.226536,-8882.471304,842.705048
59245.890940,-2368.659014,-8068.244768,0.000000
59245.891249,-74.020594,-10658.965565,2987.772442
59245.891559,-4441.235652,-5995.668130,0.000000
59245.891869,-2368.659014,-8364.327145,1225.752797
59245.892179,-2516.700203,-6735.874072,-1225.752797
59245.892488,-740.205942,-8882.471304,153.219100
59245.892798,888.247130,-9992.780217,1455.581446
59245.893108,1036.288319,-10214.842000,1915.238745
59245.893418,2294.638420,-11843.295072,2374.896044
59245.893727,-74.020594,-11251.130318,1149.143247
59245.894037,-2664.741391,-8364.327145,0.000000
59245.894347,-74.020594,-9474.636058,-76.609550
59245.894656,-2960.823768,-5995.668130,0.000000
59245.894966,-2072.576638,-5107.421000,612.876398
59245.895276,518.144159,-5921.647536,612.876398
59245.895586,1924.535449,-7698.141797,1455.581446
59245.895895,2220.617826,-8956.491898,1838.629195
59245.896205,1628.453072,-10584.944971,995.924147
59245.896515,370.102971,-13471.748144,1455.581446
59245.896825,-1406.391290,-11843.295072,-1915.238745
59245.897134,-3552.988522,-12213.398043,612.876398
59245.897444,-1850.514855,-11843.295072,-76.609550
59245.897754,-3552.988522,-7179.997637,0.000000
59245.898064,-1480.411884,-6217.729913,612.876398
59245.898373,-74.020594,-7105.977043,2374.896044
59245.898683,1480.411884,-6143.709319,2834.553343
59245.898993,3034.844362,-6809.894666,3140.991542
59245.899303,3034.844362,-7698.141797,2451.505594
59245.899613,1184.329507,-8956.491898,2604.724693
59245.899922,-592.164754,-10732.986159,229.828649
59245.900232,-3330.926739,-10658.965565,-2528.115143
59245.900542,-7105.977043,-9548.656652,-3677.258390
59245.900852,-1998.556043,-12435.459826,-536.266849
59245.901162,-3034.844362,-7698.141797,-3447.429741
59245.901471,-666.185348,-8290.306550,-76.609550
59245.901781,1184.329507,-8364.327145,1838.629195
59245.902091,3627.009116,-8290.306550,3140.991542
59245.902401,4515.256246,-8364.327145,3677.258390
59245.902711,2812.782580,-9252.574275,4290.134789
59245.903020,1110.308913,-11251.130318,3600.648841
59245.903330,-74.020594,-11843.295072,1762.019645
59245.903640,-3775.050304,-7846.182985,-1225.752797
59245.903950,-1850.514855,-11843.295072,-76.609550
59245.904260,-1850.514855,-8882.471304,-995.924147
59245.904569,-2368.659014,-7624.121203,-1225.752797
59245.904879,74.020594,-9474.636058,536.266849
59245.905189,1702.473667,-10510.924376,1762.019645
59245.905499,1480.411884,-10584.944971,2145.067394
59245.905809,2146.597232,-11843.295072,3600.648841
59245.906118,1702.473667,-11251.130318,2068.457845
59245.906428,-740.205942,-9252.574275,-76.609550
59245.906738,-1184.329507,-8956.491898,2451.505594
59245.907048,-74.020594,-8290.306550,-76.609550
59245.907358,-3552.988522,-3627.009116,0.000000
59245.907667,1184.329507,-6883.915261,1225.752797
59245.907977,2590.720797,-7624.121203,1455.581446
59245.908287,2516.700203,-8956.491898,1685.410096
59245.908597,740.205942,-10362.883188,689.485948
59245.908907,-74.020594,-13915.871710,2221.676944
59245.909216,-1554.432478,-13619.789333,-76.609550
59245.909526,-3923.091493,-11251.130318,-1608.800546
59245.909836,-5921.647536,-9548.656652,0.000000
59245.910146,-1258.350101,-9474.636058,1149.143247
59245.910456,-4145.153275,-3627.009116,0.000000
59245.910765,814.226536,-6513.812290,2374.896044
59245.911075,1776.494261,-5921.647536,3064.381992
59245.911385,2960.823768,-6661.853478,3370.820191
59245.911695,2442.679609,-7920.203579,2374.896044
59245.912005,1184.329507,-10288.862594,2451.505594
59245.912314,-666.185348,-11843.295072,-76.609550
59245.912624,-4219.173869,-9770.718434,-3753.867940
59245.912934,-5921.647536,-10732.986159,-1838.629195
59245.913244,-1258.350101,-11843.295072,-842.705048
59245.913554,-3330.926739,-7179.997637,-3677.258390
59245.913864,-74.020594,-8882.471304,1149.143247
59245.914173,1776.494261,-8290.306550,2068.457845
59245.914483,3627.009116,-8068.244768,3447.429741
59245.914793,3627.009116,-8586.388927,3600.648841
59245.915103,1184.329507,-8364.327145,3064.381992
59245.915413,148.041188,-9622.677246,2145.067394
59245.915722,-74.020594,-11251.130318,-76.609550
59245.916032,-5921.647536,-6587.832884,0.000000
59245.916342,-1850.514855,-9474.636058,-76.609550
59245.916652,-1258.350101,-8290.306550,-1302.362347
59245.916962,-222.061783,-9474.636058,-76.609550
59245.917271,74.020594,-9326.594869,229.828649
59245.917581,740.205942,-10140.821405,1532.190996
59245.917891,1332.370696,-10362.883188,1455.581446
59245.918201,0.000000,-7772.162391,1225.752797
59245.918511,0.000000,-9548.656652,1225.752797
59245.918820,1702.473667,-11843.295072,4060.306139
59245.919130,-2146.597232,-6291.750507,0.000000
59245.919440,-296.082377,-7772.162391,1532.190996
59245.919750,2294.638420,-8290.306550,-76.609550
59245.920060,1184.329507,-7772.162391,919.314598
59245.920369,2368.659014,-8290.306550,1149.143247
59245.920679,2442.679609,-9326.594869,842.705048
59245.920989,1110.308913,-10732.986159,919.314598
59245.921299,-2960.823768,-9548.656652,-1838.629195
59245.921609,-4737.318029,-11325.150913,-1225.752797
59245.921918,-3552.988522,-12509.480420,1225.752797
59245.922228,-3034.844362,-9474.636058,-689.485948
59245.922538,-2368.659014,-7772.162391,1225.752797
59245.922848,2294.638420,-9474.636058,4826.401637
59245.923158,592.164754,-5995.668130,3064.381992
59245.923467,2516.700203,-6291.750507,3370.820191
59245.923777,3478.967927,-6587.832884,3064.381992
59245.924087,2442.679609,-7624.121203,2374.896044
59245.924397,518.144159,-7994.224174,-1149.143247
59245.924707,-3923.091493,-9548.656652,-2451.505594
59245.925016,-4737.318029,-10732.986159,0.000000
59245.925326,-2442.679609,-13027.624579,-1915.238745
59245.925636,-5625.565159,-9548.656652,-3294.210641
59245.925946,-2072.576638,-11769.274478,2145.067394
59245.926256,-1184.329507,-7772.162391,0.000000
59245.926565,2146.597232,-8734.430116,2451.505594
59245.926875,4071.132681,-8068.244768,3830.477490
59245.927185,3997.112087,-8364.327145,3830.477490
59245.927495,4071.132681,-8882.471304,2374.896044
59245.927805,-74.020594,-8438.347739,2068.457845
59245.928114,-4737.318029,-5995.668130,0.000000
59245.928424,-666.185348,-10658.965565,1762.019645
59245.928734,-4367.215058,-7328.038826,-1455.581446
59245.929044,-3552.988522,-9548.656652,612.876398
59245.929354,-2368.659014,-8956.491898,-1225.752797
59245.929663,74.020594,-9548.656652,536.266849
59245.929973,1332.370696,-10436.903782,1532.190996
59245.930283,1332.370696,-10807.006753,1991.848295
59245.930593,2886.803174,-11843.295072,2374.896044
59245.930903,-74.020594,-10362.883188,1149.143247
59245.931212,-3552.988522,-7179.997637,0.000000
59245.931522,-74.020594,-9474.636058,2374.896044
59245.931832,-2368.659014,-5995.668130,0.000000
59245.932142,518.144159,-6069.688724,0.000000
59245.932452,1776.494261,-6957.935855,1532.190996
59245.932762,2442.679609,-7698.141797,1378.971896
59245.933071,2368.659014,-9400.615463,1302.362347
59245.933381,814.226536,-11177.109724,536.266849
59245.933691,-2072.576638,-11917.315666,0.000000
59245.934001,-3552.988522,-12509.480420,-2451.505594
59245.934311,-1554.432478,-14211.954086,1762.019645
59245.934620,-3034.844362,-9474.636058,-689.485948
59245.934930,-2368.659014,-8068.244768,2374.896044
59245.935240,0.000000,-7476.080014,2987.772442
59245.935550,1258.350101,-5773.606348,2374.896044
59245.935860,2664.741391,-6143.709319,3294.210641
59245.936169,3701.029710,-6587.832884,3064.381992
59245.936479,2368.659014,-7846.182985,2068.457845
59245.936789,1110.308913,-9474.636058,-76.609550
59245.937099,-2442.679609,-11843.295072,-1302.362347
59245.937409,-7105.977043,-9844.739029,-3370.820191
59245.937718,-2738.761985,-13027.624579,-1302.362347
59245.938028,-3627.009116,-8142.265362,-3753.867940
59245.938338,-2072.576638,-8364.327145,-2451.505594
59245.938648,666.185348,-8882.471304,1378.971896
59245.938958,2960.823768,-8734.430116,2528.115143
59245.939267,3775.050304,-8586.388927,3064.381992
59245.939577,3256.906145,-9030.512492,3600.648841
59245.939887,592.164754,-7772.162391,2451.505594
59245.940197,-2368.659014,-7476.080014,1225.752797
59245.940507,-74.020594,-9474.636058,-76.609550
59245.940816,-4145.153275,-7179.997637,0.000000
59245.941126,-2368.659014,-8660.409521,1838.629195
59245.941436,-1332.370696,-8882.471304,-76.609550
59245.941746,-1184.329507,-8364.327145,-612.876398
59245.942056,740.205942,-9252.574275,919.314598
59245.942365,1406.391290,-9918.759623,1378.971896
59245.942675,518.144159,-10288.862594,0.000000
59245.942985,-74.020594,-11251.130318,1149.143247
59245.943295,-74.020594,-10658.965565,-76.609550
59245.943605,-2368.659014,-8364.327145,612.876398
59245.943914,-74.020594,-8290.306550,1149.143247
59245.944224,-2368.659014,-5995.668130,1225.752797
59245.944534,-592.164754,-5107.421000,0.000000
59245.944844,1406.391290,-7179.997637,842.705048
59245.945154,2886.803174,-8512.368333,1378.971896
59245.945463,2220.617826,-9622.677246,1685.410096
59245.945773,814.226536,-11843.295072,1762.019645
59245.946083,-2368.659014,-11917.315666,-1838.629195
59245.946393,-3552.988522,-13101.645173,612.876398
59245.946703,-2442.679609,-12435.459826,-76.609550
59245.947012,-4145.153275,-7846.182985,0.000000
59245.947322,-74.020594,-9178.553681,3294.210641
59245.947632,-74.020594,-8290.306550,2987.772442
59245.947942,814.226536,-6291.750507,2451.505594
59245.948252,1998.556043,-6513.812290,2451.505594
59245.948561,3108.864956,-6957.935855,2604.724693
59245.948871,0.000000,-6587.832884,612.876398
59245.949181,-74.020594,-10510.924376,1455.581446
59245.949491,-2442.679609,-11251.130318,-1302.362347
59245.949801,-5921.647536,-10140.821405,-3064.381992
59245.950110,-2442.679609,-14211.954086,-76.609550
59245.950420,-3330.926739,-8956.491898,-1838.629195
59245.950730,-2368.659014,-7179.997637,0.000000
59245.951040,1110.308913,-8512.368333,1532.190996
59245.951350,2960.823768,-8586.388927,2757.943793
59245.951660,3701.029710,-8734.430116,3064.381992
59245.951969,4663.297435,-9474.636058,3600.648841
59245.952279,0.000000,-7772.162391,612.876398
59245.952589,-1776.494261,-9548.656652,1838.629195
59245.952899,-666.185348,-9474.636058,-76.609550
59245.953209,-5625.565159,-5403.503377,-3064.381992
59245.953518,-3552.988522,-7846.182985,-1455.581446
59245.953828,-666.185348,-9474.636058,-76.609550
59245.954138,-814.226536,-9178.553681,-383.047749
59245.954448,814.226536,-10066.800811,1149.143247
59245.954758,2294.638420,-9992.780217,2145.067394
59245.955067,0.000000,-9548.656652,2451.505594
59245.955377,2294.638420,-11695.253884,2374.896044
59245.955687,-74.020594,-9474.636058,1149.143247
59245.955997,-1776.494261,-8660.409521,2451.505594
59245.956307,-1850.514855,-6217.729913,-1302.362347
59245.956616,-2368.659014,-6587.832884,1225.752797
59245.956926,-1480.411884,-5995.668130,0.000000
59245.957236,1702.473667,-7476.080014,153.219100
59245.957546,2442.679609,-8808.450710,919.314598
59245.957856,2072.576638,-10288.862594,1149.143247
59245.958165,-74.020594,-11843.295072,-76.609550
59245.958475,-3552.988522,-11029.068536,0.000000
59245.958785,-2368.659014,-12509.480420,612.876398
59245.959095,-2442.679609,-9918.759623,-1302.362347
59245.959405,-2960.823768,-9548.656652,1838.629195
59245.959714,-666.185348,-7105.977043,229.828649
59245.960024,1110.308913,-6809.894666,2374.896044
59245.960334,1406.391290,-5699.585753,2221.676944
59245.960644,2812.782580,-6883.915261,2911.162892
59245.960954,2442.679609,-7402.059420,1838.629195
59245.961263,0.000000,-8364.327145,1225.752797
59245.961573,-666.185348,-11251.130318,-76.609550
59245.961883,-3775.050304,-11547.212695,-1915.238745
59245.962193,-5921.647536,-9548.656652,0.000000
59245.962503,-1258.350101,-12435.459826,-689.485948
59245.962812,-370.102971,-11251.130318,-76.609550
59245.963122,0.000000,-8364.327145,612.876398
59245.963432,2146.597232,-8290.306550,2374.896044
59245.963742,3404.947333,-8068.244768,3294.210641
59245.964052,4219.173869,-8068.244768,3447.429741
59245.964361,3478.967927,-8290.306550,1762.019645
59245.964671,592.164754,-9400.615463,1838.629195
59245.964981,-1480.411884,-9696.697840,459.657299
59245.965291,-3256.906145,-9400.615463,-153.219100
59245.965601,-4367.215058,-8956.491898,-842.705048
59245.965910,-2960.823768,-9252.574275,153.219100
59245.966220,-1850.514855,-8438.347739,-76.609550
59245.966530,-3552.988522,-5403.503377,0.000000
59245.966840,3478.967927,-11251.130318,3600.648841
59245.967150,2590.720797,-9474.636058,1762.019645
59245.967459,3478.967927,-10658.965565,2374.896044
59245.967769,0.000000,-9548.656652,1072.533697
59245.968079,-518.144159,-9844.739029,919.314598
59245.968389,-1480.411884,-8882.471304,76.609550
59245.968699,-1554.432478,-8142.265362,229.828649
59245.969008,-888.247130,-7846.182985,766.095498
59245.969318,-74.020594,-7402.059420,536.266849
59245.969628,0.000000,-4811.338623,0.000000
59245.969938,4663.297435,-10658.965565,2987.772442
59245.970248,2294.638420,-9770.718434,536.266849
59245.970558,2294.638420,-12435.459826,1762.019645
59245.970867,-2146.597232,-12065.356855,-842.705048
59245.971177,-4145.153275,-11325.150913,0.000000
59245.971487,-74.020594,-12435.459826,-76.609550
59245.971797,-4737.318029,-7179.997637,0.000000
59245.972107,-74.020594,-7105.977043,1072.533697
59245.972416,148.041188,-6883.915261,2451.505594
59245.972726,1332.370696,-6513.812290,2451.505594
59245.973036,2368.659014,-6883.915261,2681.334243
59245.973346,1924.535449,-7624.121203,2068.457845
59245.973656,0.000000,-8364.327145,459.657299
59245.973965,-2442.679609,-10658.965565,-995.924147
59245.974275,-4515.256246,-11399.171507,-2451.505594
59245.974585,-4811.338623,-11399.171507,-2298.286494
59245.974895,-3478.967927,-10807.006753,-1762.019645
59245.975205,-74.020594,-9178.553681,-383.047749
59245.975514,370.102971,-7179.997637,0.000000
59245.975824,1184.329507,-7179.997637,3064.381992
59245.976134,5847.626942,-8882.471304,4519.963438
59245.976444,2738.761985,-7179.997637,2757.943793
59245.976754,2368.659014,-7476.080014,2911.162892
59245.977063,814.226536,-10066.800811,1762.019645
59245.977373,-1628.453072,-10436.903782,383.047749
59245.977683,-3627.009116,-9770.718434,-536.266849
59245.977993,-3923.091493,-9326.594869,-919.314598
59245.978303,-1258.350101,-9474.636058,-76.609550
59245.978612,-1850.514855,-8586.388927,-1302.362347
59245.978922,0.000000,-7772.162391,612.876398
59245.979232,4071.132681,-10658.965565,3600.648841
59245.979542,2590.720797,-8734.430116,2451.505594
59245.979852,888.247130,-6883.915261,1225.752797
59245.980161,1332.370696,-9548.656652,2221.676944
59245.980471,0.000000,-9474.636058,995.924147
59245.980781,-1036.288319,-8734.430116,306.438199
59245.981091,-1554.432478,-7920.203579,153.219100
59245.981401,-74.020594,-8882.471304,-76.609550
59245.981710,-74.020594,-8290.306550,-76.609550
59245.982020,0.000000,-6291.750507,0.000000
59245.982330,3108.864956,-10658.965565,2451.505594
59245.982640,2590.720797,-11547.212695,1149.143247
59245.982950,-74.020594,-11251.130318,0.000000
59245.983259,-2072.576638,-12065.356855,459.657299
59245.983569,-2294.638420,-11251.130318,536.266849
59245.983879,-2590.720797,-9474.636058,229.828649
59245.984189,-2146.597232,-7254.018232,2068.457845
59245.984499,-518.144159,-7402.059420,3370.820191
59245.984808,1110.308913,-8290.306550,4673.182538
59245.985118,0.000000,-4811.338623,459.657299
59245.985428,3997.112087,-8734.430116,3600.648841
59245.985738,1406.391290,-8290.306550,842.705048
59245.986048,-74.020594,-10436.903782,-1608.800546
59245.986357,-3849.070898,-11325.150913,-2145.067394
59245.986667,-4959.379811,-12583.501014,-2221.676944
59245.986977,-4885.359217,-11843.295072,-2145.067394
59245.987287,-3552.988522,-10140.821405,-612.876398
59245.987597,-2368.659014,-8364.327145,1225.752797
59245.987906,2294.638420,-9474.636058,3753.867940
59245.988216,2886.803174,-6513.812290,2068.457845
59245.988526,2960.823768,-6587.832884,3677.258390
59245.988836,4441.235652,-8364.327145,4366.744339
59245.989146,3478.967927,-9474.636058,2987.772442
59245.989456,-888.247130,-9178.553681,612.876398
59245.989765,-2812.782580,-10584.944971,-383.047749
59245.990075,-4219.173869,-10140.821405,-995.924147
59245.990385,-4589.276840,-9548.656652,-1838.629195
59245.990695,-4737.318029,-7179.997637,-1685.410096
59245.991005,-2368.659014,-8956.491898,1225.752797
59245.991314,2294.638420,-10658.965565,1762.019645
59245.991624,1110.308913,-7624.121203,1455.581446
59245.991934,3034.844362,-8956.491898,3677.258390
59245.992244,3108.864956,-8882.471304,4826.401637
59245.992554,1184.329507,-8586.388927,1762.019645
59245.992863,0.000000,-8956.491898,842.705048
59245.993173,-1258.350101,-9178.553681,229.828649
59245.993483,-1332.370696,-7772.162391,0.000000
59245.993793,-2368.659014,-7179.997637,-1838.629195
59245.994103,0.000000,-7476.080014,-1532.190996
59245.994412,518.144159,-7994.224174,-766.095498
59245.994722,2368.659014,-10732.986159,1838.629195
59245.995032,4071.132681,-13027.624579,-76.609550
59245.995342,-74.020594,-11843.295072,-76.609550
59245.995652,-1184.329507,-12065.356855,995.924147
59245.995961,-1702.473667,-10881.027347,995.924147
59245.996271,-1480.411884,-8956.491898,1991.848295
59245.996581,-1036.288319,-6143.709319,612.876398
59245.996891,-1776.494261,-3627.009116,1532.190996
59245.997201,1184.329507,-7179.997637,4596.572988
59245.997510,1406.391290,-5773.606348,842.705048
59245.997820,1184.329507,-7772.162391,2451.505594
59245.998130,1110.308913,-9474.636058,842.705048
59245.998440,-1776.494261,-11843.295072,1762.019645
59245.998750,-4071.132681,-11695.253884,-1991.848295
59245.999059,-4737.318029,-11695.253884,-2451.505594
59245.999369,-4293.194464,-11621.233289,-1532.190996
59245.999679,-2738.761985,-8956.491898,-2145.067394
59245.999989,-1480.411884,-6661.853478,0.000000
59246.000299,0.000000,-4811.338623,1225.752797
59246.000608,4441.235652,-8216.285956,5209.449386
59246.000918,5255.462188,-7105.977043,4213.525239
59246.001228,3404.947333,-7179.997637,3370.820191
59246.001538,888.247130,-9252.574275,3370.820191
59246.001847,-1258.350101,-10362.883188,-76.609550
59246.002157,-3701.029710,-11251.130318,-1225.752797
59246.002467,-4959.379811,-10955.047942,-1302.362347
59246.002777,-4885.359217,-8512.368333,-3064.381992
59246.003086,-3330.926739,-8808.450710,-1915.238745
59246.003396,-3775.050304,-6069.688724,-2451.505594
59246.003706,0.000000,-7772.162391,306.438199
59246.004016,2960.823768,-8808.450710,3983.696590
59246.004325,5847.626942,-9474.636058,4826.401637
59246.004635,2294.638420,-9474.636058,4213.525239
59246.004945,1702.473667,-9178.553681,2681.334243
59246.005254,-888.247130,-8364.327145,383.047749
59246.005564,-1776.494261,-8364.327145,0.000000
59246.005874,-1924.535449,-7476.080014,-2145.067394
59246.006184,-2442.679609,-6735.874072,-2374.896044
59246.006493,-2368.659014,-6587.832884,-2451.505594
59246.006803,2442.679609,-11177.109724,1378.971896
59246.007113,2294.638420,-10362.883188,-76.609550
59246.007423,0.000000,-10732.986159,383.047749
59246.007732,-1480.411884,-12361.439231,612.876398
59246.008042,-1406.391290,-11843.295072,383.047749
59246.008352,-1702.473667,-10140.821405,1072.533697
59246.008662,-1258.350101,-7994.224174,1762.019645
59246.008971,-592.164754,-5329.482782,2068.457845
59246.009281,-74.020594,-5329.482782,1915.238745
59246.009591,0.000000,-3627.009116,612.876398
59246.009900,3849.070898,-9178.553681,4213.525239
59246.010210,592.164754,-7179.997637,459.657299
59246.010520,296.082377,-9844.739029,2681.334243
59246.010830,-2368.659014,-10140.821405,0.000000
59246.011139,-4071.132681,-12583.501014,-1915.238745
59246.011449,-5255.462188,-12361.439231,-2451.505594
59246.011759,-4219.173869,-11177.109724,-1532.190996
59246.012069,-2146.597232,-9474.636058,-76.609550
59246.012378,1702.473667,-8734.430116,2374.896044
59246.012688,3478.967927,-7105.977043,2374.896044
59246.012998,1776.494261,-4811.338623,3064.381992
59246.013308,6143.709319,-7994.224174,5439.278036
59246.013617,3775.050304,-7698.141797,3370.820191
59246.013927,0.000000,-7179.997637,612.876398
59246.014237,-2368.659014,-10510.924376,76.609550
59246.014546,-4367.215058,-11177.109724,-1378.971896
59246.014856,-5107.421000,-10436.903782,-1378.971896
59246.015166,-4959.379811,-11251.130318,-383.047749
59246.015476,-2146.597232,-11843.295072,1762.019645
59246.015785,-74.020594,-9474.636058,-76.609550
59246.016095,148.041188,-7179.997637,766.095498
59246.016405,2960.823768,-8068.244768,4903.011187
59246.016715,3701.029710,-7254.018232,3064.381992
59246.017024,2590.720797,-6809.894666,1762.019645
59246.017334,888.247130,-8956.491898,1991.848295
59246.017644,-1184.329507,-9030.512492,229.828649
59246.017954,-2072.576638,-8956.491898,-76.609550
59246.018263,-1258.350101,-10066.800811,-76.609550
59246.018573,-2072.576638,-9252.574275,-1685.410096
59246.018883,-74.020594,-10658.965565,-689.485948
59246.019192,0.000000,-8364.327145,-1762.019645
59246.019502,2368.659014,-11325.150913,1225.752797
59246.019812,2590.720797,-11769.274478,0.000000
59246.020122,-74.020594,-11547.212695,536.266849
59246.020431,-1406.391290,-10214.842000,76.609550
59246.020741,-1036.288319,-9844.739029,1762.019645
59246.021051,-1036.288319,-7994.224174,1608.800546
59246.021361,0.000000,-6291.750507,3064.381992
59246.021670,0.000000,-5995.668130,1225.752797
59246.021980,3182.885551,-8290.306550,3907.087040
59246.022290,1110.308913,-6809.894666,536.266849
59246.022600,1184.329507,-9548.656652,1838.629195
59246.022909,1110.308913,-9622.677246,-76.609550
59246.023219,-666.185348,-11843.295072,-76.609550
59246.023529,-4515.256246,-11769.274478,-2298.286494
59246.023838,-5255.462188,-11991.336260,-2145.067394
59246.024148,-3627.009116,-10214.842000,-1302.362347
59246.024458,-2368.659014,-7476.080014,0.000000
59246.024768,0.000000,-6365.771101,1762.019645
59246.025077,1184.329507,-5995.668130,2757.943793
59246.025387,5847.626942,-7994.224174,4826.401637
59246.025697,4663.297435,-5995.668130,995.924147
59246.026007,2960.823768,-8290.306550,2987.772442
59246.026316,2294.638420,-11251.130318,2834.553343
59246.026626,-2368.659014,-10510.924376,-766.095498
59246.026936,-4071.132681,-11029.068536,-1838.629195
59246.027245,-4811.338623,-11177.109724,-1608.800546
59246.027555,-5921.647536,-7772.162391,-2681.334243
59246.027865,-3775.050304,-9178.553681,-76.609550
59246.028175,-2368.659014,-7179.997637,0.000000
59246.028484,2516.700203,-9252.574275,3370.820191
59246.028794,4663.297435,-8290.306550,3600.648841
59246.029104,3330.926739,-8882.471304,4213.525239
59246.029414,2960.823768,-8956.491898,3677.258390
59246.029723,1036.288319,-9326.594869,1762.019645
59246.030033,-888.247130,-8956.491898,383.047749
59246.030343,-2368.659014,-9178.553681,-153.219100
59246.030653,-4219.173869,-7328.038826,-1302.362347
59246.030962,-3552.988522,-7698.141797,-2528.115143
59246.031272,-3552.988522,-7772.162391,0.000000
59246.031582,2812.782580,-10955.047942,1762.019645
59246.031891,2294.638420,-10658.965565,-76.609550
59246.032201,814.226536,-11843.295072,2681.334243
59246.032511,-1184.329507,-11325.150913,1225.752797
59246.032821,-1554.432478,-11103.089130,995.924147
59246.033130,-1628.453072,-9326.594869,1532.190996
59246.033440,-1332.370696,-7698.141797,1991.848295
59246.033750,-74.020594,-5921.647536,2374.896044
59246.034060,814.226536,-5403.503377,2757.943793
59246.034369,74.020594,-5033.400406,1149.143247
59246.034679,2664.741391,-8956.491898,2757.943793
59246.034989,962.267725,-7179.997637,-995.924147
59246.035299,-592.164754,-10732.986159,1225.752797
59246.035608,-4737.318029,-10732.986159,-1838.629195
59246.035918,-4737.318029,-12805.562797,-1608.800546
59246.036228,-4811.338623,-11843.295072,-1532.190996
59246.036537,-2960.823768,-9992.780217,-842.705048
59246.036847,-74.020594,-8882.471304,-76.609550
59246.037157,1776.494261,-5995.668130,1532.190996
59246.037467,4663.297435,-7105.977043,4213.525239
59246.037776,3404.947333,-5107.421000,3217.601092
59246.038086,6883.915261,-10066.800811,6511.811733
59246.038396,2368.659014,-8068.244768,3217.601092
59246.038706,-2368.659014,-8956.491898,0.000000
59246.039015,-2960.823768,-10955.047942,-919.314598
59246.039325,-4737.318029,-11177.109724,-1608.800546
59246.039635,-5403.503377,-10066.800811,-2374.896044
59246.039945,-3627.009116,-10658.965565,-689.485948
59246.040254,-4071.132681,-7328.038826,-1915.238745
59246.040564,814.226536,-9474.636058,2298.286494
59246.040874,2294.638420,-7994.224174,2374.896044
59246.041183,1184.329507,-4811.338623,2451.505594
59246.041493,2960.823768,-5995.668130,2451.505594
59246.041803,2886.803174,-7698.141797,2221.676944
59246.042113,740.205942,-8882.471304,1762.019645
59246.042422,-74.020594,-9474.636058,842.705048
59246.042732,-1998.556043,-8956.491898,-612.876398
59246.043042,-1776.494261,-9252.574275,-1225.752797
59246.043352,-2368.659014,-9548.656652,0.000000
59246.043661,-74.020594,-11843.295072,-76.609550
59246.043971,740.205942,-8364.327145,0.000000
59246.044281,1184.329507,-9548.656652,1225.752797
59246.044591,296.082377,-9918.759623,0.000000
59246.044900,-74.020594,-11843.295072,842.705048
59246.045210,-1332.370696,-10436.903782,842.705048
59246.045520,-814.226536,-9474.636058,1762.019645
59246.045829,-518.144159,-7402.059420,2298.286494
59246.046139,0.000000,-4811.338623,1225.752797
59246.046449,-2072.576638,-4811.338623,766.095498
59246.046759,1776.494261,-7328.038826,3064.381992
59246.047068,1406.391290,-8142.265362,1149.143247
59246.047378,1332.370696,-11473.192101,2528.115143
59246.047688,-1850.514855,-10658.965565,-1915.238745
59246.047998,-3034.844362,-13027.624579,-689.485948
59246.048307,-4663.297435,-11843.295072,-1915.238745
59246.048617,-4663.297435,-11103.089130,-1762.019645
59246.048927,-3182.885551,-8586.388927,-919.314598
59246.049236,-2072.576638,-6587.832884,0.000000
59246.049546,0.000000,-3034.844362,0.000000
59246.049856,3849.070898,-7179.997637,4903.011187
59246.050166,5847.626942,-7105.977043,4213.525239
59246.050475,3552.988522,-7179.997637,4903.011187
59246.050785,4071.132681,-10658.965565,2374.896044
59246.051095,-666.185348,-12139.377449,1149.143247
59246.051405,-3997.112087,-11103.089130,-1072.533697
59246.051714,-4885.359217,-11843.295072,-1608.800546
59246.052024,-5699.585753,-10214.842000,-2298.286494
59246.052334,-5625.565159,-8068.244768,-1378.971896
59246.052644,-2442.679609,-7846.182985,-995.924147
59246.052953,0.000000,-7179.997637,612.876398
59246.053263,3997.112087,-9326.594869,6052.154434
59246.053573,3478.967927,-5625.565159,2374.896044
59246.053882,4663.297435,-9474.636058,4826.401637
59246.054192,2368.659014,-8438.347739,2757.943793
59246.054502,296.082377,-9104.533087,1455.581446
59246.054812,-1998.556043,-9178.553681,-536.266849
59246.055121,-3256.906145,-8882.471304,-1685.410096
59246.055431,-3034.844362,-9178.553681,-2068.457845
59246.055741,-2072.576638,-8956.491898,-1838.629195
59246.056051,-1110.308913,-8586.388927,-1838.629195
59246.056360,1184.329507,-10140.821405,1225.752797
59246.056670,4663.297435,-13619.789333,3600.648841
59246.056980,2886.803174,-13027.624579,3600.648841
59246.057290,0.000000,-10732.986159,1225.752797
59246.057599,-74.020594,-10066.800811,1915.238745
59246.057909,-222.061783,-8882.471304,2528.115143
59246.058219,0.000000,-6957.935855,2451.505594
59246.058528,1110.308913,-7105.977043,2374.896044
59246.058838,2294.638420,-7994.224174,2987.772442
59246.059148,0.000000,-5699.585753,0.000000
59246.059458,592.164754,-9548.656652,2911.162892
59246.059767,2294.638420,-11251.130318,-76.609550
59246.060077,-2072.576638,-10881.027347,612.876398
59246.060387,-4737.318029,-10881.027347,-1685.410096
59246.060697,-4293.194464,-11621.233289,-1608.800546
59246.061006,-4219.173869,-11029.068536,-689.485948
59246.061316,-2294.638420,-8660.409521,0.000000
59246.061626,-74.020594,-8290.306550,995.924147
59246.061936,2368.659014,-7105.977043,3140.991542
59246.062245,4663.297435,-7105.977043,3600.648841
59246.062555,4145.153275,-4811.338623,1225.752797
59246.062865,7031.956449,-11547.212695,4826.401637
59246.063174,0.000000,-8364.327145,1838.629195
59246.063484,-2368.659014,-9844.739029,-919.314598
59246.063794,-4293.194464,-11547.212695,-1532.190996
59246.064104,-4885.359217,-11769.274478,-1608.800546
59246.064413,-4959.379811,-10510.924376,-1302.362347
59246.064723,-3701.029710,-8660.409521,-919.314598
59246.065033,-1850.514855,-7476.080014,-153.219100
59246.065343,2664.741391,-9252.574275,2987.772442
59246.065652,4071.132681,-8290.306550,2374.896044
59246.065962,1184.329507,-5995.668130,3064.381992
59246.066272,1776.494261,-5995.668130,2451.505594
59246.066582,1998.556043,-8882.471304,1762.019645
59246.066891,-592.164754,-8808.450710,689.485948
59246.067201,-1998.556043,-9400.615463,-383.047749
59246.067511,-3330.926739,-9474.636058,-1608.800546
59246.067820,-3552.988522,-8438.347739,-2451.505594
59246.068130,-3552.988522,-9548.656652,-1225.752797
59246.068440,2294.638420,-10658.965565,-76.609550
59246.068750,1998.556043,-9030.512492,-1302.362347
59246.069059,0.000000,-9548.656652,1225.752797
59246.069369,1036.288319,-9548.656652,0.000000
59246.069679,814.226536,-11547.212695,1915.238745
59246.069989,-1036.288319,-9548.656652,1532.190996
59246.070298,-1258.350101,-8364.327145,1685.410096
59246.070608,-1036.288319,-6735.874072,2145.067394
59246.070918,-2368.659014,-5403.503377,2145.067394
59246.071227,-2368.659014,-4811.338623,612.876398
59246.071537,1332.370696,-8068.244768,2145.067394
59246.071847,1110.308913,-9474.636058,-76.609550
59246.072157,-3552.988522,-8364.327145,0.000000
59246.072466,-1850.514855,-10658.965565,-689.485948
59246.072776,-3330.926739,-13027.624579,-383.047749
59246.073086,-4589.276840,-11695.253884,-1378.971896
59246.073396,-3701.029710,-10584.944971,-459.657299
59246.073705,-1924.535449,-8142.265362,459.657299
59246.074015,-666.185348,-6883.915261,1762.019645
59246.074325,2664.741391,-6217.729913,3064.381992
59246.074635,2960.823768,-5551.544565,3677.258390
59246.074944,5847.626942,-8882.471304,4826.401637
59246.075254,1184.329507,-5995.668130,1225.752797
59246.075564,2294.638420,-10658.965565,1149.143247
59246.075873,-2072.576638,-11843.295072,-76.609550
59246.076183,-4811.338623,-11843.295072,-1378.971896
59246.076493,-5329.482782,-10807.006753,-1838.629195
59246.076803,-4589.276840,-10140.821405,-1072.533697
59246.077112,-2442.679609,-8956.491898,-689.485948
59246.077422,-370.102971,-8290.306550,536.266849
59246.077732,0.000000,-7179.997637,1532.190996
59246.078042,4737.318029,-8956.491898,6741.640382
59246.078351,6735.874072,-8290.306550,4826.401637
59246.078661,5847.626942,-9474.636058,4213.525239
59246.078971,444.123565,-8364.327145,1838.629195
59246.079281,-962.267725,-9030.512492,76.609550
59246.079590,-2516.700203,-9548.656652,-689.485948
59246.079900,-2590.720797,-9400.615463,-1608.800546
59246.080210,-2146.597232,-9030.512492,-1225.752797
59246.080519,-74.020594,-9474.636058,-1302.362347
59246.080829,222.061783,-8956.491898,-1455.581446
59246.081139,2368.659014,-9548.656652,1225.752797
59246.081449,4663.297435,-12435.459826,2374.896044
59246.081758,2072.576638,-13027.624579,2987.772442
59246.082068,0.000000,-10732.986159,1225.752797
59246.082378,-444.123565,-10140.821405,2145.067394
59246.082688,-666.185348,-8142.265362,2068.457845
59246.082997,-444.123565,-6735.874072,2374.896044
59246.083307,-74.020594,-5699.585753,1225.752797
59246.083617,1776.494261,-7105.977043,2374.896044
59246.083927,518.144159,-6957.935855,536.266849
59246.084236,592.164754,-9548.656652,2451.505594
59246.084546,-74.020594,-11843.295072,-76.609550
59246.084856,-4737.318029,-11325.150913,0.000000
59246.085165,-5329.482782,-11769.274478,-2374.896044
59246.085475,-4589.276840,-11621.233289,-1532.190996
59246.085785,-3404.947333,-10436.903782,-766.095498
59246.086095,-1406.391290,-7920.203579,229.828649
59246.086404,0.000000,-5699.585753,0.000000
59246.086714,3182.885551,-7105.977043,4290.134789
59246.087024,4663.297435,-6513.812290,4213.525239
59246.087334,1184.329507,-4811.338623,1225.752797
59246.087643,4959.379811,-10584.944971,4673.182538
59246.087953,-1628.453072,-9548.656652,1225.752797
59246.088263,-4219.173869,-10510.924376,-1915.238745
59246.088573,-4885.359217,-11769.274478,-1685.410096
59246.088882,-5477.523971,-11251.130318,-2145.067394
59246.089192,-4515.256246,-9474.636058,-1378.971896
59246.089502,-3330.926739,-8808.450710,-689.485948
59246.089811,0.000000,-8364.327145,1838.629195
59246.090121,2886.803174,-9474.636058,4826.401637
59246.090431,4071.132681,-6809.894666,2374.896044
59246.090741,2960.823768,-7179.997637,3983.696590
59246.091050,592.164754,-5403.503377,1532.190996
59246.091360,1110.308913,-8586.388927,2068.457845
59246.091670,-888.247130,-9104.533087,306.438199
59246.091980,-2146.597232,-9474.636058,-689.485948
59246.092289,-3182.885551,-9252.574275,-1838.629195
59246.092599,-2886.803174,-8586.388927,-1915.238745
59246.092909,-2368.659014,-8364.327145,-2451.505594
59246.093219,1776.494261,-10732.986159,1225.752797
59246.093528,4663.297435,-11843.295072,-76.609550
59246.093838,0.000000,-9548.656652,0.000000
59246.094148,-1036.288319,-9844.739029,0.000000
59246.094457,666.185348,-11843.295072,1915.238745
59246.094767,-592.164754,-9326.594869,2068.457845
59246.095077,-518.144159,-7476.080014,2145.067394
59246.095387,-148.041188,-5551.544565,2451.505594
59246.095696,518.144159,-5921.647536,2987.772442
59246.096006,0.000000,-4811.338623,612.876398
59246.096316,1480.411884,-8364.327145,4136.915689
59246.096626,1702.473667,-8882.471304,-383.047749
59246.096935,-2960.823768,-9548.656652,0.000000
59246.097245,-2442.679609,-11547.212695,-2221.676944
59246.097555,-4737.318029,-13101.645173,-1685.410096
59246.097864,-4811.338623,-11769.274478,-1762.019645
59246.098174,-2812.782580,-9844.739029,-383.047749
59246.098484,-888.247130,-7698.141797,842.705048
59246.098794,2294.638420,-8142.265362,3600.648841
59246.099103,1998.556043,-4441.235652,1991.848295
59246.099413,3552.988522,-4811.338623,1225.752797
59246.099723,8216.285956,-9474.636058,6052.154434
59246.100033,1480.411884,-7179.997637,919.314598
59246.100342,-74.020594,-11251.130318,-76.609550
59246.100652,-3923.091493,-11473.192101,-1378.971896
59246.100962,-4885.359217,-12435.459826,-1608.800546
59246.101272,-5329.482782,-11325.150913,-1838.629195
59246.101582,-4885.359217,-10066.800811,-1532.190996
59246.101891,-2442.679609,-9104.533087,1455.581446
59246.102201,-74.020594,-8290.306550,1149.143247
59246.102511,1406.391290,-6513.812290,1762.019645
59246.102821,2368.659014,-5995.668130,3677.258390
59246.103131,6439.791695,-8290.306550,4826.401637
59246.103440,5847.626942,-9474.636058,4213.525239
59246.103750,0.000000,-7772.162391,1225.752797
59246.104060,-1184.329507,-8734.430116,-306.438199
59246.104370,-2442.679609,-9474.636058,-1378.971896
59246.104680,-3478.967927,-8882.471304,-2374.896044
59246.104990,-2368.659014,-9548.656652,-1225.752797
59246.105299,-1554.432478,-9548.656652,-1455.581446
59246.105609,2294.638420,-11251.130318,-76.609550
59246.105919,0.000000,-9844.739029,0.000000
59246.106229,3108.864956,-12435.459826,3294.210641
59246.106539,2368.659014,-13619.789333,3600.648841
59246.106848,0.000000,-9918.759623,1302.362347
59246.107158,-148.041188,-8808.450710,2757.943793
59246.107468,148.041188,-7105.977043,2298.286494
59246.107778,-148.041188,-5477.523971,2221.676944
59246.108088,0.000000,-4811.338623,612.876398
59246.108397,666.185348,-6365.771101,1455.581446
59246.108707,962.267725,-7031.956449,-1302.362347
59246.109017,0.000000,-9548.656652,0.000000
59246.109327,-74.020594,-13027.624579,-76.609550
59246.109637,-4737.318029,-12509.480420,0.000000
59246.109946,-4515.256246,-12657.521608,-1608.800546
59246.110256,-4293.194464,-11325.150913,-919.314598
59246.110566,-2664.741391,-9326.594869,76.609550
59246.110876,-296.082377,-7179.997637,1225.752797
59246.111186,592.164754,-3923.091493,919.314598
59246.111495,2812.782580,-5033.400406,3447.429741
59246.111805,5255.462188,-7105.977043,4826.401637
59246.112115,2368.659014,-5995.668130,2757.943793
59246.112425,4071.132681,-10362.883188,2374.896044
59246.112735,-2368.659014,-9548.656652,0.000000
59246.113044,-3627.009116,-11843.295072,-1685.410096
59246.113354,-5995.668130,-11991.336260,-2221.676944
59246.113664,-5551.544565,-11103.089130,-1762.019645
59246.113974,-4885.359217,-9918.759623,-1225.752797
59246.114284,-2442.679609,-6957.935855,0.000000
59246.114594,0.000000,-7550.100608,1838.629195
59246.114903,2664.741391,-8956.491898,6281.983084
59246.115213,3478.967927,-5921.647536,3294.210641
59246.115523,2368.659014,-6587.832884,3370.820191
59246.115833,1184.329507,-5995.668130,1838.629195
59246.116143,518.144159,-8956.491898,1762.019645
59246.116452,-1258.350101,-11251.130318,1455.581446
59246.116762,-3330.926739,-9696.697840,-1608.800546
59246.117072,-3478.967927,-9696.697840,-2374.896044
59246.117382,-2442.679609,-9474.636058,-2528.115143
59246.117692,-222.061783,-9622.677246,-1072.533697
59246.118001,1184.329507,-9548.656652,1225.752797
59246.118311,4663.297435,-13027.624579,2374.896044
59246.118621,592.164754,-10140.821405,919.314598
59246.118931,0.000000,-9548.656652,306.438199
59246.119241,222.061783,-10584.944971,2221.676944
59246.119550,-370.102971,-8438.347739,1762.019645
59246.119860,-888.247130,-7624.121203,2451.505594
59246.120170,-518.144159,-5773.606348,2068.457845
59246.120480,1110.308913,-7105.977043,2374.896044
59246.120790,0.000000,-5995.668130,76.609550
59246.121099,0.000000,-5995.668130,0.000000
59246.121409,2294.638420,-12731.542202,1762.019645
59246.121719,-2738.761985,-10584.944971,-1608.800546
59246.122029,-3034.844362,-11843.295072,-3064.381992
59246.122339,-4145.153275,-12509.480420,-995.924147
59246.122648,-3256.906145,-10955.047942,-383.047749
59246.122958,-1554.432478,-8808.450710,306.438199
59246.123268,222.061783,-6809.894666,2374.896044
59246.123578,3923.091493,-7994.224174,4826.401637
59246.123888,3478.967927,-5329.482782,2987.772442
59246.124198,1184.329507,-4811.338623,1225.752797
59246.124507,4293.194464,-9326.594869,3677.258390
59246.124817,1110.308913,-9474.636058,229.828649
59246.125127,-1554.432478,-11251.130318,-2221.676944
59246.125437,-5329.482782,-11917.315666,-2145.067394
59246.125747,-4885.359217,-11621.233289,-2068.457845
59246.126056,-4811.338623,-10807.006753,-1378.971896
59246.126366,-3627.009116,-8808.450710,-76.609550
59246.126676,-1036.288319,-9252.574275,3064.381992
59246.126986,2294.638420,-8882.471304,4213.525239
59246.127296,3478.967927,-6513.812290,2374.896044
59246.127605,4737.318029,-7179.997637,4903.011187
59246.127915,4663.297435,-7698.141797,4213.525239
59246.128225,3478.967927,-9400.615463,2374.896044
59246.128535,-1036.288319,-8808.450710,0.000000
59246.128845,-2886.803174,-9696.697840,-1225.752797
59246.129154,-3997.112087,-9696.697840,-2068.457845
59246.129464,-3849.070898,-9474.636058,-2451.505594
59246.129774,-2960.823768,-9548.656652,-1225.752797
59246.130084,888.247130,-10658.965565,766.095498
59246.130394,4663.297435,-11251.130318,-76.609550
59246.130703,888.247130,-9548.656652,612.876398
59246.131013,4071.132681,-12139.377449,3907.087040
59246.131323,2516.700203,-11251.130318,4213.525239
59246.131633,0.000000,-9252.574275,2145.067394
59246.131943,-296.082377,-8512.368333,2298.286494
59246.132253,-666.185348,-6883.915261,2298.286494
59246.132562,-740.205942,-5995.668130,0.000000
59246.132872,-2368.659014,-4811.338623,612.876398
59246.133182,148.041188,-8512.368333,2145.067394
59246.133492,-74.020594,-8142.265362,-1302.362347
59246.133802,-1184.329507,-10732.986159,612.876398
59246.134111,-666.185348,-12879.583391,-76.609550
59246.134421,-4145.153275,-13915.871710,-76.609550
59246.134731,-4071.132681,-11547.212695,-995.924147
59246.135041,-3330.926739,-9918.759623,0.000000
59246.135351,-1480.411884,-7846.182985,536.266849
59246.135660,592.164754,-5699.585753,766.095498
59246.135970,0.000000,-3627.009116,0.000000
59246.136280,2516.700203,-4811.338623,2451.505594
59246.136590,5847.626942,-8290.306550,3600.648841
59246.136900,1184.329507,-7772.162391,1225.752797
59246.137209,1110.308913,-11251.130318,1149.143247
59246.137519,-4737.318029,-11917.315666,-919.314598
59246.137829,-5773.606348,-12805.562797,-1991.848295
59246.138139,-6069.688724,-11621.233289,-2451.505594
59246.138449,-4589.276840,-10436.903782,-995.924147
59246.138758,-2738.761985,-7179.997637,-689.485948
59246.139068,-1258.350101,-5921.647536,0.000000
59246.139378,1184.329507,-4811.338623,1225.752797
59246.139688,3552.988522,-6587.832884,6128.763984
59246.139998,5847.626942,-7105.977043,4826.401637
59246.140307,2368.659014,-6883.915261,4749.792088
59246.140617,888.247130,-8364.327145,1225.752797
59246.140927,-1406.391290,-10066.800811,-229.828649
59246.141237,-3775.050304,-10881.027347,-2221.676944
59246.141547,-4515.256246,-10214.842000,-3064.381992
59246.141857,-3923.091493,-9474.636058,-2528.115143
59246.142166,-74.020594,-9474.636058,-2528.115143
59246.142476,592.164754,-8586.388927,-689.485948
59246.142786,1184.329507,-9548.656652,1225.752797
59246.143096,6069.688724,-11547.212695,4366.744339
59246.143406,3182.885551,-9770.718434,2451.505594
59246.143715,592.164754,-8364.327145,1225.752797
59246.144025,592.164754,-9252.574275,1991.848295
59246.144335,-444.123565,-8290.306550,1762.019645
59246.144645,-1184.329507,-7402.059420,1302.362347
59246.144955,-1258.350101,-8734.430116,-76.609550
59246.145264,-74.020594,-9474.636058,-76.609550
59246.145574,-666.185348,-6661.853478,-2528.115143
59246.145884,0.000000,-8364.327145,0.000000
59246.146194,1702.473667,-12731.542202,1149.143247
59246.146504,-1998.556043,-10140.821405,0.000000
59246.146813,-3552.988522,-9844.739029,-1762.019645
59246.147123,-2960.823768,-10732.986159,-306.438199
59246.147433,-1554.432478,-9918.759623,612.876398
59246.147743,0.000000,-7402.059420,1532.190996
59246.148053,2294.638420,-7550.100608,4213.525239
59246.148362,4367.215058,-8290.306550,6052.154434
59246.148672,3923.091493,-5921.647536,2374.896044
59246.148982,1184.329507,-7179.997637,2451.505594
59246.149292,3478.967927,-11251.130318,2374.896044
59246.149602,-1924.535449,-9844.739029,-2451.505594
59246.149911,-4219.173869,-12731.542202,-2221.676944
59246.150221,-5921.647536,-12509.480420,-2451.505594
59246.150531,-5477.523971,-11399.171507,-1838.629195
59246.150841,-4367.215058,-9770.718434,-919.314598
59246.151151,-1776.494261,-7772.162391,2451.505594
59246.151461,0.000000,-8068.244768,4749.792088
59246.151770,4663.297435,-9474.636058,6052.154434
59246.152080,1998.556043,-4071.132681,2604.724693
59246.152390,5625.565159,-7920.203579,5822.325785
59246.152700,2886.803174,-5699.585753,1149.143247
59246.153010,1702.473667,-10658.965565,1762.019645
59246.153319,-2368.659014,-9696.697840,-919.314598
59246.153629,-3997.112087,-10955.047942,-2068.457845
59246.153939,-4737.318029,-10510.924376,-2834.553343
59246.154249,-5625.565159,-9548.656652,-3370.820191
59246.154559,-2960.823768,-9548.656652,0.000000
59246.154868,592.164754,-9548.656652,1225.752797
59246.155178,4663.297435,-11843.295072,2987.772442
59246.155488,2368.659014,-8364.327145,1838.629195
59246.155798,4589.276840,-10658.965565,4213.525239
59246.156108,3923.091493,-10658.965565,4213.525239
59246.156417,444.123565,-8808.450710,2604.724693
59246.156727,-296.082377,-7624.121203,2145.067394
59246.157037,-666.185348,-7254.018232,1149.143247
59246.157347,-2960.823768,-5403.503377,0.000000
59246.157657,-3552.988522,-5995.668130,0.000000
59246.157966,-2368.659014,-8364.327145,0.000000
59246.158276,2294.638420,-12731.542202,1149.143247
59246.158586,-962.267725,-9918.759623,-612.876398
59246.158896,-1776.494261,-12435.459826,1149.143247
59246.159206,-2368.659014,-12805.562797,306.438199
59246.159515,-2590.720797,-10658.965565,-689.485948
59246.159825,-1776.494261,-8882.471304,383.047749
59246.160135,-370.102971,-6883.915261,1225.752797
59246.160445,0.000000,-3775.050304,536.266849
59246.160755,0.000000,-2442.679609,612.876398
59246.161065,2368.659014,-4811.338623,2451.505594
59246.161374,6439.791695,-9474.636058,4519.963438
59246.161684,0.000000,-8068.244768,0.000000
59246.161994,-666.185348,-13471.748144,1608.800546
59246.162304,-4737.318029,-13249.686362,-1225.752797
59246.162614,-5995.668130,-13545.768739,-2374.896044
59246.162923,-5847.626942,-11547.212695,-1762.019645
59246.163233,-3923.091493,-9326.594869,-536.266849
59246.163543,-666.185348,-6365.771101,536.266849
59246.163853,-666.185348,-4737.318029,2374.896044
59246.164163,962.267725,-3627.009116,1991.848295
59246.164472,4737.318029,-5995.668130,5515.887586
59246.164782,5255.462188,-6809.894666,4213.525239
59246.165092,3256.906145,-8364.327145,3677.258390
59246.165402,-1776.494261,-8364.327145,0.000000
59246.165712,-2368.659014,-10510.924376,-995.924147
59246.166021,-4441.235652,-11769.274478,-2298.286494
59246.166331,-4737.318029,-10881.027347,-3600.648841
59246.166641,-3034.844362,-11843.295072,-2528.115143
59246.166951,-74.020594,-9474.636058,-76.609550
59246.167261,2294.638420,-9474.636058,-76.609550
59246.167570,1776.494261,-8364.327145,1532.190996
59246.167880,5551.544565,-10066.800811,6052.154434
59246.168190,3552.988522,-8956.491898,3677.258390
59246.168500,0.000000,-7772.162391,1838.629195
59246.168810,0.000000,-8512.368333,2221.676944
59246.169119,-518.144159,-7772.162391,1762.019645
59246.169429,-1406.391290,-7328.038826,995.924147
59246.169739,-666.185348,-9474.636058,-76.609550
59246.170049,-74.020594,-9474.636058,-76.609550
59246.170359,-74.020594,-7994.224174,-2528.115143
59246.170669,-2368.659014,-9548.656652,0.000000
59246.170978,-74.020594,-13027.624579,-76.609550
59246.171288,-4737.318029,-9548.656652,-2451.505594
59246.171598,-2886.803174,-10881.027347,-842.705048
59246.171908,-2368.659014,-10066.800811,0.000000
59246.172218,-888.247130,-8290.306550,1378.971896
59246.172527,962.267725,-6217.729913,2145.067394
59246.172837,3034.844362,-7031.956449,5439.278036
59246.173147,5551.544565,-8068.244768,4903.011187
59246.173457,4663.297435,-7698.141797,2374.896044
59246.173767,0.000000,-7179.997637,1225.752797
59246.174076,1998.556043,-11547.212695,2068.457845
59246.174386,-4737.318029,-9548.656652,-3677.258390
59246.174696,-4959.379811,-13027.624579,-3140.991542
59246.175006,-6661.853478,-12361.439231,-2451.505594
59246.175316,-5255.462188,-10881.027347,-1225.752797
59246.175625,-2960.823768,-8438.347739,0.000000
59246.175935,-1184.329507,-6587.832884,3064.381992
59246.176245,2368.659014,-7179.997637,2451.505594
59246.176555,6143.709319,-8290.306550,6665.030833
59246.176865,3775.050304,-4367.215058,3294.210641
59246.177174,5033.400406,-7402.059420,6052.154434
59246.177484,2294.638420,-7402.059420,383.047749
59246.177794,-74.020594,-11251.130318,-76.609550
59246.178104,-3627.009116,-11695.253884,-2068.457845
59246.178414,-5255.462188,-11547.212695,-3217.601092
59246.178723,-4885.359217,-11251.130318,-3370.820191
59246.179033,-4737.318029,-8364.327145,-3677.258390
59246.179343,0.000000,-7179.997637,-2451.505594
59246.179653,1776.494261,-9548.656652,2451.505594
59246.179963,6439.791695,-9474.636058,3600.648841
59246.180273,3552.988522,-7772.162391,1225.752797
59246.180582,5847.626942,-9474.636058,4826.401637
59246.180892,3182.885551,-10658.965565,3907.087040
59246.181202,-74.020594,-8586.388927,1762.019645
59246.181512,-1184.329507,-7920.203579,1378.971896
59246.181822,-1776.494261,-7179.997637,0.000000
59246.182131,-4737.318029,-6587.832884,-3064.381992
59246.182441,-4441.235652,-7179.997637,-2834.553343
59246.182751,-3552.988522,-9548.656652,0.000000
59246.183061,1702.473667,-12139.377449,1685.410096
59246.183371,-888.247130,-10732.986159,-2145.067394
59246.183680,-74.020594,-13027.624579,2374.896044
59246.183990,-1480.411884,-11177.109724,1532.190996
59246.184300,-1332.370696,-9770.718434,842.705048
59246.184610,-740.205942,-7698.141797,1608.800546
59246.184920,518.144159,-5847.626942,2068.457845
59246.185229,1110.308913,-3330.926739,1455.581446
59246.185539,666.185348,-4737.318029,1149.143247
59246.185849,296.082377,-5995.668130,1532.190996
59246.186159,4071.132681,-10658.965565,2374.896044
59246.186469,-1998.556043,-10140.821405,0.000000
59246.186778,-1850.514855,-14211.954086,-76.609550
59246.187088,-6809.894666,-13101.645173,-2145.067394
59246.187398,-5995.668130,-12435.459826,-2221.676944
59246.187708,-4663.297435,-10362.883188,-995.924147
59246.188018,-2516.700203,-7920.203579,766.095498
59246.188328,-74.020594,-5921.647536,2374.896044
59246.188637,2294.638420,-7105.977043,4826.401637
59246.188947,2590.720797,-3701.029710,2987.772442
59246.189257,4737.318029,-6587.832884,5515.887586
59246.189567,4663.297435,-7105.977043,3600.648841
59246.189877,1332.370696,-8364.327145,2451.505594
59246.190186,-2960.823768,-9548.656652,0.000000
59246.190496,-3627.009116,-11917.315666,-1072.533697
59246.190806,-4811.338623,-11325.150913,-3140.991542
59246.191116,-4737.318029,-11029.068536,-2604.724693
59246.191426,-1258.350101,-11843.295072,-76.609550
59246.191735,3478.967927,-11843.295072,2374.896044
59246.192045,4663.297435,-9474.636058,2068.457845
59246.192355,3775.050304,-8512.368333,2451.505594
59246.192665,5847.626942,-10658.965565,4826.401637
59246.192975,1776.494261,-7772.162391,3064.381992
59246.193284,1702.473667,-8290.306550,2374.896044
59246.193594,-592.164754,-8586.388927,919.314598
59246.193904,-1998.556043,-7550.100608,536.266849
59246.194214,-2590.720797,-7698.141797,-383.047749
59246.194524,-74.020594,-9474.636058,-76.609550
59246.194833,888.247130,-9992.780217,1378.971896
59246.195143,-74.020594,-11251.130318,-76.609550
59246.195453,0.000000,-9548.656652,0.000000
59246.195763,-74.020594,-14211.954086,2987.772442
59246.196073,-3552.988522,-8512.368333,0.000000
59246.196382,-1850.514855,-11547.212695,-689.485948
59246.196692,-1776.494261,-8956.491898,383.047749
59246.197002,-518.144159,-7550.100608,1608.800546
59246.197312,740.205942,-5773.606348,2068.457845
59246.197622,2368.659014,-6143.709319,3677.258390
59246.197932,1184.329507,-5403.503377,2451.505594
59246.198241,4663.297435,-9474.636058,2374.896044
59246.198551,0.000000,-8364.327145,0.000000
59246.198861,-74.020594,-13693.809927,2681.334243
59246.199171,-4515.256246,-11325.150913,-3370.820191
59246.199481,-5699.585753,-12435.459826,-2681.334243
59246.199790,-5329.482782,-11695.253884,-1532.190996
59246.200100,-3923.091493,-9104.533087,-383.047749
59246.200410,-1776.494261,-6883.915261,1762.019645
59246.200720,1480.411884,-6587.832884,3064.381992
59246.201030,2368.659014,-4811.338623,4903.011187
59246.201339,4367.215058,-7105.977043,5362.668486
59246.201649,3775.050304,-6069.688724,2528.115143
59246.201959,3182.885551,-10658.965565,4826.401637
59246.202269,-1702.473667,-7179.997637,0.000000
59246.202579,-3182.885551,-9770.718434,-2834.553343
59246.202888,-4737.318029,-11917.315666,-2451.505594
59246.203198,-5033.400406,-11547.212695,-2681.334243
59246.203508,-4367.215058,-10436.903782,-2528.115143
59246.203818,-666.185348,-10881.027347,-229.828649
59246.204128,1184.329507,-9548.656652,2451.505594
59246.204438,5551.544565,-10658.965565,4213.525239
59246.204747,5255.462188,-8142.265362,3294.210641
59246.205057,4737.318029,-8364.327145,5515.887586
59246.205367,3775.050304,-8882.471304,3907.087040
59246.205677,1998.556043,-9474.636058,1762.019645
59246.205987,-74.020594,-9178.553681,1762.019645
59246.206296,-2072.576638,-7402.059420,-76.609550
59246.206606,-3034.844362,-8882.471304,-306.438199
59246.206916,-3552.988522,-8364.327145,0.000000
59246.207226,-1184.329507,-9548.656652,0.000000
59246.207536,2516.700203,-12435.459826,2374.896044
59246.207845,1702.473667,-11843.295072,-76.609550
59246.208155,0.000000,-9548.656652,0.000000
59246.208465,-74.020594,-10066.800811,-76.609550
59246.208775,-74.020594,-10955.047942,1762.019645
59246.209085,-1332.370696,-8364.327145,1225.752797
59246.209395,-444.123565,-6957.935855,1455.581446
59246.209704,518.144159,-5699.585753,1762.019645
59246.210014,0.000000,-3627.009116,612.876398
59246.210324,0.000000,-4811.338623,0.000000
59246.210634,4293.194464,-10658.965565,3600.648841
59246.210944,-74.020594,-9474.636058,-689.485948
59246.211253,-2368.659014,-12509.480420,1225.752797
59246.211563,-2442.679609,-14211.954086,-1302.362347
59246.211873,-4811.338623,-13619.789333,-842.705048
59246.212183,-4811.338623,-11103.089130,-842.705048
59246.212493,-3256.906145,-8438.347739,766.095498
59246.212803,-1480.411884,-6365.771101,1838.629195
59246.213112,0.000000,-2738.761985,1915.238745
59246.213422,0.000000,-2516.700203,3294.210641
59246.213732,2368.659014,-4811.338623,4903.011187
59246.214042,5847.626942,-8290.306550,4826.401637
59246.214352,592.164754,-7179.997637,1225.752797
59246.214661,-74.020594,-13027.624579,-76.609550
59246.214971,-3552.988522,-11917.315666,-1225.752797
59246.215281,-5107.421000,-12287.418637,-3140.991542
59246.215591,-4885.359217,-11769.274478,-2987.772442
59246.215901,-4367.215058,-9992.780217,-2451.505594
59246.216210,-1554.432478,-8142.265362,-1915.238745
59246.216520,296.082377,-8290.306550,1762.019645
59246.216830,2368.659014,-6587.832884,1455.581446
59246.217140,5921.647536,-8808.450710,4903.011187
59246.217450,5255.462188,-7179.997637,1762.019645
59246.217760,3997.112087,-11103.089130,5286.058936
59246.218069,0.000000,-8956.491898,1991.848295
59246.218379,-1036.288319,-9622.677246,766.095498
59246.218689,-2220.617826,-8660.409521,-153.219100
59246.218999,-3701.029710,-9030.512492,-995.924147
59246.219309,-1258.350101,-9474.636058,-1302.362347
59246.219618,-74.020594,-11843.295072,-76.609550
59246.219928,-1406.391290,-8438.347739,-1149.143247
59246.220238,0.000000,-10140.821405,612.876398
59246.220548,1998.556043,-14211.954086,4213.525239
59246.220858,0.000000,-9548.656652,2145.067394
59246.221168,-2294.638420,-8068.244768,306.438199
59246.221477,-296.082377,-8512.368333,1608.800546
59246.221787,222.061783,-7031.956449,2298.286494
59246.222097,814.226536,-5773.606348,1762.019645
59246.222407,4071.132681,-8290.306550,2987.772442
59246.222717,4663.297435,-9474.636058,3600.648841
59246.223026,1110.308913,-8882.471304,-76.609550
59246.223336,0.000000,-10732.986159,306.438199
59246.223646,-666.185348,-15396.283594,-76.609550
59246.223956,-6513.812290,-11917.315666,-2145.067394
59246.224266,-6069.688724,-11473.192101,-2451.505594
59246.224575,-4663.297435,-10140.821405,-766.095498
59246.224885,-2294.638420,-7476.080014,919.314598
59246.225195,-740.205942,-5477.523971,2757.943793
59246.225505,3330.926739,-5921.647536,4596.572988
59246.225815,4737.318029,-5995.668130,5822.325785
59246.226125,4663.297435,-5921.647536,3600.648841
59246.226434,2368.659014,-5995.668130,2451.505594
59246.226744,2294.638420,-9474.636058,-76.609550
59246.227054,-4737.318029,-9548.656652,-2451.505594
59246.227364,-4219.173869,-12731.542202,-2834.553343
59246.227674,-5329.482782,-12805.562797,-2604.724693
59246.227983,-5107.421000,-11473.192101,-2987.772442
59246.228293,-3478.967927,-9622.677246,-2145.067394
59246.228603,-444.123565,-8956.491898,1225.752797
59246.228913,296.082377,-7179.997637,1225.752797
59246.229223,6069.688724,-9252.574275,5132.839837
59246.229533,6439.791695,-8290.306550,4213.525239
59246.229842,0.000000,-5995.668130,1225.752797
59246.230152,1480.411884,-7772.162391,919.314598
59246.230462,814.226536,-9474.636058,1762.019645
59246.230772,-1406.391290,-8660.409521,612.876398
59246.231082,-2738.761985,-8882.471304,-536.266849
59246.231391,-3701.029710,-9400.615463,-1378.971896
59246.231701,-4737.318029,-8364.327145,-2451.505594
59246.232011,-4737.318029,-8364.327145,0.000000
59246.232321,0.000000,-11325.150913,1838.629195
59246.232631,1702.473667,-11843.295072,2068.457845
59246.232940,0.000000,-7179.997637,0.000000
59246.233250,-74.020594,-9474.636058,1149.143247
59246.233560,814.226536,-9326.594869,2068.457845
59246.233870,-370.102971,-7254.018232,1915.238745
59246.234180,0.000000,-5847.626942,1608.800546
59246.234490,888.247130,-5773.606348,1532.190996
59246.234799,0.000000,-4811.338623,0.000000
59246.235109,370.102971,-6291.750507,0.000000
59246.235419,1184.329507,-10140.821405,1838.629195
59246.235729,1702.473667,-11843.295072,-76.609550
59246.236039,-4737.318029,-10732.986159,0.000000
59246.236348,-2442.679609,-14211.954086,-689.485948
59246.236658,-4811.338623,-13027.624579,-995.924147
59246.236968,-4293.194464,-10362.883188,-229.828649
59246.237278,-2220.617826,-7402.059420,1302.362347
59246.237588,148.041188,-5847.626942,2987.772442
59246.237898,1036.288319,-3330.926739,2987.772442
59246.238207,4071.132681,-4737.318029,3600.648841
59246.238517,2368.659014,-4811.338623,2757.943793
59246.238827,4663.297435,-8734.430116,3907.087040
59246.239137,0.000000,-7179.997637,0.000000
59246.239447,-74.020594,-14211.954086,-76.609550
59246.239756,-4737.318029,-12731.542202,-2451.505594
59246.240066,-5107.421000,-12805.562797,-3600.648841
59246.240376,-5329.482782,-11473.192101,-3140.991542
59246.240686,-3256.906145,-9474.636058,-1838.629195
59246.240996,-74.020594,-8290.306550,-76.609550
59246.241306,4663.297435,-8290.306550,2374.896044
59246.241615,3256.906145,-5995.668130,2451.505594
59246.241925,6661.853478,-8364.327145,6971.469032
59246.242235,5847.626942,-7698.141797,2987.772442
59246.242545,2368.659014,-10140.821405,4213.525239
59246.242855,-1184.329507,-8660.409521,1225.752797
59246.243164,-1776.494261,-9178.553681,229.828649
59246.243474,-3182.885551,-9474.636058,-919.314598
59246.243784,-4145.153275,-9400.615463,-1991.848295
59246.244094,-1258.350101,-11843.295072,-995.924147
59246.244404,-74.020594,-13027.624579,-76.609550
59246.244713,-74.020594,-10066.800811,-383.047749
59246.245023,0.000000,-9844.739029,2451.505594
59246.245333,3478.967927,-11843.295072,2374.896044
59246.245643,0.000000,-8808.450710,3370.820191
59246.245953,0.000000,-7179.997637,1225.752797
59246.246263,0.000000,-7476.080014,2451.505594
59246.246572,370.102971,-5921.647536,1991.848295
59246.246882,1036.288319,-6069.688724,1608.800546
59246.247192,2886.803174,-8882.471304,1532.190996
59246.247502,4071.132681,-11547.212695,2374.896044
59246.247812,-74.020594,-9770.718434,-1302.362347
59246.248121,-2220.617826,-11917.315666,0.000000
59246.248431,-666.185348,-15396.283594,-689.485948
59246.248741,-7105.977043,-11917.315666,0.000000
59246.249051,-5329.482782,-11029.068536,-1532.190996
59246.249361,-3182.885551,-9030.512492,306.438199
59246.249671,-740.205942,-6587.832884,1915.238745
59246.249980,1184.329507,-4663.297435,3830.477490
59246.250290,3552.988522,-4663.297435,4903.011187
59246.250600,5625.565159,-6661.853478,6511.811733
59246.250910,3034.844362,-5255.462188,2374.896044
59246.251220,2368.659014,-8956.491898,4213.525239
59246.251529,-74.020594,-9474.636058,-1302.362347
59246.251839,-6513.812290,-9548.656652,-3064.381992
59246.252149,-5551.544565,-13619.789333,-3447.429741
59246.252459,-6217.729913,-12583.501014,-3370.820191
59246.252769,-5255.462188,-10584.944971,-3294.210641
59246.253078,-2442.679609,-8808.450710,-1225.752797
59246.253388,0.000000,-7179.997637,1225.752797
59246.253698,2368.659014,-5995.668130,2451.505594
59246.254008,7698.141797,-8438.347739,6358.592633
59246.254318,6439.791695,-6587.832884,1991.848295
59246.254628,3552.988522,-8364.327145,4903.011187
59246.254937,222.061783,-8142.265362,306.438199
59246.255247,-74.020594,-10362.883188,842.705048
59246.255557,-3404.947333,-9844.739029,-229.828649
59246.255867,-4959.379811,-9770.718434,-2221.676944
59246.256177,-4885.359217,-9918.759623,-2451.505594
59246.256486,-4145.153275,-8660.409521,-1838.629195
59246.256796,-2368.659014,-8364.327145,-1225.752797
59246.257106,296.082377,-9696.697840,1225.752797
59246.257416,2886.803174,-10658.965565,2374.896044
59246.257726,0.000000,-7772.162391,612.876398
59246.258036,1110.308913,-8142.265362,842.705048
59246.258345,296.082377,-8808.450710,2145.067394
59246.258655,-74.020594,-7402.059420,1915.238745
59246.258965,444.123565,-6217.729913,1762.019645
59246.259275,814.226536,-6883.915261,1455.581446
59246.259585,0.000000,-7105.977043,536.266849
59246.259894,0.000000,-7179.997637,0.000000
59246.260204,0.000000,-10732.986159,0.000000
59246.260514,-74.020594,-14211.954086,-76.609550
59246.260824,-5773.606348,-11029.068536,-3370.820191
59246.261134,-4219.173869,-13619.789333,-1302.362347
59246.261443,-5329.482782,-11325.150913,-919.314598
59246.261753,-3034.844362,-8512.368333,459.657299
59246.262063,-740.205942,-6661.853478,2451.505594
59246.262373,1036.288319,-4663.297435,4213.525239
59246.262683,3478.967927,-4145.153275,4826.401637
59246.262993,4071.132681,-4441.235652,3600.648841
59246.263302,2368.659014,-6291.750507,3677.258390
59246.263612,3182.885551,-7994.224174,-76.609550
59246.263922,-296.082377,-11399.171507,1225.752797
59246.264232,-1258.350101,-13027.624579,-689.485948
59246.264542,-5921.647536,-12509.480420,-2911.162892
59246.264851,-6069.688724,-11991.336260,-3217.601092
59246.265161,-4811.338623,-10288.862594,-2681.334243
59246.265471,-2516.700203,-8956.491898,-995.924147
59246.265781,2886.803174,-8290.306550,2374.896044
59246.266091,4367.215058,-7105.977043,2374.896044
59246.266401,3849.070898,-5995.668130,3370.820191
59246.266710,7031.956449,-11251.130318,7277.907231
59246.267020,3775.050304,-7402.059420,2374.896044
59246.267330,2812.782580,-10658.965565,3600.648841
59246.267640,-1776.494261,-9252.574275,76.609550
59246.267950,-3108.864956,-9844.739029,-306.438199
59246.268259,-3997.112087,-9696.697840,-1532.190996
59246.268569,-4219.173869,-9622.677246,-2145.067394
59246.268879,-814.226536,-10658.965565,-76.609550
59246.269189,-74.020594,-11251.130318,-76.609550
59246.269499,740.205942,-9548.656652,383.047749
59246.269808,2368.659014,-11325.150913,4290.134789
59246.270118,2294.638420,-9474.636058,1762.019645
59246.270428,592.164754,-9770.718434,2757.943793
59246.270738,-222.061783,-7994.224174,1455.581446
59246.271048,0.000000,-7254.018232,2068.457845
59246.271358,444.123565,-6587.832884,1302.362347
59246.271667,592.164754,-6069.688724,919.314598
59246.271977,592.164754,-7179.997637,0.000000
59246.272287,2294.638420,-10362.883188,1302.362347
59246.272597,1110.308913,-10955.047942,-76.609550
59246.272907,-4737.318029,-10140.821405,0.000000
59246.273216,-1406.391290,-14211.954086,-76.609550
59246.273526,-6513.812290,-12509.480420,-1225.752797
59246.273836,-4367.215058,-10955.047942,-459.657299
59246.274146,-2960.823768,-8068.244768,459.657299
59246.274456,-518.144159,-6365.771101,2298.286494
59246.274766,1480.411884,-4737.318029,3983.696590
59246.275075,2368.659014,-3627.009116,2451.505594
59246.275385,3701.029710,-6143.709319,5056.230287
59246.275695,4515.256246,-7105.977043,3294.210641
59246.276005,1850.514855,-10140.821405,3217.601092
59246.276315,-1258.350101,-10658.965565,-1302.362347
59246.276624,-6217.729913,-10436.903782,-2451.505594
59246.276934,-5699.585753,-13323.706956,-2911.162892
59246.277244,-6217.729913,-11547.212695,-3370.820191
59246.277554,-4293.194464,-9992.780217,-2221.676944
59246.277864,-1332.370696,-8660.409521,-229.828649
59246.278174,888.247130,-6069.688724,0.000000
59246.278483,2960.823768,-6587.832884,3677.258390
59246.278793,7624.121203,-8586.388927,6665.030833
59246.279103,2368.659014,-5995.668130,2451.505594
59246.279413,3849.070898,-9844.739029,4596.572988
59246.279723,0.000000,-8734.430116,1532.190996
59246.280032,-1554.432478,-10362.883188,459.657299
59246.280342,-3552.988522,-9400.615463,-842.705048
59246.280652,-4885.359217,-9252.574275,-1838.629195
59246.280962,-4441.235652,-9104.533087,-2068.457845
59246.281272,-2072.576638,-7698.141797,-1302.362347
59246.281581,0.000000,-9548.656652,0.000000
59246.281891,1480.411884,-10288.862594,2451.505594
59246.282201,3478.967927,-10658.965565,2374.896044
59246.282511,0.000000,-7179.997637,612.876398
59246.282821,0.000000,-7920.203579,0.000000
59246.283131,0.000000,-8808.450710,2068.457845
59246.283440,148.041188,-6883.915261,1685.410096
59246.283750,148.041188,-6883.915261,1225.752797
59246.284060,444.123565,-6587.832884,1302.362347
59246.284370,1110.308913,-8290.306550,2374.896044
59246.284680,518.144159,-8512.368333,-612.876398
59246.284989,0.000000,-10140.821405,0.000000
59246.285299,-74.020594,-14211.954086,-76.609550
59246.285609,-5625.565159,-11917.315666,-2451.505594
59246.285919,-3627.009116,-12879.583391,-2451.505594
59246.286229,-3552.988522,-10584.944971,0.000000
59246.286539,-1628.453072,-8734.430116,1685.410096
59246.286848,-74.020594,-6291.750507,2681.334243
59246.287158,1406.391290,-4811.338623,4826.401637
59246.287468,4515.256246,-5921.647536,4826.401637
59246.287778,2738.761985,-4737.318029,2374.896044
59246.288088,2368.659014,-7179.997637,3064.381992
59246.288397,1110.308913,-8882.471304,-689.485948
59246.288707,-4737.318029,-9548.656652,-1838.629195
59246.289017,-3775.050304,-13027.624579,-2528.115143
59246.289327,-6809.894666,-12213.398043,-3370.820191
59246.289637,-5477.523971,-10732.986159,-2987.772442
59246.289946,-3108.864956,-9326.594869,-1685.410096
59246.290256,-518.144159,-7920.203579,919.314598
59246.290566,4367.215058,-8512.368333,4136.915689
59246.290876,6439.791695,-7994.224174,4826.401637
59246.291186,4885.359217,-5995.668130,2451.505594
59246.291496,7920.203579,-10658.965565,6052.154434
59246.291805,666.185348,-7772.162391,842.705048
59246.292115,666.185348,-10362.883188,2374.896044
59246.292425,-3330.926739,-10214.842000,-995.924147
59246.292735,-4737.318029,-9696.697840,-1455.581446
59246.293045,-5847.626942,-9844.739029,-2681.334243
59246.293354,-4219.173869,-9548.656652,-3064.381992
59246.293664,-1184.329507,-8956.491898,612.876398
59246.293974,2294.638420,-10658.965565,1762.019645
59246.294284,2294.638420,-8586.388927,1149.143247
59246.294594,1184.329507,-8364.327145,3064.381992
59246.294904,4663.297435,-9474.636058,4519.963438
59246.295213,1480.411884,-9474.636058,3600.648841
59246.295523,-296.082377,-8364.327145,1762.019645
59246.295833,-814.226536,-7772.162391,1149.143247
59246.296143,-370.102971,-7624.121203,306.438199
59246.296453,-592.164754,-7772.162391,0.000000
59246.296762,0.000000,-7179.997637,0.000000
59246.297072,2294.638420,-10658.965565,1608.800546
59246.297382,1702.473667,-13027.624579,-76.609550
59246.297692,-4145.153275,-9548.656652,0.000000
59246.298002,-2442.679609,-14063.912898,-76.609550
59246.298311,-4441.235652,-12879.583391,995.924147
59246.298621,-2738.761985,-10140.821405,612.876398
59246.298931,-1406.391290,-7179.997637,2145.067394
59246.299241,74.020594,-5255.462188,3370.820191
59246.299551,1924.535449,-2442.679609,2068.457845
59246.299861,1184.329507,-2442.679609,1225.752797
59246.300170,3701.029710,-6587.832884,4290.134789
59246.300480,3923.091493,-9474.636058,3600.648841
59246.300790,-2368.659014,-9548.656652,0.000000
59246.301100,-2442.679609,-13027.624579,-76.609550
59246.301410,-7105.977043,-12509.480420,-2451.505594
59246.301719,-5995.668130,-13323.706956,-2834.553343
59246.302029,-5255.462188,-11251.130318,-2528.115143
59246.302339,-2886.803174,-8882.471304,-1532.190996
59246.302649,592.164754,-7105.977043,842.705048
59246.302959,3330.926739,-4515.256246,689.485948
59246.303269,4737.318029,-5403.503377,4903.011187
59246.303578,9400.615463,-9474.636058,8503.660028
59246.303888,2368.659014,-5995.668130,2451.505594
59246.304198,2368.659014,-10436.903782,4443.353888
59246.304508,-1480.411884,-9548.656652,0.000000
59246.304818,-3701.029710,-12065.356855,-306.438199
59246.305127,-5403.503377,-10362.883188,-2221.676944
59246.305437,-6513.812290,-9844.739029,-2987.772442
59246.305747,-3330.926739,-10658.965565,-1302.362347
59246.306057,-370.102971,-9474.636058,-1991.848295
59246.306367,0.000000,-7179.997637,0.000000
59246.306676,4515.256246,-10362.883188,3983.696590
59246.306986,3478.967927,-6809.894666,1149.143247
59246.307296,1776.494261,-7772.162391,3677.258390
59246.307606,518.144159,-7031.956449,1149.143247
59246.307916,-740.205942,-7328.038826,1302.362347
59246.308226,-444.123565,-7179.997637,383.047749
59246.308535,-1258.350101,-7920.203579,0.000000
59246.308845,-74.020594,-9474.636058,1455.581446
59246.309155,1702.473667,-11843.295072,-76.609550
59246.309465,1110.308913,-11251.130318,-229.828649
59246.309775,-2294.638420,-9548.656652,-2451.505594
59246.310084,-1184.329507,-13101.645173,1225.752797
59246.310394,-1850.514855,-12213.398043,-2681.334243
59246.310704,-3034.844362,-10955.047942,-229.828649
59246.311014,-1924.535449,-9252.574275,1225.752797
59246.311324,-370.102971,-7105.977043,2834.553343
59246.311634,666.185348,-4885.359217,3294.210641
59246.311943,2368.659014,-3923.091493,4903.011187
59246.312253,4367.215058,-7031.956449,6205.373534
59246.312563,4071.132681,-7105.977043,3294.210641
59246.312873,0.000000,-7179.997637,0.000000
59246.313183,-74.020594,-13027.624579,-76.609550
59246.313492,-4959.379811,-10140.821405,-4213.525239
59246.313802,-4811.338623,-14211.954086,-2528.115143
59246.314112,-6069.688724,-12213.398043,-3217.601092
59246.314422,-4367.215058,-10807.006753,-2298.286494
59246.314732,-1850.514855,-8068.244768,-919.314598
59246.315041,592.164754,-5995.668130,612.876398
59246.315351,4737.318029,-5995.668130,5515.887586
59246.315661,7920.203579,-7105.977043,7277.907231
59246.315971,3552.988522,-4811.338623,2451.505594
59246.316281,6439.791695,-10510.924376,5745.716235
59246.316591,0.000000,-7179.997637,0.000000
59246.316900,-74.020594,-12435.459826,1149.143247
59246.317210,-3997.112087,-10955.047942,-1302.362347
59246.317520,-5699.585753,-10288.862594,-2834.553343
59246.317830,-5033.400406,-9474.636058,-2834.553343
59246.318140,-4441.235652,-8364.327145,-4290.134789
59246.318449,0.000000,-7179.997637,0.000000
59246.318759,3330.926739,-10362.883188,3064.381992
59246.319069,5847.626942,-11843.295072,4826.401637
59246.319379,296.082377,-7179.997637,1838.629195
59246.319689,3478.967927,-10658.965565,4213.525239
59246.319999,740.205942,-9178.553681,3064.381992
59246.320308,-148.041188,-7772.162391,1378.971896
59246.320618,-740.205942,-7698.141797,229.828649
59246.320928,-740.205942,-7698.141797,0.000000
59246.321238,-2146.597232,-6661.853478,-2221.676944
59246.321548,0.000000,-6587.832884,-2451.505594
59246.321857,1184.329507,-11029.068536,0.000000
59246.322167,3478.967927,-14211.954086,-76.609550
59246.322477,-3552.988522,-11325.150913,0.000000
59246.322787,-2442.679609,-15396.283594,-76.609550
59246.323097,-4589.276840,-11029.068536,0.000000
59246.323406,-2442.679609,-9252.574275,1072.533697
59246.323716,-1480.411884,-6809.894666,2068.457845
59246.324026,148.041188,-4811.338623,3140.991542
59246.324336,2294.638420,-3849.070898,3600.648841
59246.324646,1406.391290,-2812.782580,1915.238745
59246.324956,1776.494261,-5995.668130,1225.752797
59246.325265,4367.215058,-11843.295072,3294.210641
59246.325575,-2886.803174,-8956.491898,-1838.629195
59246.325885,-2738.761985,-13693.809927,-76.609550
59246.326195,-7105.977043,-12065.356855,-3064.381992
59246.326505,-5773.606348,-12435.459826,-2681.334243
59246.326814,-4367.215058,-10362.883188,-2374.896044
59246.327124,-1924.535449,-8216.285956,-383.047749
59246.327434,2886.803174,-7698.141797,1762.019645
59246.327744,4663.297435,-5625.565159,2374.896044
59246.328054,4737.318029,-5403.503377,1838.629195
59246.328364,8586.388927,-9474.636058,7277.907231
59246.328673,3182.885551,-8216.285956,2221.676944
59246.328983,0.000000,-9548.656652,2451.505594
59246.329293,-3404.947333,-9548.656652,0.000000
59246.329603,-3108.864956,-10288.862594,-306.438199
59246.329913,-4737.318029,-9770.718434,-1838.629195
59246.330222,-4959.379811,-8882.471304,-2374.896044
59246.330532,-1258.350101,-11843.295072,-76.609550
59246.330842,-74.020594,-10658.965565,-76.609550
59246.331152,814.226536,-9474.636058,-76.609550
59246.331462,0.000000,-7179.997637,306.438199
59246.331771,3478.967927,-10362.883188,4519.963438
59246.332081,0.000000,-6587.832884,0.000000
59246.332391,74.020594,-7624.121203,1225.752797
59246.332701,-296.082377,-7476.080014,1378.971896
59246.333011,-296.082377,-7402.059420,919.314598
59246.333321,-666.185348,-7402.059420,0.000000
59246.333630,1332.370696,-9104.533087,1838.629195
59246.333940,3478.967927,-12435.459826,2221.676944
59246.334250,2294.638420,-11843.295072,-76.609550
59246.334560,-2072.576638,-9548.656652,-1838.629195
59246.334870,-666.185348,-13915.871710,995.924147
59246.335179,-5329.482782,-10732.986159,-3370.820191
59246.335489,-2442.679609,-10955.047942,-383.047749
59246.335799,-2368.659014,-8882.471304,995.924147
59246.336109,-222.061783,-6883.915261,2757.943793
59246.336419,1332.370696,-5107.421000,3524.039291
59246.336728,2368.659014,-4811.338623,5209.449386
59246.337038,4589.276840,-6883.915261,5822.325785
59246.337348,4663.297435,-7698.141797,3600.648841
59246.337658,0.000000,-7179.997637,0.000000
59246.337968,-74.020594,-11843.295072,-76.609550
59246.338278,-6439.791695,-10807.006753,-3907.087040
59246.338587,-4811.338623,-14211.954086,-2221.676944
59246.338897,-6365.771101,-11917.315666,-3447.429741
59246.339207,-4515.256246,-9548.656652,-2451.505594
59246.339517,-1776.494261,-8068.244768,-229.828649
59246.339827,0.000000,-4811.338623,612.876398
59246.340136,4737.318029,-6587.832884,4903.011187
59246.340446,7031.956449,-9474.636058,7277.907231
59246.340756,2960.823768,-5107.421000,2451.505594
59246.341066,4663.297435,-10955.047942,4673.182538
59246.341376,518.144159,-9474.636058,-76.609550
59246.341686,-1480.411884,-11843.295072,1072.533697
59246.341995,-4145.153275,-10658.965565,-612.876398
59246.342305,-4811.338623,-9918.759623,-1915.238745
59246.342615,-4515.256246,-9770.718434,-1608.800546
59246.342925,-3997.112087,-7179.997637,-2451.505594
59246.343235,0.000000,-8364.327145,0.000000
59246.343544,2368.659014,-9548.656652,3983.696590
59246.343854,4071.132681,-9178.553681,2374.896044
59246.344164,1184.329507,-8660.409521,2451.505594
59246.344474,2294.638420,-11251.130318,3600.648841
59246.344784,0.000000,-9252.574275,2145.067394
59246.345093,-962.267725,-8438.347739,995.924147
59246.345403,-888.247130,-7772.162391,153.219100
59246.345713,-592.164754,-7254.018232,-229.828649
59246.346023,-518.144159,-6587.832884,-2451.505594
59246.346333,0.000000,-7179.997637,0.000000
59246.346643,1184.329507,-11325.150913,2451.505594
59246.346952,2294.638420,-12435.459826,-76.609550
59246.347262,-3552.988522,-11917.315666,0.000000
59246.347572,-666.185348,-14211.954086,2374.896044
59246.347882,-3552.988522,-10732.986159,0.000000
59246.348192,-1406.391290,-8512.368333,1532.190996
59246.348501,222.061783,-6661.853478,2987.772442
59246.348811,962.267725,-4737.318029,3217.601092
59246.349121,3478.967927,-4145.153275,3294.210641
59246.349431,2294.638420,-4441.235652,2374.896044
59246.349741,0.000000,-5995.668130,1225.752797
59246.350051,2294.638420,-11843.295072,2374.896044
59246.350360,-3849.070898,-10140.821405,-1532.190996
59246.350670,-3256.906145,-14434.015869,-76.609550
59246.350980,-7105.977043,-11917.315666,-3294.210641
59246.351290,-4737.318029,-11177.109724,-2068.457845
59246.351600,-2960.823768,-9030.512492,-1072.533697
59246.351909,-740.205942,-7698.141797,306.438199
59246.352219,4663.297435,-7698.141797,2987.772442
59246.352529,5847.626942,-6513.812290,3600.648841
59246.352839,3627.009116,-4811.338623,2451.505594
59246.353149,5921.647536,-8364.327145,5056.230287
59246.353458,2294.638420,-8882.471304,1302.362347
59246.353768,-2368.659014,-9548.656652,612.876398
59246.354078,-4219.173869,-10436.903782,-1302.362347
59246.354388,-4737.318029,-10807.006753,-1532.190996
59246.354698,-5477.523971,-9844.739029,-2068.457845
59246.355008,-4071.132681,-9474.636058,-2221.676944
59246.355317,-74.020594,-10658.965565,-76.609550
59246.355627,2294.638420,-10658.965565,2374.896044
59246.355937,1702.473667,-7402.059420,229.828649
59246.356247,2368.659014,-9104.533087,3983.696590
59246.356557,2886.803174,-8290.306550,2374.896044
59246.356866,0.000000,-5403.503377,0.000000
59246.357176,-814.226536,-7846.182985,842.705048
59246.357486,-1332.370696,-7846.182985,229.828649
59246.357796,-814.226536,-7846.182985,76.609550
59246.358106,-666.185348,-8142.265362,-229.828649
59246.358416,666.185348,-10362.883188,2451.505594
59246.358725,3182.885551,-11843.295072,2298.286494
59246.359035,4663.297435,-13619.789333,-76.609550
59246.359345,-2368.659014,-10732.986159,0.000000
59246.359655,-1110.308913,-13619.789333,1149.143247
59246.359965,-4515.256246,-10436.903782,-3064.381992
59246.360274,-2146.597232,-11251.130318,-76.609550
59246.360584,-1406.391290,-7994.224174,1302.362347
59246.360894,0.000000,-5773.606348,2987.772442
59246.361204,1406.391290,-4293.194464,3370.820191
59246.361514,1184.329507,-4811.338623,4903.011187
59246.361823,4145.153275,-6735.874072,2451.505594
59246.362133,4663.297435,-10658.965565,4213.525239
59246.362443,-1554.432478,-8364.327145,-919.314598
59246.362753,-3552.988522,-11621.233289,919.314598
59246.363063,-4811.338623,-13027.624579,-4366.744339
59246.363373,-4811.338623,-13027.624579,-1915.238745
59246.363682,-4811.338623,-11177.109724,-1762.019645
59246.363992,-3330.926739,-8586.388927,-766.095498
59246.364302,-370.102971,-6735.874072,612.876398
59246.364612,1480.411884,-3627.009116,1225.752797
59246.364922,4737.318029,-4811.338623,2451.505594
59246.365231,8216.285956,-8586.388927,6894.859482
59246.365541,4663.297435,-7550.100608,2834.553343
59246.365851,2368.659014,-10584.944971,3217.601092
59246.366161,-74.020594,-11843.295072,-76.609550
59246.366471,-2664.741391,-12139.377449,-229.828649
59246.366781,-4959.379811,-10955.047942,-2298.286494
59246.367090,-5403.503377,-10584.944971,-2298.286494
59246.367400,-3775.050304,-9400.615463,-1608.800546
59246.367710,-3552.988522,-6587.832884,-2451.505594
59246.368020,0.000000,-5995.668130,0.000000
59246.368330,2368.659014,-8364.327145,3677.258390
59246.368639,4663.297435,-9474.636058,3600.648841
59246.368949,1184.329507,-7179.997637,1225.752797
59246.369259,3478.967927,-9474.636058,3600.648841
59246.369569,0.000000,-8364.327145,1302.362347
59246.369879,-666.185348,-8068.244768,306.438199
59246.370188,-1776.494261,-7920.203579,-612.876398
59246.370498,-1702.473667,-8364.327145,-1378.971896
59246.370808,-1258.350101,-7698.141797,-2221.676944
59246.371118,0.000000,-9474.636058,-1302.362347
59246.371428,0.000000,-9548.656652,-2298.286494
59246.371738,296.082377,-13101.645173,1532.190996
59246.372047,-2442.679609,-11103.089130,-3370.820191
59246.372357,-666.185348,-13619.789333,2068.457845
59246.372667,-2368.659014,-8956.491898,1225.752797
59246.372977,-518.144159,-7550.100608,2681.334243
59246.373287,444.123565,-4959.379811,3370.820191
59246.373596,1554.432478,-4219.173869,3677.258390
59246.373906,2886.803174,-4737.318029,2987.772442
59246.374216,2590.720797,-8290.306550,3600.648841
59246.374526,0.000000,-7179.997637,0.000000
59246.374836,-888.247130,-11325.150913,612.876398
59246.375145,-3627.009116,-12731.542202,-2528.115143
59246.375455,-6217.729913,-14285.974681,-1532.190996
59246.375765,-6513.812290,-11621.233289,-3064.381992
59246.376075,-4885.359217,-10658.965565,-1915.238745
59246.376385,-2220.617826,-8068.244768,-459.657299
59246.376695,814.226536,-6957.935855,1762.019645
59246.377004,5847.626942,-7105.977043,4826.401637
59246.377314,7031.956449,-9474.636058,7277.907231
59246.377624,5403.503377,-5107.421000,3294.210641
59246.377934,4737.318029,-9252.574275,4903.011187
59246.378244,1702.473667,-10066.800811,-76.609550
59246.378553,-4145.153275,-10140.821405,0.000000
59246.378863,-4737.318029,-10732.986159,-2145.067394
59246.379173,-5921.647536,-11103.089130,-2298.286494
59246.379483,-5477.523971,-9844.739029,-2451.505594
59246.379793,-3330.926739,-9326.594869,-1378.971896
59246.380103,1702.473667,-11695.253884,2374.896044
59246.380412,4663.297435,-11251.130318,4826.401637
59246.380722,4663.297435,-9474.636058,3600.648841
59246.381032,1184.329507,-6587.832884,2451.505594
59246.381342,3182.885551,-9474.636058,3600.648841
59246.381652,0.000000,-5403.503377,612.876398
59246.381961,-666.185348,-8142.265362,536.266849
59246.382271,-1406.391290,-8290.306550,-536.266849
59246.382581,-1554.432478,-8438.347739,-1072.533697
59246.382891,-1332.370696,-8586.388927,-995.924147
59246.383201,592.164754,-10732.986159,306.438199
59246.383510,1776.494261,-11325.150913,1225.752797
59246.383820,3478.967927,-13619.789333,-76.609550
59246.384130,-1184.329507,-11029.068536,0.000000
59246.384440,-814.226536,-14211.954086,2374.896044
59246.384750,-4145.153275,-8364.327145,-1532.190996
59246.385060,-370.102971,-8882.471304,2068.457845
59246.385369,-222.061783,-6513.812290,2681.334243
59246.385679,888.247130,-4589.276840,3600.648841
59246.385989,1776.494261,-4145.153275,3217.601092
59246.386299,2368.659014,-4811.338623,3064.381992
59246.386609,0.000000,-5995.668130,1225.752797
59246.386918,2294.638420,-11251.130318,2374.896044
59246.387228,-2442.679609,-10658.965565,-2068.457845
59246.387538,-7105.977043,-11917.315666,-2451.505594
59246.387848,-5403.503377,-13545.768739,-3753.867940
59246.388158,-5551.544565,-12435.459826,-2451.505594
59246.388468,-3627.009116,-9918.759623,-1378.971896
59246.388777,-1184.329507,-7698.141797,0.000000
59246.389087,1776.494261,-5773.606348,2374.896044
59246.389397,2664.741391,-4219.173869,2451.505594
59246.389707,2368.659014,-3627.009116,3064.381992
59246.390017,7920.203579,-8882.471304,6511.811733
59246.390326,3182.885551,-7846.182985,1762.019645
59246.390636,1406.391290,-13619.789333,2987.772442
59246.390946,-2442.679609,-11843.295072,-1302.362347
59246.391256,-5921.647536,-11621.233289,-2145.067394
59246.391566,-5995.668130,-11843.295072,-2221.676944
59246.391875,-4959.379811,-10066.800811,-2451.505594
59246.392185,-2738.761985,-9400.615463,-995.924147
59246.392495,-1110.308913,-7402.059420,0.000000
59246.392805,222.061783,-6587.832884,383.047749
59246.393115,2960.823768,-8364.327145,4903.011187
59246.393425,4367.215058,-8586.388927,3600.648841
59246.393734,0.000000,-5403.503377,0.000000
59246.394044,2886.803174,-9474.636058,3294.210641
59246.394354,-2072.576638,-7624.121203,0.000000
59246.394664,-1628.453072,-8364.327145,0.000000
59246.394974,-1924.535449,-8660.409521,-766.095498
59246.395283,-1406.391290,-8734.430116,-1225.752797
59246.395593,-74.020594,-9474.636058,-689.485948
59246.395903,2294.638420,-10658.965565,-383.047749
59246.396213,0.000000,-10140.821405,0.000000
59246.396523,296.082377,-12657.521608,2221.676944
59246.396833,-3034.844362,-9918.759623,-1302.362347
59246.397142,-592.164754,-11695.253884,2374.896044
59246.397452,-1924.535449,-7994.224174,995.924147
59246.397762,-592.164754,-6439.791695,2528.115143
59246.398072,444.123565,-5033.400406,2987.772442
59246.398382,1406.391290,-4737.318029,3140.991542
59246.398691,3478.967927,-7105.977043,4213.525239
59246.399001,4663.297435,-8882.471304,1762.019645
59246.399311,0.000000,-8660.409521,0.000000
59246.399621,-666.185348,-12435.459826,-76.609550
59246.399931,-7105.977043,-10732.986159,-3677.258390
59246.400240,-4737.318029,-14508.036463,-1225.752797
59246.400550,-4885.359217,-11325.150913,-2374.896044
59246.400860,-3108.864956,-9548.656652,-612.876398
59246.401170,-518.144159,-6957.935855,459.657299
59246.401480,2146.597232,-6291.750507,2451.505594
59246.401790,6735.874072,-7105.977043,5056.230287
59246.402099,9400.615463,-8882.471304,6665.030833
59246.402409,5255.462188,-6513.812290,3294.210641
59246.402719,2368.659014,-8956.491898,3677.258390
59246.403029,-1258.350101,-9178.553681,-1302.362347
59246.403339,-4737.318029,-11325.150913,0.000000
59246.403648,-5403.503377,-12435.459826,-2298.286494
59246.403958,-5921.647536,-11103.089130,-2987.772442
59246.404268,-4145.153275,-9992.780217,-1915.238745
59246.404578,-1998.556043,-8956.491898,-76.609550
59246.404888,1776.494261,-9474.636058,2451.505594
59246.405198,3552.988522,-9252.574275,4903.011187
59246.405508,4663.297435,-8290.306550,3600.648841
59246.405817,2368.659014,-6883.915261,3064.381992
59246.406127,4663.297435,-10658.965565,3600.648841
59246.406437,-666.185348,-7772.162391,306.438199
59246.406747,-2368.659014,-7179.997637,-2451.505594
59246.407057,-1554.432478,-8882.471304,-842.705048
59246.407367,-2664.741391,-8512.368333,-1762.019645
59246.407676,-1332.370696,-9104.533087,-1302.362347
59246.407986,2294.638420,-9474.636058,-76.609550
59246.408296,3478.967927,-13027.624579,-76.609550
59246.408606,814.226536,-9548.656652,0.000000
59246.408916,0.000000,-12065.356855,1532.190996
59246.409226,-1702.473667,-10066.800811,-1915.238745
59246.409536,-2368.659014,-10140.821405,2451.505594
59246.409845,-2294.638420,-8142.265362,766.095498
59246.410155,-296.082377,-6735.874072,2834.553343
59246.410465,222.061783,-4959.379811,2987.772442
59246.410775,1480.411884,-4811.338623,3370.820191
59246.411085,4663.297435,-8290.306550,4826.401637
59246.411395,4663.297435,-9474.636058,4826.401637
59246.411705,-666.185348,-8290.306550,-689.485948
59246.412014,-2960.823768,-10732.986159,0.000000
59246.412324,-4219.173869,-11843.295072,-3140.991542
59246.412634,-8290.306550,-10732.986159,-3677.258390
59246.412944,-5477.523971,-11547.212695,-2221.676944
59246.413254,-3552.988522,-8882.471304,-1072.533697
59246.413564,-592.164754,-7846.182985,229.828649
59246.413873,2294.638420,-6587.832884,2757.943793
59246.414183,6809.894666,-7476.080014,5515.887586
59246.414493,7772.162391,-9104.533087,8273.831378
59246.414803,7031.956449,-8882.471304,4213.525239
59246.415113,1184.329507,-8364.327145,2451.505594
59246.415423,-370.102971,-9474.636058,-689.485948
59246.415733,-6513.812290,-8364.327145,-2451.505594
59246.416042,-4219.173869,-11473.192101,-1302.362347
59246.416352,-5551.544565,-9622.677246,-2145.067394
59246.416662,-3849.070898,-9474.636058,-1608.800546
59246.416972,-1998.556043,-8216.285956,-612.876398
59246.417282,592.164754,-8956.491898,2451.505594
59246.417592,2368.659014,-8364.327145,3677.258390
59246.417902,4663.297435,-9474.636058,3600.648841
59246.418211,592.164754,-7179.997637,1838.629195
59246.418521,2294.638420,-11843.295072,4213.525239
59246.418831,-2146.597232,-7105.977043,0.000000
59246.419141,-962.267725,-9178.553681,536.266849
59246.419451,-2294.638420,-8438.347739,-842.705048
59246.419761,-2072.576638,-7698.141797,-1608.800546
59246.420070,-444.123565,-8216.285956,-919.314598
59246.420380,0.000000,-7476.080014,0.000000
59246.420690,0.000000,-8364.327145,0.000000
59246.421000,4071.132681,-13027.624579,2987.772442
59246.421310,-74.020594,-11843.295072,-76.609550
59246.421620,-1776.494261,-12213.398043,1532.190996
59246.421930,-666.185348,-11251.130318,-76.609550
59246.422239,-1480.411884,-8956.491898,1838.629195
59246.422549,-666.185348,-7031.956449,2298.286494
59246.422859,296.082377,-5181.441594,2451.505594
59246.423169,1554.432478,-5625.565159,2298.286494
59246.423479,592.164754,-4811.338623,1225.752797
59246.423789,0.000000,-4959.379811,0.000000
59246.424099,592.164754,-9548.656652,1225.752797
59246.424408,-666.185348,-11843.295072,-689.485948
59246.424718,-2960.823768,-13693.809927,612.876398
59246.425028,-2442.679609,-14211.954086,-2528.115143
59246.425338,-4737.318029,-11029.068536,-2145.067394
59246.425648,-2442.679609,-9400.615463,-842.705048
59246.425958,-296.082377,-7476.080014,459.657299
59246.426267,2220.617826,-6587.832884,2068.457845
59246.426577,3775.050304,-5921.647536,2374.896044
59246.426887,4663.297435,-5921.647536,2374.896044
59246.427197,2960.823768,-7179.997637,3677.258390
59246.427507,2294.638420,-10658.965565,2374.896044
59246.427817,-814.226536,-11917.315666,2604.724693
59246.428127,-666.185348,-13027.624579,-76.609550
59246.428436,-5625.565159,-9696.697840,-2145.067394
59246.428746,-5033.400406,-9548.656652,-1302.362347
59246.429056,-3330.926739,-9326.594869,-842.705048
59246.429366,-1110.308913,-8512.368333,306.438199
59246.429676,2294.638420,-9474.636058,2374.896044
59246.429986,3478.967927,-9178.553681,2374.896044
59246.430296,0.000000,-7772.162391,2451.505594
59246.430605,2886.803174,-9474.636058,3600.648841
59246.430915,0.000000,-7179.997637,1838.629195
59246.431225,-296.082377,-10658.965565,4136.915689
59246.431535,-2146.597232,-7698.141797,-153.219100
59246.431845,-1776.494261,-8290.306550,-306.438199
59246.432155,-962.267725,-7698.141797,-306.438199
59246.432464,-148.041188,-8290.306550,-229.828649
59246.432774,3478.967927,-9474.636058,1762.019645
59246.433084,4663.297435,-11843.295072,-76.609550
59246.433394,0.000000,-9844.739029,0.000000
59246.433704,-74.020594,-13323.706956,1072.533697
59246.434014,-4737.318029,-10732.986159,0.000000
59246.434324,-2368.659014,-11917.315666,1838.629195
59246.434633,-1850.514855,-8734.430116,1149.143247
59246.434943,-1480.411884,-5995.668130,1532.190996
59246.435253,0.000000,-4885.359217,2451.505594
59246.435563,1924.535449,-4811.338623,2451.505594
59246.435873,4293.194464,-7550.100608,3677.258390
59246.436183,5033.400406,-9474.636058,4673.182538
59246.436493,518.144159,-8438.347739,229.828649
59246.436802,-2072.576638,-11473.192101,1762.019645
59246.437112,-5995.668130,-10732.986159,-3447.429741
59246.437422,-6809.894666,-11029.068536,-2451.505594
59246.437732,-3923.091493,-11843.295072,-1608.800546
59246.438042,-2516.700203,-9104.533087,-1302.362347
59246.438352,-296.082377,-7846.182985,459.657299
59246.438661,2072.576638,-7105.977043,2145.067394
59246.438971,3849.070898,-7476.080014,3677.258390
59246.439281,5329.482782,-8068.244768,5209.449386
59246.439591,4663.297435,-8290.306550,2987.772442
59246.439901,740.205942,-9548.656652,3064.381992
59246.440211,-74.020594,-11843.295072,-76.609550
59246.440521,-5921.647536,-7772.162391,0.000000
59246.440830,-3627.009116,-10658.965565,-842.705048
59246.441140,-3923.091493,-9252.574275,-1685.410096
59246.441450,-2960.823768,-9252.574275,-1072.533697
59246.441760,-1184.329507,-8734.430116,0.000000
59246.442070,0.000000,-7772.162391,1225.752797
59246.442380,1184.329507,-9548.656652,3064.381992
59246.442690,4367.215058,-9474.636058,2987.772442
59246.442999,0.000000,-7772.162391,1225.752797
59246.443309,2294.638420,-11843.295072,2374.896044
59246.443619,-2738.761985,-7179.997637,-1225.752797
59246.443929,-2072.576638,-8512.368333,306.438199
59246.444239,-2072.576638,-7698.141797,-536.266849
59246.444549,-888.247130,-7550.100608,-689.485948
59246.444858,740.205942,-7550.100608,612.876398
59246.445168,592.164754,-7772.162391,0.000000
59246.445478,296.082377,-8364.327145,0.000000
59246.445788,1184.329507,-11917.315666,1838.629195
59246.446098,-962.267725,-11991.336260,-2451.505594
59246.446408,-666.185348,-14211.954086,2374.896044
59246.446718,-1850.514855,-10510.924376,-1302.362347
59246.447027,-1998.556043,-8216.285956,1225.752797
59246.447337,-592.164754,-6661.853478,1838.629195
59246.447647,444.123565,-5625.565159,2374.896044
59246.447957,1924.535449,-5921.647536,3600.648841
59246.448267,2146.597232,-6365.771101,2987.772442
59246.448577,1702.473667,-6809.894666,536.266849
59246.448887,0.000000,-9548.656652,1378.971896
59246.449196,-1850.514855,-10584.944971,-2528.115143
59246.449506,-3404.947333,-13471.748144,-76.609550
59246.449816,-3330.926739,-12435.459826,-3140.991542
59246.450126,-4589.276840,-10066.800811,-2298.286494
59246.450436,-2368.659014,-8808.450710,-612.876398
59246.450746,-444.123565,-7402.059420,995.924147
59246.451055,2368.659014,-6809.894666,3677.258390
59246.451365,4663.297435,-7105.977043,4213.525239
59246.451675,5847.626942,-7550.100608,3600.648841
59246.451985,2664.741391,-8660.409521,3677.258390
59246.452295,1702.473667,-10658.965565,-76.609550
59246.452605,-4145.153275,-9548.656652,0.000000
59246.452915,-2442.679609,-12139.377449,-76.609550
59246.453224,-5181.441594,-9400.615463,-1915.238745
59246.453534,-4219.173869,-9474.636058,-1455.581446
59246.453844,-2516.700203,-8956.491898,-689.485948
59246.454154,-592.164754,-7994.224174,0.000000
59246.454464,3478.967927,-9474.636058,2987.772442
59246.454774,4663.297435,-9474.636058,2987.772442
59246.455084,592.164754,-7772.162391,2451.505594
59246.455393,2294.638420,-10658.965565,2374.896044
59246.455703,-3552.988522,-7179.997637,0.000000
59246.456013,-1776.494261,-9474.636058,2374.896044
59246.456323,-2146.597232,-8512.368333,-306.438199
59246.456633,-1776.494261,-7994.224174,0.000000
59246.456943,-592.164754,-7772.162391,-229.828649
59246.457252,1184.329507,-7920.203579,0.000000
59246.457562,3256.906145,-9992.780217,1991.848295
59246.457872,4663.297435,-13027.624579,2374.896044
59246.458182,222.061783,-10881.027347,76.609550
59246.458492,-74.020594,-14211.954086,2374.896044
59246.458802,-3775.050304,-9622.677246,-1302.362347
59246.459112,-2368.659014,-11177.109724,1378.971896
59246.459421,-1258.350101,-7698.141797,1072.533697
59246.459731,-888.247130,-6143.709319,2068.457845
59246.460041,518.144159,-5255.462188,2451.505594
59246.460351,1998.556043,-5403.503377,919.314598
59246.460661,2368.659014,-6735.874072,1225.752797
59246.460971,2960.823768,-9696.697840,3064.381992
59246.461280,-74.020594,-9770.718434,-76.609550
59246.461590,-2368.659014,-11917.315666,1225.752797
59246.461900,-3034.844362,-13027.624579,-1302.362347
59246.462210,-5329.482782,-11325.150913,-1225.752797
59246.462520,-3330.926739,-10214.842000,-1302.362347
59246.462830,-2146.597232,-8364.327145,-995.924147
59246.463140,296.082377,-7254.018232,1225.752797
59246.463449,2590.720797,-6217.729913,2374.896044
59246.463759,4145.153275,-5995.668130,2451.505594
59246.464069,4737.318029,-7179.997637,4903.011187
59246.464379,4663.297435,-9474.636058,4213.525239
59246.464689,-2368.659014,-7476.080014,0.000000
59246.464999,-74.020594,-11843.295072,2374.896044
59246.465309,-4737.318029,-9548.656652,0.000000
59246.465618,-4589.276840,-10362.883188,-1225.752797
59246.465928,-3997.112087,-9622.677246,-995.924147
59246.466238,-2960.823768,-8660.409521,-689.485948
59246.466548,-74.020594,-9178.553681,1762.019645
59246.466858,370.102971,-7476.080014,536.266849
59246.467168,1184.329507,-7179.997637,2451.505594
59246.467477,3182.885551,-9474.636058,3600.648841
59246.467787,0.000000,-8660.409521,3064.381992
59246.468097,-74.020594,-9178.553681,1149.143247
59246.468407,-3552.988522,-6291.750507,0.000000
59246.468717,-2886.803174,-8586.388927,-306.438199
59246.469027,-2294.638420,-7772.162391,-689.485948
59246.469337,-888.247130,-8068.244768,-766.095498
59246.469646,814.226536,-9474.636058,1149.143247
59246.469956,1406.391290,-8290.306550,-76.609550
59246.470266,592.164754,-9548.656652,0.000000
59246.470576,666.185348,-11769.274478,3370.820191
59246.470886,-3627.009116,-9844.739029,-2451.505594
59246.471196,-2368.659014,-12509.480420,0.000000
59246.471506,-2738.761985,-9696.697840,-1302.362347
59246.471815,-1184.329507,-7550.100608,1685.410096
59246.472125,222.061783,-6513.812290,2681.334243
59246.472435,1332.370696,-5255.462188,2451.505594
59246.472745,4071.132681,-7402.059420,4519.963438
59246.473055,3478.967927,-8882.471304,4213.525239
