#time,accel_x,accel_y,accel_z
59465.113991,1110.308913,-9178.553681,1149.143247
59465.114301,-1258.350101,-7328.038826,0.000000
59465.114611,-1628.453072,-8364.327145,0.000000
59465.114921,2294.638420,-11843.295072,3600.648841
59465.115231,-2072.576638,-7179.997637,0.000000
59465.115541,0.000000,-9548.656652,3064.381992
59465.115851,-1776.494261,-8068.244768,0.000000
59465.116161,-444.123565,-9104.533087,995.924147
59465.116471,-592.164754,-8734.430116,689.485948
59465.116780,-296.082377,-8956.491898,919.314598
59465.117090,-74.020594,-10658.965565,2374.896044
59465.117400,-74.020594,-9178.553681,-76.609550
59465.117710,-1998.556043,-7476.080014,0.000000
59465.118020,814.226536,-11843.295072,2987.772442
59465.118330,-1184.329507,-8956.491898,1378.971896
59465.118640,0.000000,-8956.491898,1225.752797
59465.118950,-1332.370696,-7846.182985,0.000000
59465.119260,-296.082377,-9104.533087,919.314598
59465.119569,-370.102971,-9178.553681,689.485948
59465.119879,-222.061783,-9030.512492,612.876398
59465.120189,1406.391290,-11251.130318,2987.772442
59465.120499,2294.638420,-9474.636058,-76.609550
59465.120809,-370.102971,-8290.306550,229.828649
59465.121119,888.247130,-10881.027347,3370.820191
59465.121429,-74.020594,-8586.388927,-76.609550
59465.121739,-2368.659014,-7179.997637,0.000000
59465.122049,-74.020594,-8882.471304,842.705048
59465.122358,-444.123565,-8956.491898,766.095498
59465.122668,-296.082377,-9030.512492,1072.533697
59465.122978,-148.041188,-9104.533087,1072.533697
59465.123288,148.041188,-10140.821405,2451.505594
59465.123598,1702.473667,-10658.965565,2374.896044
59465.123908,-74.020594,-9474.636058,1149.143247
59465.124218,0.000000,-7772.162391,612.876398
59465.124528,-74.020594,-9474.636058,1149.143247
59465.124838,-2960.823768,-6291.750507,0.000000
59465.125147,-74.020594,-9474.636058,1762.019645
59465.125457,-518.144159,-8660.409521,536.266849
59465.125767,-444.123565,-8956.491898,842.705048
59465.126077,-222.061783,-9252.574275,842.705048
59465.126387,0.000000,-7772.162391,0.000000
59465.126697,296.082377,-9844.739029,2604.724693
59465.127007,-74.020594,-9474.636058,1762.019645
59465.127317,0.000000,-7179.997637,0.000000
59465.127627,-74.020594,-9474.636058,-76.609550
59465.127936,-740.205942,-7476.080014,-383.047749
59465.128246,1110.308913,-10658.965565,2145.067394
59465.128556,-370.102971,-9252.574275,842.705048
59465.128866,-296.082377,-8734.430116,1378.971896
59465.129176,-148.041188,-9474.636058,995.924147
59465.129486,-2368.659014,-7179.997637,0.000000
59465.129796,0.000000,-8956.491898,1225.752797
59465.130106,814.226536,-10362.883188,2374.896044
59465.130416,-2812.782580,-6291.750507,0.000000
59465.130725,1036.288319,-10658.965565,2298.286494
59465.131035,-74.020594,-9474.636058,-76.609550
59465.131345,444.123565,-9770.718434,2145.067394
59465.131655,-222.061783,-9178.553681,689.485948
59465.131965,-296.082377,-9178.553681,1149.143247
59465.132275,-296.082377,-9326.594869,842.705048
59465.132585,-2368.659014,-6661.853478,0.000000
59465.132895,-2368.659014,-7772.162391,0.000000
59465.133205,0.000000,-9474.636058,2374.896044
59465.133514,-2368.659014,-6587.832884,0.000000
59465.133824,888.247130,-10140.821405,2298.286494
59465.134134,-74.020594,-11251.130318,2374.896044
59465.134444,0.000000,-9548.656652,919.314598
59465.134754,-370.102971,-9178.553681,536.266849
59465.135064,-666.185348,-9104.533087,612.876398
59465.135374,-370.102971,-9104.533087,383.047749
59465.135684,-74.020594,-8290.306550,-995.924147
59465.135994,-1776.494261,-7476.080014,0.000000
59465.136303,0.000000,-8956.491898,1838.629195
59465.136613,-74.020594,-7994.224174,-689.485948
59465.136923,1998.556043,-10066.800811,2068.457845
59465.137233,1702.473667,-9474.636058,3600.648841
59465.137543,0.000000,-7772.162391,919.314598
59465.137853,1406.391290,-9178.553681,1149.143247
59465.138163,1702.473667,-9030.512492,842.705048
59465.138473,1480.411884,-8956.491898,842.705048
59465.138783,3478.967927,-9474.636058,-76.609550
59465.139092,1998.556043,-8290.306550,-76.609550
59465.139402,1776.494261,-8364.327145,0.000000
59465.139712,5847.626942,-11251.130318,1762.019645
59465.140022,1184.329507,-8364.327145,0.000000
59465.140332,2960.823768,-10140.821405,2757.943793
59465.140642,1776.494261,-8364.327145,0.000000
59465.140952,3997.112087,-9400.615463,1072.533697
59465.141262,4367.215058,-8956.491898,995.924147
59465.141572,4737.318029,-8512.368333,1378.971896
59465.141882,7031.956449,-9474.636058,2374.896044
59465.142191,6439.791695,-9178.553681,1762.019645
59465.142501,4811.338623,-7179.997637,0.000000
59465.142811,7105.977043,-10584.944971,2834.553343
59465.143121,5255.462188,-7994.224174,-689.485948
59465.143431,2960.823768,-7179.997637,0.000000
59465.143741,6143.709319,-8734.430116,-383.047749
59465.144051,5921.647536,-9548.656652,0.000000
59465.144361,6143.709319,-10214.842000,0.000000
59465.144671,5033.400406,-11695.253884,153.219100
59465.144980,5255.462188,-14211.954086,1762.019645
59465.145290,4071.132681,-14211.954086,1149.143247
59465.145600,2886.803174,-10362.883188,-1915.238745
59465.145910,4367.215058,-11547.212695,2374.896044
59465.146220,1776.494261,-6587.832884,612.876398
59465.146530,2368.659014,-3034.844362,612.876398
59465.146840,6439.791695,-4737.318029,2681.334243
59465.147150,7550.100608,-3627.009116,2451.505594
59465.147460,9104.533087,-5033.400406,2834.553343
59465.147769,9178.553681,-7179.997637,3064.381992
59465.148079,6513.812290,-11325.150913,1838.629195
59465.148389,3034.844362,-15322.262999,-76.609550
59465.148699,-74.020594,-20133.601622,-1302.362347
59465.149009,-6513.812290,-16062.468941,-4596.572988
59465.149319,-3256.906145,-15174.221811,-2451.505594
59465.149629,-3034.844362,-10658.965565,-3140.991542
59465.149939,-74.020594,-8216.285956,-76.609550
59465.150249,2368.659014,-6291.750507,2911.162892
59465.150558,4885.359217,-5551.544565,5669.106685
59465.150868,4811.338623,-4515.256246,5132.839837
59465.151178,1184.329507,-2442.679609,4903.011187
59465.151488,1776.494261,-4219.173869,3677.258390
59465.151798,4071.132681,-5921.647536,4826.401637
59465.152108,1850.514855,-1406.391290,0.000000
59465.152418,3701.029710,-7920.203579,1378.971896
59465.152728,-74.020594,-13619.789333,-2528.115143
59465.153038,-3923.091493,-17912.983796,-3294.210641
59465.153347,-6957.935855,-21762.054695,-3753.867940
59465.153657,-6809.894666,-17764.942608,-4519.963438
59465.153967,-4367.215058,-11251.130318,-3753.867940
59465.154277,-2368.659014,-5403.503377,0.000000
59465.154587,1480.411884,-3627.009116,2451.505594
59465.154897,6439.791695,-7698.141797,8197.221829
59465.155207,4367.215058,-2442.679609,3600.648841
59465.155517,7105.977043,-5847.626942,7354.516781
59465.155827,10584.944971,-4737.318029,6665.030833
59465.156136,8290.306550,-4515.256246,6588.421283
59465.156446,5181.441594,-6217.729913,3140.991542
59465.156756,1406.391290,-11251.130318,-306.438199
59465.157066,-1998.556043,-14804.118840,-2987.772442
59465.157376,-3775.050304,-14285.974681,-7048.078582
59465.157686,-4737.318029,-14285.974681,-6128.763984
59465.157996,-6513.812290,-13101.645173,-4903.011187
59465.158306,-2738.761985,-14804.118840,-2528.115143
59465.158616,-1184.329507,-8364.327145,-1685.410096
59465.158925,9400.615463,-7994.224174,6665.030833
59465.159235,11251.130318,-666.185348,6741.640382
59465.159545,14211.954086,-1406.391290,8427.050478
59465.159855,12879.583391,-4219.173869,7890.783629
59465.160165,9622.677246,-6587.832884,4903.011187
59465.160475,5255.462188,-8290.306550,536.266849
59465.160785,592.164754,-9844.739029,-2451.505594
59465.161095,-4737.318029,-11917.315666,-4903.011187
59465.161405,-1258.350101,-17764.942608,-3140.991542
59465.161714,-666.185348,-13471.748144,-4979.620737
59465.162024,1184.329507,-10140.821405,-3064.381992
59465.162334,4071.132681,-11251.130318,-76.609550
59465.162644,1554.432478,-10362.883188,76.609550
59465.162954,4367.215058,-8586.388927,2068.457845
59465.163264,9104.533087,-4885.359217,4826.401637
59465.163574,8882.471304,-4663.297435,6052.154434
59465.163884,6291.750507,-5329.482782,3677.258390
59465.164194,8216.285956,-7105.977043,2374.896044
59465.164503,7105.977043,-6291.750507,1838.629195
59465.164813,7328.038826,-11547.212695,4213.525239
59465.165123,2294.638420,-12435.459826,-689.485948
59465.165433,-3552.988522,-14878.139434,-3370.820191
59465.165743,-2516.700203,-14211.954086,-3753.867940
59465.166053,-2886.803174,-13397.727550,-1991.848295
59465.166363,-740.205942,-10436.903782,-1072.533697
59465.166673,3552.988522,-5107.421000,459.657299
59465.166983,7994.224174,-3849.070898,2068.457845
59465.167293,8882.471304,-6587.832884,5822.325785
59465.167602,5847.626942,-5921.647536,3600.648841
59465.167912,3108.864956,-6587.832884,3677.258390
59465.168222,2738.761985,-6291.750507,1225.752797
59465.168532,1702.473667,-8660.409521,-306.438199
59465.168842,0.000000,-9992.780217,-766.095498
59465.169152,148.041188,-11473.192101,-1225.752797
59465.169462,-444.123565,-12953.603985,-2604.724693
59465.169772,-2072.576638,-15100.201217,-2221.676944
59465.170082,-1480.411884,-13101.645173,612.876398
59465.170391,3478.967927,-9474.636058,1762.019645
59465.170701,3627.009116,-5551.544565,1225.752797
59465.171011,6439.791695,-8290.306550,6665.030833
59465.171321,5847.626942,-7698.141797,3294.210641
59465.171631,5107.421000,-6587.832884,3753.867940
59465.171941,3330.926739,-8512.368333,2834.553343
59465.172251,2960.823768,-7920.203579,2068.457845
59465.172561,1628.453072,-8734.430116,2757.943793
59465.172871,-962.267725,-9622.677246,76.609550
59465.173180,-3034.844362,-8142.265362,-3294.210641
59465.173490,-4737.318029,-11029.068536,-2451.505594
59465.173800,-1702.473667,-12435.459826,-689.485948
59465.174110,-962.267725,-7698.141797,-1915.238745
59465.174420,2368.659014,-8364.327145,1838.629195
59465.174730,4219.173869,-9030.512492,2374.896044
59465.175040,3775.050304,-7179.997637,2068.457845
59465.175350,2664.741391,-8808.450710,1225.752797
59465.175660,1702.473667,-8364.327145,1149.143247
59465.175969,1480.411884,-9992.780217,1225.752797
59465.176279,3478.967927,-11843.295072,4136.915689
59465.176589,-666.185348,-9104.533087,153.219100
59465.176899,-3552.988522,-9844.739029,612.876398
59465.177209,-74.020594,-11843.295072,995.924147
59465.177519,-2146.597232,-7698.141797,-76.609550
59465.177829,222.061783,-6143.709319,1455.581446
59465.178139,444.123565,-7254.018232,1991.848295
59465.178449,-962.267725,-7550.100608,842.705048
59465.178758,-148.041188,-9400.615463,612.876398
59465.179068,-1480.411884,-10066.800811,-76.609550
59465.179378,-3552.988522,-7179.997637,0.000000
59465.179688,-74.020594,-10955.047942,-76.609550
59465.179998,-3404.947333,-9548.656652,-3064.381992
59465.180308,-2368.659014,-13027.624579,-76.609550
59465.180618,-3404.947333,-12583.501014,1532.190996
59465.180928,-3330.926739,-9992.780217,1149.143247
59465.181238,-740.205942,-7179.997637,1455.581446
59465.181547,1110.308913,-6217.729913,2681.334243
59465.181857,0.000000,-3775.050304,1991.848295
59465.182167,888.247130,-5403.503377,3677.258390
59465.182476,2294.638420,-9474.636058,2987.772442
59465.182786,-2368.659014,-6587.832884,153.219100
59465.183095,-814.226536,-10658.965565,-76.609550
59465.183405,-7105.977043,-9548.656652,-2451.505594
59465.183715,-5107.421000,-10732.986159,-2221.676944
59465.184024,-5329.482782,-12509.480420,-1838.629195
59465.184334,-5329.482782,-11621.233289,-1991.848295
59465.184644,-1480.411884,-10584.944971,76.609550
59465.184953,1998.556043,-8586.388927,3600.648841
59465.185263,-370.102971,-8586.388927,2374.896044
59465.185573,592.164754,-4219.173869,1838.629195
59465.185882,3775.050304,-8290.306550,4826.401637
59465.186192,0.000000,-3627.009116,1225.752797
59465.186502,3478.967927,-8290.306550,-76.609550
59465.186811,-370.102971,-10510.924376,1302.362347
59465.187121,-1184.329507,-9400.615463,-919.314598
59465.187431,-4293.194464,-12139.377449,-1838.629195
59465.187740,-3256.906145,-12731.542202,-2145.067394
59465.188050,-3256.906145,-9548.656652,-2451.505594
59465.188359,2960.823768,-9992.780217,2221.676944
59465.188669,4071.132681,-11843.295072,3600.648841
59465.188979,1406.391290,-4811.338623,0.000000
59465.189288,5107.421000,-10658.965565,5592.497135
59465.189598,3256.906145,-5107.421000,2757.943793
59465.189908,2368.659014,-4811.338623,2145.067394
59465.190217,1332.370696,-8438.347739,1838.629195
59465.190527,0.000000,-8364.327145,153.219100
59465.190837,-2294.638420,-9548.656652,-1608.800546
59465.191146,-2442.679609,-13027.624579,-2528.115143
59465.191456,-4441.235652,-10140.821405,-2298.286494
59465.191766,0.000000,-10140.821405,306.438199
59465.192075,2886.803174,-12435.459826,2374.896044
59465.192385,0.000000,-7179.997637,1225.752797
59465.192695,592.164754,-6587.832884,0.000000
59465.193004,4663.297435,-8734.430116,3600.648841
59465.193314,4515.256246,-6069.688724,2834.553343
59465.193623,2072.576638,-6661.853478,1915.238745
59465.193933,-296.082377,-8956.491898,842.705048
59465.194243,-3849.070898,-9548.656652,0.000000
59465.194552,-3627.009116,-12287.418637,-1915.238745
59465.194862,-4219.173869,-11695.253884,-2528.115143
59465.195172,-4737.318029,-7179.997637,-3524.039291
59465.195481,2294.638420,-11843.295072,2374.896044
59465.195791,666.185348,-9474.636058,3294.210641
59465.196101,0.000000,-8364.327145,3064.381992
59465.196410,1924.535449,-10066.800811,2911.162892
59465.196720,3256.906145,-7772.162391,2987.772442
59465.197030,2072.576638,-7105.977043,2298.286494
59465.197339,-666.185348,-8290.306550,-995.924147
59465.197649,-3997.112087,-8808.450710,-1532.190996
59465.197959,-5625.565159,-10955.047942,-2068.457845
59465.198268,-6883.915261,-10362.883188,-2604.724693
59465.198578,-3404.947333,-8956.491898,-1149.143247
59465.198888,888.247130,-9474.636058,2604.724693
59465.199197,1406.391290,-8808.450710,2374.896044
59465.199507,0.000000,-5995.668130,612.876398
59465.199816,3478.967927,-11843.295072,4826.401637
59465.200126,2072.576638,-7179.997637,1838.629195
59465.200436,3478.967927,-8882.471304,1455.581446
59465.200745,0.000000,-9844.739029,2451.505594
59465.201055,-2146.597232,-10066.800811,-383.047749
59465.201365,-4367.215058,-9548.656652,-1302.362347
59465.201674,-4515.256246,-10214.842000,-1378.971896
59465.201984,-2960.823768,-8956.491898,229.828649
59465.202294,-74.020594,-8438.347739,2068.457845
59465.202603,518.144159,-5921.647536,0.000000
59465.202913,0.000000,-5995.668130,2451.505594
59465.203223,2886.803174,-9474.636058,3140.991542
59465.203532,0.000000,-7179.997637,766.095498
59465.203842,2960.823768,-8364.327145,1991.848295
59465.204152,2294.638420,-11843.295072,2374.896044
59465.204461,-2368.659014,-9548.656652,0.000000
59465.204771,-666.185348,-13619.789333,-76.609550
59465.205080,-4663.297435,-11917.315666,0.000000
59465.205390,-3552.988522,-8956.491898,-1225.752797
59465.205700,-148.041188,-7550.100608,919.314598
59465.206009,1480.411884,-7550.100608,2451.505594
59465.206319,1998.556043,-6587.832884,2834.553343
59465.206629,3478.967927,-7105.977043,1762.019645
59465.206938,2516.700203,-7624.121203,2911.162892
59465.207248,4367.215058,-7105.977043,3217.601092
59465.207558,2664.741391,-8734.430116,2451.505594
59465.207867,0.000000,-10140.821405,306.438199
59465.208177,-3478.967927,-11251.130318,-229.828649
59465.208487,-5995.668130,-11917.315666,-2834.553343
59465.208796,-7105.977043,-9548.656652,-3064.381992
59465.209106,-1554.432478,-9474.636058,-1302.362347
59465.209416,-4589.276840,-8364.327145,0.000000
59465.209725,2220.617826,-10658.965565,3600.648841
59465.210035,1184.329507,-6587.832884,2757.943793
59465.210344,3849.070898,-6587.832884,4903.011187
59465.210654,7031.956449,-7105.977043,4826.401637
59465.210964,888.247130,-5995.668130,1455.581446
59465.211273,2294.638420,-9326.594869,2221.676944
59465.211583,-74.020594,-7698.141797,-1302.362347
59465.211893,-4737.318029,-11991.336260,-1762.019645
59465.212202,-5033.400406,-12287.418637,-2911.162892
59465.212512,-4293.194464,-11769.274478,-1915.238745
59465.212822,-3552.988522,-9548.656652,0.000000
59465.213131,-2442.679609,-10658.965565,1149.143247
59465.213441,-2442.679609,-7105.977043,-383.047749
59465.213751,0.000000,-9548.656652,4903.011187
59465.214060,2886.803174,-4145.153275,2374.896044
59465.214370,4145.153275,-7105.977043,5745.716235
59465.214680,1258.350101,-6735.874072,3217.601092
59465.214989,-962.267725,-8956.491898,306.438199
59465.215299,-4145.153275,-11325.150913,-1762.019645
59465.215608,-5477.523971,-12509.480420,-2451.505594
59465.215918,-3627.009116,-10658.965565,-3370.820191
59465.216228,-1480.411884,-10436.903782,0.000000
59465.216537,-814.226536,-10362.883188,383.047749
59465.216847,1110.308913,-8142.265362,1838.629195
59465.217157,2738.761985,-8512.368333,3830.477490
59465.217466,5329.482782,-8290.306550,6971.469032
59465.217776,6069.688724,-6365.771101,4519.963438
59465.218086,1184.329507,-5403.503377,2451.505594
59465.218395,1702.473667,-8882.471304,1149.143247
59465.218705,-4589.276840,-8364.327145,-2834.553343
59465.219015,-3923.091493,-11843.295072,-2834.553343
59465.219324,-3997.112087,-10066.800811,-2681.334243
59465.219634,-2516.700203,-10066.800811,-1455.581446
59465.219944,-1554.432478,-10807.006753,383.047749
59465.220253,-444.123565,-8734.430116,1378.971896
59465.220563,1480.411884,-10288.862594,3983.696590
59465.220872,4663.297435,-7994.224174,4826.401637
59465.221182,7031.956449,-4737.318029,3294.210641
59465.221492,4737.318029,-5995.668130,3677.258390
59465.221801,5255.462188,-9474.636058,4213.525239
59465.222111,-74.020594,-9474.636058,-689.485948
59465.222421,-3849.070898,-11917.315666,-1838.629195
59465.222730,-3627.009116,-11621.233289,-1991.848295
59465.223040,-2368.659014,-10436.903782,-1915.238745
59465.223350,-2294.638420,-11325.150913,-459.657299
59465.223659,-1776.494261,-10140.821405,1838.629195
59465.223969,296.082377,-10362.883188,4213.525239
59465.224279,3478.967927,-8882.471304,2374.896044
59465.224588,1184.329507,-5403.503377,2451.505594
59465.224898,4737.318029,-7179.997637,4749.792088
59465.225208,5847.626942,-8290.306550,2374.896044
59465.225517,-1702.473667,-7772.162391,-1225.752797
59465.225827,-5921.647536,-9844.739029,-1838.629195
59465.226137,-2442.679609,-13027.624579,-1915.238745
59465.226446,-5921.647536,-7476.080014,-3370.820191
59465.226756,-4959.379811,-7994.224174,-3524.039291
59465.227065,-2220.617826,-10436.903782,766.095498
59465.227375,-1110.308913,-9474.636058,1532.190996
59465.227685,1702.473667,-8660.409521,3370.820191
59465.227994,3923.091493,-6513.812290,3677.258390
59465.228304,2960.823768,-5107.421000,4903.011187
59465.228614,3775.050304,-7698.141797,2681.334243
59465.228923,592.164754,-8438.347739,842.705048
59465.229233,-3627.009116,-10881.027347,-1685.410096
59465.229543,-5847.626942,-11917.315666,-3064.381992
59465.229852,-4811.338623,-9474.636058,-4060.306139
59465.230162,-5329.482782,-9696.697840,-2451.505594
59465.230472,-2442.679609,-11843.295072,-689.485948
59465.230781,-4737.318029,-7476.080014,0.000000
59465.231091,962.267725,-10436.903782,3677.258390
59465.231401,2664.741391,-5995.668130,4903.011187
59465.231710,7031.956449,-6513.812290,5898.935335
59465.232020,5847.626942,-6587.832884,5669.106685
59465.232329,2072.576638,-7328.038826,2374.896044
59465.232639,-2516.700203,-10140.821405,-689.485948
59465.232949,-3627.009116,-12435.459826,-2528.115143
59465.233258,-4885.359217,-10732.986159,-4903.011187
59465.233568,-3034.844362,-12731.542202,-383.047749
59465.233878,-4811.338623,-10362.883188,-1915.238745
59465.234187,-4145.153275,-8364.327145,0.000000
59465.234497,0.000000,-8364.327145,1991.848295
59465.234807,4367.215058,-7328.038826,5056.230287
59465.235116,5921.647536,-4959.379811,5362.668486
59465.235426,6587.832884,-6439.791695,5669.106685
59465.235736,4145.153275,-7105.977043,3830.477490
59465.236045,-74.020594,-9474.636058,-76.609550
59465.236355,-3923.091493,-11843.295072,-1302.362347
59465.236665,-7105.977043,-9548.656652,-3677.258390
59465.236974,-2442.679609,-11843.295072,-1915.238745
59465.237284,-4219.173869,-12065.356855,-1915.238745
59465.237593,-4071.132681,-8734.430116,0.000000
59465.237903,-962.267725,-9992.780217,1762.019645
59465.238213,3182.885551,-6809.894666,3600.648841
59465.238522,5551.544565,-5699.585753,4903.011187
59465.238832,6661.853478,-5847.626942,5975.544884
59465.239142,7031.956449,-8290.306550,6052.154434
59465.239451,1998.556043,-7698.141797,-689.485948
59465.239761,-3552.988522,-10732.986159,0.000000
59465.240071,-2442.679609,-12731.542202,-1915.238745
59465.240380,-4737.318029,-9548.656652,-3677.258390
59465.240690,-3923.091493,-10658.965565,-3064.381992
59465.241000,-3997.112087,-11029.068536,-995.924147
59465.241309,-2738.761985,-10362.883188,0.000000
59465.241619,-370.102971,-9104.533087,1915.238745
59465.241929,3701.029710,-6883.915261,4826.401637
59465.242238,7105.977043,-7105.977043,6818.249932
59465.242548,6735.874072,-8882.471304,6052.154434
59465.242857,2294.638420,-7105.977043,-76.609550
59465.243167,-3552.988522,-9548.656652,0.000000
59465.243477,-2886.803174,-11843.295072,-1302.362347
59465.243786,-3034.844362,-9770.718434,-4519.963438
59465.244096,-5551.544565,-11695.253884,-2451.505594
59465.244406,-4589.276840,-11917.315666,-1685.410096
59465.244715,-2072.576638,-10140.821405,-306.438199
59465.245025,666.185348,-9696.697840,3600.648841
59465.245335,3552.988522,-8364.327145,5209.449386
59465.245644,6439.791695,-8882.471304,6665.030833
59465.245954,6439.791695,-5921.647536,3600.648841
59465.246264,592.164754,-6143.709319,612.876398
59465.246573,-1554.432478,-10658.965565,-76.609550
59465.246883,-4219.173869,-11177.109724,-2528.115143
59465.247193,-4737.318029,-9696.697840,-3524.039291
59465.247502,-4959.379811,-11325.150913,-2374.896044
59465.247812,-5403.503377,-11325.150913,-1991.848295
59465.248122,-4145.153275,-10807.006753,612.876398
59465.248431,-1776.494261,-8956.491898,1838.629195
59465.248741,1776.494261,-7772.162391,4903.011187
59465.249050,6439.791695,-7105.977043,6052.154434
59465.249360,4737.318029,-4811.338623,4903.011187
59465.249670,5921.647536,-6587.832884,4903.011187
59465.249979,1110.308913,-9178.553681,1762.019645
59465.250289,-3849.070898,-10510.924376,-1838.629195
59465.250599,-4737.318029,-9770.718434,-2987.772442
59465.250908,-7105.977043,-11917.315666,-3600.648841
59465.251218,-5403.503377,-12583.501014,-2451.505594
59465.251528,-4737.318029,-9548.656652,-2298.286494
59465.251837,-2368.659014,-9548.656652,2451.505594
59465.252147,4071.132681,-8882.471304,4213.525239
59465.252457,3330.926739,-5403.503377,4213.525239
59465.252766,6513.812290,-4367.215058,5515.887586
59465.253076,4737.318029,-7105.977043,6971.469032
59465.253386,222.061783,-7105.977043,689.485948
59465.253695,-3182.885551,-10066.800811,-1378.971896
59465.254005,-2664.741391,-10584.944971,-1762.019645
59465.254314,-2664.741391,-9696.697840,-3677.258390
59465.254624,-6513.812290,-10140.821405,-3370.820191
59465.254934,-4145.153275,-12509.480420,-306.438199
59465.255243,-1258.350101,-10658.965565,-689.485948
59465.255553,1184.329507,-9548.656652,3064.381992
59465.255863,5255.462188,-9326.594869,5439.278036
59465.256172,6809.894666,-8290.306550,7890.783629
59465.256482,7179.997637,-6513.812290,4826.401637
59465.256792,3775.050304,-6735.874072,2068.457845
59465.257101,-370.102971,-9992.780217,383.047749
59465.257411,-1924.535449,-8956.491898,-2451.505594
59465.257721,-3849.070898,-7772.162391,-4519.963438
59465.258030,-6809.894666,-9548.656652,-4290.134789
59465.258340,-3182.885551,-13027.624579,-995.924147
59465.258650,-3923.091493,-10658.965565,-1455.581446
59465.258959,-1776.494261,-8956.491898,612.876398
59465.259269,2664.741391,-8956.491898,4903.011187
59465.259578,5995.668130,-6957.935855,5209.449386
59465.259888,5773.606348,-6439.791695,4673.182538
59465.260198,2960.823768,-6883.915261,2221.676944
59465.260507,222.061783,-7476.080014,-1149.143247
59465.260817,-1258.350101,-9918.759623,-1608.800546
59465.261127,-4219.173869,-7772.162391,-4213.525239
59465.261436,-4589.276840,-12509.480420,-1532.190996
59465.261746,-4811.338623,-11843.295072,-2681.334243
59465.262056,-5921.647536,-9844.739029,-1302.362347
59465.262365,-2812.782580,-9548.656652,1838.629195
59465.262675,2590.720797,-8216.285956,3600.648841
59465.262985,5033.400406,-6439.791695,5515.887586
59465.263294,5625.565159,-6291.750507,5669.106685
59465.263604,2590.720797,-6365.771101,2374.896044
59465.263914,-74.020594,-8290.306550,-76.609550
59465.264223,-5921.647536,-7772.162391,-3677.258390
59465.264533,-4145.153275,-10140.821405,-1532.190996
59465.264842,-4811.338623,-10955.047942,-2528.115143
59465.265152,-6957.935855,-11473.192101,-1762.019645
59465.265462,-5773.606348,-9548.656652,-1838.629195
59465.265771,-1998.556043,-10732.986159,1532.190996
59465.266081,1332.370696,-8364.327145,3524.039291
59465.266391,4145.153275,-6143.709319,5209.449386
59465.266700,6143.709319,-6513.812290,7277.907231
59465.267010,7031.956449,-7105.977043,6665.030833
59465.267320,2294.638420,-7698.141797,2374.896044
59465.267629,-3552.988522,-8364.327145,0.000000
59465.267939,-1554.432478,-10362.883188,-76.609550
59465.268249,-4663.297435,-9844.739029,-3064.381992
59465.268558,-7698.141797,-10140.821405,-3677.258390
59465.268868,-6513.812290,-11547.212695,-2451.505594
59465.269178,-4663.297435,-11251.130318,-306.438199
59465.269487,-444.123565,-9474.636058,1685.410096
59465.269797,3627.009116,-8586.388927,6052.154434
59465.270107,7772.162391,-7105.977043,5209.449386
59465.270416,7031.956449,-7994.224174,6665.030833
59465.270726,2294.638420,-5625.565159,1762.019645
59465.271035,296.082377,-9548.656652,2451.505594
59465.271345,-222.061783,-9918.759623,-1838.629195
59465.271655,-3627.009116,-8364.327145,-3524.039291
59465.271964,-4515.256246,-12213.398043,-2451.505594
59465.272274,-3701.029710,-11843.295072,-2068.457845
59465.272584,-2812.782580,-12361.439231,-459.657299
59465.272893,1110.308913,-12435.459826,2374.896044
59465.273203,4145.153275,-10362.883188,4903.011187
59465.273513,7920.203579,-8882.471304,7201.297681
59465.273822,6439.791695,-5921.647536,4826.401637
59465.274132,3849.070898,-5403.503377,3064.381992
59465.274442,2886.803174,-8290.306550,612.876398
59465.274751,-74.020594,-8142.265362,-995.924147
59465.275061,-1776.494261,-8364.327145,-2298.286494
59465.275371,-4737.318029,-10955.047942,-2911.162892
59465.275680,-6513.812290,-11991.336260,-3064.381992
59465.275990,-4885.359217,-12509.480420,-2145.067394
59465.276299,-2368.659014,-12213.398043,0.000000
59465.276609,1184.329507,-9548.656652,3677.258390
59465.276919,5551.544565,-8290.306550,4826.401637
59465.277228,4441.235652,-3627.009116,1762.019645
59465.277538,3849.070898,-3627.009116,1532.190996
59465.277848,2886.803174,-7698.141797,1762.019645
59465.278157,148.041188,-7772.162391,0.000000
59465.278467,-2294.638420,-8438.347739,-1915.238745
59465.278777,-4811.338623,-11325.150913,-3064.381992
59465.279086,-7105.977043,-11917.315666,-3677.258390
59465.279396,-6809.894666,-10732.986159,-4596.572988
59465.279706,-1628.453072,-14211.954086,2145.067394
59465.280015,-74.020594,-9770.718434,1455.581446
59465.280325,2368.659014,-5995.668130,2451.505594
59465.280635,5403.503377,-6513.812290,6052.154434
59465.280944,6439.791695,-7105.977043,4826.401637
59465.281254,1702.473667,-7031.956449,2528.115143
59465.281564,444.123565,-8290.306550,1302.362347
59465.281874,-666.185348,-7624.121203,-306.438199
59465.282183,-4737.318029,-7772.162391,-3524.039291
59465.282493,-7105.977043,-10140.821405,-4673.182538
59465.282803,-8290.306550,-11917.315666,-2451.505594
59465.283112,-3627.009116,-13619.789333,-689.485948
59465.283422,-2368.659014,-9548.656652,0.000000
59465.283732,2368.659014,-8882.471304,4673.182538
59465.284042,6291.750507,-8882.471304,6052.154434
59465.284351,4663.297435,-6439.791695,4826.401637
59465.284661,3997.112087,-6365.771101,3753.867940
59465.284971,2072.576638,-8364.327145,2451.505594
59465.285281,-1776.494261,-6587.832884,0.000000
59465.285590,-3182.885551,-8882.471304,-612.876398
59465.285900,-7105.977043,-9844.739029,-3370.820191
59465.286210,-4219.173869,-13323.706956,-1915.238745
59465.286520,-6513.812290,-10732.986159,-4596.572988
59465.286829,-2368.659014,-11843.295072,1149.143247
59465.287139,2072.576638,-9474.636058,3370.820191
59465.287449,3849.070898,-7846.182985,4136.915689
59465.287758,4663.297435,-6661.853478,5056.230287
59465.288068,3330.926739,-7105.977043,3600.648841
59465.288378,1036.288319,-6735.874072,2374.896044
59465.288688,0.000000,-7105.977043,-76.609550
59465.288997,-2368.659014,-6291.750507,-2451.505594
59465.289307,-1406.391290,-12435.459826,-76.609550
59465.289617,-5773.606348,-8660.409521,-4903.011187
59465.289927,-4811.338623,-13027.624579,-689.485948
59465.290236,-3552.988522,-11325.150913,0.000000
59465.290546,-74.020594,-9474.636058,1225.752797
59465.290856,1998.556043,-9178.553681,3217.601092
59465.291166,3923.091493,-7920.203579,4519.963438
59465.291475,4367.215058,-5921.647536,3600.648841
59465.291785,4071.132681,-9474.636058,3600.648841
59465.292095,592.164754,-5995.668130,0.000000
59465.292404,2738.761985,-7698.141797,1149.143247
59465.292714,-2442.679609,-8364.327145,-3677.258390
59465.293024,-3404.947333,-12065.356855,-306.438199
59465.293334,-6809.894666,-10732.986159,-3677.258390
59465.293643,-4441.235652,-13101.645173,-1608.800546
59465.293953,-1184.329507,-10436.903782,-459.657299
59465.294263,1258.350101,-8438.347739,1991.848295
59465.294573,4663.297435,-8290.306550,3600.648841
59465.294882,4663.297435,-9178.553681,4826.401637
59465.295192,1110.308913,-6957.935855,842.705048
59465.295502,1480.411884,-9696.697840,1838.629195
59465.295811,1110.308913,-7105.977043,-76.609550
59465.296121,-2072.576638,-8364.327145,612.876398
59465.296431,-4737.318029,-9548.656652,-1838.629195
59465.296741,-4515.256246,-10362.883188,-2221.676944
59465.297050,-4071.132681,-11621.233289,-1302.362347
59465.297360,-1850.514855,-10436.903782,536.266849
59465.297670,2294.638420,-9474.636058,2987.772442
59465.297980,4367.215058,-9474.636058,5132.839837
59465.298289,4071.132681,-8882.471304,3907.087040
59465.298599,444.123565,-6513.812290,1455.581446
59465.298909,1184.329507,-8364.327145,3677.258390
59465.299219,1184.329507,-7179.997637,612.876398
59465.299528,-1998.556043,-7179.997637,-1685.410096
59465.299838,-4145.153275,-10732.986159,-1225.752797
59465.300148,-5551.544565,-11547.212695,-2221.676944
59465.300457,-5625.565159,-12287.418637,-1455.581446
59465.300767,-1850.514855,-12213.398043,1685.410096
59465.301077,1776.494261,-8364.327145,3064.381992
59465.301387,4663.297435,-8290.306550,4213.525239
59465.301696,2368.659014,-5403.503377,3064.381992
59465.302006,1776.494261,-6587.832884,4903.011187
59465.302316,1184.329507,-7772.162391,0.000000
59465.302626,1702.473667,-7402.059420,536.266849
59465.302935,0.000000,-7476.080014,76.609550
59465.303245,-2368.659014,-10140.821405,-1225.752797
59465.303555,-4737.318029,-10807.006753,-2221.676944
59465.303865,-4737.318029,-11917.315666,-1838.629195
59465.304174,-4737.318029,-11325.150913,0.000000
59465.304484,1998.556043,-11547.212695,3294.210641
59465.304794,1406.391290,-7550.100608,2374.896044
59465.305103,0.000000,-4811.338623,2451.505594
59465.305413,740.205942,-4811.338623,1225.752797
59465.305723,3478.967927,-7550.100608,2374.896044
59465.306033,2516.700203,-6587.832884,1455.581446
59465.306342,1776.494261,-6513.812290,383.047749
59465.306652,-740.205942,-9400.615463,-842.705048
59465.306962,-3552.988522,-10140.821405,-2451.505594
59465.307272,-4811.338623,-11547.212695,-2681.334243
59465.307581,-2960.823768,-15026.180623,-459.657299
59465.307891,-1628.453072,-10066.800811,-1225.752797
59465.308201,2368.659014,-10436.903782,4290.134789
59465.308511,3478.967927,-8882.471304,2374.896044
59465.308820,4663.297435,-7994.224174,3907.087040
59465.309130,2590.720797,-7105.977043,2834.553343
59465.309440,2664.741391,-7254.018232,1838.629195
59465.309749,2368.659014,-5847.626942,1149.143247
59465.310059,0.000000,-7476.080014,0.000000
59465.310369,-4589.276840,-7476.080014,-2451.505594
59465.310679,-4441.235652,-11325.150913,-2145.067394
59465.310988,-4219.173869,-13027.624579,-2528.115143
59465.311298,-4737.318029,-9548.656652,0.000000
59465.311608,2886.803174,-9474.636058,1149.143247
59465.311918,3478.967927,-10658.965565,4136.915689
59465.312227,888.247130,-7772.162391,2604.724693
59465.312537,0.000000,-8216.285956,2298.286494
59465.312847,888.247130,-7994.224174,2221.676944
59465.313157,444.123565,-4515.256246,995.924147
59465.313466,1702.473667,-6513.812290,1149.143247
59465.313776,-2368.659014,-7476.080014,0.000000
59465.314086,-1850.514855,-9474.636058,-1302.362347
59465.314395,-5625.565159,-11917.315666,0.000000
59465.314705,-2442.679609,-13027.624579,-76.609550
59465.315015,-592.164754,-11399.171507,766.095498
59465.315325,518.144159,-11769.274478,2068.457845
59465.315634,370.102971,-9844.739029,2451.505594
59465.315944,-148.041188,-9326.594869,2145.067394
59465.316254,222.061783,-8290.306550,2681.334243
59465.316564,2294.638420,-7402.059420,2681.334243
59465.316873,222.061783,-4811.338623,612.876398
59465.317183,-74.020594,-8882.471304,2374.896044
59465.317493,-5699.585753,-5403.503377,-2451.505594
59465.317802,-3034.844362,-12435.459826,-76.609550
59465.318112,-3552.988522,-10732.986159,0.000000
59465.318422,-888.247130,-9548.656652,1532.190996
59465.318732,1110.308913,-10066.800811,2068.457845
59465.319041,296.082377,-9400.615463,1838.629195
59465.319351,-74.020594,-9030.512492,1149.143247
59465.319661,-74.020594,-11251.130318,2374.896044
59465.319971,0.000000,-6587.832884,612.876398
59465.320280,2960.823768,-6587.832884,4060.306139
59465.320590,-74.020594,-9178.553681,-76.609550
59465.320900,-1924.535449,-8290.306550,612.876398
59465.321210,-6365.771101,-10732.986159,-1532.190996
59465.321519,-888.247130,-9918.759623,-76.609550
59465.321829,0.000000,-8438.347739,842.705048
59465.322139,1702.473667,-8512.368333,2068.457845
59465.322448,2294.638420,-10658.965565,2298.286494
59465.322758,222.061783,-8956.491898,2145.067394
59465.323068,1702.473667,-9178.553681,842.705048
59465.323378,0.000000,-9548.656652,1225.752797
59465.323687,3478.967927,-5921.647536,-76.609550
59465.323997,1776.494261,-8660.409521,2451.505594
59465.324307,-2960.823768,-8364.327145,-1838.629195
59465.324617,-3404.947333,-10881.027347,-1378.971896
59465.324926,-2072.576638,-10510.924376,-689.485948
59465.325236,666.185348,-10658.965565,536.266849
59465.325546,2294.638420,-9178.553681,2068.457845
59465.325856,592.164754,-9992.780217,1838.629195
59465.326165,2886.803174,-8882.471304,2221.676944
59465.326475,-1184.329507,-7179.997637,0.000000
59465.326785,2664.741391,-11843.295072,3524.039291
59465.327094,1184.329507,-7179.997637,306.438199
59465.327404,666.185348,-7179.997637,0.000000
59465.327714,518.144159,-10140.821405,995.924147
59465.328024,-2442.679609,-8808.450710,-689.485948
59465.328333,-2664.741391,-10732.986159,-536.266849
59465.328643,-74.020594,-10288.862594,766.095498
59465.328953,296.082377,-6883.915261,612.876398
59465.329263,1110.308913,-11103.089130,2374.896044
59465.329572,-74.020594,-7105.977043,-383.047749
59465.329882,0.000000,-9548.656652,1225.752797
59465.330192,0.000000,-7179.997637,612.876398
59465.330502,814.226536,-6217.729913,383.047749
59465.330811,1184.329507,-6809.894666,1072.533697
59465.331121,-666.185348,-9326.594869,842.705048
59465.331431,-2812.782580,-9474.636058,-689.485948
59465.331740,-3552.988522,-11325.150913,-612.876398
59465.332050,-3034.844362,-11621.233289,-383.047749
59465.332360,-74.020594,-10658.965565,-76.609550
59465.332670,-2368.659014,-8364.327145,0.000000
59465.332979,-1776.494261,-8660.409521,2451.505594
59465.333289,-3552.988522,-6587.832884,0.000000
59465.333599,-666.185348,-8142.265362,1608.800546
59465.333909,888.247130,-6587.832884,2374.896044
59465.334218,2146.597232,-6365.771101,2145.067394
59465.334528,888.247130,-7624.121203,1838.629195
59465.334838,-2368.659014,-8068.244768,383.047749
59465.335147,-4737.318029,-9548.656652,0.000000
59465.335457,-1554.432478,-13471.748144,-76.609550
59465.335767,-2960.823768,-8660.409521,0.000000
59465.336077,-148.041188,-11769.274478,2911.162892
59465.336386,-1258.350101,-8660.409521,0.000000
59465.336696,-370.102971,-9474.636058,1149.143247
59465.337006,-740.205942,-8808.450710,1302.362347
59465.337316,1406.391290,-7031.956449,2374.896044
59465.337625,2886.803174,-5255.462188,2451.505594
59465.337935,592.164754,-6735.874072,2451.505594
59465.338245,-74.020594,-7994.224174,1149.143247
59465.338555,-3552.988522,-9548.656652,0.000000
59465.338864,-1850.514855,-11843.295072,-2528.115143
59465.339174,-2368.659014,-9548.656652,0.000000
59465.339484,-74.020594,-10658.965565,-689.485948
59465.339793,-74.020594,-11843.295072,1915.238745
59465.340103,-518.144159,-9178.553681,766.095498
59465.340413,-666.185348,-9474.636058,919.314598
59465.340723,1480.411884,-8290.306550,1685.410096
59465.341032,2220.617826,-5551.544565,2374.896044
59465.341342,3182.885551,-7105.977043,2374.896044
59465.341652,592.164754,-7179.997637,1225.752797
59465.341962,-74.020594,-9474.636058,-76.609550
59465.342271,-3552.988522,-9548.656652,0.000000
59465.342581,-74.020594,-11843.295072,-76.609550
59465.342891,1702.473667,-10658.965565,995.924147
59465.343201,888.247130,-11547.212695,919.314598
59465.343510,-370.102971,-10436.903782,536.266849
59465.343820,-1554.432478,-10807.006753,76.609550
59465.344130,-222.061783,-10066.800811,1762.019645
59465.344439,1406.391290,-6439.791695,842.705048
59465.344749,1184.329507,-5995.668130,1532.190996
59465.345059,2886.803174,-7105.977043,1149.143247
59465.345369,0.000000,-5995.668130,1225.752797
59465.345678,2294.638420,-11251.130318,2374.896044
59465.345988,0.000000,-9178.553681,612.876398
59465.346298,-222.061783,-9326.594869,-229.828649
59465.346608,-1480.411884,-10807.006753,306.438199
59465.346917,-2738.761985,-11325.150913,-153.219100
59465.347227,-1554.432478,-10362.883188,842.705048
59465.347537,-666.185348,-11251.130318,-76.609550
59465.347847,0.000000,-6587.832884,0.000000
59465.348156,2368.659014,-8364.327145,4903.011187
59465.348466,3478.967927,-9474.636058,3600.648841
59465.348776,2590.720797,-8882.471304,4213.525239
59465.349085,-1184.329507,-9548.656652,1838.629195
59465.349395,148.041188,-9030.512492,1302.362347
59465.349705,-518.144159,-8290.306550,306.438199
59465.350015,-1628.453072,-9770.718434,0.000000
59465.350324,-2738.761985,-10584.944971,0.000000
59465.350634,-3849.070898,-10732.986159,-612.876398
59465.350944,-3182.885551,-11325.150913,-842.705048
59465.351254,1184.329507,-10732.986159,4136.915689
59465.351563,2294.638420,-8290.306550,2374.896044
59465.351873,888.247130,-9178.553681,4903.011187
59465.352183,0.000000,-6291.750507,1532.190996
59465.352492,-592.164754,-8142.265362,919.314598
59465.352802,-888.247130,-9844.739029,1455.581446
59465.353112,0.000000,-8438.347739,612.876398
59465.353422,-222.061783,-10288.862594,0.000000
59465.353731,-2886.803174,-9548.656652,0.000000
59465.354041,-3775.050304,-9770.718434,-1302.362347
59465.354351,-2960.823768,-12657.521608,1838.629195
59465.354661,-74.020594,-9474.636058,-76.609550
59465.354970,0.000000,-7179.997637,2451.505594
59465.355280,444.123565,-7772.162391,1532.190996
59465.355590,814.226536,-7328.038826,2451.505594
59465.355900,1036.288319,-7772.162391,1991.848295
59465.356209,1628.453072,-9400.615463,2221.676944
59465.356519,2368.659014,-7179.997637,766.095498
59465.356829,296.082377,-8808.450710,766.095498
59465.357138,-74.020594,-10955.047942,842.705048
59465.357448,-2960.823768,-10732.986159,612.876398
59465.357758,-2442.679609,-13027.624579,-689.485948
59465.358068,-3552.988522,-9548.656652,0.000000
59465.358377,222.061783,-6735.874072,153.219100
59465.358687,1628.453072,-7698.141797,1608.800546
59465.358997,1850.514855,-8068.244768,2298.286494
59465.359307,1332.370696,-7624.121203,1685.410096
59465.359616,1628.453072,-9104.533087,842.705048
59465.359926,2516.700203,-8882.471304,1991.848295
59465.360236,2886.803174,-9178.553681,1762.019645
59465.360546,-3552.988522,-9548.656652,0.000000
59465.360855,-74.020594,-11843.295072,-76.609550
59465.361165,-6513.812290,-9548.656652,-2451.505594
59465.361475,-3108.864956,-11843.295072,-842.705048
59465.361784,444.123565,-7031.956449,459.657299
59465.362094,1554.432478,-7254.018232,1838.629195
59465.362404,518.144159,-8068.244768,1762.019645
59465.362714,-1628.453072,-5847.626942,1072.533697
59465.363023,0.000000,-9548.656652,1838.629195
59465.363333,5699.585753,-8290.306550,3600.648841
59465.363643,0.000000,-4811.338623,0.000000
59465.363953,2294.638420,-11547.212695,2374.896044
59465.364262,-4515.256246,-7772.162391,-2298.286494
59465.364572,-2738.761985,-11695.253884,-1608.800546
59465.364882,-4293.194464,-12287.418637,-1225.752797
59465.365192,-3330.926739,-9770.718434,-1608.800546
59465.365501,-666.185348,-8290.306550,-383.047749
59465.365811,1110.308913,-8882.471304,2374.896044
59465.366121,3182.885551,-7328.038826,2374.896044
59465.366430,1776.494261,-8364.327145,4290.134789
59465.366740,3478.967927,-7105.977043,1149.143247
59465.367050,1184.329507,-7179.997637,1838.629195
59465.367360,-666.185348,-7846.182985,0.000000
59465.367669,-1850.514855,-11399.171507,-76.609550
59465.367979,-4959.379811,-10955.047942,-1991.848295
59465.368289,-5181.441594,-13027.624579,-1225.752797
59465.368599,-2738.761985,-10362.883188,0.000000
59465.368908,-666.185348,-7994.224174,1149.143247
59465.369218,-74.020594,-7994.224174,2681.334243
59465.369528,-1480.411884,-4811.338623,0.000000
59465.369837,3478.967927,-9474.636058,4826.401637
59465.370147,592.164754,-6513.812290,1608.800546
59465.370457,2294.638420,-6217.729913,1149.143247
59465.370767,592.164754,-8660.409521,842.705048
59465.371076,-1036.288319,-10362.883188,229.828649
59465.371386,-2960.823768,-9992.780217,-995.924147
59465.371696,-5033.400406,-12213.398043,-1532.190996
59465.372006,-2738.761985,-12435.459826,-76.609550
59465.372315,-666.185348,-8438.347739,-76.609550
59465.372625,0.000000,-7772.162391,0.000000
59465.372935,2294.638420,-9474.636058,4826.401637
59465.373245,1110.308913,-7105.977043,1762.019645
59465.373554,3478.967927,-9178.553681,2987.772442
59465.373864,2368.659014,-7476.080014,2451.505594
59465.374174,1998.556043,-8882.471304,2145.067394
59465.374483,-74.020594,-10288.862594,1455.581446
59465.374793,-1406.391290,-8956.491898,-842.705048
59465.375103,-1258.350101,-12361.439231,-76.609550
59465.375413,-1850.514855,-11695.253884,-1302.362347
59465.375722,-2368.659014,-7772.162391,-3677.258390
59465.376032,888.247130,-10436.903782,2451.505594
59465.376342,-74.020594,-9474.636058,1149.143247
59465.376652,2886.803174,-9178.553681,2374.896044
59465.376961,1480.411884,-8364.327145,1838.629195
59465.377271,3034.844362,-8364.327145,2298.286494
59465.377581,2812.782580,-7624.121203,1685.410096
59465.377891,888.247130,-10436.903782,1378.971896
59465.378200,-74.020594,-10140.821405,612.876398
59465.378510,-3478.967927,-10955.047942,-1532.190996
59465.378820,-3849.070898,-11029.068536,-4290.134789
59465.379129,592.164754,-10436.903782,1532.190996
59465.379439,1998.556043,-9474.636058,1149.143247
59465.379749,2220.617826,-9474.636058,3600.648841
59465.380059,296.082377,-7179.997637,1838.629195
59465.380368,1554.432478,-8364.327145,2528.115143
59465.380678,2886.803174,-8364.327145,2528.115143
59465.380988,2738.761985,-7105.977043,2374.896044
59465.381298,296.082377,-8660.409521,1225.752797
59465.381607,-1776.494261,-9252.574275,-459.657299
59465.381917,-3775.050304,-8660.409521,-4060.306139
59465.382227,-4145.153275,-13397.727550,306.438199
59465.382537,-1258.350101,-10658.965565,-1302.362347
59465.382846,-1480.411884,-10288.862594,1378.971896
59465.383156,-1258.350101,-9104.533087,842.705048
59465.383466,0.000000,-7550.100608,1762.019645
59465.383776,2294.638420,-7846.182985,3140.991542
59465.384085,4071.132681,-7328.038826,3753.867940
59465.384395,2368.659014,-5995.668130,2451.505594
59465.384705,1258.350101,-8660.409521,1685.410096
59465.385015,-666.185348,-9474.636058,-689.485948
59465.385324,-3627.009116,-10066.800811,-2528.115143
59465.385634,-6513.812290,-13101.645173,-1838.629195
59465.385944,-3849.070898,-11621.233289,-1072.533697
59465.386254,-4145.153275,-6587.832884,0.000000
59465.386564,0.000000,-9548.656652,2451.505594
59465.386873,-370.102971,-7550.100608,2374.896044
59465.387183,0.000000,-7402.059420,2757.943793
59465.387493,1184.329507,-7179.997637,3064.381992
59465.387803,2960.823768,-6217.729913,3064.381992
59465.388112,3478.967927,-8882.471304,3600.648841
59465.388422,0.000000,-7772.162391,0.000000
59465.388732,-1776.494261,-10362.883188,-306.438199
59465.389042,-5625.565159,-13323.706956,-995.924147
59465.389352,-5699.585753,-12065.356855,-3140.991542
59465.389661,-3552.988522,-8956.491898,-1915.238745
59465.389971,-3182.885551,-11029.068536,153.219100
59465.390281,-518.144159,-8512.368333,1149.143247
59465.390591,296.082377,-5403.503377,1838.629195
59465.390900,4293.194464,-7179.997637,4443.353888
59465.391210,6439.791695,-7105.977043,4826.401637
59465.391520,3552.988522,-4811.338623,3677.258390
59465.391830,4663.297435,-9474.636058,2987.772442
59465.392140,-2368.659014,-10140.821405,0.000000
59465.392449,-4959.379811,-11843.295072,-2987.772442
59465.392759,-5625.565159,-12805.562797,-2911.162892
59465.393069,-3256.906145,-9474.636058,-2528.115143
59465.393379,-2738.761985,-10362.883188,-919.314598
59465.393688,-3627.009116,-7772.162391,0.000000
59465.393998,-592.164754,-7920.203579,1455.581446
59465.394308,3552.988522,-8956.491898,6128.763984
59465.394618,5551.544565,-6513.812290,3600.648841
59465.394927,3552.988522,-4811.338623,2451.505594
59465.395237,2664.741391,-7179.997637,3064.381992
59465.395547,2516.700203,-9178.553681,919.314598
59465.395857,-2590.720797,-10140.821405,-1532.190996
59465.396167,-5477.523971,-12805.562797,-2604.724693
59465.396476,-4071.132681,-10955.047942,-2834.553343
59465.396786,-2442.679609,-9622.677246,-1532.190996
59465.397096,-2368.659014,-10140.821405,0.000000
59465.397406,1406.391290,-11325.150913,4213.525239
59465.397715,1110.308913,-8290.306550,1762.019645
59465.398025,2960.823768,-6587.832884,3677.258390
59465.398335,5033.400406,-4811.338623,3370.820191
59465.398645,5255.462188,-6809.894666,4060.306139
59465.398955,1924.535449,-7624.121203,1685.410096
59465.399264,-2368.659014,-9030.512492,-995.924147
59465.399574,-5033.400406,-12731.542202,-2374.896044
59465.399884,-3923.091493,-10658.965565,-2528.115143
59465.400194,-4441.235652,-8808.450710,-2451.505594
59465.400503,-1258.350101,-14211.954086,-76.609550
59465.400813,-2442.679609,-7698.141797,-1302.362347
59465.401123,-1184.329507,-9548.656652,3064.381992
59465.401433,1036.288319,-6587.832884,3677.258390
59465.401743,4959.379811,-5847.626942,5439.278036
59465.402052,5255.462188,-5699.585753,4519.963438
59465.402362,3108.864956,-7402.059420,3447.429741
59465.402672,-962.267725,-8660.409521,76.609550
59465.402982,-3627.009116,-11843.295072,-1302.362347
59465.403291,-6809.894666,-10807.006753,-3370.820191
59465.403601,-4737.318029,-9548.656652,-2451.505594
59465.403911,-2442.679609,-13619.789333,-76.609550
59465.404221,-4367.215058,-9548.656652,-1149.143247
59465.404530,-1258.350101,-8216.285956,0.000000
59465.404840,1554.432478,-9252.574275,3677.258390
59465.405150,4737.318029,-6143.709319,5209.449386
59465.405460,5255.462188,-6439.791695,5056.230287
59465.405770,3108.864956,-7402.059420,3600.648841
59465.406079,-74.020594,-9178.553681,1762.019645
59465.406389,-5403.503377,-11843.295072,-1915.238745
59465.406699,-7105.977043,-7772.162391,-3677.258390
59465.407009,-1258.350101,-12731.542202,-383.047749
59465.407318,-3330.926739,-10362.883188,-1915.238745
59465.407628,-3775.050304,-10658.965565,-1762.019645
59465.407938,-1332.370696,-8512.368333,1072.533697
59465.408248,1110.308913,-8512.368333,2757.943793
59465.408558,2738.761985,-6291.750507,3983.696590
59465.408867,5107.421000,-5329.482782,4826.401637
59465.409177,6883.915261,-9474.636058,6358.592633
59465.409487,4367.215058,-8290.306550,1149.143247
59465.409797,-4737.318029,-9548.656652,0.000000
59465.410106,-2442.679609,-13027.624579,-995.924147
59465.410416,-4219.173869,-10066.800811,-4060.306139
59465.410726,-3034.844362,-11843.295072,-3140.991542
59465.411036,-3997.112087,-11769.274478,-1532.190996
59465.411346,-1776.494261,-9622.677246,306.438199
59465.411655,1110.308913,-9252.574275,1991.848295
59465.411965,4515.256246,-7254.018232,4903.011187
59465.412275,7105.977043,-5995.668130,6741.640382
59465.412585,7031.956449,-7994.224174,7277.907231
59465.412894,4071.132681,-7105.977043,536.266849
59465.413204,-1184.329507,-9548.656652,612.876398
59465.413514,-2442.679609,-12731.542202,-1302.362347
59465.413824,-2590.720797,-9770.718434,-2528.115143
59465.414134,-3849.070898,-9178.553681,-3064.381992
59465.414443,-4293.194464,-11843.295072,-1302.362347
59465.414753,-3256.906145,-10732.986159,-995.924147
59465.415063,-666.185348,-10288.862594,1838.629195
59465.415373,1184.329507,-7179.997637,4903.011187
59465.415682,4959.379811,-5625.565159,4903.011187
59465.415992,7031.956449,-7105.977043,4826.401637
59465.416302,2664.741391,-5995.668130,2451.505594
59465.416612,1998.556043,-10658.965565,1149.143247
59465.416921,-2886.803174,-11547.212695,-76.609550
59465.417231,-4589.276840,-10066.800811,-2681.334243
59465.417541,-4737.318029,-9252.574275,-2604.724693
59465.417851,-4293.194464,-11621.233289,-536.266849
59465.418161,-1924.535449,-9548.656652,0.000000
59465.418470,0.000000,-7772.162391,2451.505594
59465.418780,3182.885551,-8068.244768,4903.011187
59465.419090,7031.956449,-8290.306550,4826.401637
59465.419400,3034.844362,-4811.338623,2911.162892
59465.419709,3552.988522,-8216.285956,3830.477490
59465.420019,-222.061783,-8882.471304,1762.019645
59465.420329,-5033.400406,-10732.986159,-2451.505594
59465.420639,-5699.585753,-10955.047942,-3600.648841
59465.420949,-5033.400406,-10214.842000,-3447.429741
59465.421258,-5921.647536,-11473.192101,-3677.258390
59465.421568,-7105.977043,-9548.656652,-2451.505594
59465.421878,-2664.741391,-10140.821405,0.000000
59465.422188,4071.132681,-11251.130318,4826.401637
59465.422497,3478.967927,-5477.523971,4366.744339
59465.422807,6217.729913,-4811.338623,6281.983084
59465.423117,6217.729913,-7105.977043,7277.907231
59465.423427,3552.988522,-7698.141797,2374.896044
59465.423737,-1184.329507,-10436.903782,0.000000
59465.424046,-3923.091493,-11103.089130,-2145.067394
59465.424356,-4219.173869,-10732.986159,-4290.134789
59465.424666,-7105.977043,-9548.656652,-4903.011187
59465.424976,-5625.565159,-11325.150913,-2451.505594
59465.425285,-1258.350101,-13027.624579,-76.609550
59465.425595,-1258.350101,-8808.450710,536.266849
59465.425905,2960.823768,-7772.162391,4903.011187
59465.426215,5921.647536,-6143.709319,7048.078582
59465.426524,6883.915261,-6217.729913,5209.449386
59465.426834,4071.132681,-6661.853478,3447.429741
59465.427144,222.061783,-8956.491898,0.000000
59465.427454,-2664.741391,-10140.821405,-2528.115143
59465.427764,-3923.091493,-8734.430116,-5745.716235
59465.428073,-4441.235652,-10732.986159,-3064.381992
59465.428383,-1554.432478,-14211.954086,-689.485948
59465.428693,-4515.256246,-8956.491898,-2604.724693
59465.429003,0.000000,-11029.068536,2681.334243
59465.429312,2368.659014,-7179.997637,3677.258390
59465.429622,6291.750507,-6217.729913,5515.887586
59465.429932,6661.853478,-5847.626942,5362.668486
59465.430242,5107.421000,-6809.894666,3447.429741
59465.430552,814.226536,-7994.224174,-76.609550
59465.430861,-1850.514855,-10510.924376,-3140.991542
59465.431171,-4071.132681,-7772.162391,-4903.011187
59465.431481,-2664.741391,-11769.274478,-612.876398
59465.431791,-5403.503377,-11547.212695,-3140.991542
59465.432100,-6957.935855,-10140.821405,-1532.190996
59465.432410,-3552.988522,-9548.656652,0.000000
59465.432720,814.226536,-9918.759623,2374.896044
59465.433030,3034.844362,-6513.812290,4060.306139
59465.433340,4811.338623,-6513.812290,4903.011187
59465.433649,5847.626942,-5921.647536,4826.401637
59465.433959,4663.297435,-6513.812290,-76.609550
59465.434269,-1184.329507,-7772.162391,-3064.381992
59465.434579,-1776.494261,-9844.739029,612.876398
59465.434888,-1850.514855,-10066.800811,-2221.676944
59465.435198,-5625.565159,-11325.150913,-2451.505594
59465.435508,-7105.977043,-9548.656652,-2451.505594
59465.435818,-3849.070898,-11103.089130,459.657299
59465.436127,-740.205942,-10140.821405,2604.724693
59465.436437,2442.679609,-7179.997637,3677.258390
59465.436747,4811.338623,-7105.977043,6665.030833
59465.437057,7031.956449,-7105.977043,4826.401637
59465.437367,2294.638420,-5329.482782,1149.143247
59465.437676,-2368.659014,-8364.327145,612.876398
59465.437986,-2442.679609,-9474.636058,-1915.238745
59465.438296,-5329.482782,-8956.491898,-3677.258390
59465.438606,-6513.812290,-9992.780217,-3600.648841
59465.438915,-6513.812290,-11029.068536,-2757.943793
59465.439225,-4885.359217,-11621.233289,-1072.533697
59465.439535,-1332.370696,-10510.924376,1532.190996
59465.439845,3478.967927,-9992.780217,4826.401637
59465.440155,7624.121203,-8882.471304,8503.660028
59465.440464,7031.956449,-7105.977043,6052.154434
59465.440774,2368.659014,-3034.844362,1532.190996
59465.441084,2886.803174,-10658.965565,2681.334243
59465.441394,-1036.288319,-9252.574275,-1838.629195
59465.441703,-2442.679609,-8290.306550,-2528.115143
59465.442013,-4219.173869,-10658.965565,-2681.334243
59465.442323,-5107.421000,-11399.171507,-2528.115143
59465.442633,-4663.297435,-10955.047942,-1915.238745
59465.442943,-1776.494261,-12879.583391,1225.752797
59465.443252,1480.411884,-11177.109724,4443.353888
59465.443562,5847.626942,-9474.636058,6971.469032
59465.443872,7031.956449,-7105.977043,4826.401637
59465.444182,3552.988522,-5107.421000,3064.381992
59465.444491,2442.679609,-6883.915261,153.219100
59465.444801,-74.020594,-10658.965565,-76.609550
59465.445111,0.000000,-6883.915261,-1225.752797
59465.445421,-2886.803174,-9992.780217,-2068.457845
59465.445730,-5477.523971,-10510.924376,-3217.601092
59465.446040,-7105.977043,-11029.068536,-2451.505594
59465.446350,-3552.988522,-12509.480420,1225.752797
59465.446660,2294.638420,-13619.789333,4826.401637
59465.446970,2886.803174,-5625.565159,2068.457845
59465.447279,4737.318029,-5995.668130,4903.011187
59465.447589,5847.626942,-6809.894666,4519.963438
59465.447899,4663.297435,-8290.306550,2374.896044
59465.448209,-1110.308913,-9844.739029,153.219100
59465.448518,-1184.329507,-9178.553681,-1608.800546
59465.448828,-1554.432478,-9844.739029,-2298.286494
59465.449138,-5921.647536,-10140.821405,-3370.820191
59465.449448,-6513.812290,-10140.821405,-2451.505594
59465.449758,-2664.741391,-13915.871710,1685.410096
59465.450067,-666.185348,-11843.295072,-76.609550
59465.450377,0.000000,-7179.997637,1838.629195
59465.450687,4071.132681,-8882.471304,4826.401637
59465.450997,5847.626942,-8290.306550,5439.278036
59465.451306,3478.967927,-5329.482782,2681.334243
59465.451616,1406.391290,-8290.306550,1608.800546
59465.451926,74.020594,-8660.409521,536.266849
59465.452236,-3552.988522,-6587.832884,-3677.258390
59465.452546,-6513.812290,-9548.656652,-2451.505594
59465.452855,-4441.235652,-12805.562797,612.876398
59465.453165,-4811.338623,-11843.295072,-1302.362347
59465.453475,-4737.318029,-10732.986159,0.000000
59465.453785,1776.494261,-9474.636058,3907.087040
59465.454094,3552.988522,-8438.347739,4596.572988
59465.454404,3034.844362,-6735.874072,3600.648841
59465.454714,2220.617826,-6143.709319,2834.553343
59465.455024,1036.288319,-8512.368333,1915.238745
59465.455333,-1332.370696,-7994.224174,0.000000
59465.455643,-4145.153275,-5107.421000,-3677.258390
59465.455953,-7105.977043,-9548.656652,-2451.505594
59465.456263,-3034.844362,-12879.583391,-842.705048
59465.456573,-6661.853478,-10288.862594,-2987.772442
59465.456882,-2442.679609,-14137.933492,2374.896044
59465.457192,740.205942,-8956.491898,3064.381992
59465.457502,4219.173869,-7846.182985,4749.792088
59465.457812,3775.050304,-7105.977043,4519.963438
59465.458121,2886.803174,-6809.894666,3447.429741
59465.458431,2294.638420,-6513.812290,2374.896044
59465.458741,-666.185348,-7402.059420,-383.047749
59465.459051,-3552.988522,-4811.338623,-2451.505594
59465.459361,-1036.288319,-11843.295072,-76.609550
59465.459670,-4515.256246,-10140.821405,-2528.115143
59465.459980,-3997.112087,-11325.150913,-306.438199
59465.460290,-4737.318029,-10732.986159,-1225.752797
59465.460600,-740.205942,-10066.800811,995.924147
59465.460909,3108.864956,-7328.038826,2757.943793
59465.461219,4219.173869,-7476.080014,4366.744339
59465.461529,4663.297435,-7105.977043,4213.525239
59465.461839,3478.967927,-7105.977043,3600.648841
59465.462149,0.000000,-6587.832884,0.000000
59465.462458,2072.576638,-9104.533087,1072.533697
59465.462768,-1850.514855,-8660.409521,-2374.896044
59465.463078,-4145.153275,-10732.986159,0.000000
59465.463388,-5625.565159,-9844.739029,-3370.820191
59465.463697,-4367.215058,-11991.336260,-1225.752797
59465.464007,-1776.494261,-10955.047942,612.876398
59465.464317,2146.597232,-8586.388927,2374.896044
59465.464627,5847.626942,-9474.636058,6052.154434
59465.464936,6439.791695,-7105.977043,6052.154434
59465.465246,4663.297435,-6513.812290,2374.896044
59465.465556,0.000000,-7179.997637,1225.752797
59465.465866,2886.803174,-8882.471304,1762.019645
59465.466176,-2368.659014,-7179.997637,-2451.505594
59465.466485,-5551.544565,-10732.986159,-3140.991542
59465.466795,-5625.565159,-11325.150913,-2757.943793
59465.467105,-5255.462188,-12805.562797,-2298.286494
59465.467415,-3404.947333,-12139.377449,-76.609550
59465.467724,1998.556043,-10510.924376,4826.401637
59465.468034,7031.956449,-9474.636058,6588.421283
59465.468344,7031.956449,-8882.471304,4826.401637
59465.468654,1628.453072,-4219.173869,2451.505594
59465.468964,2960.823768,-8882.471304,4826.401637
59465.469273,740.205942,-5995.668130,0.000000
59465.469583,518.144159,-6513.812290,-842.705048
59465.469893,-3552.988522,-9548.656652,-1838.629195
59465.470203,-5773.606348,-10362.883188,-2987.772442
59465.470512,-6439.791695,-12213.398043,-3447.429741
59465.470822,-4737.318029,-14285.974681,0.000000
59465.471132,-148.041188,-11917.315666,1225.752797
59465.471442,3182.885551,-10658.965565,4366.744339
59465.471752,3478.967927,-8290.306550,3600.648841
59465.472061,0.000000,-4219.173869,2451.505594
59465.472371,518.144159,-7105.977043,1225.752797
59465.472681,3478.967927,-7994.224174,2834.553343
59465.472991,1628.453072,-6217.729913,919.314598
59465.473300,-888.247130,-8956.491898,-76.609550
59465.473610,-3849.070898,-9844.739029,-1455.581446
59465.473920,-5625.565159,-10732.986159,-2451.505594
59465.474230,-4145.153275,-13101.645173,0.000000
59465.474539,-74.020594,-13027.624579,2374.896044
59465.474849,2294.638420,-8882.471304,2068.457845
59465.475159,1776.494261,-8364.327145,3677.258390
59465.475469,4071.132681,-7105.977043,2374.896044
59465.475779,2294.638420,-9178.553681,3294.210641
59465.476088,518.144159,-8512.368333,1302.362347
59465.476398,1184.329507,-6809.894666,459.657299
59465.476708,-74.020594,-8290.306550,-76.609550
59465.477018,-4737.318029,-9548.656652,-2451.505594
59465.477327,-4737.318029,-7179.997637,-4903.011187
59465.477637,-3849.070898,-13397.727550,612.876398
59465.477947,-1850.514855,-10658.965565,-689.485948
59465.478257,0.000000,-7179.997637,0.000000
59465.478567,4071.132681,-9474.636058,4213.525239
59465.478876,4663.297435,-8586.388927,4519.963438
59465.479186,2146.597232,-7550.100608,2528.115143
59465.479496,2072.576638,-9252.574275,2068.457845
59465.479806,2368.659014,-7328.038826,1149.143247
59465.480115,0.000000,-6291.750507,0.000000
59465.480425,0.000000,-7179.997637,-2757.943793
59465.480735,-2368.659014,-9548.656652,0.000000
59465.481045,-2738.761985,-12435.459826,-1302.362347
59465.481355,-3552.988522,-11325.150913,0.000000
59465.481664,-74.020594,-11843.295072,2374.896044
59465.481974,1924.535449,-9844.739029,3217.601092
59465.482284,2516.700203,-8142.265362,2834.553343
59465.482594,1628.453072,-7624.121203,2451.505594
59465.482904,1850.514855,-8882.471304,2757.943793
59465.483213,1702.473667,-5995.668130,536.266849
59465.483523,666.185348,-4737.318029,-76.609550
59465.483833,0.000000,-7179.997637,0.000000
59465.484143,-666.185348,-10658.965565,-76.609550
59465.484453,-5921.647536,-10732.986159,-2451.505594
59465.484762,-2442.679609,-15396.283594,-76.609550
59465.485072,-2368.659014,-9844.739029,0.000000
59465.485382,2294.638420,-11251.130318,1149.143247
59465.485692,1184.329507,-8364.327145,2987.772442
59465.486002,1554.432478,-7105.977043,2604.724693
59465.486311,1702.473667,-7698.141797,2374.896044
59465.486621,1702.473667,-8882.471304,3600.648841
59465.486931,1702.473667,-3849.070898,229.828649
59465.487241,-2368.659014,-8660.409521,0.000000
59465.487551,-666.185348,-10658.965565,-76.609550
59465.487860,-2960.823768,-9844.739029,612.876398
59465.488170,-5329.482782,-11917.315666,0.000000
59465.488480,-3330.926739,-8734.430116,-1378.971896
59465.488790,-2072.576638,-10362.883188,459.657299
59465.489100,518.144159,-8956.491898,1608.800546
59465.489410,-74.020594,-9474.636058,2374.896044
59465.489719,-74.020594,-10658.965565,2374.896044
59465.490029,0.000000,-7179.997637,0.000000
59465.490339,3552.988522,-6291.750507,2604.724693
59465.490649,1702.473667,-6513.812290,-76.609550
59465.490959,-2960.823768,-7179.997637,1225.752797
59465.491268,-3552.988522,-9548.656652,-1838.629195
59465.491578,-3330.926739,-13175.665768,-536.266849
59465.491888,-1998.556043,-10362.883188,-229.828649
59465.492198,-962.267725,-10288.862594,229.828649
59465.492508,1702.473667,-9474.636058,2374.896044
59465.492817,-74.020594,-11251.130318,2374.896044
59465.493127,-2368.659014,-7402.059420,0.000000
59465.493437,0.000000,-10436.903782,2451.505594
59465.493747,1702.473667,-5995.668130,0.000000
59465.494057,3849.070898,-7772.162391,3217.601092
59465.494366,1184.329507,-8364.327145,1838.629195
59465.494676,-1332.370696,-9104.533087,-229.828649
59465.494986,-3701.029710,-10881.027347,-919.314598
59465.495296,-2812.782580,-10214.842000,-842.705048
59465.495606,-370.102971,-9178.553681,-383.047749
59465.495916,-74.020594,-9474.636058,-76.609550
59465.496225,0.000000,-6661.853478,0.000000
59465.496535,0.000000,-8956.491898,2451.505594
59465.496845,2294.638420,-9178.553681,1762.019645
59465.497155,2368.659014,-6883.915261,4136.915689
59465.497465,3552.988522,-6587.832884,2451.505594
59465.497774,1998.556043,-8290.306550,1762.019645
59465.498084,0.000000,-8216.285956,229.828649
59465.498394,-2960.823768,-10362.883188,-612.876398
59465.498704,-2738.761985,-9326.594869,-1302.362347
59465.499014,-2738.761985,-9474.636058,-76.609550
59465.499323,-3552.988522,-9548.656652,0.000000
59465.499633,592.164754,-10140.821405,1991.848295
59465.499943,-74.020594,-8882.471304,-76.609550
59465.500253,1184.329507,-10881.027347,3524.039291
59465.500563,0.000000,-7179.997637,1225.752797
59465.500872,3256.906145,-6439.791695,1838.629195
59465.501182,1628.453072,-7476.080014,2145.067394
59465.501492,370.102971,-8512.368333,1149.143247
59465.501802,-1258.350101,-10362.883188,-76.609550
59465.502112,-1850.514855,-11843.295072,-76.609550
59465.502422,-3849.070898,-7772.162391,-2145.067394
59465.502731,888.247130,-10881.027347,2681.334243
59465.503041,-370.102971,-7179.997637,-995.924147
59465.503351,0.000000,-9548.656652,3064.381992
59465.503661,-1184.329507,-8364.327145,612.876398
59465.503971,1184.329507,-8216.285956,2451.505594
59465.504280,2072.576638,-5995.668130,1838.629195
59465.504590,222.061783,-7920.203579,1302.362347
59465.504900,-74.020594,-9474.636058,-76.609550
59465.505210,-1258.350101,-13027.624579,-76.609550
59465.505520,-5921.647536,-9548.656652,-3064.381992
59465.505829,-1702.473667,-11177.109724,612.876398
59465.506139,-1258.350101,-8290.306550,-1302.362347
59465.506449,-2368.659014,-9548.656652,1225.752797
59465.506759,-2146.597232,-7179.997637,0.000000
59465.507069,-1628.453072,-9844.739029,1378.971896
59465.507378,-296.082377,-9252.574275,1838.629195
59465.507688,2146.597232,-6217.729913,1762.019645
59465.507998,4663.297435,-9474.636058,3294.210641
59465.508308,2294.638420,-9474.636058,3600.648841
59465.508618,-1258.350101,-8290.306550,-689.485948
59465.508927,-3552.988522,-11325.150913,0.000000
59465.509237,-1554.432478,-10658.965565,-1302.362347
59465.509547,-3552.988522,-8364.327145,0.000000
59465.509857,-1776.494261,-10732.986159,919.314598
59465.510167,-2146.597232,-9474.636058,-153.219100
59465.510477,-2812.782580,-10214.842000,0.000000
59465.510786,-1554.432478,-9548.656652,842.705048
59465.511096,4071.132681,-8290.306550,2987.772442
59465.511406,4663.297435,-8290.306550,4596.572988
59465.511716,1110.308913,-5625.565159,536.266849
59465.512026,0.000000,-7179.997637,1225.752797
59465.512335,-1258.350101,-9548.656652,-2221.676944
59465.512645,0.000000,-9548.656652,0.000000
59465.512955,0.000000,-8512.368333,0.000000
59465.513265,0.000000,-10732.986159,919.314598
59465.513575,-1332.370696,-9844.739029,-536.266849
59465.513884,-1850.514855,-10510.924376,-153.219100
59465.514194,-74.020594,-13471.748144,2298.286494
59465.514504,2886.803174,-9252.574275,2604.724693
59465.514814,4663.297435,-8290.306550,2374.896044
59465.515124,592.164754,-6587.832884,1225.752797
59465.515433,2368.659014,-8364.327145,4903.011187
59465.515743,-1776.494261,-7179.997637,1225.752797
59465.516053,-370.102971,-8882.471304,383.047749
59465.516363,74.020594,-8142.265362,459.657299
59465.516673,-74.020594,-10510.924376,995.924147
59465.516983,-1332.370696,-10658.965565,536.266849
59465.517292,-1406.391290,-11917.315666,919.314598
59465.517602,-1184.329507,-11325.150913,2451.505594
59465.517912,-74.020594,-9474.636058,-76.609550
59465.518222,148.041188,-5107.421000,766.095498
59465.518532,3997.112087,-10140.821405,6128.763984
59465.518841,0.000000,-4811.338623,306.438199
59465.519151,-74.020594,-7994.224174,842.705048
59465.519461,-888.247130,-9918.759623,919.314598
59465.519771,296.082377,-9252.574275,766.095498
59465.520081,296.082377,-9622.677246,919.314598
59465.520390,0.000000,-10140.821405,612.876398
59465.520700,-3552.988522,-8364.327145,0.000000
59465.521010,-370.102971,-13027.624579,1149.143247
59465.521320,-1998.556043,-9326.594869,0.000000
59465.521630,0.000000,-7179.997637,2451.505594
59465.521939,518.144159,-7105.977043,0.000000
59465.522249,1110.308913,-8734.430116,2221.676944
59465.522559,-962.267725,-8068.244768,612.876398
59465.522869,-1184.329507,-9696.697840,842.705048
59465.523179,-222.061783,-8512.368333,536.266849
59465.523489,0.000000,-7179.997637,0.000000
59465.523798,-3552.988522,-7179.997637,0.000000
59465.524108,-518.144159,-10658.965565,1762.019645
59465.524418,-4071.132681,-9918.759623,-995.924147
59465.524728,-1110.308913,-13101.645173,3064.381992
59465.525038,-74.020594,-7698.141797,-76.609550
59465.525347,2072.576638,-8586.388927,2068.457845
59465.525657,814.226536,-7476.080014,1762.019645
59465.525967,-74.020594,-6587.832884,383.047749
59465.526277,-740.205942,-10807.006753,1225.752797
59465.526587,0.000000,-6291.750507,0.000000
59465.526896,-3997.112087,-7772.162391,0.000000
59465.527206,-2368.659014,-10140.821405,306.438199
59465.527516,-3034.844362,-11251.130318,-1302.362347
59465.527826,-3552.988522,-10732.986159,612.876398
59465.528136,-666.185348,-11251.130318,-76.609550
59465.528445,222.061783,-8586.388927,1378.971896
59465.528755,1776.494261,-7402.059420,1608.800546
59465.529065,814.226536,-7772.162391,2451.505594
59465.529375,1776.494261,-7179.997637,1838.629195
59465.529685,-1258.350101,-7772.162391,536.266849
59465.529995,1702.473667,-7698.141797,536.266849
59465.530304,0.000000,-7179.997637,0.000000
59465.530614,1702.473667,-11547.212695,2068.457845
59465.530924,-4737.318029,-8364.327145,-3370.820191
59465.531234,-1258.350101,-13027.624579,-76.609550
59465.531544,-3256.906145,-12287.418637,0.000000
59465.531853,-962.267725,-9474.636058,383.047749
59465.532163,1036.288319,-7550.100608,995.924147
59465.532473,1702.473667,-7698.141797,2451.505594
59465.532783,1702.473667,-5625.565159,2374.896044
59465.533093,2294.638420,-7105.977043,-76.609550
59465.533402,0.000000,-8364.327145,2451.505594
59465.533712,2886.803174,-8882.471304,2068.457845
59465.534022,592.164754,-9548.656652,2451.505594
59465.534332,-74.020594,-13027.624579,2987.772442
59465.534642,-3256.906145,-10140.821405,-1225.752797
59465.534951,-3627.009116,-12509.480420,-459.657299
59465.535261,-1776.494261,-9770.718434,0.000000
59465.535571,1184.329507,-8068.244768,1225.752797
59465.535881,4071.132681,-8290.306550,3600.648841
59465.536191,4663.297435,-8290.306550,3600.648841
59465.536501,1332.370696,-5403.503377,1225.752797
59465.536810,2812.782580,-8734.430116,3600.648841
59465.537120,0.000000,-5551.544565,0.000000
59465.537430,592.164754,-10288.862594,1838.629195
59465.537740,-2960.823768,-9844.739029,-1532.190996
59465.538050,-3552.988522,-11251.130318,-2145.067394
59465.538359,-4811.338623,-12731.542202,-1991.848295
59465.538669,-3923.091493,-11547.212695,-459.657299
59465.538979,1406.391290,-9474.636058,1608.800546
59465.539289,3330.926739,-9474.636058,4213.525239
59465.539599,1110.308913,-6217.729913,2374.896044
59465.539908,296.082377,-5995.668130,3677.258390
59465.540218,3478.967927,-8290.306550,2374.896044
59465.540528,592.164754,-6291.750507,2451.505594
59465.540838,370.102971,-7031.956449,229.828649
59465.541148,-2368.659014,-10807.006753,0.000000
59465.541457,-4589.276840,-10807.006753,-1915.238745
59465.541767,-5403.503377,-12805.562797,-2145.067394
59465.542077,-3923.091493,-14211.954086,459.657299
59465.542387,-1480.411884,-10584.944971,919.314598
59465.542697,-74.020594,-10658.965565,1762.019645
59465.543006,-296.082377,-5403.503377,0.000000
59465.543316,1776.494261,-7179.997637,4290.134789
59465.543626,1184.329507,-5995.668130,2451.505594
59465.543936,2590.720797,-7105.977043,2681.334243
59465.544246,2072.576638,-6883.915261,1762.019645
59465.544556,0.000000,-9622.677246,919.314598
59465.544865,-3034.844362,-9474.636058,-1302.362347
59465.545175,-5033.400406,-11917.315666,-1838.629195
59465.545485,-4737.318029,-13101.645173,0.000000
59465.545795,-1258.350101,-11251.130318,-383.047749
59465.546105,-1702.473667,-7476.080014,-2681.334243
59465.546414,0.000000,-9548.656652,3677.258390
59465.546724,0.000000,-4811.338623,766.095498
59465.547034,2886.803174,-7105.977043,2987.772442
59465.547344,3552.988522,-6661.853478,3370.820191
59465.547654,4071.132681,-6217.729913,2451.505594
59465.547963,1850.514855,-8660.409521,1455.581446
59465.548273,-2368.659014,-8364.327145,0.000000
59465.548583,-5921.647536,-10140.821405,-2451.505594
59465.548893,-3923.091493,-14211.954086,-995.924147
59465.549203,-3034.844362,-8660.409521,-4213.525239
59465.549512,0.000000,-9548.656652,612.876398
59465.549822,0.000000,-7920.203579,306.438199
59465.550132,2886.803174,-8290.306550,2374.896044
59465.550442,3256.906145,-8216.285956,3600.648841
59465.550752,4515.256246,-8290.306550,4290.134789
59465.551062,4811.338623,-6735.874072,3524.039291
59465.551371,2368.659014,-5995.668130,2451.505594
59465.551681,0.000000,-8364.327145,612.876398
59465.551991,-370.102971,-11843.295072,-76.609550
59465.552301,-6291.750507,-11473.192101,-4903.011187
59465.552611,-3552.988522,-13841.851115,-76.609550
59465.552920,-1258.350101,-8290.306550,-2528.115143
59465.553230,296.082377,-9252.574275,1532.190996
59465.553540,444.123565,-7994.224174,2068.457845
59465.553850,740.205942,-7254.018232,2068.457845
59465.554160,2664.741391,-8808.450710,3600.648841
59465.554469,2368.659014,-5921.647536,2374.896044
59465.554779,592.164754,-5403.503377,689.485948
59465.555089,0.000000,-9548.656652,1838.629195
59465.555399,-1554.432478,-7402.059420,-3140.991542
59465.555709,-4071.132681,-13693.809927,-153.219100
59465.556018,-3034.844362,-11843.295072,-2528.115143
59465.556328,-3034.844362,-10288.862594,-766.095498
59465.556638,-1554.432478,-9400.615463,306.438199
59465.556948,-740.205942,-8660.409521,1838.629195
59465.557258,-74.020594,-7846.182985,1991.848295
59465.557568,962.267725,-7994.224174,3600.648841
59465.557877,3330.926739,-4293.194464,2068.457845
59465.558187,3552.988522,-5995.668130,3677.258390
59465.558497,1110.308913,-8290.306550,-76.609550
59465.558807,-3552.988522,-9548.656652,0.000000
59465.559117,-2442.679609,-14211.954086,-2528.115143
59465.559426,-5773.606348,-13249.686362,-1838.629195
59465.559736,-3923.091493,-10955.047942,-2221.676944
59465.560046,-3034.844362,-9844.739029,-536.266849
59465.560356,-1628.453072,-9326.594869,689.485948
59465.560666,-74.020594,-8290.306550,2987.772442
59465.560975,2294.638420,-8290.306550,2987.772442
59465.561285,2072.576638,-5995.668130,3064.381992
59465.561595,5847.626942,-8882.471304,6052.154434
59465.561905,2146.597232,-5477.523971,1225.752797
59465.562215,2294.638420,-10066.800811,1762.019645
59465.562524,-4145.153275,-9844.739029,-1685.410096
59465.562834,-5477.523971,-13101.645173,-1915.238745
59465.563144,-4663.297435,-10584.944971,-2298.286494
59465.563454,-2960.823768,-9548.656652,-1225.752797
59465.563764,-74.020594,-10066.800811,2374.896044
59465.564074,-74.020594,-8290.306550,2068.457845
59465.564383,666.185348,-7179.997637,1608.800546
59465.564693,2368.659014,-7179.997637,4903.011187
59465.565003,5847.626942,-7105.977043,3600.648841
59465.565313,4885.359217,-8290.306550,4519.963438
59465.565623,1776.494261,-8364.327145,995.924147
59465.565932,-1258.350101,-9400.615463,-536.266849
59465.566242,-3775.050304,-12361.439231,-1455.581446
59465.566552,-3330.926739,-11843.295072,-1455.581446
59465.566862,-1036.288319,-10288.862594,0.000000
59465.567172,-666.185348,-12435.459826,-76.609550
59465.567481,-1258.350101,-9474.636058,1149.143247
59465.567791,0.000000,-5995.668130,1225.752797
59465.568101,5181.441594,-9474.636058,5745.716235
59465.568411,4737.318029,-6957.935855,5898.935335
59465.568721,4663.297435,-5773.606348,3140.991542
59465.569030,2664.741391,-7920.203579,2374.896044
59465.569340,-296.082377,-7846.182985,-536.266849
59465.569650,-4219.173869,-11769.274478,-1762.019645
59465.569960,-4441.235652,-11473.192101,-2451.505594
59465.570270,-1332.370696,-11843.295072,-689.485948
59465.570579,-2442.679609,-11251.130318,-1302.362347
59465.570889,-4737.318029,-7179.997637,0.000000
59465.571199,-74.020594,-11843.295072,2834.553343
59465.571509,1184.329507,-9548.656652,3983.696590
59465.571819,5255.462188,-7105.977043,4826.401637
59465.572129,5995.668130,-5107.421000,4826.401637
59465.572438,5255.462188,-6439.791695,3830.477490
59465.572748,1110.308913,-7105.977043,766.095498
59465.573058,-4737.318029,-10140.821405,-3677.258390
59465.573368,-5921.647536,-13101.645173,-2145.067394
59465.573678,-3034.844362,-11251.130318,-2528.115143
59465.573987,-7105.977043,-7179.997637,-3677.258390
59465.574297,-2960.823768,-11547.212695,919.314598
59465.574607,-3552.988522,-7920.203579,76.609550
59465.574917,1110.308913,-9474.636058,2987.772442
59465.575227,3182.885551,-6957.935855,4060.306139
59465.575536,4071.132681,-5255.462188,3600.648841
59465.575846,3182.885551,-7105.977043,2604.724693
59465.576156,0.000000,-6291.750507,0.000000
59465.576466,-4145.153275,-10140.821405,-1685.410096
59465.576776,-4811.338623,-13027.624579,-1302.362347
59465.577085,-8290.306550,-7772.162391,-4903.011187
59465.577395,-2220.617826,-10881.027347,-153.219100
59465.577705,-3552.988522,-8364.327145,0.000000
59465.578015,-814.226536,-9252.574275,1302.362347
59465.578325,296.082377,-9178.553681,2528.115143
59465.578635,2442.679609,-7994.224174,4060.306139
59465.578944,4441.235652,-5699.585753,3677.258390
59465.579254,3034.844362,-5699.585753,2374.896044
59465.579564,0.000000,-5995.668130,612.876398
59465.579874,-814.226536,-9474.636058,1608.800546
59465.580184,-6513.812290,-9548.656652,-3677.258390
59465.580493,-3552.988522,-11917.315666,-612.876398
59465.580803,-3701.029710,-8882.471304,-2451.505594
59465.581113,-3849.070898,-11325.150913,-459.657299
59465.581423,-2368.659014,-8586.388927,0.000000
59465.581733,-296.082377,-9548.656652,2068.457845
59465.582042,2738.761985,-8290.306550,4826.401637
59465.582352,5255.462188,-4737.318029,4213.525239
59465.582662,3701.029710,-4811.338623,2451.505594
59465.582972,5181.441594,-8068.244768,4826.401637
59465.583282,-962.267725,-7179.997637,-1608.800546
59465.583591,-2368.659014,-13249.686362,-76.609550
59465.583901,-3627.009116,-11251.130318,-4213.525239
59465.584211,-3256.906145,-10436.903782,-2221.676944
59465.584521,-2886.803174,-11843.295072,-1072.533697
59465.584830,-2146.597232,-9918.759623,229.828649
59465.585140,-740.205942,-10066.800811,2374.896044
59465.585450,2886.803174,-9474.636058,4826.401637
59465.585760,4071.132681,-5329.482782,3600.648841
59465.586069,5329.482782,-3627.009116,3983.696590
59465.586379,5329.482782,-6587.832884,4903.011187
59465.586689,2294.638420,-7105.977043,-76.609550
59465.586999,-3997.112087,-8956.491898,-3370.820191
59465.587308,-2442.679609,-14211.954086,-1915.238745
59465.587618,-4959.379811,-9844.739029,-4213.525239
59465.587928,-4737.318029,-11769.274478,-2451.505594
59465.588237,-3923.091493,-11843.295072,-766.095498
59465.588547,-962.267725,-9474.636058,-76.609550
59465.588857,0.000000,-8364.327145,1608.800546
59465.589167,3552.988522,-6587.832884,4903.011187
59465.589476,9400.615463,-6513.812290,4826.401637
59465.589786,3552.988522,-4885.359217,2681.334243
59465.590096,2294.638420,-6513.812290,153.219100
59465.590405,-2072.576638,-8956.491898,-306.438199
59465.590715,-3849.070898,-11325.150913,-1378.971896
59465.591025,-3775.050304,-9696.697840,-2374.896044
59465.591335,-4959.379811,-10807.006753,-1915.238745
59465.591644,-4811.338623,-13027.624579,-1302.362347
59465.591954,-4811.338623,-8660.409521,-2221.676944
59465.592264,-3182.885551,-9548.656652,0.000000
59465.592574,4367.215058,-10658.965565,4826.401637
59465.592883,2590.720797,-5477.523971,2374.896044
59465.593193,5847.626942,-6217.729913,3294.210641
59465.593503,3404.947333,-5995.668130,2451.505594
59465.593812,-1110.308913,-9326.594869,0.000000
59465.594122,-4219.173869,-11991.336260,-1532.190996
59465.594432,-4219.173869,-10436.903782,-1302.362347
59465.594742,-2442.679609,-11695.253884,-1762.019645
59465.595051,-2442.679609,-13027.624579,-76.609550
59465.595361,-4737.318029,-7920.203579,-1532.190996
59465.595671,0.000000,-9548.656652,3064.381992
59465.595981,4663.297435,-8882.471304,4826.401637
59465.596290,4737.318029,-6513.812290,5362.668486
59465.596600,3923.091493,-5403.503377,4290.134789
59465.596910,2442.679609,-6883.915261,2451.505594
59465.597219,-666.185348,-8660.409521,0.000000
59465.597529,-3849.070898,-11843.295072,-1991.848295
59465.597839,-4441.235652,-10510.924376,-2451.505594
59465.598149,-2590.720797,-11251.130318,-1608.800546
59465.598458,-5699.585753,-10955.047942,-2681.334243
59465.598768,-7105.977043,-7772.162391,0.000000
59465.599078,-74.020594,-13027.624579,2987.772442
59465.599387,1184.329507,-9844.739029,4290.134789
59465.599697,5847.626942,-5773.606348,5132.839837
59465.600007,7105.977043,-4885.359217,5515.887586
59465.600317,6217.729913,-5477.523971,3983.696590
59465.600626,2886.803174,-7254.018232,1378.971896
59465.600936,-2368.659014,-10732.986159,-2145.067394
59465.601246,-3256.906145,-12657.521608,-1225.752797
59465.601556,-2442.679609,-11843.295072,-2528.115143
59465.601865,-7105.977043,-9548.656652,-4596.572988
59465.602175,-4441.235652,-12657.521608,306.438199
59465.602485,-3034.844362,-9844.739029,766.095498
59465.602794,1702.473667,-10658.965565,3600.648841
59465.603104,4515.256246,-6735.874072,5439.278036
59465.603414,7328.038826,-4293.194464,5822.325785
59465.603724,5921.647536,-5255.462188,4903.011187
59465.604033,1184.329507,-4811.338623,1225.752797
59465.604343,-3552.988522,-9548.656652,0.000000
59465.604653,-3034.844362,-13027.624579,-1302.362347
59465.604962,-7994.224174,-5995.668130,-6128.763984
59465.605272,-4737.318029,-12657.521608,-1838.629195
59465.605582,-5847.626942,-9770.718434,-2987.772442
59465.605892,-3182.885551,-11695.253884,-76.609550
59465.606201,0.000000,-10510.924376,2451.505594
59465.606511,3478.967927,-8364.327145,4903.011187
59465.606821,5477.523971,-4959.379811,5439.278036
59465.607131,5625.565159,-3923.091493,4519.963438
59465.607440,3552.988522,-3923.091493,2604.724693
59465.607750,1776.494261,-8364.327145,3524.039291
59465.608060,-3034.844362,-8734.430116,-2681.334243
59465.608369,-3256.906145,-10732.986159,-1838.629195
59465.608679,-4737.318029,-10436.903782,-3677.258390
59465.608989,-5995.668130,-13323.706956,-2298.286494
59465.609299,-5699.585753,-12287.418637,-2298.286494
59465.609608,-3182.885551,-12509.480420,459.657299
59465.609918,1184.329507,-9178.553681,2757.943793
59465.610228,3478.967927,-5921.647536,3600.648841
59465.610538,3256.906145,-2590.720797,2451.505594
59465.610847,3849.070898,-6439.791695,4903.011187
59465.611157,2294.638420,-6513.812290,-76.609550
59465.611467,-3552.988522,-9548.656652,0.000000
59465.611776,-2442.679609,-8586.388927,-3064.381992
59465.612086,-3923.091493,-10510.924376,-1991.848295
59465.612396,-5255.462188,-11547.212695,-1225.752797
59465.612706,-5625.565159,-10658.965565,-1685.410096
59465.613015,-3923.091493,-11695.253884,76.609550
59465.613325,518.144159,-9474.636058,2374.896044
59465.613635,2886.803174,-6513.812290,2987.772442
59465.613944,3552.988522,-4811.338623,1225.752797
59465.614254,7031.956449,-8882.471304,6052.154434
59465.614564,1110.308913,-6069.688724,842.705048
59465.614874,-370.102971,-9104.533087,-1149.143247
59465.615183,-1628.453072,-9030.512492,-1225.752797
59465.615493,-2590.720797,-9548.656652,-2298.286494
59465.615803,-4959.379811,-12065.356855,-1915.238745
59465.616113,-5921.647536,-11399.171507,-842.705048
59465.616422,-3627.009116,-14211.954086,-76.609550
59465.616732,-1258.350101,-11843.295072,1149.143247
59465.617042,1776.494261,-4811.338623,306.438199
59465.617351,7550.100608,-7698.141797,7660.954980
59465.617661,5847.626942,-4441.235652,4213.525239
59465.617971,5551.544565,-6217.729913,2374.896044
59465.618281,1184.329507,-8438.347739,1608.800546
59465.618590,-74.020594,-10955.047942,766.095498
59465.618900,-2294.638420,-9474.636058,-2221.676944
59465.619210,-5107.421000,-11547.212695,-1685.410096
59465.619520,-4219.173869,-12139.377449,-1302.362347
59465.619829,-2442.679609,-12731.542202,-689.485948
59465.620139,-2368.659014,-10732.986159,0.000000
59465.620449,4663.297435,-11251.130318,5362.668486
59465.620758,4663.297435,-7105.977043,3600.648841
59465.621068,5551.544565,-6883.915261,4826.401637
59465.621378,3108.864956,-5847.626942,2911.162892
59465.621688,1332.370696,-7772.162391,1378.971896
59465.621997,222.061783,-9400.615463,153.219100
59465.622307,-740.205942,-8068.244768,-1225.752797
59465.622617,-1480.411884,-11325.150913,0.000000
59465.622926,-3034.844362,-12731.542202,-1302.362347
59465.623236,-6809.894666,-10140.821405,-4903.011187
59465.623546,-2368.659014,-13989.892304,1838.629195
59465.623856,1998.556043,-9474.636058,2374.896044
59465.624165,5107.421000,-7402.059420,6665.030833
59465.624475,4071.132681,-5625.565159,4519.963438
59465.624785,2738.761985,-5773.606348,3140.991542
59465.625095,1628.453072,-6661.853478,1532.190996
59465.625404,74.020594,-9030.512492,0.000000
59465.625714,-1184.329507,-7772.162391,0.000000
59465.626024,-2146.597232,-11399.171507,-766.095498
59465.626333,-5995.668130,-10955.047942,-4366.744339
59465.626643,-6809.894666,-12213.398043,-1838.629195
59465.626953,-3627.009116,-14211.954086,-76.609550
59465.627263,-1924.535449,-11843.295072,2911.162892
59465.627572,1998.556043,-6957.935855,2374.896044
59465.627882,3701.029710,-7402.059420,4596.572988
59465.628192,3775.050304,-6365.771101,4213.525239
59465.628502,3256.906145,-5995.668130,766.095498
59465.628811,592.164754,-7179.997637,1225.752797
59465.629121,1184.329507,-7772.162391,1225.752797
59465.629431,-74.020594,-9474.636058,-689.485948
59465.629740,-5921.647536,-10732.986159,-2451.505594
59465.630050,-5403.503377,-12731.542202,-1302.362347
59465.630360,-7105.977043,-14508.036463,-919.314598
59465.630670,-3330.926739,-12583.501014,-76.609550
59465.630979,0.000000,-8808.450710,1608.800546
59465.631289,3701.029710,-6513.812290,4060.306139
59465.631599,3775.050304,-4811.338623,3140.991542
59465.631908,1184.329507,-4219.173869,0.000000
59465.632218,296.082377,-7772.162391,2145.067394
59465.632528,2294.638420,-11251.130318,3600.648841
59465.632838,-3256.906145,-5995.668130,-3064.381992
59465.633147,-2738.761985,-12731.542202,-76.609550
59465.633457,-6513.812290,-9548.656652,-2451.505594
59465.633767,-3923.091493,-12139.377449,-1455.581446
59465.634077,-1036.288319,-12657.521608,1149.143247
59465.634386,2516.700203,-9104.533087,2834.553343
59465.634696,3997.112087,-7402.059420,3600.648841
59465.635006,3849.070898,-5847.626942,1455.581446
59465.635315,1776.494261,-6291.750507,2451.505594
59465.635625,3478.967927,-11251.130318,4519.963438
59465.635935,0.000000,-7179.997637,0.000000
59465.636245,2294.638420,-8882.471304,1762.019645
59465.636554,-2960.823768,-8364.327145,-1838.629195
59465.636864,-3701.029710,-10140.821405,-1685.410096
59465.637174,-4367.215058,-10362.883188,-2298.286494
59465.637483,-3478.967927,-12139.377449,-383.047749
59465.637793,-370.102971,-11251.130318,1762.019645
59465.638103,3478.967927,-7698.141797,2068.457845
59465.638413,3404.947333,-6587.832884,2757.943793
59465.638722,2368.659014,-5403.503377,2451.505594
59465.639032,4663.297435,-9474.636058,2374.896044
59465.639342,74.020594,-8808.450710,0.000000
59465.639652,0.000000,-5995.668130,0.000000
59465.639961,-814.226536,-9844.739029,-383.047749
59465.640271,-3108.864956,-10955.047942,-766.095498
59465.640581,-4737.318029,-9992.780217,-2145.067394
59465.640890,-4219.173869,-13027.624579,-76.609550
59465.641200,-74.020594,-11251.130318,-76.609550
59465.641510,1554.432478,-6513.812290,1762.019645
59465.641820,0.000000,-4811.338623,1838.629195
59465.642129,5033.400406,-7624.121203,5286.058936
59465.642439,3478.967927,-6365.771101,1225.752797
59465.642749,518.144159,-7328.038826,536.266849
59465.643059,148.041188,-7772.162391,-536.266849
59465.643368,-2442.679609,-9326.594869,-1838.629195
59465.643678,-5699.585753,-11991.336260,-2451.505594
59465.643988,-5403.503377,-12583.501014,-1302.362347
59465.644297,-4811.338623,-14211.954086,-76.609550
59465.644607,-2442.679609,-11843.295072,-76.609550
59465.644917,0.000000,-4811.338623,612.876398
59465.645227,6439.791695,-9474.636058,7048.078582
59465.645536,3182.885551,-4515.256246,1838.629195
59465.645846,2294.638420,-5921.647536,1762.019645
59465.646156,888.247130,-8660.409521,1838.629195
59465.646465,962.267725,-8068.244768,842.705048
59465.646775,-592.164754,-8068.244768,-459.657299
59465.647085,-3256.906145,-11325.150913,612.876398
59465.647395,-4367.215058,-13027.624579,-76.609550
59465.647704,-4811.338623,-13027.624579,-1302.362347
59465.648014,-6291.750507,-10140.821405,-2451.505594
59465.648324,-296.082377,-9252.574275,2451.505594
59465.648634,2294.638420,-5995.668130,842.705048
59465.648943,4071.132681,-7698.141797,3600.648841
59465.649253,2146.597232,-6587.832884,2681.334243
59465.649563,1184.329507,-8142.265362,2145.067394
59465.649872,1036.288319,-8290.306550,1149.143247
59465.650182,740.205942,-5995.668130,306.438199
59465.650492,-888.247130,-10732.986159,2451.505594
59465.650802,-1850.514855,-11251.130318,-76.609550
59465.651111,-6883.915261,-9548.656652,-4519.963438
59465.651421,-4737.318029,-14285.974681,0.000000
59465.651731,-74.020594,-11251.130318,-76.609550
59465.652041,4071.132681,-9474.636058,3600.648841
59465.652350,3478.967927,-7624.121203,4290.134789
59465.652660,2368.659014,-5773.606348,3294.210641
59465.652970,1850.514855,-6735.874072,2604.724693
59465.653279,592.164754,-7179.997637,0.000000
59465.653589,2368.659014,-4811.338623,2451.505594
59465.653899,1776.494261,-9326.594869,2987.772442
59465.654209,-1258.350101,-9178.553681,-2834.553343
59465.654518,-7105.977043,-9548.656652,-4596.572988
59465.654828,-4811.338623,-16580.613101,-1302.362347
59465.655138,-1554.432478,-14211.954086,-76.609550
59465.655447,0.000000,-10066.800811,229.828649
59465.655757,1850.514855,-9104.533087,2528.115143
59465.656067,2960.823768,-7402.059420,3294.210641
59465.656377,2368.659014,-5995.668130,1532.190996
59465.656686,1184.329507,-4811.338623,2451.505594
59465.656996,4145.153275,-5551.544565,3064.381992
59465.657306,4663.297435,-8290.306550,-76.609550
59465.657616,0.000000,-9548.656652,1225.752797
59465.657925,-2442.679609,-11843.295072,-76.609550
59465.658235,-7105.977043,-13175.665768,-2451.505594
59465.658545,-7179.997637,-14804.118840,-2374.896044
59465.658854,-5107.421000,-11251.130318,-1685.410096
59465.659164,-3330.926739,-11769.274478,842.705048
59465.659474,-3182.885551,-8438.347739,536.266849
59465.659784,-4737.318029,-5403.503377,0.000000
59465.660093,-2960.823768,-8364.327145,2451.505594
59465.660403,-74.020594,-8290.306550,4213.525239
59465.660713,-2368.659014,-2442.679609,1225.752797
59465.661022,-74.020594,-8882.471304,4826.401637
59465.661332,-4737.318029,-5699.585753,1532.190996
59465.661642,-6587.832884,-9474.636058,-383.047749
59465.661952,-9474.636058,-11399.171507,-1685.410096
59465.662261,-9622.677246,-11325.150913,-1991.848295
59465.662571,-6587.832884,-10658.965565,-2528.115143
59465.662881,-6883.915261,-9104.533087,-1455.581446
59465.663191,-7105.977043,-9548.656652,0.000000
59465.663500,-4737.318029,-10288.862594,3064.381992
59465.663810,-3627.009116,-9178.553681,1149.143247
59465.664120,-6513.812290,-7772.162391,3064.381992
59465.664429,-5921.647536,-4811.338623,306.438199
59465.664739,-2442.679609,-6365.771101,2987.772442
59465.665049,-2368.659014,-5181.441594,2987.772442
59465.665359,-6217.729913,-8068.244768,612.876398
59465.665668,-8956.491898,-11843.295072,-1302.362347
59465.665978,-9548.656652,-11251.130318,-2528.115143
59465.666288,-9474.636058,-9548.656652,-4290.134789
59465.666598,-5847.626942,-12139.377449,1991.848295
59465.666907,-4811.338623,-7698.141797,-76.609550
59465.667217,0.000000,-6587.832884,2757.943793
59465.667527,0.000000,-5995.668130,2528.115143
59465.667836,-1924.535449,-7772.162391,2221.676944
59465.668146,-3108.864956,-9622.677246,1455.581446
59465.668456,-1480.411884,-8586.388927,612.876398
59465.668766,-1258.350101,-9474.636058,2374.896044
59465.669075,-3627.009116,-10658.965565,-76.609550
59465.669385,-4737.318029,-7994.224174,-3140.991542
59465.669695,0.000000,-11029.068536,1838.629195
59465.670004,-1850.514855,-11843.295072,-76.609550
59465.670314,-8290.306550,-10732.986159,0.000000
59465.670624,-5625.565159,-10362.883188,-689.485948
59465.670934,-888.247130,-9844.739029,1991.848295
59465.671243,-592.164754,-8068.244768,2451.505594
59465.671553,-3256.906145,-7624.121203,2757.943793
59465.671863,-74.020594,-8290.306550,4826.401637
59465.672173,7031.956449,-7105.977043,4213.525239
59465.672482,5699.585753,-3552.988522,2374.896044
59465.672792,0.000000,-4811.338623,3064.381992
59465.673102,-1850.514855,-10658.965565,-689.485948
59465.673411,-7698.141797,-9548.656652,-6128.763984
59465.673721,-4959.379811,-13027.624579,-4366.744339
59465.674031,-6513.812290,-13619.789333,-3600.648841
59465.674341,-6069.688724,-12657.521608,-3064.381992
59465.674650,-3923.091493,-11843.295072,-1225.752797
59465.674960,1776.494261,-11473.192101,2451.505594
59465.675270,8216.285956,-9474.636058,7890.783629
59465.675580,7031.956449,-4737.318029,7277.907231
59465.675889,0.000000,-3627.009116,4903.011187
59465.676199,-1258.350101,-9474.636058,2374.896044
59465.676509,-5921.647536,-7772.162391,0.000000
59465.676818,-2442.679609,-9474.636058,-76.609550
59465.677128,-5181.441594,-7105.977043,-1762.019645
59465.677438,-8068.244768,-9326.594869,-2987.772442
59465.677748,-9178.553681,-12435.459826,-3064.381992
59465.678057,-8290.306550,-13101.645173,0.000000
59465.678367,-4145.153275,-10881.027347,2145.067394
59465.678677,-74.020594,-9474.636058,3600.648841
59465.678986,518.144159,-3701.029710,2068.457845
59465.679296,2960.823768,-4811.338623,5209.449386
59465.679606,2886.803174,-7105.977043,2987.772442
59465.679916,-2442.679609,-11251.130318,1455.581446
59465.680225,-7994.224174,-13101.645173,-2068.457845
59465.680535,-7402.059420,-12435.459826,-1762.019645
59465.680845,-6957.935855,-10140.821405,-1225.752797
59465.681155,-9474.636058,-7179.997637,0.000000
59465.681464,-8882.471304,-9548.656652,0.000000
59465.681774,-5107.421000,-13397.727550,3294.210641
59465.682084,-5995.668130,-12731.542202,2374.896044
59465.682393,-6809.894666,-7179.997637,2757.943793
59465.682703,-666.185348,-5921.647536,6052.154434
59465.683013,2294.638420,-2368.659014,7201.297681
59465.683323,3627.009116,0.000000,5592.497135
59465.683632,2886.803174,-1924.535449,4136.915689
59465.683942,0.000000,-7550.100608,1762.019645
59465.684252,-7105.977043,-10140.821405,-4903.011187
59465.684562,-13027.624579,-16654.633695,-7354.516781
59465.684871,-15988.448347,-20207.622217,-7354.516781
59465.685181,-15470.304188,-22502.260637,-6205.373534
59465.685491,-13027.624579,-14285.974681,-4903.011187
59465.685800,-5403.503377,-13027.624579,-76.609550
59465.686110,-370.102971,-4515.256246,4979.620737
59465.686420,3997.112087,-2072.576638,8733.488677
59465.686730,8734.430116,74.020594,10725.336972
59465.687039,10140.821405,592.164754,10801.946522
59465.687349,5995.668130,-74.020594,6128.763984
59465.687659,0.000000,-2442.679609,2451.505594
59465.687968,-2960.823768,-10140.821405,1225.752797
59465.688278,-8734.430116,-17320.819043,-2451.505594
59465.688588,-14285.974681,-16580.613101,-9882.631924
59465.688897,-16284.530724,-21391.951724,-8963.317327
59465.689207,-15174.221811,-18357.107362,-8350.440928
59465.689517,-11843.295072,-14878.139434,-4903.011187
59465.689826,-4145.153275,-10436.903782,1532.190996
59465.690136,3627.009116,-3997.112087,5745.716235
59465.690446,5329.482782,-74.020594,7354.516781
59465.690755,9474.636058,3478.967927,9806.022374
59465.691065,10658.965565,-1258.350101,11951.089769
59465.691375,8216.285956,-3552.988522,6052.154434
59465.691685,2368.659014,-5403.503377,3064.381992
59465.691994,-74.020594,-11251.130318,-76.609550
59465.692304,-5921.647536,-12435.459826,-4290.134789
59465.692614,-10881.027347,-17468.860231,-8350.440928
59465.692923,-12361.439231,-20577.725188,-8810.098227
59465.693233,-11621.233289,-22798.343014,-7277.907231
59465.693543,-9252.574275,-18431.127956,-5592.497135
59465.693852,-5921.647536,-11917.315666,0.000000
59465.694162,592.164754,-7179.997637,6128.763984
59465.694472,7031.956449,-4737.318029,9116.536426
59465.694781,5033.400406,3478.967927,9806.022374
59465.695091,7772.162391,0.000000,13406.671215
59465.695401,3256.906145,444.123565,8120.612279
59465.695711,1036.288319,-3256.906145,4519.963438
59465.696020,-2516.700203,-7846.182985,1532.190996
59465.696330,-5921.647536,-11103.089130,-2298.286494
59465.696640,-9548.656652,-15396.283594,-5898.935335
59465.696949,-10584.944971,-16358.551318,-6435.202183
59465.697259,-11843.295072,-16654.633695,-4903.011187
59465.697569,-4811.338623,-18949.272115,-76.609550
59465.697878,-2368.659014,-8364.327145,229.828649
59465.698188,4737.318029,-9474.636058,9729.412825
59465.698498,7105.977043,-1554.432478,9806.022374
59465.698807,9696.697840,-370.102971,12487.356617
59465.699117,9474.636058,1554.432478,11491.432470
59465.699427,7698.141797,444.123565,9806.022374
59465.699737,4663.297435,-4589.276840,6052.154434
59465.700046,-74.020594,-6513.812290,2374.896044
59465.700356,-9474.636058,-10732.986159,0.000000
59465.700666,-5995.668130,-16580.613101,-689.485948
59465.700975,-7476.080014,-18653.189738,-2528.115143
59465.701285,-6513.812290,-16654.633695,1225.752797
59465.701595,-4737.318029,-15470.304188,2145.067394
59465.701904,-740.205942,-12213.398043,6358.592633
59465.702214,3330.926739,-7994.224174,7814.174080
59465.702524,5181.441594,-7105.977043,12257.527968
59465.702833,9400.615463,-3552.988522,13406.671215
59465.703143,8216.285956,-4737.318029,12180.918418
59465.703453,5847.626942,-2664.741391,10342.289223
59465.703763,2960.823768,-4219.173869,9806.022374
59465.704072,1702.473667,-9178.553681,7277.907231
59465.704382,-2368.659014,-9548.656652,4903.011187
59465.704692,-4737.318029,-15914.427753,2834.553343
59465.705001,-6513.812290,-16950.716072,1838.629195
59465.705311,-8956.491898,-19615.457463,1915.238745
59465.705621,-9844.739029,-19615.457463,2528.115143
59465.705930,-4589.276840,-15396.283594,7124.688131
59465.706240,3182.885551,-8290.306550,11568.042020
59465.706550,9400.615463,0.000000,12180.918418
59465.706859,5921.647536,3478.967927,13483.280765
59465.707169,8216.285956,0.000000,15551.738609
59465.707479,2368.659014,-74.020594,9806.022374
59465.707789,1702.473667,-6217.729913,9422.974625
59465.708098,-3330.926739,-7550.100608,5669.106685
59465.708408,-4589.276840,-10881.027347,3217.601092
59465.708718,-4293.194464,-12139.377449,1532.190996
59465.709027,-2960.823768,-15174.221811,3370.820191
59465.709337,-2442.679609,-17172.777854,3677.258390
59465.709647,-4811.338623,-18949.272115,-76.609550
59465.709956,-7476.080014,-17838.963202,1762.019645
59465.710266,-2960.823768,-11029.068536,4903.011187
59465.710576,2294.638420,-3923.091493,4903.011187
59465.710885,3478.967927,-4145.153275,10955.165621
59465.711195,5033.400406,3034.844362,8963.317327
59465.711505,4811.338623,0.000000,8656.879127
59465.711815,4219.173869,-888.247130,6281.983084
59465.712124,1184.329507,-3627.009116,4903.011187
59465.712434,-592.164754,-12509.480420,4903.011187
59465.712744,-666.185348,-16580.613101,-76.609550
59465.713053,-9474.636058,-17838.963202,-3677.258390
59465.713363,-10066.800811,-20503.704593,-2145.067394
59465.713673,-7179.997637,-17764.942608,-4979.620737
59465.713982,-3034.844362,-15396.283594,-76.609550
59465.714292,-592.164754,-8512.368333,1455.581446
59465.714602,1850.514855,-5995.668130,4136.915689
59465.714911,5847.626942,-2960.823768,6205.373534
59465.715221,7105.977043,-74.020594,4903.011187
59465.715531,4737.318029,-7179.997637,4903.011187
59465.715840,4293.194464,-11547.212695,7048.078582
59465.716150,-1258.350101,-13027.624579,1762.019645
59465.716460,-2960.823768,-14285.974681,1225.752797
59465.716770,-74.020594,-14211.954086,-1302.362347
59465.717079,-3997.112087,-13027.624579,-1149.143247
59465.717389,-4515.256246,-11991.336260,-2528.115143
59465.717699,-2812.782580,-13841.851115,-2834.553343
59465.718008,-814.226536,-13027.624579,-1532.190996
59465.718318,-2368.659014,-12509.480420,0.000000
59465.718628,-2072.576638,-11917.315666,0.000000
59465.718937,2960.823768,-9252.574275,4903.011187
59465.719247,5847.626942,-5921.647536,3600.648841
59465.719557,4145.153275,-1850.514855,2451.505594
59465.719866,4663.297435,-4145.153275,4826.401637
59465.720176,2664.741391,-4293.194464,2681.334243
59465.720486,2294.638420,-7624.121203,1838.629195
59465.720796,666.185348,-12361.439231,536.266849
59465.721105,-3404.947333,-15840.407159,-383.047749
59465.721415,-8290.306550,-16950.716072,-3064.381992
59465.721725,-5921.647536,-10140.821405,-4290.134789
59465.722034,-2368.659014,-10732.986159,1225.752797
59465.722344,2294.638420,-7698.141797,2987.772442
59465.722654,2368.659014,-2738.761985,1225.752797
59465.722963,5847.626942,-8290.306550,6665.030833
59465.723273,296.082377,-8364.327145,4443.353888
59465.723583,-3108.864956,-13175.665768,4979.620737
59465.723892,-1258.350101,-8438.347739,4366.744339
59465.724202,-592.164754,-6291.750507,4519.963438
59465.724512,-1998.556043,-2442.679609,2068.457845
59465.724822,0.000000,-666.185348,1762.019645
59465.725131,2368.659014,-8660.409521,7660.954980
59465.725441,2294.638420,-10658.965565,4826.401637
59465.725751,-4441.235652,-11917.315666,0.000000
59465.726060,-2220.617826,-15988.448347,5898.935335
59465.726370,-1184.329507,-11473.192101,4903.011187
59465.726680,1554.432478,-6809.894666,4519.963438
59465.726989,296.082377,-4219.173869,4826.401637
59465.727299,0.000000,-5181.441594,5898.935335
59465.727609,1110.308913,-7698.141797,6665.030833
59465.727918,1110.308913,-8290.306550,7277.907231
59465.728228,-4515.256246,-8364.327145,4903.011187
59465.728538,-2072.576638,-8956.491898,6741.640382
59465.728848,-74.020594,-9474.636058,6665.030833
59465.729157,-1776.494261,-9548.656652,7967.393179
59465.729467,-2368.659014,-4811.338623,3753.867940
59465.729777,-2368.659014,-7624.121203,4903.011187
59465.730086,1480.411884,-5773.606348,5669.106685
59465.730396,2294.638420,-5995.668130,5439.278036
59465.730706,-74.020594,-8882.471304,6052.154434
59465.731015,-1258.350101,-13027.624579,4826.401637
59465.731325,-4145.153275,-9548.656652,2451.505594
59465.731635,296.082377,-11029.068536,5515.887586
59465.731944,-2146.597232,-7254.018232,2987.772442
59465.732254,-2368.659014,-5995.668130,6128.763984
59465.732564,148.041188,-6735.874072,4060.306139
59465.732874,-740.205942,-8142.265362,4903.011187
59465.733183,0.000000,-7254.018232,2987.772442
59465.733493,-74.020594,-8512.368333,3907.087040
59465.733803,3478.967927,-7105.977043,4826.401637
59465.734112,3478.967927,-9474.636058,4826.401637
59465.734422,-2738.761985,-4811.338623,0.000000
59465.734732,-148.041188,-6957.935855,1149.143247
59465.735041,-74.020594,-8290.306550,-76.609550
59465.735351,-2368.659014,-7179.997637,0.000000
59465.735661,-1110.308913,-9918.759623,-76.609550
59465.735970,-1184.329507,-11917.315666,766.095498
59465.736280,-370.102971,-13323.706956,1455.581446
59465.736590,-518.144159,-10066.800811,-383.047749
59465.736900,-74.020594,-11547.212695,1302.362347
59465.737209,3552.988522,-7179.997637,1532.190996
59465.737519,2294.638420,-4737.318029,-1302.362347
59465.737829,0.000000,-7772.162391,0.000000
59465.738138,518.144159,-8364.327145,-4673.182538
59465.738448,-4145.153275,-9548.656652,-4290.134789
59465.738758,-1258.350101,-11103.089130,-3907.087040
59465.739067,-1406.391290,-10288.862594,-3370.820191
59465.739377,-518.144159,-9622.677246,-2374.896044
59465.739687,-518.144159,-9400.615463,-2298.286494
59465.739996,592.164754,-10732.986159,-1838.629195
59465.740306,592.164754,-10732.986159,0.000000
59465.740616,3478.967927,-9474.636058,-1302.362347
59465.740926,0.000000,-7179.997637,-3370.820191
59465.741235,814.226536,-11843.295072,-689.485948
59465.741545,-2220.617826,-4811.338623,-5515.887586
59465.741855,814.226536,-10066.800811,-3907.087040
59465.742164,-888.247130,-11473.192101,-3983.696590
59465.742474,-2146.597232,-11917.315666,-4903.011187
59465.742784,-2738.761985,-13841.851115,-4673.182538
59465.743093,-2960.823768,-13101.645173,-3677.258390
59465.743403,-3552.988522,-9548.656652,-3370.820191
59465.743713,1702.473667,-10362.883188,-689.485948
59465.744022,2294.638420,-5329.482782,-1608.800546
59465.744332,2368.659014,-4811.338623,0.000000
59465.744642,1406.391290,-6957.935855,-1685.410096
59465.744951,2294.638420,-9474.636058,-76.609550
59465.745261,1406.391290,-8882.471304,-689.485948
59465.745571,666.185348,-9326.594869,-1149.143247
59465.745881,-666.185348,-9696.697840,-1608.800546
59465.746190,-2960.823768,-9548.656652,-3677.258390
59465.746500,-5921.647536,-9548.656652,-4290.134789
59465.746810,-962.267725,-12435.459826,-229.828649
59465.747119,-1258.350101,-10362.883188,-1302.362347
59465.747429,-3552.988522,-5995.668130,0.000000
59465.747739,2886.803174,-6809.894666,153.219100
59465.748048,2368.659014,-7994.224174,3217.601092
59465.748358,1702.473667,-7254.018232,2834.553343
59465.748668,1628.453072,-6957.935855,2221.676944
59465.748977,1776.494261,-6587.832884,2451.505594
59465.749287,0.000000,-6587.832884,306.438199
59465.749597,-3404.947333,-7179.997637,0.000000
59465.749907,-2368.659014,-12065.356855,2451.505594
59465.750216,-1850.514855,-13027.624579,1149.143247
59465.750526,-5921.647536,-7772.162391,0.000000
59465.750836,-74.020594,-10658.965565,1762.019645
59465.751145,-148.041188,-7105.977043,2681.334243
59465.751455,-148.041188,-7105.977043,2911.162892
59465.751765,-222.061783,-8586.388927,3677.258390
59465.752074,592.164754,-9030.512492,4290.134789
59465.752384,0.000000,-7179.997637,3907.087040
59465.752694,518.144159,-7402.059420,3524.039291
59465.753003,0.000000,-8364.327145,5209.449386
59465.753313,-74.020594,-9474.636058,4826.401637
59465.753623,-3552.988522,-8364.327145,4903.011187
59465.753933,-74.020594,-11251.130318,4826.401637
59465.754242,-2368.659014,-9844.739029,3524.039291
59465.754552,-592.164754,-7994.224174,4443.353888
59465.754862,0.000000,-6809.894666,4443.353888
59465.755171,-518.144159,-7772.162391,4903.011187
59465.755481,-74.020594,-7105.977043,4826.401637
59465.755791,2294.638420,-7105.977043,4519.963438
59465.756100,0.000000,-7179.997637,4903.011187
59465.756410,-74.020594,-9474.636058,4519.963438
59465.756720,-888.247130,-10140.821405,4903.011187
59465.757029,-666.185348,-13619.789333,4826.401637
59465.757339,-4145.153275,-9844.739029,1225.752797
59465.757649,-3701.029710,-10584.944971,1455.581446
59465.757959,-1850.514855,-8142.265362,2145.067394
59465.758268,-148.041188,-5477.523971,2221.676944
59465.758578,-74.020594,-6809.894666,4213.525239
59465.758888,2294.638420,-7105.977043,2987.772442
59465.759197,0.000000,-5995.668130,2451.505594
59465.759507,2146.597232,-10658.965565,4826.401637
59465.759817,0.000000,-8364.327145,1838.629195
59465.760126,1406.391290,-11399.171507,3447.429741
59465.760436,-740.205942,-10362.883188,-153.219100
59465.760746,-1406.391290,-9622.677246,-842.705048
59465.761055,-2812.782580,-9918.759623,-1455.581446
59465.761365,-2146.597232,-10510.924376,-1532.190996
59465.761675,-74.020594,-9474.636058,-76.609550
59465.761985,-74.020594,-10658.965565,-76.609550
59465.762294,-74.020594,-8290.306550,-689.485948
59465.762604,0.000000,-7179.997637,0.000000
59465.762914,4663.297435,-9474.636058,-76.609550
59465.763223,1776.494261,-8956.491898,1532.190996
59465.763533,1850.514855,-8586.388927,0.000000
59465.763843,1406.391290,-10140.821405,-306.438199
59465.764152,222.061783,-10066.800811,-1225.752797
59465.764462,-1850.514855,-11547.212695,-1838.629195
59465.764772,-1332.370696,-12435.459826,-1685.410096
59465.765081,-74.020594,-11251.130318,-689.485948
59465.765391,-74.020594,-10658.965565,-1608.800546
59465.765701,-1776.494261,-7179.997637,-2451.505594
59465.766011,3478.967927,-8882.471304,-76.609550
59465.766320,592.164754,-7179.997637,0.000000
59465.766630,2590.720797,-7698.141797,-383.047749
59465.766940,1036.288319,-8512.368333,-1225.752797
59465.767249,-740.205942,-11029.068536,-2374.896044
59465.767559,-1998.556043,-13101.645173,-2298.286494
59465.767869,-2072.576638,-12805.562797,-2145.067394
59465.768178,-2368.659014,-12657.521608,-1225.752797
59465.768488,-74.020594,-8290.306550,-2528.115143
59465.768798,-2368.659014,-4811.338623,-4903.011187
59465.769107,1998.556043,-9474.636058,-76.609550
59465.769417,0.000000,-5995.668130,-1225.752797
59465.769727,2294.638420,-10658.965565,995.924147
59465.770036,1702.473667,-10584.944971,612.876398
59465.770346,1036.288319,-10510.924376,919.314598
59465.770656,-148.041188,-9474.636058,-383.047749
59465.770966,-2368.659014,-8956.491898,0.000000
59465.771275,-3552.988522,-7179.997637,-2145.067394
59465.771585,-1258.350101,-10658.965565,-1302.362347
59465.771895,-2146.597232,-7254.018232,-3447.429741
59465.772204,296.082377,-9844.739029,1532.190996
59465.772514,-1924.535449,-10584.944971,612.876398
59465.772824,-148.041188,-8734.430116,1608.800546
59465.773133,1332.370696,-7105.977043,2221.676944
59465.773443,2516.700203,-5995.668130,2681.334243
59465.773753,2664.741391,-5847.626942,2681.334243
59465.774062,1184.329507,-5995.668130,1225.752797
59465.774372,0.000000,-9548.656652,612.876398
59465.774682,-370.102971,-12731.542202,1455.581446
59465.774992,-4737.318029,-10881.027347,0.000000
59465.775301,-1258.350101,-13471.748144,1915.238745
59465.775611,-1998.556043,-8290.306550,-1225.752797
59465.775921,-1480.411884,-9696.697840,2604.724693
59465.776230,814.226536,-7328.038826,3140.991542
59465.776540,2072.576638,-5625.565159,3677.258390
59465.776850,2886.803174,-6069.688724,4826.401637
59465.777159,1184.329507,-5181.441594,3524.039291
59465.777469,0.000000,-7179.997637,2451.505594
59465.777779,296.082377,-11917.315666,3983.696590
59465.778088,-1258.350101,-10658.965565,536.266849
59465.778398,-4737.318029,-9548.656652,306.438199
59465.778708,-1850.514855,-10658.965565,76.609550
59465.779018,-1628.453072,-6957.935855,1608.800546
59465.779327,-592.164754,-7920.203579,2528.115143
59465.779637,296.082377,-8808.450710,3524.039291
59465.779947,1480.411884,-8586.388927,4826.401637
59465.780256,1702.473667,-9178.553681,5439.278036
59465.780566,1702.473667,-7402.059420,3600.648841
59465.780876,1184.329507,-7179.997637,4903.011187
59465.781185,2886.803174,-8290.306550,2987.772442
59465.781495,-2368.659014,-8364.327145,2451.505594
59465.781805,-1258.350101,-10066.800811,-76.609550
59465.782114,-5033.400406,-10288.862594,0.000000
59465.782424,-4219.173869,-9918.759623,229.828649
59465.782734,-3478.967927,-8734.430116,0.000000
59465.783044,-3256.906145,-9400.615463,3294.210641
59465.783353,-666.185348,-7105.977043,2987.772442
59465.783663,1998.556043,-7698.141797,2987.772442
59465.783973,1776.494261,-6587.832884,3983.696590
59465.784282,3478.967927,-8290.306550,4213.525239
59465.784592,0.000000,-7179.997637,2451.505594
59465.784902,1110.308913,-11547.212695,-76.609550
59465.785211,-3849.070898,-9918.759623,-1685.410096
59465.785520,-5551.544565,-12139.377449,-2987.772442
59465.785829,-5107.421000,-11399.171507,-2451.505594
59465.786139,-2368.659014,-10214.842000,-612.876398
59465.786449,-74.020594,-10362.883188,2374.896044
59465.786758,2294.638420,-8882.471304,2374.896044
59465.787068,0.000000,-4811.338623,1378.971896
59465.787377,6809.894666,-8512.368333,7277.907231
59465.787687,5847.626942,-7105.977043,4519.963438
59465.787997,3478.967927,-7105.977043,-76.609550
59465.788306,2072.576638,-11621.233289,3064.381992
59465.788616,-74.020594,-11251.130318,-1302.362347
59465.788925,-4367.215058,-11621.233289,-3064.381992
59465.789235,-4515.256246,-12287.418637,-2298.286494
59465.789545,-3034.844362,-10510.924376,-3140.991542
59465.789854,-1258.350101,-11251.130318,-1915.238745
59465.790164,0.000000,-8364.327145,0.000000
59465.790473,2590.720797,-11251.130318,3600.648841
59465.790783,1184.329507,-6291.750507,1225.752797
59465.791093,5847.626942,-8586.388927,4213.525239
59465.791402,4071.132681,-7476.080014,2374.896044
59465.791712,2664.741391,-8660.409521,1302.362347
59465.792021,888.247130,-8512.368333,-842.705048
59465.792331,-1850.514855,-9622.677246,-2451.505594
59465.792641,-2442.679609,-11843.295072,-1608.800546
59465.792950,-1258.350101,-11251.130318,-3753.867940
59465.793260,-3849.070898,-12213.398043,-3447.429741
59465.793569,-4145.153275,-10732.986159,0.000000
59465.793879,-74.020594,-12435.459826,-76.609550
59465.794189,2294.638420,-9474.636058,2987.772442
59465.794498,4515.256246,-5033.400406,2604.724693
59465.794808,4145.153275,-4589.276840,1915.238745
59465.795117,2812.782580,-6957.935855,919.314598
59465.795427,740.205942,-8956.491898,-1838.629195
59465.795737,-1258.350101,-12435.459826,-2451.505594
59465.796046,-3627.009116,-16284.530724,-1915.238745
59465.796356,-4885.359217,-10955.047942,-4749.792088
59465.796665,-3552.988522,-11325.150913,-612.876398
59465.796975,-1258.350101,-10658.965565,-76.609550
59465.797284,-1184.329507,-7105.977043,1762.019645
59465.797594,1702.473667,-8068.244768,2068.457845
59465.797904,4145.153275,-6661.853478,2604.724693
59465.798213,4811.338623,-7031.956449,2681.334243
59465.798523,3182.885551,-8956.491898,1225.752797
59465.798832,2886.803174,-11769.274478,3447.429741
59465.799142,-74.020594,-11843.295072,-76.609550
59465.799452,-4663.297435,-8956.491898,-3600.648841
59465.799761,-4145.153275,-8364.327145,0.000000
59465.800071,-1258.350101,-9474.636058,-689.485948
59465.800380,-1924.535449,-11251.130318,1762.019645
59465.800690,-1554.432478,-9622.677246,229.828649
59465.801000,-370.102971,-10584.944971,1685.410096
59465.801309,2220.617826,-9622.677246,3524.039291
59465.801619,3627.009116,-6661.853478,3677.258390
59465.801928,5181.441594,-6587.832884,4903.011187
59465.802238,4663.297435,-8882.471304,5439.278036
59465.802548,518.144159,-5625.565159,842.705048
59465.802857,-888.247130,-11325.150913,2911.162892
59465.803167,-4811.338623,-10362.883188,-2757.943793
59465.803476,-5921.647536,-12065.356855,-306.438199
59465.803786,-4219.173869,-13915.871710,-76.609550
59465.804096,-2664.741391,-11177.109724,1302.362347
59465.804405,370.102971,-8142.265362,2757.943793
59465.804715,2590.720797,-6587.832884,2451.505594
59465.805024,4737.318029,-5995.668130,4903.011187
59465.805334,7031.956449,-8290.306550,7584.345430
59465.805644,3478.967927,-9474.636058,4826.401637
59465.805953,0.000000,-7179.997637,2451.505594
59465.806263,-1184.329507,-12435.459826,3600.648841
59465.806572,-4589.276840,-11473.192101,1225.752797
59465.806882,-3330.926739,-9178.553681,-689.485948
59465.807192,-3849.070898,-9918.759623,612.876398
59465.807501,-2368.659014,-9178.553681,2221.676944
59465.807811,-1036.288319,-6291.750507,1149.143247
59465.808120,592.164754,-7772.162391,3064.381992
59465.808430,2960.823768,-7254.018232,5209.449386
59465.808739,4367.215058,-8586.388927,6052.154434
59465.809049,296.082377,-7179.997637,4903.011187
59465.809359,2294.638420,-8882.471304,4213.525239
59465.809668,-666.185348,-9474.636058,2374.896044
59465.809978,-3552.988522,-9844.739029,-229.828649
59465.810287,-4071.132681,-8290.306550,-1762.019645
59465.810597,-4515.256246,-10955.047942,-1225.752797
59465.810907,-3923.091493,-11029.068536,-2145.067394
59465.811216,-2960.823768,-10732.986159,0.000000
59465.811526,1184.329507,-10436.903782,4136.915689
59465.811835,3478.967927,-6513.812290,3600.648841
59465.812145,2368.659014,-3627.009116,4903.011187
59465.812455,5847.626942,-7105.977043,4826.401637
59465.812764,1480.411884,-8364.327145,2757.943793
59465.813074,814.226536,-9474.636058,306.438199
59465.813383,-2590.720797,-11473.192101,-1608.800546
59465.813693,-3997.112087,-10510.924376,-2757.943793
59465.814003,-4737.318029,-9548.656652,-4060.306139
59465.814312,-5329.482782,-9548.656652,-4290.134789
59465.814622,-2960.823768,-8956.491898,0.000000
59465.814931,2886.803174,-9474.636058,2374.896044
59465.815241,2886.803174,-5995.668130,1149.143247
59465.815551,4737.318029,-6291.750507,5209.449386
59465.815860,4737.318029,-8364.327145,3064.381992
59465.816170,3182.885551,-9474.636058,2068.457845
59465.816479,1110.308913,-8956.491898,-383.047749
59465.816789,-1258.350101,-10658.965565,-1685.410096
59465.817099,-2886.803174,-9918.759623,-3753.867940
59465.817408,-5625.565159,-9548.656652,-5439.278036
59465.817718,-6809.894666,-11917.315666,-3677.258390
59465.818027,-3330.926739,-11917.315666,-153.219100
59465.818337,-74.020594,-8882.471304,-1608.800546
59465.818647,592.164754,-6587.832884,1838.629195
59465.818956,4145.153275,-4811.338623,2451.505594
59465.819266,5033.400406,-7994.224174,3600.648841
59465.819575,3849.070898,-8808.450710,2451.505594
59465.819885,1332.370696,-8142.265362,383.047749
59465.820194,-962.267725,-10658.965565,-1302.362347
59465.820504,-4071.132681,-9548.656652,-4366.744339
59465.820814,-6513.812290,-9548.656652,-4903.011187
59465.821123,-5329.482782,-13249.686362,-2451.505594
59465.821433,-4811.338623,-11843.295072,-3140.991542
59465.821742,-4737.318029,-9548.656652,-2451.505594
59465.822052,0.000000,-7476.080014,0.000000
59465.822362,3256.906145,-6587.832884,3370.820191
59465.822671,3775.050304,-5773.606348,3370.820191
59465.822981,4293.194464,-6661.853478,3983.696590
59465.823290,3775.050304,-7994.224174,3600.648841
59465.823600,814.226536,-6365.771101,-76.609550
59465.823910,-4145.153275,-7179.997637,-3064.381992
59465.824219,-4071.132681,-10066.800811,-1302.362347
59465.824529,-5995.668130,-10658.965565,-4979.620737
59465.824838,-7105.977043,-11917.315666,-3677.258390
59465.825148,-3330.926739,-8882.471304,-2834.553343
59465.825458,370.102971,-9400.615463,1225.752797
59465.825767,3775.050304,-6957.935855,3140.991542
59465.826077,5033.400406,-5995.668130,4290.134789
59465.826386,5847.626942,-9400.615463,6665.030833
59465.826696,4367.215058,-9474.636058,4826.401637
59465.827006,1554.432478,-8142.265362,1149.143247
59465.827315,-2072.576638,-8364.327145,0.000000
59465.827625,-74.020594,-9474.636058,-76.609550
59465.827934,-5699.585753,-7772.162391,-4749.792088
59465.828244,-5403.503377,-11547.212695,-2221.676944
59465.828554,-4145.153275,-11399.171507,-995.924147
59465.828863,-1036.288319,-12287.418637,1685.410096
59465.829173,1184.329507,-10510.924376,3983.696590
59465.829482,3997.112087,-7624.121203,6128.763984
59465.829792,5847.626942,-8882.471304,7277.907231
59465.830102,5847.626942,-5329.482782,4826.401637
59465.830411,2368.659014,-3775.050304,2451.505594
59465.830721,3478.967927,-9474.636058,2374.896044
59465.831030,-4145.153275,-7179.997637,-2451.505594
59465.831340,-3034.844362,-12435.459826,-842.705048
59465.831649,-6217.729913,-13249.686362,-1838.629195
59465.831959,-4515.256246,-11695.253884,-689.485948
59465.832269,-1702.473667,-10658.965565,995.924147
59465.832578,592.164754,-9548.656652,3983.696590
59465.832888,5255.462188,-8882.471304,6665.030833
59465.833197,5255.462188,-8882.471304,6665.030833
59465.833507,2960.823768,-4811.338623,2451.505594
59465.833817,4663.297435,-9474.636058,6358.592633
59465.834126,-1628.453072,-5995.668130,1149.143247
59465.834436,-370.102971,-9474.636058,1762.019645
59465.834745,-4811.338623,-8586.388927,-1378.971896
59465.835055,-7105.977043,-10288.862594,-2068.457845
59465.835365,-6439.791695,-9918.759623,-1532.190996
59465.835674,-4737.318029,-8068.244768,-1838.629195
59465.835984,-74.020594,-10140.821405,3064.381992
59465.836293,2294.638420,-9474.636058,4213.525239
59465.836603,1702.473667,-8290.306550,2374.896044
59465.836913,592.164754,-7179.997637,3677.258390
59465.837222,4663.297435,-8290.306550,4826.401637
59465.837532,3182.885551,-8882.471304,2987.772442
59465.837841,-74.020594,-7476.080014,76.609550
59465.838151,-2294.638420,-7105.977043,-1838.629195
59465.838461,-5625.565159,-10732.986159,-3217.601092
59465.838770,-7105.977043,-10140.821405,-4290.134789
59465.839080,-3552.988522,-10140.821405,0.000000
59465.839389,1110.308913,-12435.459826,2068.457845
59465.839699,2294.638420,-8290.306550,2374.896044
59465.840009,1184.329507,-7179.997637,2451.505594
59465.840318,5847.626942,-9474.636058,4826.401637
59465.840628,5329.482782,-7031.956449,3217.601092
59465.840937,3108.864956,-7179.997637,995.924147
59465.841247,148.041188,-9548.656652,-459.657299
59465.841557,-1998.556043,-9548.656652,-2834.553343
59465.841866,-5699.585753,-11325.150913,-4826.401637
59465.842176,-8290.306550,-11917.315666,-4903.011187
59465.842485,-3552.988522,-11769.274478,-2145.067394
59465.842795,-74.020594,-13619.789333,-76.609550
59465.843104,0.000000,-5403.503377,0.000000
59465.843414,6439.791695,-9474.636058,4826.401637
59465.843724,4737.318029,-7328.038826,3677.258390
59465.844033,5255.462188,-7105.977043,2528.115143
59465.844343,3034.844362,-7994.224174,1378.971896
59465.844652,666.185348,-9474.636058,-229.828649
59465.844962,-74.020594,-7920.203579,-1915.238745
59465.845272,-5625.565159,-9548.656652,-4290.134789
59465.845581,-6217.729913,-13397.727550,-2451.505594
59465.845891,-3627.009116,-14211.954086,-2528.115143
59465.846200,-5921.647536,-10140.821405,-2451.505594
59465.846510,2886.803174,-11251.130318,3524.039291
59465.846820,592.164754,-5995.668130,1225.752797
59465.847129,3404.947333,-7328.038826,3140.991542
59465.847439,4663.297435,-6217.729913,3524.039291
59465.847748,3997.112087,-6291.750507,2298.286494
59465.848058,1702.473667,-8290.306550,-76.609550
59465.848368,-2590.720797,-6587.832884,-2145.067394
59465.848677,-4589.276840,-8364.327145,-3064.381992
59465.848987,-4811.338623,-14211.954086,-2528.115143
59465.849296,-8882.471304,-8364.327145,-4903.011187
59465.849606,-2368.659014,-12509.480420,612.876398
59465.849916,-2368.659014,-9548.656652,0.000000
59465.850225,1184.329507,-8068.244768,1608.800546
59465.850535,2072.576638,-8586.388927,2681.334243
59465.850844,3256.906145,-6735.874072,2987.772442
59465.851154,4663.297435,-8290.306550,3600.648841
59465.851464,1998.556043,-7105.977043,1149.143247
59465.851773,-1480.411884,-5995.668130,0.000000
59465.852083,-74.020594,-10288.862594,1685.410096
