#time,accel_x,accel_y,accel_z
163359.597953,-1036.288319,-9326.594869,-459.657299
163359.598272,-2368.659014,-7772.162391,0.000000
163359.598591,-2960.823768,-9474.636058,-76.609550
163359.598911,-2960.823768,-7772.162391,-1838.629195
163359.599230,-148.041188,-10362.883188,-76.609550
163359.599549,-666.185348,-8882.471304,-689.485948
163359.599868,-74.020594,-9474.636058,-1915.238745
163359.600187,1406.391290,-10658.965565,-76.609550
163359.600507,222.061783,-9622.677246,-689.485948
163359.600826,296.082377,-9030.512492,229.828649
163359.601145,148.041188,-10214.842000,-766.095498
163359.601464,0.000000,-9548.656652,306.438199
163359.601783,666.185348,-9474.636058,-76.609550
163359.602103,0.000000,-8364.327145,0.000000
163359.602422,0.000000,-7179.997637,0.000000
163359.602741,1332.370696,-10362.883188,1532.190996
163359.603060,-666.185348,-6809.894666,-1608.800546
163359.603380,222.061783,-8660.409521,459.657299
163359.603699,-370.102971,-9178.553681,0.000000
163359.604018,-962.267725,-9474.636058,0.000000
163359.604337,-1258.350101,-10510.924376,-76.609550
163359.604656,-74.020594,-11251.130318,1762.019645
163359.604976,-370.102971,-9474.636058,-76.609550
163359.605295,-74.020594,-9474.636058,-995.924147
163359.605614,-2368.659014,-7772.162391,0.000000
163359.605933,0.000000,-8956.491898,612.876398
163359.606252,-2072.576638,-7476.080014,-2451.505594
163359.606572,-518.144159,-9622.677246,-689.485948
163359.606891,-888.247130,-9548.656652,-995.924147
163359.607210,-592.164754,-9548.656652,-383.047749
163359.607529,-74.020594,-9474.636058,-76.609550
163359.607848,1998.556043,-10807.006753,0.000000
163359.608168,2294.638420,-11843.295072,-76.609550
163359.608487,-888.247130,-8068.244768,-1072.533697
163359.608806,0.000000,-8956.491898,-2451.505594
163359.609125,0.000000,-9844.739029,612.876398
163359.609444,-1110.308913,-8586.388927,-1225.752797
163359.609764,222.061783,-9178.553681,306.438199
163359.610083,518.144159,-9326.594869,612.876398
163359.610402,592.164754,-8660.409521,383.047749
163359.610721,2294.638420,-10066.800811,842.705048
163359.611040,0.000000,-7179.997637,612.876398
163359.611360,222.061783,-10436.903782,1072.533697
163359.611679,-74.020594,-11843.295072,1762.019645
163359.611998,-1554.432478,-8882.471304,-995.924147
163359.612317,-1776.494261,-10732.986159,1838.629195
163359.612636,-888.247130,-9252.574275,-689.485948
163359.612956,-814.226536,-9400.615463,-229.828649
163359.613275,-740.205942,-9252.574275,0.000000
163359.613594,-2368.659014,-7179.997637,0.000000
163359.613913,-1776.494261,-7772.162391,-1532.190996
163359.614232,-888.247130,-9400.615463,0.000000
163359.614552,-74.020594,-11843.295072,-76.609550
163359.614871,-2368.659014,-8364.327145,0.000000
163359.615190,814.226536,-11251.130318,-76.609550
163359.615509,296.082377,-10658.965565,383.047749
163359.615828,0.000000,-9770.718434,-383.047749
163359.616148,0.000000,-9400.615463,-306.438199
163359.616467,0.000000,-9474.636058,-459.657299
163359.616786,0.000000,-7179.997637,0.000000
163359.617105,0.000000,-7920.203579,0.000000
163359.617424,0.000000,-7179.997637,0.000000
163359.617744,1406.391290,-10214.842000,766.095498
163359.618063,-74.020594,-9178.553681,-76.609550
163359.618382,1702.473667,-8882.471304,-383.047749
163359.618701,0.000000,-8364.327145,919.314598
163359.619020,-518.144159,-9252.574275,0.000000
163359.619340,-962.267725,-9326.594869,0.000000
163359.619659,-1184.329507,-8734.430116,536.266849
163359.619978,-3552.988522,-7772.162391,0.000000
163359.620297,-2516.700203,-7402.059420,-2145.067394
163359.620616,-1184.329507,-9548.656652,612.876398
163359.620936,-1258.350101,-8660.409521,-383.047749
163359.621255,-2368.659014,-6587.832884,-1838.629195
163359.621574,-74.020594,-11695.253884,-76.609550
163359.621893,-1258.350101,-9696.697840,-919.314598
163359.622212,-1406.391290,-9400.615463,-995.924147
163359.622532,-1036.288319,-9400.615463,-919.314598
163359.622851,0.000000,-9548.656652,0.000000
163359.623170,888.247130,-9696.697840,-689.485948
163359.623489,1998.556043,-10658.965565,-76.609550
163359.623808,1110.308913,-9474.636058,-76.609550
163359.624128,0.000000,-8364.327145,-1762.019645
163359.624447,2886.803174,-11547.212695,2374.896044
163359.624766,1184.329507,-8956.491898,0.000000
163359.625085,2294.638420,-9474.636058,306.438199
163359.625405,2886.803174,-9696.697840,0.000000
163359.625724,3478.967927,-9548.656652,76.609550
163359.626043,2146.597232,-7179.997637,-2451.505594
163359.626362,3923.091493,-8734.430116,919.314598
163359.626681,3923.091493,-9104.533087,306.438199
163359.627001,4515.256246,-9400.615463,919.314598
163359.627320,5033.400406,-9474.636058,-76.609550
163359.627639,6365.771101,-10066.800811,229.828649
163359.627958,7031.956449,-10658.965565,1149.143247
163359.628277,4367.215058,-8586.388927,-689.485948
163359.628597,3552.988522,-7772.162391,-2451.505594
163359.628916,4737.318029,-8364.327145,0.000000
163359.629235,2368.659014,-7179.997637,-3370.820191
163359.629554,5625.565159,-9918.759623,-1608.800546
163359.629873,6217.729913,-9400.615463,-1149.143247
163359.630193,6587.832884,-9030.512492,-536.266849
163359.630512,7624.121203,-10510.924376,-383.047749
163359.630831,6291.750507,-11103.089130,-995.924147
163359.631150,4737.318029,-12879.583391,-459.657299
163359.631469,3478.967927,-15396.283594,-76.609550
163359.631789,2294.638420,-12435.459826,-689.485948
163359.632108,2664.741391,-12213.398043,2604.724693
163359.632427,2960.823768,-7772.162391,612.876398
163359.632746,4589.276840,-6513.812290,1149.143247
163359.633065,4737.318029,-4811.338623,153.219100
163359.633385,4959.379811,-4367.215058,-689.485948
163359.633704,4293.194464,-4515.256246,-3064.381992
163359.634023,4293.194464,-7328.038826,-1532.190996
163359.634342,4145.153275,-10140.821405,-2451.505594
163359.634661,3923.091493,-14878.139434,-306.438199
163359.634981,1998.556043,-16432.571912,-76.609550
163359.635300,1628.453072,-17764.942608,4136.915689
163359.635619,2368.659014,-13027.624579,2451.505594
163359.635938,2738.761985,-8808.450710,1991.848295
163359.636257,1184.329507,-5181.441594,-306.438199
163359.636577,0.000000,-2442.679609,-2451.505594
163359.636896,0.000000,-2442.679609,-1762.019645
163359.637215,1332.370696,-4811.338623,-1915.238745
163359.637534,592.164754,-8660.409521,995.924147
163359.637853,-1850.514855,-9474.636058,0.000000
163359.638173,-1850.514855,-10658.965565,-689.485948
163359.638492,444.123565,-11547.212695,842.705048
163359.638811,740.205942,-9622.677246,0.000000
163359.639130,1036.288319,-10066.800811,0.000000
163359.639449,518.144159,-10658.965565,153.219100
163359.639769,0.000000,-10732.986159,0.000000
163359.640088,2294.638420,-9918.759623,-76.609550
163359.640407,-1406.391290,-6735.874072,-4290.134789
163359.640726,-2368.659014,-7476.080014,-7354.516781
163359.641045,-1184.329507,-10140.821405,-3677.258390
163359.641365,3478.967927,-11843.295072,-76.609550
163359.641684,4293.194464,-12287.418637,3830.477490
163359.642003,2960.823768,-10362.883188,3907.087040
163359.642322,740.205942,-8660.409521,1608.800546
163359.642641,148.041188,-7550.100608,-76.609550
163359.642961,814.226536,-9474.636058,1149.143247
163359.643280,2146.597232,-10362.883188,3600.648841
163359.643599,888.247130,-7179.997637,689.485948
163359.643918,-1184.329507,-7328.038826,612.876398
163359.644237,-4515.256246,-7476.080014,-4903.011187
163359.644557,-6587.832884,-7994.224174,-8044.002729
163359.644876,-5921.647536,-12213.398043,-5056.230287
163359.645195,-4219.173869,-13101.645173,-2681.334243
163359.645514,-3627.009116,-11917.315666,-1149.143247
163359.645833,-666.185348,-11843.295072,2374.896044
163359.646153,1628.453072,-9474.636058,3140.991542
163359.646472,2960.823768,-7179.997637,4903.011187
163359.646791,8216.285956,-8290.306550,6894.859482
163359.647110,5847.626942,-4441.235652,6665.030833
163359.647430,0.000000,-2442.679609,2451.505594
163359.647749,-2442.679609,-5329.482782,-2681.334243
163359.648068,-5773.606348,-10584.944971,-6281.983084
163359.648387,-7550.100608,-13619.789333,-7201.297681
163359.648706,-8068.244768,-15322.262999,-6511.811733
163359.649026,-5995.668130,-16432.571912,-4979.620737
163359.649345,-7105.977043,-9844.739029,-3064.381992
163359.649664,-370.102971,-10658.965565,2374.896044
163359.649983,4367.215058,-7328.038826,4826.401637
163359.650302,6365.771101,-3627.009116,7354.516781
163359.650622,9474.636058,-3034.844362,11031.775171
163359.650941,7031.956449,-2072.576638,7431.126331
163359.651260,2220.617826,-3997.112087,1685.410096
163359.651579,-3330.926739,-8808.450710,-3600.648841
163359.651898,-6217.729913,-13397.727550,-8580.269578
163359.652218,-6661.853478,-16802.674883,-8350.440928
163359.652537,-9474.636058,-17246.798449,-8427.050478
163359.652856,-7698.141797,-15914.427753,-8580.269578
163359.653175,-5921.647536,-13767.830521,-3677.258390
163359.653494,1554.432478,-11843.295072,-76.609550
163359.653814,6217.729913,-6735.874072,6435.202183
163359.654133,10066.800811,-2590.720797,9729.412825
163359.654452,9622.677246,-148.041188,9039.926876
163359.654771,7254.018232,0.000000,5439.278036
163359.655090,888.247130,-1258.350101,-2451.505594
163359.655410,-2368.659014,-8364.327145,-4903.011187
163359.655729,-5477.523971,-14285.974681,-9193.145976
163359.656048,-8290.306550,-18135.045579,-7354.516781
163359.656367,-7254.018232,-20133.601622,-6128.763984
163359.656686,-5403.503377,-17764.942608,-4979.620737
163359.657006,-3849.070898,-13101.645173,-2451.505594
163359.657325,2368.659014,-8438.347739,1991.848295
163359.657644,9104.533087,-5181.441594,8427.050478
163359.657963,12287.418637,-962.267725,11568.042020
163359.658282,9474.636058,4663.297435,7354.516781
163359.658602,7328.038826,1776.494261,4213.525239
163359.658921,0.000000,-2442.679609,-2145.067394
163359.659240,-1628.453072,-13027.624579,-3140.991542
163359.659559,-5995.668130,-18949.272115,-5592.497135
163359.659878,-9770.718434,-21317.931130,-4979.620737
163359.660198,-11325.150913,-18801.230927,-9116.536426
163359.660517,-9918.759623,-17098.757260,-7431.126331
163359.660836,-4293.194464,-13101.645173,-2604.724693
163359.661155,1776.494261,-6587.832884,612.876398
163359.661474,9030.512492,-2664.741391,7507.735880
163359.661794,10362.883188,1036.288319,9346.365076
163359.662113,8512.368333,1184.329507,7277.907231
163359.662432,5847.626942,0.000000,1762.019645
163359.662751,1184.329507,-7772.162391,0.000000
163359.663070,-4589.276840,-13397.727550,-3370.820191
163359.663390,-6735.874072,-18949.272115,-4366.744339
163359.663709,-10140.821405,-19171.333898,-6435.202183
163359.664028,-10436.903782,-17172.777854,-7354.516781
163359.664347,-6587.832884,-13915.871710,-5592.497135
163359.664666,-296.082377,-11325.150913,842.705048
163359.664986,6513.812290,-5995.668130,6281.983084
163359.665305,8660.409521,-592.164754,7660.954980
163359.665624,7254.018232,2442.679609,6358.592633
163359.665943,5921.647536,0.000000,4596.572988
163359.666262,1776.494261,-4811.338623,1532.190996
163359.666582,-74.020594,-11843.295072,-76.609550
163359.666901,-4959.379811,-16358.551318,-2911.162892
163359.667220,-9474.636058,-18283.086767,-4903.011187
163359.667539,-12805.562797,-16802.674883,-9346.365076
163359.667859,-8216.285956,-17172.777854,-5362.668486
163359.668178,-2738.761985,-13027.624579,-1991.848295
163359.668497,2294.638420,-8142.265362,3600.648841
163359.668816,7031.956449,-3552.988522,5439.278036
163359.669135,5847.626942,740.205942,3600.648841
163359.669455,4737.318029,518.144159,2757.943793
163359.669774,4145.153275,-3034.844362,1149.143247
163359.670093,0.000000,-7772.162391,0.000000
163359.670412,-3997.112087,-14285.974681,0.000000
163359.670732,-7105.977043,-16580.613101,-3140.991542
163359.671051,-8068.244768,-15988.448347,-6435.202183
163359.671370,-6809.894666,-15692.365970,-5209.449386
163359.671689,-1480.411884,-14063.912898,-1149.143247
163359.672009,4367.215058,-9178.553681,1915.238745
163359.672328,6735.874072,-4441.235652,5056.230287
163359.672647,7179.997637,-1332.370696,3677.258390
163359.672966,6439.791695,-2368.659014,2374.896044
163359.673285,3478.967927,-5033.400406,1149.143247
163359.673605,2960.823768,-10658.965565,2221.676944
163359.673924,0.000000,-12509.480420,0.000000
163359.674243,-3997.112087,-14656.077652,-1302.362347
163359.674562,-6957.935855,-15026.180623,-4519.963438
163359.674882,-6883.915261,-14285.974681,-4903.011187
163359.675201,-3552.988522,-11917.315666,-2451.505594
163359.675520,2664.741391,-9844.739029,0.000000
163359.675839,4737.318029,-5551.544565,4903.011187
163359.676159,3849.070898,-2960.823768,4060.306139
163359.676478,1628.453072,-592.164754,-995.924147
163359.676797,3182.885551,-6513.812290,-76.609550
163359.677116,0.000000,-9696.697840,-2221.676944
163359.677435,-2220.617826,-13101.645173,-1762.019645
163359.677755,-5033.400406,-14137.933492,-2451.505594
163359.678074,-7105.977043,-14285.974681,-3677.258390
163359.678393,-5921.647536,-12509.480420,-4366.744339
163359.678712,-2368.659014,-11029.068536,-1838.629195
163359.679032,4441.235652,-10214.842000,3370.820191
163359.679351,8882.471304,-7772.162391,8580.269578
163359.679670,6439.791695,-666.185348,3600.648841
163359.679989,4515.256246,-2960.823768,2374.896044
163359.680309,740.205942,-4293.194464,-766.095498
163359.680628,-148.041188,-8956.491898,-1762.019645
163359.680947,-1554.432478,-13323.706956,-1225.752797
163359.681266,-5773.606348,-14211.954086,-2374.896044
163359.681586,-8290.306550,-13323.706956,-4443.353888
163359.681905,-9178.553681,-12509.480420,-4596.572988
163359.682224,-5921.647536,-9548.656652,-3370.820191
163359.682543,1776.494261,-9548.656652,3217.601092
163359.682862,3330.926739,-4811.338623,2451.505594
163359.683182,5255.462188,-2960.823768,4826.401637
163359.683501,2664.741391,-1998.556043,1455.581446
163359.683820,148.041188,-4293.194464,-1532.190996
163359.684139,-2146.597232,-9178.553681,-3140.991542
163359.684459,-2590.720797,-13619.789333,-3140.991542
163359.684778,-5699.585753,-15692.365970,-3447.429741
163359.685097,-8734.430116,-13101.645173,-6128.763984
163359.685416,-7105.977043,-13397.727550,-4136.915689
163359.685736,-296.082377,-13471.748144,-76.609550
163359.686055,592.164754,-8364.327145,1225.752797
163359.686374,7031.956449,-7105.977043,5745.716235
163359.686693,7698.141797,-3034.844362,6358.592633
163359.687012,5477.523971,-1332.370696,3677.258390
163359.687332,2294.638420,-3552.988522,-1608.800546
163359.687651,1110.308913,-8290.306550,-1762.019645
163359.687970,-74.020594,-14211.954086,-1302.362347
163359.688289,-4293.194464,-13841.851115,-3524.039291
163359.688609,-7105.977043,-15100.201217,-3753.867940
163359.688928,-6809.894666,-15914.427753,-2604.724693
163359.689247,-5329.482782,-12509.480420,-3370.820191
163359.689566,1258.350101,-10584.944971,1608.800546
163359.689886,6143.709319,-6661.853478,5745.716235
163359.690205,7550.100608,-2590.720797,6971.469032
163359.690524,6439.791695,0.000000,4826.401637
163359.690843,4071.132681,-2812.782580,2068.457845
163359.691162,518.144159,-6365.771101,-2528.115143
163359.691482,-2886.803174,-11399.171507,-4366.744339
163359.691801,-6439.791695,-14582.057057,-4903.011187
163359.692120,-5699.585753,-18949.272115,-2528.115143
163359.692439,-9030.512492,-14582.057057,-5975.544884
163359.692759,-5181.441594,-13175.665768,-4443.353888
163359.693078,74.020594,-10955.047942,-459.657299
163359.693397,4737.318029,-7476.080014,5515.887586
163359.693716,7698.141797,-3627.009116,6128.763984
163359.694036,7328.038826,-1110.308913,6052.154434
163359.694355,4885.359217,-2738.761985,3983.696590
163359.694674,1110.308913,-5329.482782,-1608.800546
163359.694993,-962.267725,-9548.656652,-4060.306139
163359.695312,-1258.350101,-16580.613101,-1915.238745
163359.695632,-5625.565159,-16654.633695,-3524.039291
163359.695951,-7846.182985,-15174.221811,-4366.744339
163359.696270,-6735.874072,-14137.933492,-4366.744339
163359.696589,0.000000,-11917.315666,1838.629195
163359.696909,4145.153275,-7920.203579,4443.353888
163359.697228,4737.318029,-2442.679609,6128.763984
163359.697547,6957.935855,-1850.514855,6588.421283
163359.697866,3775.050304,-1184.329507,3064.381992
163359.698186,-370.102971,-2738.761985,-2451.505594
163359.698505,-666.185348,-9474.636058,-1225.752797
163359.698824,-4219.173869,-13619.789333,-3447.429741
163359.699143,-7031.956449,-15544.324782,-4136.915689
163359.699462,-9474.636058,-15914.427753,-5669.106685
163359.699782,-7698.141797,-14582.057057,-4903.011187
163359.700101,-4737.318029,-10140.821405,-3370.820191
163359.700420,2664.741391,-9548.656652,3677.258390
163359.700739,7624.121203,-6513.812290,6665.030833
163359.701059,7624.121203,-1184.329507,3294.210641
163359.701378,6439.791695,-2368.659014,2374.896044
163359.701697,1480.411884,-3923.091493,-689.485948
163359.702016,-666.185348,-8882.471304,-2298.286494
163359.702336,-1480.411884,-13693.809927,-2604.724693
163359.702655,-2664.741391,-17172.777854,-1532.190996
163359.702974,-5847.626942,-16432.571912,-3753.867940
163359.703293,-6439.791695,-14211.954086,-4979.620737
163359.703612,-2368.659014,-11399.171507,-2681.334243
163359.703932,2368.659014,-8660.409521,2451.505594
163359.704251,9400.615463,-7105.977043,7890.783629
163359.704570,7772.162391,-3404.947333,7201.297681
163359.704889,4293.194464,-148.041188,3830.477490
163359.705209,1776.494261,-2368.659014,0.000000
163359.705528,-1332.370696,-7254.018232,-2528.115143
163359.705847,-5921.647536,-11917.315666,-4290.134789
163359.706166,-6291.750507,-15396.283594,-4290.134789
163359.706486,-8290.306550,-16210.510130,-5286.058936
163359.706805,-7846.182985,-14582.057057,-5669.106685
163359.707124,-3627.009116,-11917.315666,-4903.011187
163359.707443,2294.638420,-8586.388927,-919.314598
163359.707762,9400.615463,-9178.553681,7277.907231
163359.708082,8808.450710,-3256.906145,6971.469032
163359.708401,5477.523971,-74.020594,2987.772442
163359.708720,2590.720797,-3552.988522,1149.143247
163359.709039,0.000000,-6587.832884,-2451.505594
163359.709359,-2442.679609,-12435.459826,-3983.696590
163359.709678,-4515.256246,-16358.551318,-4136.915689
163359.709997,-6587.832884,-16580.613101,-4136.915689
163359.710316,-6883.915261,-14804.118840,-4903.011187
163359.710636,-3404.947333,-13101.645173,-2451.505594
163359.710955,2886.803174,-10658.965565,1915.238745
163359.711274,7328.038826,-8290.306550,8503.660028
163359.711593,7105.977043,-1850.514855,7354.516781
163359.711912,9104.533087,-2368.659014,7277.907231
163359.712232,2072.576638,-1998.556043,1378.971896
163359.712551,-1480.411884,-5329.482782,-1915.238745
163359.712870,-3923.091493,-10658.965565,-3983.696590
163359.713189,-6291.750507,-14804.118840,-4903.011187
163359.713509,-8290.306550,-16210.510130,-5515.887586
163359.713828,-9844.739029,-15322.262999,-5515.887586
163359.714147,-5995.668130,-16580.613101,-3140.991542
163359.714466,-518.144159,-11843.295072,-689.485948
163359.714786,4219.173869,-7031.956449,3830.477490
163359.715105,9400.615463,-4737.318029,7277.907231
163359.715424,6883.915261,-814.226536,6741.640382
163359.715743,3182.885551,-1480.411884,1608.800546
163359.716062,-222.061783,-4737.318029,-2068.457845
163359.716382,-1258.350101,-11177.109724,-2221.676944
163359.716701,-3552.988522,-16062.468941,-2298.286494
163359.717020,-6513.812290,-16654.633695,-4290.134789
163359.717339,-7179.997637,-17468.860231,-4979.620737
163359.717659,-5995.668130,-14211.954086,-3140.991542
163359.717978,-2368.659014,-10732.986159,-2451.505594
163359.718297,5847.626942,-9178.553681,4519.963438
163359.718616,8734.430116,-5699.585753,8273.831378
163359.718936,8734.430116,-1332.370696,7967.393179
163359.719255,5255.462188,-518.144159,3830.477490
163359.719574,3478.967927,-4145.153275,536.266849
163359.719893,-2368.659014,-6587.832884,-3677.258390
163359.720212,-3849.070898,-13841.851115,-2681.334243
163359.720532,-5551.544565,-15988.448347,-3140.991542
163359.720851,-6587.832884,-16580.613101,-5286.058936
163359.721170,-9474.636058,-13101.645173,-6128.763984
163359.721489,-3627.009116,-12435.459826,-2681.334243
163359.721809,2516.700203,-10510.924376,1762.019645
163359.722128,7328.038826,-6809.894666,6741.640382
163359.722447,7994.224174,-2516.700203,6741.640382
163359.722766,5403.503377,-814.226536,2987.772442
163359.723086,0.000000,-1702.473667,-2145.067394
163359.723405,-2368.659014,-7179.997637,-6128.763984
163359.723724,-2368.659014,-13693.809927,-2451.505594
163359.724043,-3330.926739,-16580.613101,-2834.553343
163359.724362,-7105.977043,-16062.468941,-2451.505594
163359.724682,-6883.915261,-15174.221811,-4519.963438
163359.725001,-2516.700203,-13545.768739,-1762.019645
163359.725320,3034.844362,-10140.821405,2068.457845
163359.725639,6365.771101,-4811.338623,5209.449386
163359.725959,7624.121203,-1850.514855,6128.763984
163359.726278,5625.565159,0.000000,4826.401637
163359.726597,148.041188,-74.020594,0.000000
163359.726916,-2220.617826,-6587.832884,-2451.505594
163359.727236,-2442.679609,-14211.954086,-2528.115143
163359.727555,-7105.977043,-14285.974681,-4290.134789
163359.727874,-7402.059420,-15692.365970,-4443.353888
163359.728193,-7179.997637,-14804.118840,-3830.477490
163359.728512,-2960.823768,-12583.501014,-1838.629195
163359.728832,0.000000,-7772.162391,0.000000
163359.729151,5847.626942,-8882.471304,7277.907231
163359.729470,8808.450710,-4441.235652,6665.030833
163359.729789,4737.318029,-814.226536,3447.429741
163359.730109,1184.329507,-1850.514855,0.000000
163359.730428,-666.185348,-8290.306550,-3140.991542
163359.730747,-4737.318029,-12213.398043,-5669.106685
163359.731066,-5329.482782,-16358.551318,-5132.839837
163359.731386,-6883.915261,-17024.736666,-5286.058936
163359.731705,-8068.244768,-15322.262999,-3753.867940
163359.732024,-4811.338623,-12509.480420,-1685.410096
163359.732343,4071.132681,-11843.295072,2374.896044
163359.732662,8512.368333,-7402.059420,8503.660028
163359.732982,8512.368333,-1554.432478,7354.516781
163359.733301,6217.729913,-74.020594,5515.887586
163359.733620,4071.132681,0.000000,-76.609550
163359.733939,-2220.617826,-5033.400406,-2757.943793
163359.734259,-5033.400406,-11325.150913,-5592.497135
163359.734578,-7031.956449,-15914.427753,-6205.373534
163359.734897,-6365.771101,-18653.189738,-3907.087040
163359.735216,-7846.182985,-16580.613101,-4596.572988
163359.735536,-4811.338623,-13619.789333,-2757.943793
163359.735855,2886.803174,-11843.295072,2374.896044
163359.736174,7328.038826,-6439.791695,6128.763984
163359.736493,7698.141797,-2442.679609,7354.516781
163359.736812,9104.533087,0.000000,7277.907231
163359.737132,3182.885551,-962.267725,2528.115143
163359.737451,-1850.514855,-4367.215058,-2911.162892
163359.737770,-4959.379811,-9770.718434,-6052.154434
163359.738089,-4811.338623,-16580.613101,-4979.620737
163359.738409,-8068.244768,-17764.942608,-6741.640382
163359.738728,-7179.997637,-18949.272115,-4979.620737
163359.739047,-5995.668130,-15396.283594,-4979.620737
163359.739366,-814.226536,-13027.624579,-76.609550
163359.739686,7031.956449,-7994.224174,2528.115143
163359.740005,11473.192101,-6587.832884,10035.851024
163359.740324,9992.780217,-1850.514855,9346.365076
163359.740643,5181.441594,296.082377,4903.011187
163359.740962,1554.432478,-3552.988522,-76.609550
163359.741282,-3256.906145,-6587.832884,-4366.744339
163359.741601,-6809.894666,-12509.480420,-6971.469032
163359.741920,-8882.471304,-16136.489536,-6971.469032
163359.742239,-7994.224174,-18431.127956,-3677.258390
163359.742559,-6587.832884,-15248.242405,-5592.497135
163359.742878,-74.020594,-13915.871710,-76.609550
163359.743197,4071.132681,-9252.574275,4366.744339
163359.743516,9326.594869,-5403.503377,9039.926876
163359.743836,10140.821405,-1406.391290,9882.631924
163359.744155,6513.812290,814.226536,7660.954980
163359.744474,1702.473667,-1110.308913,612.876398
163359.744793,-2442.679609,-7402.059420,-3140.991542
163359.745112,-4811.338623,-13619.789333,-6205.373534
163359.745432,-8290.306550,-16062.468941,-6741.640382
163359.745751,-7179.997637,-18653.189738,-5592.497135
163359.746070,-9474.636058,-16062.468941,-6511.811733
163359.746389,-4885.359217,-14582.057057,-3600.648841
163359.746709,1998.556043,-11103.089130,1608.800546
163359.747028,8586.388927,-7994.224174,9729.412825
163359.747347,7698.141797,-1258.350101,7967.393179
163359.747666,7772.162391,0.000000,6205.373534
163359.747986,2886.803174,-444.123565,842.705048
163359.748305,-888.247130,-4885.359217,-1991.848295
163359.748624,-2738.761985,-10658.965565,-3753.867940
163359.748943,-3627.009116,-16580.613101,-3753.867940
163359.749262,-5699.585753,-18653.189738,-4366.744339
163359.749582,-9474.636058,-15470.304188,-6205.373534
163359.749901,-7476.080014,-11473.192101,-4903.011187
163359.750220,2516.700203,-13027.624579,2374.896044
163359.750539,5921.647536,-7179.997637,6281.983084
163359.750859,9696.697840,-4145.153275,9499.584175
163359.751178,7920.203579,296.082377,7354.516781
163359.751497,3108.864956,74.020594,2528.115143
163359.751816,-962.267725,-3330.926739,-1838.629195
163359.752136,-2738.761985,-10510.924376,-3753.867940
163359.752455,-4811.338623,-14804.118840,-3140.991542
163359.752774,-6291.750507,-16284.530724,-6818.249932
163359.753093,-9474.636058,-15840.407159,-6358.592633
163359.753412,-4811.338623,-17172.777854,-2528.115143
163359.753732,-1480.411884,-11917.315666,-612.876398
163359.754051,4959.379811,-9104.533087,4519.963438
163359.754370,9104.533087,-5033.400406,7814.174080
163359.754689,7624.121203,-1628.453072,7660.954980
163359.755009,3552.988522,-74.020594,3677.258390
163359.755328,444.123565,-3775.050304,-2145.067394
163359.755647,-666.185348,-10658.965565,-3140.991542
163359.755966,-5477.523971,-13693.809927,-5822.325785
163359.756286,-6217.729913,-14878.139434,-6588.421283
163359.756605,-4811.338623,-17764.942608,-4979.620737
163359.756924,-5921.647536,-14878.139434,-3983.696590
163359.757243,-740.205942,-12139.377449,-306.438199
163359.757562,5181.441594,-8586.388927,4519.963438
163359.757882,9474.636058,-6883.915261,10725.336972
163359.758201,8290.306550,-370.102971,7354.516781
163359.758520,3552.988522,-74.020594,3677.258390
163359.758839,1702.473667,-2960.823768,-76.609550
163359.759159,-2442.679609,-9474.636058,-2528.115143
163359.759478,-5773.606348,-11917.315666,-6741.640382
163359.759797,-5403.503377,-16506.592507,-4979.620737
163359.760116,-8290.306550,-16136.489536,-5056.230287
163359.760436,-8068.244768,-15100.201217,-4826.401637
163359.760755,-3404.947333,-13101.645173,-2145.067394
163359.761074,2368.659014,-10214.842000,3830.477490
163359.761393,6809.894666,-5699.585753,6818.249932
163359.761712,6513.812290,-2146.597232,7354.516781
163359.762032,4737.318029,-74.020594,4903.011187
163359.762351,1702.473667,-2368.659014,-689.485948
163359.762670,-4737.318029,-4811.338623,-4903.011187
163359.762989,-4811.338623,-13027.624579,-5439.278036
163359.763309,-7105.977043,-16062.468941,-5132.839837
163359.763628,-7328.038826,-16284.530724,-4903.011187
163359.763947,-6513.812290,-13841.851115,-4673.182538
163359.764266,-1998.556043,-13027.624579,-2528.115143
163359.764586,1850.514855,-10140.821405,1838.629195
163359.764905,4737.318029,-5403.503377,6128.763984
163359.765224,9474.636058,-3627.009116,9806.022374
163359.765543,9104.533087,-2220.617826,7584.345430
163359.765862,0.000000,-74.020594,0.000000
163359.766182,-1850.514855,-6735.874072,-2834.553343
163359.766501,-3478.967927,-11769.274478,-4443.353888
163359.766820,-4367.215058,-15692.365970,-4673.182538
163359.767139,-5699.585753,-14952.160028,-5439.278036
163359.767459,-6587.832884,-14804.118840,-4366.744339
163359.767778,-3034.844362,-13027.624579,-3753.867940
163359.768097,1110.308913,-10436.903782,689.485948
163359.768416,7254.018232,-7772.162391,4903.011187
163359.768736,11473.192101,-6809.894666,10648.727422
163359.769055,5033.400406,-74.020594,4903.011187
163359.769374,1628.453072,-1776.494261,0.000000
163359.769693,-2294.638420,-5329.482782,-3294.210641
163359.770012,-4367.215058,-11399.171507,-5362.668486
163359.770332,-5995.668130,-14211.954086,-6818.249932
163359.770651,-5995.668130,-18949.272115,-4979.620737
163359.770970,-6587.832884,-16580.613101,-4979.620737
163359.771289,-4367.215058,-12805.562797,-3294.210641
163359.771608,2886.803174,-10658.965565,-76.609550
163359.771927,8808.450710,-7920.203579,5745.716235
163359.772247,10881.027347,-5477.523971,7354.516781
163359.772566,8660.409521,-1480.411884,7431.126331
163359.772885,3849.070898,-518.144159,2451.505594
163359.773204,-222.061783,-4293.194464,-1378.971896
163359.773523,-4737.318029,-9696.697840,-3677.258390
163359.773843,-4071.132681,-13619.789333,-4903.011187
163359.774162,-5921.647536,-15470.304188,-3983.696590
163359.774481,-9474.636058,-14285.974681,-4903.011187
163359.774800,-6809.894666,-14878.139434,-3677.258390
163359.775119,-4515.256246,-10362.883188,-3447.429741
163359.775439,3997.112087,-9696.697840,3907.087040
163359.775758,7105.977043,-6291.750507,7584.345430
163359.776077,7031.956449,-1998.556043,7354.516781
163359.776396,5255.462188,-2368.659014,3600.648841
163359.776715,518.144159,-3849.070898,-76.609550
163359.777034,-3923.091493,-7254.018232,-3753.867940
163359.777354,-7698.141797,-11917.315666,-6128.763984
163359.777673,-7105.977043,-16062.468941,-4673.182538
163359.777992,-8290.306550,-16358.551318,-3983.696590
163359.778311,-8660.409521,-14582.057057,-6128.763984
163359.778630,-2960.823768,-13249.686362,-1455.581446
163359.778950,1924.535449,-9548.656652,1991.848295
163359.779269,7105.977043,-6883.915261,6588.421283
163359.779588,9400.615463,-3552.988522,7277.907231
163359.779907,5255.462188,-666.185348,4826.401637
163359.780226,2294.638420,-2072.576638,-1302.362347
163359.780546,-2960.823768,-5995.668130,-3370.820191
163359.780865,-2220.617826,-12509.480420,-4903.011187
163359.781184,-4737.318029,-15470.304188,-3983.696590
163359.781503,-5995.668130,-17024.736666,-4060.306139
163359.781822,-8364.327145,-15174.221811,-4519.963438
163359.782142,-3997.112087,-13693.809927,-2221.676944
163359.782461,2294.638420,-9844.739029,383.047749
163359.782780,9104.533087,-9178.553681,6588.421283
163359.783099,7698.141797,-3034.844362,8580.269578
163359.783418,6143.709319,-1184.329507,4826.401637
163359.783737,962.267725,-1776.494261,-76.609550
163359.784057,-2368.659014,-5773.606348,-3140.991542
163359.784376,-1850.514855,-11843.295072,-4366.744339
163359.784695,-6365.771101,-14508.036463,-4136.915689
163359.785014,-7846.182985,-16210.510130,-5898.935335
163359.785333,-8438.347739,-15618.345376,-5056.230287
163359.785653,-4145.153275,-13693.809927,-1838.629195
163359.785972,888.247130,-11991.336260,459.657299
163359.786291,6439.791695,-8882.471304,5286.058936
163359.786610,7624.121203,-4145.153275,6971.469032
163359.786929,4737.318029,-74.020594,4903.011187
163359.787249,5847.626942,-2368.659014,2374.896044
163359.787568,1184.329507,-5107.421000,-612.876398
163359.787887,-222.061783,-10140.821405,-2757.943793
163359.788206,-1850.514855,-14211.954086,-2451.505594
163359.788525,-4515.256246,-16580.613101,-3600.648841
163359.788844,-9474.636058,-14878.139434,-4903.011187
163359.789164,-5995.668130,-14508.036463,-3524.039291
163359.789483,-888.247130,-12213.398043,-383.047749
163359.789802,5403.503377,-8956.491898,4826.401637
163359.790121,8882.471304,-4219.173869,7277.907231
163359.790440,9104.533087,-1480.411884,6435.202183
163359.790760,5847.626942,-2368.659014,4519.963438
163359.791079,-74.020594,-3552.988522,-1608.800546
163359.791398,-3849.070898,-7179.997637,-5592.497135
163359.791717,-4811.338623,-14211.954086,-3753.867940
163359.792036,-9474.636058,-14878.139434,-5515.887586
163359.792356,-8586.388927,-17098.757260,-5439.278036
163359.792675,-6883.915261,-14952.160028,-5056.230287
163359.792994,-2294.638420,-12953.603985,-1685.410096
163359.793313,2886.803174,-9474.636058,2145.067394
163359.793632,8216.285956,-7105.977043,7277.907231
163359.793951,7920.203579,-2812.782580,6052.154434
163359.794271,4663.297435,592.164754,1149.143247
163359.794590,0.000000,-1258.350101,-1915.238745
163359.794909,-74.020594,-9474.636058,-1302.362347
163359.795228,-2072.576638,-12509.480420,-3217.601092
163359.795547,-3478.967927,-15692.365970,-2757.943793
163359.795867,-6735.874072,-16062.468941,-4213.525239
163359.796186,-7698.141797,-15026.180623,-4979.620737
163359.796505,-4737.318029,-12805.562797,-2145.067394
163359.796824,2442.679609,-10436.903782,2528.115143
163359.797143,8290.306550,-8216.285956,9652.803275
163359.797463,9400.615463,-3552.988522,8197.221829
163359.797782,4441.235652,518.144159,3677.258390
163359.798101,2886.803174,-3552.988522,-76.609550
163359.798420,-2960.823768,-6143.709319,-2451.505594
163359.798739,-4589.276840,-12213.398043,-3753.867940
163359.799059,-6809.894666,-15100.201217,-4213.525239
163359.799378,-7846.182985,-16654.633695,-2911.162892
163359.799697,-9474.636058,-14878.139434,-3677.258390
163359.800016,-4737.318029,-12509.480420,-2451.505594
163359.800335,592.164754,-12139.377449,1302.362347
163359.800654,5255.462188,-8290.306550,5822.325785
163359.800974,5329.482782,-1850.514855,4290.134789
163359.801293,7031.956449,-1628.453072,3600.648841
163359.801612,2442.679609,-2294.638420,0.000000
163359.801931,740.205942,-5995.668130,-2068.457845
163359.802250,222.061783,-11325.150913,-1915.238745
163359.802570,592.164754,-16062.468941,-1225.752797
163359.802889,-5921.647536,-14878.139434,-3677.258390
163359.803208,-6809.894666,-15618.345376,-3524.039291
163359.803527,-4071.132681,-13989.892304,-2374.896044
163359.803846,3478.967927,-13619.789333,-76.609550
163359.804166,4737.318029,-7179.997637,3677.258390
163359.804485,9104.533087,-4737.318029,7737.564530
163359.804804,6143.709319,-592.164754,5592.497135
163359.805123,3256.906145,-1406.391290,1302.362347
163359.805442,-296.082377,-4589.276840,-1685.410096
163359.805761,-1628.453072,-9992.780217,-2528.115143
163359.806081,-5329.482782,-13249.686362,-3907.087040
163359.806400,-6809.894666,-15470.304188,-4903.011187
163359.806719,-8882.471304,-15470.304188,-3983.696590
163359.807038,-6587.832884,-14211.954086,-3140.991542
163359.807357,-3552.988522,-9548.656652,-2451.505594
163359.807677,3701.029710,-9178.553681,2604.724693
163359.807996,5921.647536,-5403.503377,5515.887586
163359.808315,5181.441594,-1776.494261,4749.792088
163359.808634,3182.885551,-74.020594,0.000000
163359.808953,1702.473667,-3997.112087,-2221.676944
163359.809273,518.144159,-9474.636058,-1915.238745
163359.809592,-2368.659014,-12213.398043,-3064.381992
163359.809911,-4145.153275,-15470.304188,-2298.286494
163359.810230,-5107.421000,-17468.860231,-2528.115143
163359.810549,-8290.306550,-14582.057057,-4903.011187
163359.810868,-2812.782580,-12953.603985,-1838.629195
163359.811188,3404.947333,-9770.718434,3370.820191
163359.811507,7994.224174,-5847.626942,6894.859482
163359.811826,5847.626942,-74.020594,4673.182538
163359.812145,4663.297435,-2368.659014,4213.525239
163359.812464,-370.102971,-2220.617826,-1762.019645
163359.812784,-2368.659014,-8068.244768,-2145.067394
163359.813103,-3552.988522,-11917.315666,-1838.629195
163359.813422,-4811.338623,-16580.613101,-689.485948
163359.813741,-8882.471304,-14878.139434,-4136.915689
163359.814060,-7550.100608,-14508.036463,-4366.744339
163359.814380,-4219.173869,-12509.480420,-2451.505594
163359.814699,1110.308913,-9992.780217,2834.553343
163359.815018,5255.462188,-5477.523971,4213.525239
163359.815337,7031.956449,-4145.153275,5439.278036
163359.815656,4071.132681,-1036.288319,2374.896044
163359.815976,1110.308913,-2072.576638,-2528.115143
163359.816295,0.000000,-5995.668130,-4903.011187
163359.816614,-74.020594,-14211.954086,-1915.238745
163359.816933,-3182.885551,-16210.510130,-2757.943793
163359.817252,-6587.832884,-16432.571912,-3677.258390
163359.817571,-8364.327145,-15174.221811,-5209.449386
163359.817891,-2886.803174,-14582.057057,-766.095498
163359.818210,2368.659014,-11695.253884,2298.286494
163359.818529,8216.285956,-7920.203579,7354.516781
163359.818848,9178.553681,-4219.173869,8810.098227
163359.819167,6439.791695,-592.164754,4213.525239
163359.819487,888.247130,-74.020594,0.000000
163359.819806,-74.020594,-6217.729913,-1455.581446
163359.820125,-1998.556043,-11177.109724,-2221.676944
163359.820444,-3627.009116,-15026.180623,-2068.457845
163359.820763,-6143.709319,-15396.283594,-3064.381992
163359.821083,-6809.894666,-16580.613101,-1302.362347
163359.821402,-5995.668130,-13101.645173,-4903.011187
163359.821721,-1776.494261,-11621.233289,153.219100
163359.822040,4589.276840,-9178.553681,4673.182538
163359.822359,6809.894666,-5921.647536,6971.469032
163359.822678,7031.956449,0.000000,2374.896044
163359.822998,2960.823768,-1924.535449,1072.533697
163359.823317,1110.308913,-5255.462188,-1838.629195
163359.823636,0.000000,-10214.842000,-1608.800546
163359.823955,-1258.350101,-16284.530724,-1302.362347
163359.824274,-7105.977043,-16580.613101,-3140.991542
163359.824594,-8956.491898,-15026.180623,-6511.811733
163359.824913,-7994.224174,-13693.809927,-5515.887586
163359.825232,-4441.235652,-10732.986159,-2451.505594
163359.825551,5625.565159,-9030.512492,3753.867940
163359.825870,11177.109724,-6513.812290,8503.660028
163359.826190,7105.977043,-370.102971,5975.544884
163359.826509,4219.173869,-740.205942,2451.505594
163359.826828,1110.308913,-3701.029710,-689.485948
163359.827147,-1776.494261,-8364.327145,0.000000
163359.827466,-2960.823768,-14211.954086,-1532.190996
163359.827785,-5403.503377,-15988.448347,-2451.505594
163359.828105,-5995.668130,-17172.777854,-2528.115143
163359.828424,-7179.997637,-13027.624579,-5362.668486
163359.828743,-1406.391290,-13619.789333,-76.609550
163359.829062,1184.329507,-9104.533087,1762.019645
163359.829381,4959.379811,-5329.482782,5056.230287
163359.829701,4737.318029,-2072.576638,4826.401637
163359.830020,2664.741391,-962.267725,2374.896044
163359.830339,0.000000,-74.020594,-3677.258390
163359.830658,-74.020594,-9030.512492,-1608.800546
163359.830977,-962.267725,-13101.645173,-1532.190996
163359.831297,-3404.947333,-15988.448347,-1915.238745
163359.831616,-6291.750507,-16284.530724,-4366.744339
163359.831935,-8512.368333,-13471.748144,-7124.688131
163359.832254,-4219.173869,-14211.954086,-2987.772442
163359.832573,1702.473667,-10658.965565,536.266849
163359.832893,7031.956449,-6809.894666,4213.525239
163359.833212,8586.388927,-3923.091493,8886.707777
163359.833531,3552.988522,-74.020594,2451.505594
163359.833850,2294.638420,-2812.782580,689.485948
163359.834169,148.041188,-6957.935855,-1991.848295
163359.834488,-888.247130,-11769.274478,-919.314598
163359.834808,-3034.844362,-14582.057057,-2451.505594
163359.835127,-5847.626942,-14878.139434,-2374.896044
163359.835446,-6587.832884,-14211.954086,-2528.115143
163359.835765,-2738.761985,-14211.954086,-1302.362347
163359.836084,-74.020594,-10658.965565,-76.609550
163359.836404,5255.462188,-9474.636058,6665.030833
163359.836723,5033.400406,-3034.844362,4749.792088
163359.837042,4145.153275,-962.267725,2987.772442
163359.837361,2072.576638,-2442.679609,-229.828649
163359.837680,740.205942,-5847.626942,-1838.629195
163359.838000,0.000000,-9548.656652,-2451.505594
163359.838319,-1776.494261,-14285.974681,-3677.258390
163359.838638,-4145.153275,-16580.613101,-1149.143247
163359.838957,-7254.018232,-15396.283594,-4979.620737
163359.839276,-6439.791695,-12805.562797,-5592.497135
163359.839595,1998.556043,-14063.912898,-76.609550
163359.839915,5033.400406,-8734.430116,3753.867940
163359.840234,8216.285956,-4811.338623,6052.154434
163359.840553,6365.771101,-1036.288319,3830.477490
163359.840872,2368.659014,-1850.514855,1838.629195
163359.841191,0.000000,-4515.256246,-1455.581446
163359.841511,0.000000,-9548.656652,-2451.505594
163359.841830,-1998.556043,-15026.180623,-689.485948
163359.842149,-3034.844362,-17764.942608,-76.609550
163359.842468,-7772.162391,-13471.748144,-5439.278036
163359.842787,-4811.338623,-14211.954086,-3294.210641
163359.843107,-2146.597232,-11177.109724,-1608.800546
163359.843426,3478.967927,-8364.327145,2911.162892
163359.843745,4959.379811,-5033.400406,5745.716235
163359.844064,4737.318029,-962.267725,5515.887586
163359.844383,3182.885551,74.020594,842.705048
163359.844702,0.000000,-3627.009116,-1072.533697
163359.845022,0.000000,-9548.656652,0.000000
163359.845341,-74.020594,-15248.242405,-383.047749
163359.845660,-6365.771101,-13841.851115,-4903.011187
163359.845979,-7846.182985,-15618.345376,-4673.182538
163359.846298,-8660.409521,-13619.789333,-5669.106685
163359.846618,-3923.091493,-12805.562797,-3064.381992
163359.846937,4071.132681,-10658.965565,1149.143247
163359.847256,8216.285956,-6513.812290,6665.030833
163359.847575,5847.626942,-2072.576638,4826.401637
163359.847894,4071.132681,-888.247130,842.705048
163359.848214,0.000000,-3034.844362,-1532.190996
163359.848533,-74.020594,-9252.574275,-153.219100
163359.848852,-3552.988522,-11917.315666,-3064.381992
163359.849171,-3923.091493,-16136.489536,-1532.190996
163359.849490,-6365.771101,-15026.180623,-3064.381992
163359.849810,-7031.956449,-13471.748144,-3677.258390
163359.850129,-1850.514855,-12139.377449,-2528.115143
163359.850448,2294.638420,-10066.800811,2681.334243
163359.850767,7031.956449,-7698.141797,6052.154434
163359.851086,5847.626942,-1776.494261,5132.839837
163359.851405,2960.823768,-74.020594,1149.143247
163359.851725,2072.576638,-4219.173869,1991.848295
163359.852044,0.000000,-7476.080014,-2221.676944
163359.852363,-962.267725,-12361.439231,-1608.800546
163359.852682,-3627.009116,-15174.221811,-2221.676944
163359.853001,-7179.997637,-15174.221811,-3447.429741
163359.853321,-8364.327145,-14211.954086,-5592.497135
163359.853640,-4219.173869,-14508.036463,-2528.115143
163359.853959,2146.597232,-10955.047942,1149.143247
163359.854278,7031.956449,-7105.977043,6052.154434
163359.854597,7402.059420,-1924.535449,5362.668486
163359.854917,7328.038826,-4145.153275,6971.469032
163359.855236,1184.329507,-2590.720797,-842.705048
163359.855555,-592.164754,-7031.956449,-2757.943793
163359.855874,-1924.535449,-12361.439231,-3600.648841
163359.856193,-4737.318029,-14878.139434,-2451.505594
163359.856512,-6513.812290,-15470.304188,-3064.381992
163359.856832,-6883.915261,-15618.345376,-3677.258390
163359.857151,-3552.988522,-12657.521608,-1838.629195
163359.857470,2146.597232,-11399.171507,1455.581446
163359.857789,5255.462188,-5625.565159,4519.963438
163359.858108,9104.533087,-4737.318029,7890.783629
163359.858428,6069.688724,-518.144159,4596.572988
163359.858747,3552.988522,-1258.350101,842.705048
163359.859066,888.247130,-5107.421000,-1072.533697
163359.859385,0.000000,-10732.986159,-919.314598
163359.859704,-3256.906145,-15470.304188,-1838.629195
163359.860024,-8290.306550,-14582.057057,-4290.134789
163359.860343,-8068.244768,-16580.613101,-4596.572988
163359.860662,-6587.832884,-14211.954086,-4903.011187
163359.860981,-1554.432478,-9918.759623,-3677.258390
163359.861300,6143.709319,-8808.450710,4213.525239
163359.861619,8142.265362,-4293.194464,7048.078582
163359.861939,6513.812290,-1554.432478,5439.278036
163359.862258,2590.720797,-1628.453072,1225.752797
163359.862577,-592.164754,-4811.338623,-1532.190996
163359.862896,-4737.318029,-8364.327145,-4903.011187
163359.863215,-4145.153275,-15174.221811,-2451.505594
163359.863535,-5107.421000,-17246.798449,-3064.381992
163359.863854,-5995.668130,-16210.510130,-4060.306139
163359.864173,-4811.338623,-14211.954086,-4979.620737
163359.864492,-2146.597232,-11695.253884,-1608.800546
163359.864811,4071.132681,-8660.409521,2987.772442
163359.865131,7328.038826,-4737.318029,7124.688131
163359.865450,8216.285956,-2220.617826,8044.002729
163359.865769,5255.462188,-1776.494261,2911.162892
163359.866088,2294.638420,-4145.153275,-689.485948
163359.866407,0.000000,-6587.832884,-4290.134789
163359.866727,-2368.659014,-13693.809927,-1225.752797
163359.867046,-2442.679609,-17764.942608,-1302.362347
163359.867365,-7624.121203,-16506.592507,-3524.039291
163359.867684,-8512.368333,-14211.954086,-5209.449386
163359.868003,-3552.988522,-12435.459826,-2451.505594
163359.868322,3256.906145,-9178.553681,2145.067394
163359.868642,6513.812290,-4811.338623,7354.516781
163359.868961,8068.244768,-2072.576638,7277.907231
163359.869280,4145.153275,-666.185348,2451.505594
163359.869599,-444.123565,-3404.947333,-1532.190996
163359.869918,-2886.803174,-7179.997637,-5439.278036
163359.870237,-4219.173869,-13471.748144,-4519.963438
163359.870557,-3627.009116,-18357.107362,-2528.115143
163359.870876,-8438.347739,-15470.304188,-4903.011187
163359.871195,-7550.100608,-15396.283594,-3753.867940
163359.871514,-4959.379811,-12139.377449,-3753.867940
163359.871833,1480.411884,-10436.903782,1915.238745
163359.872152,4737.318029,-4811.338623,4903.011187
163359.872472,8290.306550,-2664.741391,7431.126331
163359.872791,6513.812290,74.020594,4749.792088
163359.873110,1776.494261,-1850.514855,766.095498
163359.873429,0.000000,-7179.997637,-1225.752797
163359.873748,-2368.659014,-11029.068536,-2987.772442
163359.874067,-3552.988522,-15470.304188,-4596.572988
163359.874387,-8142.265362,-15470.304188,-3677.258390
163359.874706,-7476.080014,-15396.283594,-4979.620737
163359.875025,-5403.503377,-14137.933492,-2834.553343
163359.875344,1110.308913,-10140.821405,842.705048
163359.875663,7476.080014,-6957.935855,6128.763984
163359.875982,9326.594869,-3478.967927,8427.050478
163359.876302,5699.585753,-518.144159,6665.030833
163359.876621,1036.288319,-1406.391290,0.000000
163359.876940,-962.267725,-7105.977043,-2528.115143
163359.877259,-5921.647536,-10436.903782,-4903.011187
163359.877578,-4811.338623,-17024.736666,-2834.553343
163359.877897,-7179.997637,-16432.571912,-7431.126331
163359.878217,-8734.430116,-15840.407159,-4979.620737
163359.878536,-6217.729913,-13693.809927,-4673.182538
163359.878855,-1110.308913,-11103.089130,-689.485948
163359.879174,5255.462188,-9178.553681,6052.154434
163359.879493,9400.615463,-6809.894666,9729.412825
163359.879812,8290.306550,-1258.350101,7354.516781
163359.880132,5551.544565,-2368.659014,2911.162892
163359.880451,1110.308913,-4293.194464,-919.314598
163359.880770,0.000000,-9548.656652,-3064.381992
163359.881089,-3701.029710,-14063.912898,-4136.915689
163359.881408,-5921.647536,-17098.757260,-3830.477490
163359.881727,-8586.388927,-15988.448347,-5132.839837
163359.882047,-6661.853478,-14508.036463,-4213.525239
163359.882366,1702.473667,-12879.583391,-76.609550
163359.882685,5329.482782,-7772.162391,5515.887586
163359.883004,11251.130318,-5329.482782,9729.412825
163359.883323,9400.615463,-1480.411884,8886.707777
163359.883642,4663.297435,-1776.494261,2374.896044
163359.883962,-2960.823768,-2442.679609,-2451.505594
163359.884281,-4515.256246,-8586.388927,-5515.887586
163359.884600,-4885.359217,-15100.201217,-4443.353888
163359.884919,-6513.812290,-17246.798449,-4826.401637
163359.885238,-8586.388927,-16876.695478,-4749.792088
163359.885557,-7179.997637,-14063.912898,-6128.763984
163359.885876,-4145.153275,-11473.192101,-2987.772442
163359.886196,3108.864956,-8586.388927,612.876398
163359.886515,8586.388927,-5995.668130,8886.707777
163359.886834,9400.615463,-1184.329507,7277.907231
163359.887153,5921.647536,-1554.432478,4903.011187
163359.887472,962.267725,-2886.803174,-1378.971896
163359.887791,-1258.350101,-8438.347739,-3217.601092
163359.888111,-3108.864956,-13841.851115,-3677.258390
163359.888430,-7105.977043,-15470.304188,-6741.640382
163359.888749,-9474.636058,-16062.468941,-6435.202183
163359.889068,-8364.327145,-13101.645173,-7277.907231
163359.889387,-3552.988522,-11917.315666,-1225.752797
163359.889706,5699.585753,-10066.800811,4213.525239
163359.890026,11769.274478,-6513.812290,9729.412825
163359.890345,11251.130318,-1850.514855,10418.898773
163359.890664,5847.626942,1184.329507,4903.011187
163359.890983,-222.061783,-2294.638420,-383.047749
163359.891302,-4515.256246,-7994.224174,-4290.134789
163359.891621,-8290.306550,-11917.315666,-6741.640382
163359.891941,-7550.100608,-16284.530724,-4979.620737
163359.892260,-8512.368333,-16136.489536,-5745.716235
163359.892579,-10066.800811,-14285.974681,-5975.544884
163359.892898,-8290.306550,-11917.315666,-4290.134789
163359.893217,2294.638420,-9474.636058,-76.609550
163359.893536,6661.853478,-6587.832884,6358.592633
163359.893856,8364.327145,-3108.864956,7967.393179
163359.894175,6587.832884,222.061783,6665.030833
163359.894494,2146.597232,-1110.308913,229.828649
163359.894813,-2220.617826,-5995.668130,-2221.676944
163359.895132,-666.185348,-13027.624579,-3294.210641
163359.895451,-5329.482782,-15914.427753,-4290.134789
163359.895771,-9474.636058,-15766.386565,-6128.763984
163359.896090,-8882.471304,-15470.304188,-6128.763984
163359.896409,-4219.173869,-13027.624579,-4673.182538
163359.896728,2368.659014,-11029.068536,1072.533697
163359.897047,8512.368333,-7254.018232,7201.297681
163359.897366,11251.130318,-3256.906145,9806.022374
163359.897686,9400.615463,0.000000,9116.536426
163359.898005,3478.967927,-1628.453072,2221.676944
163359.898324,-1998.556043,-4737.318029,-2528.115143
163359.898643,-4811.338623,-10658.965565,-5592.497135
163359.898962,-7550.100608,-15470.304188,-4903.011187
163359.899281,-8882.471304,-16654.633695,-3677.258390
163359.899601,-8956.491898,-15100.201217,-5592.497135
163359.899920,-6661.853478,-13397.727550,-6128.763984
163359.900239,-1036.288319,-11917.315666,-306.438199
163359.900558,4145.153275,-8364.327145,4443.353888
163359.900877,9400.615463,-5625.565159,7354.516781
163359.901196,7994.224174,-2294.638420,7890.783629
163359.901516,3478.967927,0.000000,842.705048
163359.901835,0.000000,-4515.256246,-1532.190996
163359.902154,-740.205942,-10140.821405,-2834.553343
163359.902473,-2738.761985,-15248.242405,-5056.230287
163359.902792,-6735.874072,-17024.736666,-5515.887586
163359.903111,-8586.388927,-17616.901420,-4903.011187
163359.903431,-5699.585753,-13767.830521,-3753.867940
163359.903750,222.061783,-11843.295072,-612.876398
163359.904069,8660.409521,-9326.594869,6052.154434
163359.904388,10066.800811,-3627.009116,9806.022374
163359.904707,9474.636058,-74.020594,8580.269578
163359.905026,6809.894666,-814.226536,4903.011187
163359.905346,-74.020594,-3256.906145,-689.485948
163359.905665,-5847.626942,-7179.997637,-4903.011187
163359.905984,-7105.977043,-14285.974681,-5515.887586
163359.906303,-4811.338623,-18949.272115,-1302.362347
163359.906622,-7772.162391,-16580.613101,-5132.839837
163359.906941,-7698.141797,-13693.809927,-5822.325785
163359.907261,-3330.926739,-12139.377449,-2068.457845
163359.907580,2368.659014,-7179.997637,3064.381992
163359.907899,7105.977043,-3034.844362,7354.516781
163359.908218,9178.553681,-888.247130,7967.393179
163359.908537,7328.038826,-1036.288319,4673.182538
163359.908856,666.185348,-2960.823768,-612.876398
163359.909176,-3256.906145,-7402.059420,-4290.134789
163359.909495,-4737.318029,-13471.748144,-5515.887586
163359.909814,-5107.421000,-18209.066173,-4979.620737
163359.910133,-9326.594869,-16062.468941,-7354.516781
163359.910452,-7920.203579,-15988.448347,-5592.497135
163359.910771,-3775.050304,-12509.480420,-2681.334243
163359.911091,4737.318029,-9548.656652,3983.696590
163359.911410,11843.295072,-7179.997637,12257.527968
163359.911729,14508.036463,-3552.988522,14096.157163
163359.912048,5921.647536,2886.803174,5515.887586
163359.912367,1480.411884,-1184.329507,306.438199
163359.912686,-4219.173869,-6513.812290,-4519.963438
163359.913006,-6735.874072,-12953.603985,-6128.763984
163359.913325,-6587.832884,-16506.592507,-6511.811733
163359.913644,-8512.368333,-18061.024985,-4903.011187
163359.913963,-8956.491898,-14952.160028,-4979.620737
163359.914282,-4737.318029,-12731.542202,-2451.505594
163359.914601,1184.329507,-9548.656652,2298.286494
163359.914921,8142.265362,-7994.224174,9116.536426
163359.915240,10732.986159,-4515.256246,11797.870669
163359.915559,9104.533087,0.000000,7277.907231
163359.915878,1776.494261,-444.123565,536.266849
163359.916197,-2368.659014,-5551.544565,-3677.258390
163359.916516,-5995.668130,-9548.656652,-7354.516781
163359.916835,-7179.997637,-16654.633695,-7124.688131
163359.917155,-8586.388927,-17838.963202,-7277.907231
163359.917474,-9252.574275,-16728.654289,-6665.030833
163359.917793,-3627.009116,-15396.283594,-3294.210641
163359.918112,2294.638420,-11103.089130,76.609550
163359.918431,9474.636058,-7179.997637,7660.954980
163359.918750,13989.892304,-4145.153275,12563.966167
163359.919070,11769.274478,0.000000,9729.412825
163359.919389,2960.823768,-74.020594,3983.696590
163359.919708,-2590.720797,-2590.720797,-3064.381992
163359.920027,-5033.400406,-10362.883188,-5209.449386
163359.920346,-5551.544565,-15618.345376,-4673.182538
163359.920665,-6809.894666,-16728.654289,-5056.230287
163359.920985,-8660.409521,-15618.345376,-5898.935335
163359.921304,-7105.977043,-13989.892304,-4749.792088
163359.921623,-1258.350101,-12953.603985,0.000000
163359.921942,6957.935855,-9474.636058,5745.716235
163359.922261,9400.615463,-4737.318029,8197.221829
163359.922580,8290.306550,-1258.350101,9959.241474
163359.922900,4737.318029,888.247130,3217.601092
163359.923219,444.123565,-2812.782580,-1302.362347
163359.923538,-3108.864956,-8734.430116,-4366.744339
163359.923857,-4959.379811,-14582.057057,-6741.640382
163359.924176,-8660.409521,-15470.304188,-8580.269578
163359.924495,-10066.800811,-15914.427753,-8350.440928
163359.924815,-9474.636058,-14878.139434,-7354.516781
163359.925134,-1776.494261,-14063.912898,-1532.190996
163359.925453,5995.668130,-9474.636058,3600.648841
163359.925772,11991.336260,-7772.162391,11108.384721
163359.926091,10140.821405,-1184.329507,9039.926876
163359.926410,5995.668130,814.226536,4903.011187
163359.926730,888.247130,-1184.329507,-919.314598
163359.927049,-4737.318029,-5403.503377,-4903.011187
163359.927368,-6957.935855,-12509.480420,-4979.620737
163359.927687,-7105.977043,-15470.304188,-4903.011187
163359.928006,-6809.894666,-16950.716072,-3370.820191
163359.928325,-8290.306550,-13397.727550,-4290.134789
163359.928645,-3034.844362,-13027.624579,-2528.115143
163359.928964,2294.638420,-11103.089130,3447.429741
163359.929283,7550.100608,-6291.750507,7354.516781
163359.929602,9252.574275,-2368.659014,9269.755526
163359.929921,6439.791695,1258.350101,5439.278036
163359.930240,0.000000,-518.144159,383.047749
163359.930560,-2146.597232,-5551.544565,-4060.306139
163359.930879,-4589.276840,-11325.150913,-5669.106685
163359.931198,-9474.636058,-14285.974681,-7354.516781
163359.931517,-8438.347739,-18431.127956,-5745.716235
163359.931836,-10140.821405,-15396.283594,-8350.440928
163359.932155,-5033.400406,-14878.139434,-3753.867940
163359.932475,2442.679609,-11325.150913,1149.143247
163359.932794,9622.677246,-7254.018232,7814.174080
163359.933113,12583.501014,-3552.988522,10955.165621
163359.933432,10066.800811,0.000000,9116.536426
163359.933751,3478.967927,0.000000,2374.896044
163359.934070,-1850.514855,-4145.153275,-5132.839837
163359.934390,-5329.482782,-11621.233289,-4903.011187
163359.934709,-7105.977043,-15766.386565,-5515.887586
163359.935028,-8808.450710,-16654.633695,-6741.640382
163359.935347,-8512.368333,-16580.613101,-4903.011187
163359.935666,-5995.668130,-13619.789333,-3677.258390
163359.935985,-370.102971,-11547.212695,612.876398
163359.936305,7920.203579,-8882.471304,7277.907231
163359.936624,11177.109724,-4441.235652,10112.460574
163359.936943,9474.636058,370.102971,9652.803275
163359.937262,5847.626942,0.000000,2987.772442
163359.937581,0.000000,-2960.823768,-1302.362347
163359.937900,-4737.318029,-9548.656652,-4290.134789
163359.938220,-6735.874072,-14359.995275,-5822.325785
163359.938539,-7846.182985,-17024.736666,-6358.592633
163359.938858,-9770.718434,-17394.839637,-6818.249932
163359.939177,-7698.141797,-15174.221811,-5669.106685
163359.939496,-74.020594,-13915.871710,-1302.362347
163359.939815,5329.482782,-9548.656652,5056.230287
163359.940135,11473.192101,-5921.647536,9422.974625
163359.940454,10584.944971,-2368.659014,9729.412825
163359.940773,3775.050304,2294.638420,2068.457845
163359.941092,592.164754,-3330.926739,919.314598
163359.941411,-3627.009116,-8734.430116,-4673.182538
163359.941730,-4219.173869,-14656.077652,-3907.087040
163359.942050,-5107.421000,-16580.613101,-3677.258390
163359.942369,-8290.306550,-16062.468941,-6741.640382
163359.942688,-7994.224174,-13101.645173,-6128.763984
163359.943007,-2368.659014,-13249.686362,-1072.533697
163359.943326,4145.153275,-9844.739029,4903.011187
163359.943645,11029.068536,-7698.141797,9116.536426
163359.943965,10288.862594,-2368.659014,8503.660028
163359.944284,7550.100608,0.000000,5669.106685
163359.944603,1332.370696,-1480.411884,-459.657299
163359.944922,-2220.617826,-7624.121203,-3753.867940
163359.945241,-3923.091493,-13175.665768,-3753.867940
163359.945560,-8290.306550,-14285.974681,-4903.011187
163359.945880,-9474.636058,-15766.386565,-5822.325785
163359.946199,-11843.295072,-14285.974681,-7354.516781
163359.946518,-4737.318029,-13841.851115,-2145.067394
163359.946837,3775.050304,-11251.130318,2604.724693
163359.947156,9400.615463,-7105.977043,6052.154434
163359.947475,8882.471304,-3330.926739,8656.879127
163359.947794,5255.462188,592.164754,4443.353888
163359.948114,0.000000,-814.226536,-1685.410096
163359.948433,-3478.967927,-6661.853478,-3983.696590
163359.948752,-4737.318029,-12213.398043,-4903.011187
163359.949071,-6291.750507,-14952.160028,-5286.058936
163359.949390,-7105.977043,-15470.304188,-4290.134789
163359.949709,-6513.812290,-14730.098246,-3677.258390
163359.950029,-3182.885551,-13397.727550,-2528.115143
163359.950348,4663.297435,-14211.954086,2068.457845
163359.950667,7179.997637,-7772.162391,7201.297681
163359.950986,9474.636058,-3478.967927,9499.584175
163359.951305,6957.935855,370.102971,6052.154434
163359.951624,2368.659014,-74.020594,2451.505594
163359.951944,-370.102971,-5329.482782,-1225.752797
163359.952263,-1554.432478,-11251.130318,-3294.210641
163359.952582,-3627.009116,-16580.613101,-2528.115143
163359.952901,-7179.997637,-16136.489536,-5286.058936
163359.953220,-8660.409521,-16580.613101,-4060.306139
163359.953539,-7698.141797,-13397.727550,-4673.182538
163359.953859,-666.185348,-11843.295072,-995.924147
163359.954178,5995.668130,-8882.471304,4903.011187
163359.954497,8660.409521,-5033.400406,8044.002729
163359.954816,3552.988522,1702.473667,3677.258390
163359.955135,2220.617826,-592.164754,459.657299
163359.955454,-2146.597232,-4663.297435,-3600.648841
163359.955774,-2516.700203,-10732.986159,-4060.306139
163359.956093,-2590.720797,-14804.118840,-3753.867940
163359.956412,-2738.761985,-16580.613101,-2528.115143
163359.956731,-4811.338623,-16580.613101,-3753.867940
163359.957050,-7550.100608,-12509.480420,-5515.887586
163359.957369,-1776.494261,-11917.315666,-3064.381992
163359.957689,7031.956449,-11029.068536,5669.106685
163359.958008,6217.729913,-5403.503377,7354.516781
163359.958327,8290.306550,-1554.432478,6971.469032
163359.958646,4737.318029,148.041188,2145.067394
163359.958965,592.164754,-3627.009116,-1685.410096
163359.959284,-666.185348,-9474.636058,-3753.867940
163359.959604,-3404.947333,-13767.830521,-2911.162892
163359.959923,-3923.091493,-16580.613101,-2528.115143
163359.960242,-7476.080014,-17764.942608,-3140.991542
163359.960561,-7179.997637,-14508.036463,-4826.401637
163359.960880,-1258.350101,-14211.954086,-76.609550
163359.961199,3552.988522,-8956.491898,3064.381992
163359.961519,9030.512492,-5921.647536,8120.612279
163359.961838,7698.141797,-1850.514855,6971.469032
163359.962157,3404.947333,-370.102971,2374.896044
163359.962476,-2960.823768,-1258.350101,-3064.381992
163359.962795,-4219.173869,-8290.306550,-5056.230287
163359.963114,-1998.556043,-16580.613101,-1915.238745
163359.963434,-4811.338623,-17172.777854,-4366.744339
163359.963753,-7179.997637,-16506.592507,-4290.134789
163359.964072,-5403.503377,-15396.283594,-2834.553343
163359.964391,-3923.091493,-11843.295072,-1838.629195
163359.964710,2812.782580,-9844.739029,2911.162892
163359.965029,8290.306550,-6365.771101,7507.735880
163359.965349,9474.636058,-2738.761985,9806.022374
163359.965668,4737.318029,-74.020594,4903.011187
163359.965987,0.000000,-74.020594,0.000000
163359.966306,-1258.350101,-8882.471304,-2528.115143
163359.966625,-2738.761985,-13323.706956,-2528.115143
163359.966944,-6439.791695,-14656.077652,-5592.497135
163359.967264,-6291.750507,-18209.066173,-4366.744339
163359.967583,-8956.491898,-15100.201217,-4903.011187
163359.967902,-4219.173869,-12805.562797,-2528.115143
163359.968221,3256.906145,-9844.739029,2451.505594
163359.968540,8290.306550,-5699.585753,7967.393179
163359.968859,9104.533087,-2146.597232,8656.879127
163359.969179,4737.318029,1702.473667,4903.011187
163359.969498,592.164754,-666.185348,0.000000
163359.969817,-1258.350101,-8882.471304,-2834.553343
163359.970136,-6439.791695,-11029.068536,-7354.516781
163359.970455,-5107.421000,-17172.777854,-4366.744339
163359.970774,-7624.121203,-17246.798449,-5056.230287
163359.971093,-9104.533087,-15396.283594,-6205.373534
163359.971412,-7031.956449,-13619.789333,-4596.572988
163359.971731,-1184.329507,-10214.842000,-76.609550
163359.972050,5033.400406,-6587.832884,5056.230287
163359.972369,9474.636058,-2442.679609,6741.640382
163359.972688,8290.306550,-74.020594,7660.954980
163359.973007,5255.462188,-1184.329507,2374.896044
163359.973326,0.000000,-3034.844362,0.000000
163359.973645,-1554.432478,-9548.656652,-4596.572988
163359.973964,-3108.864956,-16136.489536,-2374.896044
163359.974283,-5181.441594,-16950.716072,-4060.306139
163359.974602,-7846.182985,-15470.304188,-6128.763984
163359.974922,-6587.832884,-13471.748144,-4979.620737
163359.975241,-1628.453072,-11325.150913,-919.314598
163359.975560,2368.659014,-6291.750507,3217.601092
163359.975879,7698.141797,-4811.338623,8580.269578
163359.976198,8216.285956,0.000000,7277.907231
163359.976517,1184.329507,-74.020594,2451.505594
163359.976836,-74.020594,-3330.926739,-2221.676944
163359.977155,-1850.514855,-9104.533087,-4060.306139
163359.977474,-3627.009116,-14952.160028,-2987.772442
163359.977793,-6587.832884,-15470.304188,-5515.887586
163359.978112,-9252.574275,-15692.365970,-5515.887586
163359.978431,-7772.162391,-14434.015869,-7124.688131
163359.978750,-4737.318029,-12657.521608,-3217.601092
163359.979069,2960.823768,-9548.656652,383.047749
163359.979388,10436.903782,-8290.306550,9116.536426
163359.979707,7994.224174,-666.185348,7660.954980
163359.980026,6143.709319,1184.329507,3217.601092
163359.980345,1628.453072,-2368.659014,-1072.533697
163359.980664,-1036.288319,-7402.059420,-3370.820191
163359.980983,-3849.070898,-13101.645173,-4366.744339
163359.981302,-3034.844362,-18653.189738,-3140.991542
163359.981621,-7772.162391,-17172.777854,-4673.182538
163359.981940,-8216.285956,-14211.954086,-4979.620737
163359.982259,-4145.153275,-11325.150913,-2451.505594
163359.982578,6439.791695,-9474.636058,3600.648841
163359.982897,8438.347739,-5181.441594,7967.393179
163359.983216,8438.347739,-1110.308913,7967.393179
163359.983535,5033.400406,666.185348,3830.477490
163359.983854,1628.453072,-2368.659014,-306.438199
163359.984173,-2442.679609,-7772.162391,-3217.601092
163359.984492,-2442.679609,-13323.706956,-3753.867940
163359.984811,-5255.462188,-15692.365970,-4060.306139
163359.985130,-9326.594869,-15470.304188,-4903.011187
163359.985450,-11251.130318,-14285.974681,-7354.516781
163359.985769,-5403.503377,-13915.871710,-4979.620737
163359.986088,-444.123565,-11399.171507,0.000000
163359.986407,6513.812290,-7624.121203,5439.278036
163359.986726,9326.594869,-3034.844362,8120.612279
163359.987045,9104.533087,0.000000,7890.783629
163359.987364,3330.926739,-1776.494261,919.314598
163359.987683,1258.350101,-8290.306550,-76.609550
163359.988002,-666.185348,-11843.295072,-3753.867940
163359.988321,-4441.235652,-15026.180623,-3677.258390
163359.988640,-9474.636058,-14878.139434,-4903.011187
163359.988959,-8364.327145,-16432.571912,-4979.620737
163359.989278,-5625.565159,-13989.892304,-3600.648841
163359.989597,1184.329507,-10881.027347,689.485948
163359.989916,7031.956449,-7402.059420,5592.497135
163359.990235,11177.109724,-4737.318029,9422.974625
163359.990554,6217.729913,-74.020594,6741.640382
163359.990873,4071.132681,0.000000,2374.896044
163359.991192,-1406.391290,-4515.256246,-3140.991542
163359.991511,-3034.844362,-9548.656652,-4903.011187
163359.991830,-3627.009116,-14211.954086,-4366.744339
163359.992149,-6069.688724,-16654.633695,-3447.429741
163359.992468,-8882.471304,-15544.324782,-5286.058936
163359.992787,-8068.244768,-14285.974681,-5515.887586
163359.993106,-1850.514855,-14211.954086,-76.609550
163359.993425,3701.029710,-9474.636058,3294.210641
163359.993744,6143.709319,-4515.256246,5286.058936
163359.994063,6069.688724,-74.020594,3064.381992
163359.994382,5033.400406,-2368.659014,3524.039291
163359.994701,2294.638420,-3552.988522,-2834.553343
163359.995020,1110.308913,-10584.944971,-2221.676944
163359.995339,-2072.576638,-14878.139434,-2221.676944
163359.995658,-4811.338623,-16580.613101,-2681.334243
163359.995978,-7328.038826,-15470.304188,-4443.353888
163359.996297,-7698.141797,-14878.139434,-2757.943793
163359.996616,-1850.514855,-12287.418637,-1838.629195
163359.996935,4589.276840,-9474.636058,2834.553343
163359.997254,7994.224174,-5329.482782,7507.735880
163359.997573,7179.997637,-740.205942,4903.011187
163359.997892,2442.679609,1702.473667,1225.752797
163359.998211,-74.020594,-2664.741391,-2374.896044
163359.998530,-2368.659014,-7328.038826,-2451.505594
163359.998849,-1184.329507,-14211.954086,-919.314598
163359.999168,-3034.844362,-16580.613101,-1302.362347
163359.999487,-5921.647536,-16654.633695,-1455.581446
163359.999806,-9400.615463,-13841.851115,-5362.668486
163360.000125,-6217.729913,-12805.562797,-4366.744339
163360.000444,0.000000,-10140.821405,229.828649
163360.000763,4737.318029,-5995.668130,6052.154434
163360.001082,7254.018232,-2294.638420,6894.859482
163360.001401,5255.462188,0.000000,2987.772442
163360.001720,1036.288319,-1628.453072,-1608.800546
163360.002039,-1776.494261,-5403.503377,-3677.258390
163360.002358,-74.020594,-13027.624579,-2528.115143
163360.002677,-2664.741391,-16876.695478,-1915.238745
163360.002996,-6883.915261,-16802.674883,-3677.258390
163360.003315,-8438.347739,-15396.283594,-5132.839837
163360.003634,-4367.215058,-13027.624579,-3677.258390
163360.003953,888.247130,-11769.274478,1608.800546
163360.004272,6217.729913,-7772.162391,6052.154434
163360.004591,9400.615463,-4737.318029,8963.317327
163360.004910,7031.956449,592.164754,4519.963438
163360.005229,3182.885551,-666.185348,306.438199
163360.005548,2294.638420,-5625.565159,-4060.306139
163360.005867,-592.164754,-11843.295072,-1225.752797
163360.006187,-2738.761985,-15618.345376,-1378.971896
163360.006506,-6143.709319,-16654.633695,-2757.943793
163360.006825,-8660.409521,-17172.777854,-3753.867940
163360.007144,-6587.832884,-15988.448347,-2528.115143
163360.007463,-666.185348,-13027.624579,1455.581446
163360.007782,5551.544565,-8290.306550,4366.744339
163360.008101,7031.956449,-3182.885551,6665.030833
163360.008420,4737.318029,-74.020594,4903.011187
163360.008739,2146.597232,962.267725,-1302.362347
163360.009058,296.082377,-5329.482782,-2604.724693
163360.009377,-1406.391290,-11473.192101,-2834.553343
163360.009696,-3627.009116,-15766.386565,-2681.334243
163360.010015,-4811.338623,-18653.189738,-1915.238745
163360.010334,-9474.636058,-15470.304188,-4903.011187
163360.010653,-5921.647536,-15174.221811,-3140.991542
163360.010972,-370.102971,-12287.418637,-536.266849
163360.011291,6439.791695,-9178.553681,4826.401637
163360.011610,6217.729913,-3627.009116,7354.516781
163360.011929,6069.688724,-222.061783,4290.134789
163360.012248,3849.070898,-518.144159,1149.143247
163360.012567,1110.308913,-4145.153275,-1225.752797
163360.012886,-296.082377,-10140.821405,-2604.724693
163360.013205,-1258.350101,-15174.221811,-1838.629195
163360.013524,-5329.482782,-16358.551318,-1532.190996
163360.013843,-7105.977043,-14285.974681,-4903.011187
163360.014162,-8290.306550,-14285.974681,-3677.258390
163360.014481,-3330.926739,-13545.768739,-1915.238745
163360.014800,2368.659014,-10140.821405,4903.011187
163360.015119,6957.935855,-4959.379811,6665.030833
163360.015438,7402.059420,-444.123565,6128.763984
163360.015757,3182.885551,0.000000,1838.629195
163360.016076,-1776.494261,-1850.514855,-3677.258390
163360.016395,-3552.988522,-6587.832884,-4749.792088
163360.016715,-2886.803174,-13101.645173,-4903.011187
163360.017034,-5921.647536,-17838.963202,-1838.629195
163360.017353,-7772.162391,-16654.633695,-4213.525239
163360.017672,-7179.997637,-14804.118840,-5592.497135
163360.017991,-3034.844362,-13471.748144,-2604.724693
163360.018310,2442.679609,-9844.739029,842.705048
163360.018629,7105.977043,-6439.791695,6358.592633
163360.018948,7698.141797,-1554.432478,6205.373534
163360.019267,2368.659014,-74.020594,1225.752797
163360.019586,1184.329507,-2294.638420,-689.485948
163360.019905,0.000000,-5995.668130,-3064.381992
163360.020224,-370.102971,-13989.892304,-1072.533697
163360.020543,-1258.350101,-18653.189738,-76.609550
163360.020862,-4811.338623,-16580.613101,-3753.867940
163360.021181,-7624.121203,-14211.954086,-3677.258390
163360.021500,-4811.338623,-12213.398043,-3140.991542
163360.021819,888.247130,-10436.903782,153.219100
163360.022138,5699.585753,-7772.162391,5898.935335
163360.022457,5921.647536,-2442.679609,7431.126331
163360.022776,5847.626942,0.000000,3600.648841
163360.023095,1332.370696,-1258.350101,-1302.362347
163360.023414,-3256.906145,-4811.338623,-3677.258390
163360.023733,-2072.576638,-12509.480420,-2451.505594
163360.024052,-4811.338623,-14508.036463,-3294.210641
163360.024371,-6513.812290,-16802.674883,-3753.867940
163360.024690,-9104.533087,-15026.180623,-5209.449386
163360.025009,-5921.647536,-12509.480420,-4366.744339
163360.025328,1110.308913,-11843.295072,-76.609550
163360.025647,7031.956449,-8586.388927,6052.154434
163360.025966,8216.285956,-3552.988522,7277.907231
163360.026285,5847.626942,592.164754,2987.772442
163360.026604,1776.494261,-1258.350101,153.219100
163360.026923,0.000000,-5403.503377,-1838.629195
163360.027243,-1258.350101,-11547.212695,-3140.991542
163360.027562,-2368.659014,-15766.386565,-1225.752797
163360.027881,-4441.235652,-16580.613101,-2145.067394
163360.028200,-6883.915261,-14285.974681,-3830.477490
163360.028519,-4811.338623,-13619.789333,-2528.115143
163360.028838,-2146.597232,-10955.047942,-76.609550
163360.029157,5847.626942,-9474.636058,4826.401637
163360.029476,6513.812290,-3034.844362,6435.202183
163360.029795,6957.935855,-1258.350101,6128.763984
163360.030114,814.226536,1036.288319,0.000000
163360.030433,-666.185348,-5255.462188,-2068.457845
163360.030752,-888.247130,-11029.068536,-2528.115143
163360.031071,-2960.823768,-15396.283594,-1532.190996
163360.031390,-5995.668130,-17172.777854,-2528.115143
163360.031709,-9474.636058,-15174.221811,-4979.620737
163360.032028,-11251.130318,-13101.645173,-5822.325785
163360.032347,-3256.906145,-12805.562797,-2911.162892
163360.032666,4663.297435,-11843.295072,4826.401637
163360.032985,6587.832884,-4811.338623,4903.011187
163360.033304,7624.121203,-2072.576638,4826.401637
163360.033623,3552.988522,-370.102971,995.924147
163360.033942,814.226536,-3552.988522,-1532.190996
163360.034261,0.000000,-9400.615463,-3064.381992
163360.034580,-222.061783,-15840.407159,-76.609550
163360.034899,-3627.009116,-17394.839637,-1608.800546
163360.035218,-6587.832884,-15692.365970,-2528.115143
163360.035537,-7179.997637,-13619.789333,-5592.497135
163360.035856,-4737.318029,-11029.068536,-2451.505594
163360.036175,4663.297435,-9474.636058,1762.019645
163360.036494,7550.100608,-5773.606348,7124.688131
163360.036813,8142.265362,-1258.350101,6665.030833
163360.037132,5329.482782,222.061783,2834.553343
163360.037452,666.185348,-3108.864956,-536.266849
163360.037771,-1776.494261,-7476.080014,-1838.629195
163360.038090,-2442.679609,-13915.871710,-2528.115143
163360.038409,-4737.318029,-16876.695478,-2145.067394
163360.038728,-8142.265362,-16284.530724,-3983.696590
163360.039047,-10881.027347,-12879.583391,-5286.058936
163360.039366,-4811.338623,-13027.624579,-3140.991542
163360.039685,1702.473667,-10584.944971,536.266849
163360.040004,4885.359217,-6069.688724,4749.792088
163360.040323,4737.318029,-74.020594,4903.011187
163360.040642,6735.874072,-2368.659014,4826.401637
163360.040961,1776.494261,-2738.761985,0.000000
163360.041280,666.185348,-7105.977043,-2757.943793
163360.041599,-962.267725,-12287.418637,-2145.067394
163360.041918,-3108.864956,-16432.571912,-1991.848295
163360.042237,-5329.482782,-16358.551318,-2374.896044
163360.042556,-7476.080014,-14730.098246,-4903.011187
163360.042875,-4811.338623,-13323.706956,-1302.362347
163360.043194,2294.638420,-11843.295072,-76.609550
163360.043513,5255.462188,-6661.853478,4366.744339
163360.043832,10584.944971,-4737.318029,7890.783629
163360.044151,6069.688724,518.144159,4903.011187
163360.044470,2738.761985,-1554.432478,536.266849
163360.044789,222.061783,-5921.647536,-1608.800546
163360.045108,-1258.350101,-12065.356855,-1302.362347
163360.045427,-3849.070898,-16210.510130,-842.705048
163360.045746,-6883.915261,-16580.613101,-2757.943793
163360.046065,-7179.997637,-17172.777854,-3140.991542
163360.046384,-6291.750507,-13027.624579,-4366.744339
163360.046703,-962.267725,-9844.739029,-1838.629195
163360.047022,5551.544565,-6957.935855,3907.087040
163360.047341,7920.203579,-3552.988522,7354.516781
163360.047660,5625.565159,-222.061783,4060.306139
163360.047980,1406.391290,-888.247130,153.219100
163360.048299,-740.205942,-6513.812290,-2528.115143
163360.048618,-370.102971,-13619.789333,-1915.238745
163360.048937,-2960.823768,-17320.819043,-1532.190996
163360.049256,-6439.791695,-17172.777854,-4366.744339
163360.049575,-8734.430116,-15470.304188,-4749.792088
163360.049894,-7105.977043,-11325.150913,-3677.258390
163360.050213,-2294.638420,-9548.656652,-2757.943793
163360.050532,5921.647536,-7994.224174,5056.230287
163360.050851,9548.656652,-4663.297435,8656.879127
163360.051170,9326.594869,148.041188,7737.564530
163360.051489,7031.956449,0.000000,2987.772442
163360.051808,0.000000,-3330.926739,-1225.752797
163360.052127,-296.082377,-11251.130318,-2681.334243
163360.052446,-2590.720797,-15396.283594,-2528.115143
163360.052765,-4219.173869,-17764.942608,-4060.306139
163360.053084,-8290.306550,-16062.468941,-3064.381992
163360.053403,-8882.471304,-13471.748144,-5515.887586
163360.053722,-3404.947333,-12065.356855,-2451.505594
163360.054041,3108.864956,-8956.491898,2987.772442
163360.054360,7328.038826,-4959.379811,7354.516781
163360.054679,7328.038826,-814.226536,5822.325785
163360.054998,2812.782580,1110.308913,2451.505594
163360.055317,444.123565,-3256.906145,-1225.752797
163360.055636,-74.020594,-9474.636058,-3753.867940
163360.055955,-4293.194464,-13545.768739,-4903.011187
163360.056274,-5625.565159,-18727.210333,-1532.190996
163360.056593,-7920.203579,-17246.798449,-4673.182538
163360.056912,-7772.162391,-15840.407159,-4903.011187
163360.057231,-3552.988522,-12805.562797,-2604.724693
163360.057550,1184.329507,-8364.327145,0.000000
163360.057869,6217.729913,-3627.009116,5515.887586
163360.058189,10066.800811,-74.020594,6358.592633
163360.058508,5921.647536,1702.473667,4903.011187
163360.058827,3404.947333,-2590.720797,-76.609550
163360.059146,-74.020594,-7105.977043,-3753.867940
163360.059465,-1998.556043,-14434.015869,-2604.724693
163360.059784,-4737.318029,-17394.839637,-3370.820191
163360.060103,-6957.935855,-17024.736666,-3447.429741
163360.060422,-8660.409521,-15026.180623,-4749.792088
163360.060741,-6513.812290,-10732.986159,-3677.258390
163360.061060,1184.329507,-8882.471304,1762.019645
163360.061379,6587.832884,-4219.173869,6511.811733
163360.061698,8290.306550,-1554.432478,8120.612279
163360.062017,6513.812290,518.144159,6128.763984
163360.062336,2294.638420,0.000000,-1915.238745
163360.062655,-2294.638420,-6217.729913,-3677.258390
163360.062974,-3997.112087,-13101.645173,-4826.401637
163360.063293,-6365.771101,-17616.901420,-4596.572988
163360.063612,-8438.347739,-18431.127956,-4979.620737
163360.063931,-10658.965565,-14878.139434,-5209.449386
163360.064250,-5995.668130,-13027.624579,-4979.620737
163360.064569,0.000000,-10140.821405,383.047749
163360.064888,4737.318029,-4811.338623,4903.011187
163360.065207,9474.636058,-2442.679609,9806.022374
163360.065526,7031.956449,2442.679609,3753.867940
163360.065845,3923.091493,-962.267725,1532.190996
163360.066164,-296.082377,-5625.565159,-2911.162892
163360.066483,-2442.679609,-11695.253884,-4366.744339
163360.066802,-3034.844362,-18653.189738,-2528.115143
163360.067121,-4811.338623,-19985.560434,-3753.867940
163360.067440,-7624.121203,-16580.613101,-3753.867940
163360.067759,-5403.503377,-13471.748144,-4366.744339
163360.068078,-1776.494261,-10436.903782,0.000000
163360.068397,5329.482782,-7179.997637,7967.393179
163360.068717,8586.388927,-1554.432478,8580.269578
163360.069036,7772.162391,1332.370696,7967.393179
163360.069355,2812.782580,814.226536,1532.190996
163360.069674,-1998.556043,-3478.967927,-2451.505594
163360.069993,-1850.514855,-10658.965565,-3753.867940
163360.070312,-5403.503377,-14952.160028,-3140.991542
163360.070631,-5403.503377,-18949.272115,-4366.744339
163360.070950,-9992.780217,-16580.613101,-6818.249932
163360.071268,-9474.636058,-13101.645173,-7277.907231
163360.071587,-4441.235652,-10732.986159,-4903.011187
163360.071906,6143.709319,-10066.800811,4826.401637
163360.072225,9770.718434,-4737.318029,8580.269578
163360.072544,10066.800811,0.000000,7737.564530
163360.072863,7328.038826,0.000000,3600.648841
163360.073182,1184.329507,-3330.926739,-76.609550
163360.073501,-444.123565,-11769.274478,-2757.943793
163360.073820,-2442.679609,-15840.407159,-3907.087040
163360.074139,-4811.338623,-18357.107362,-3140.991542
163360.074458,-9474.636058,-15470.304188,-6128.763984
163360.074777,-7031.956449,-14063.912898,-5439.278036
163360.075096,-2368.659014,-12509.480420,-1225.752797
163360.075415,3923.091493,-9030.512492,4290.134789
163360.075734,8512.368333,-5033.400406,8503.660028
163360.076053,11473.192101,-2368.659014,9729.412825
163360.076372,5107.421000,1036.288319,4519.963438
163360.076691,-592.164754,-1036.288319,-2374.896044
163360.077010,-5625.565159,-5403.503377,-5822.325785
163360.077329,-5329.482782,-13693.809927,-4290.134789
163360.077648,-5995.668130,-16580.613101,-6818.249932
163360.077967,-8512.368333,-18061.024985,-4979.620737
163360.078286,-9400.615463,-15840.407159,-5898.935335
163360.078605,-4737.318029,-13545.768739,-2681.334243
163360.078924,1776.494261,-9844.739029,1532.190996
163360.079243,9474.636058,-7476.080014,11031.775171
163360.079562,10658.965565,-888.247130,8580.269578
163360.079881,8586.388927,1554.432478,5515.887586
163360.080200,2442.679609,-888.247130,-919.314598
163360.080519,-3552.988522,-5995.668130,-4903.011187
163360.080838,-5403.503377,-14211.954086,-5286.058936
163360.081157,-6883.915261,-16950.716072,-5515.887586
163360.081476,-7994.224174,-18579.169144,-4596.572988
163360.081795,-9474.636058,-14285.974681,-6128.763984
163360.082114,-3034.844362,-14211.954086,-1302.362347
163360.082433,3552.988522,-11029.068536,3217.601092
163360.082752,8068.244768,-6069.688724,7814.174080
163360.083071,10584.944971,-2664.741391,10342.289223
163360.083390,7179.997637,1110.308913,6052.154434
163360.083709,1998.556043,-74.020594,919.314598
163360.084028,-2294.638420,-3701.029710,-3140.991542
163360.084347,-5255.462188,-11843.295072,-4979.620737
163360.084666,-8808.450710,-14656.077652,-6741.640382
163360.084985,-9474.636058,-16654.633695,-6128.763984
163360.085304,-9548.656652,-16876.695478,-6205.373534
163360.085623,-7402.059420,-13989.892304,-3983.696590
163360.085942,-592.164754,-11917.315666,-842.705048
163360.086261,6809.894666,-8438.347739,6052.154434
163360.086580,10140.821405,-2738.761985,9269.755526
163360.086899,9326.594869,0.000000,8503.660028
163360.087218,4367.215058,592.164754,3600.648841
163360.087537,-74.020594,-4737.318029,-3140.991542
163360.087856,-3923.091493,-10955.047942,-5669.106685
163360.088175,-5921.647536,-16062.468941,-4903.011187
163360.088494,-7550.100608,-17098.757260,-6894.859482
163360.088813,-8068.244768,-18135.045579,-4903.011187
163360.089132,-5773.606348,-14211.954086,-3677.258390
163360.089451,370.102971,-11843.295072,842.705048
163360.089770,9400.615463,-9474.636058,7277.907231
163360.090089,14137.933492,-6513.812290,9806.022374
163360.090408,10362.883188,-592.164754,10035.851024
163360.090727,5551.544565,1776.494261,2987.772442
163360.091046,-222.061783,-2368.659014,-1915.238745
163360.091365,-4737.318029,-9548.656652,-4596.572988
163360.091684,-7328.038826,-13989.892304,-7201.297681
163360.092003,-8068.244768,-17764.942608,-5515.887586
163360.092322,-9474.636058,-17172.777854,-5822.325785
163360.092641,-7994.224174,-14952.160028,-5515.887586
163360.092960,-1850.514855,-14063.912898,-1608.800546
163360.093279,4145.153275,-8956.491898,3983.696590
163360.093598,11103.089130,-5255.462188,9806.022374
163360.093917,11769.274478,-2368.659014,9729.412825
163360.094236,6735.874072,2960.823768,2374.896044
163360.094555,1480.411884,-2442.679609,-153.219100
163360.094874,-3182.885551,-8290.306550,-5056.230287
163360.095193,-4811.338623,-15248.242405,-5209.449386
163360.095512,-6883.915261,-17690.922014,-5822.325785
163360.095831,-8808.450710,-17912.983796,-7048.078582
163360.096150,-9474.636058,-14878.139434,-8580.269578
163360.096469,-3849.070898,-14285.974681,-1532.190996
163360.096788,1184.329507,-8364.327145,3677.258390
163360.097107,10066.800811,-5847.626942,10112.460574
163360.097426,11473.192101,-1184.329507,9729.412825
163360.097745,8660.409521,444.123565,7814.174080
163360.098064,1628.453072,148.041188,153.219100
163360.098383,-3256.906145,-6809.894666,-3983.696590
163360.098702,-5477.523971,-13249.686362,-5592.497135
163360.099021,-9474.636058,-15470.304188,-7354.516781
163360.099340,-11843.295072,-16654.633695,-6741.640382
163360.099659,-11843.295072,-14285.974681,-7354.516781
163360.099978,-5921.647536,-13693.809927,-2451.505594
163360.100297,2294.638420,-10658.965565,2757.943793
163360.100616,9400.615463,-6513.812290,7890.783629
163360.100935,12361.439231,-2072.576638,12104.308868
163360.101254,8364.327145,1850.514855,6511.811733
163360.101573,2516.700203,-296.082377,153.219100
163360.101892,-3627.009116,-5921.647536,-4903.011187
163360.102211,-7105.977043,-12509.480420,-7354.516781
163360.102530,-7179.997637,-17468.860231,-6971.469032
163360.102849,-9474.636058,-18135.045579,-7201.297681
163360.103168,-9918.759623,-16358.551318,-7354.516781
163360.103487,-3627.009116,-15396.283594,-2528.115143
163360.103806,2294.638420,-10362.883188,0.000000
163360.104125,10955.047942,-7920.203579,8656.879127
163360.104444,12287.418637,-2590.720797,11414.822920
163360.104763,9400.615463,666.185348,8656.879127
163360.105082,5107.421000,0.000000,2987.772442
163360.105401,-962.267725,-4737.318029,-1302.362347
163360.105720,-3627.009116,-11547.212695,-5286.058936
163360.106039,-7698.141797,-14285.974681,-8427.050478
163360.106358,-9474.636058,-17838.963202,-6128.763984
163360.106677,-9474.636058,-16950.716072,-5515.887586
163360.106996,-7105.977043,-13101.645173,-5822.325785
163360.107315,-74.020594,-12361.439231,-153.219100
163360.107634,7402.059420,-8660.409521,5898.935335
163360.107953,11325.150913,-3627.009116,10112.460574
163360.108272,11769.274478,0.000000,9729.412825
163360.108591,6439.791695,1184.329507,3907.087040
163360.108910,2294.638420,-4441.235652,-76.609550
163360.109229,-3627.009116,-8660.409521,-6205.373534
163360.109548,-6513.812290,-15026.180623,-5975.544884
163360.109867,-8882.471304,-17838.963202,-4903.011187
163360.110186,-10510.924376,-17690.922014,-7354.516781
163360.110505,-8956.491898,-15988.448347,-7048.078582
163360.110824,-3330.926739,-13915.871710,-1838.629195
163360.111143,4737.318029,-9474.636058,4290.134789
163360.111462,11769.274478,-5921.647536,9729.412825
163360.111781,11769.274478,-2960.823768,11568.042020
163360.112100,7031.956449,2664.741391,3907.087040
163360.112419,888.247130,-962.267725,0.000000
163360.112738,-3552.988522,-6587.832884,-2451.505594
163360.113057,-7105.977043,-11917.315666,-6128.763984
163360.113376,-6069.688724,-17172.777854,-4826.401637
163360.113695,-8808.450710,-17690.922014,-4903.011187
163360.114014,-8364.327145,-15470.304188,-5286.058936
163360.114333,-3627.009116,-14211.954086,-2528.115143
163360.114652,2072.576638,-9844.739029,3370.820191
163360.114971,7402.059420,-5107.421000,8580.269578
163360.115290,10584.944971,-1776.494261,11568.042020
163360.115609,8808.450710,1184.329507,5439.278036
163360.115928,0.000000,3478.967927,-2451.505594
163360.116247,-1258.350101,-6809.894666,-4366.744339
163360.116566,-4589.276840,-13989.892304,-5286.058936
163360.116885,-7105.977043,-17838.963202,-6052.154434
163360.117203,-9548.656652,-18579.169144,-6665.030833
163360.117522,-8216.285956,-18949.272115,-5592.497135
163360.117841,-6365.771101,-14285.974681,-4596.572988
163360.118160,2146.597232,-11843.295072,1762.019645
163360.118479,9474.636058,-7402.059420,8733.488677
163360.118798,10510.924376,-2220.617826,10112.460574
163360.119117,7105.977043,3478.967927,7354.516781
163360.119436,2886.803174,2886.803174,-842.705048
163360.119755,-1776.494261,-4219.173869,-2451.505594
163360.120074,-2738.761985,-12657.521608,-4136.915689
163360.120393,-5773.606348,-14582.057057,-6511.811733
163360.120712,-5403.503377,-18949.272115,-3753.867940
163360.121031,-9030.512492,-16136.489536,-5362.668486
163360.121350,-6217.729913,-14285.974681,-3907.087040
163360.121669,148.041188,-11399.171507,1149.143247
163360.121988,5921.647536,-6883.915261,6281.983084
163360.122307,10362.883188,-3034.844362,10418.898773
163360.122626,6513.812290,2294.638420,5669.106685
163360.122945,4145.153275,1702.473667,0.000000
163360.123264,0.000000,-3923.091493,-2145.067394
163360.123583,-3627.009116,-9548.656652,-6435.202183
163360.123902,-3627.009116,-17172.777854,-4979.620737
163360.124221,-7550.100608,-18209.066173,-5362.668486
163360.124540,-10140.821405,-17764.942608,-6588.421283
163360.124859,-7624.121203,-15396.283594,-5515.887586
163360.125178,74.020594,-14211.954086,-76.609550
163360.125497,8216.285956,-9474.636058,7124.688131
163360.125816,9992.780217,-3552.988522,9422.974625
163360.126135,6217.729913,1998.556043,6128.763984
163360.126454,3256.906145,814.226536,1838.629195
163360.126773,-2960.823768,-370.102971,-4903.011187
163360.127092,-3923.091493,-10362.883188,-5362.668486
163360.127411,-5625.565159,-15100.201217,-4903.011187
163360.127730,-7105.977043,-17542.880825,-5132.839837
163360.128049,-8068.244768,-16580.613101,-4979.620737
163360.128368,-5107.421000,-14211.954086,-3753.867940
163360.128687,-1110.308913,-14211.954086,-76.609550
163360.129006,4663.297435,-7698.141797,3447.429741
163360.129325,9474.636058,-3627.009116,9806.022374
163360.129644,10807.006753,-1258.350101,10955.165621
163360.129963,4737.318029,4071.132681,3217.601092
163360.130282,1332.370696,-1924.535449,-1302.362347
163360.130601,-1850.514855,-8808.450710,-3907.087040
163360.130920,-3404.947333,-14878.139434,-4749.792088
163360.131239,-5107.421000,-17468.860231,-4979.620737
163360.131558,-8364.327145,-17838.963202,-5362.668486
163360.131877,-8512.368333,-16580.613101,-5669.106685
163360.132196,-4811.338623,-14063.912898,-3447.429741
163360.132515,3478.967927,-10066.800811,1149.143247
163360.132834,9992.780217,-9400.615463,10955.165621
163360.133153,7105.977043,-814.226536,7967.393179
163360.133472,5551.544565,1776.494261,4366.744339
163360.133791,1110.308913,-740.205942,-995.924147
163360.134110,-2220.617826,-7179.997637,-3983.696590
163360.134429,-3627.009116,-12953.603985,-4596.572988
163360.134748,-4959.379811,-18357.107362,-3447.429741
163360.135067,-6661.853478,-17764.942608,-3830.477490
163360.135386,-5403.503377,-16580.613101,-3753.867940
163360.135705,-3034.844362,-13323.706956,-2528.115143
163360.136024,4663.297435,-13027.624579,4826.401637
163360.136343,8068.244768,-6883.915261,7507.735880
163360.136662,9178.553681,-2738.761985,8503.660028
163360.136981,6735.874072,1628.453072,5132.839837
163360.137300,1480.411884,-74.020594,612.876398
163360.137619,-1776.494261,-4811.338623,-2451.505594
163360.137938,-2220.617826,-11991.336260,-3677.258390
163360.138257,-3182.885551,-16950.716072,-1685.410096
163360.138576,-6291.750507,-17172.777854,-3753.867940
163360.138895,-8956.491898,-14952.160028,-6358.592633
163360.139214,-4811.338623,-15100.201217,-3140.991542
163360.139533,148.041188,-10955.047942,919.314598
163360.139852,7105.977043,-8142.265362,6741.640382
163360.140171,8808.450710,-3108.864956,8580.269578
163360.140490,6513.812290,-74.020594,7354.516781
163360.140809,2368.659014,-74.020594,-842.705048
163360.141128,-3256.906145,-4811.338623,-4136.915689
163360.141447,-2516.700203,-13027.624579,-4979.620737
163360.141766,-6439.791695,-18357.107362,-4366.744339
163360.142085,-8660.409521,-16654.633695,-7354.516781
163360.142404,-7476.080014,-16728.654289,-5132.839837
163360.142723,-5477.523971,-13545.768739,-4443.353888
163360.143042,74.020594,-11695.253884,536.266849
163360.143361,7179.997637,-7846.182985,6741.640382
163360.143680,9474.636058,-2516.700203,9806.022374
163360.143999,7402.059420,2294.638420,5592.497135
163360.144318,4737.318029,814.226536,2451.505594
163360.144637,2294.638420,-5847.626942,-76.609550
163360.144956,-666.185348,-11843.295072,-2834.553343
163360.145275,-5921.647536,-13101.645173,-6128.763984
163360.145594,-6291.750507,-18061.024985,-4443.353888
163360.145913,-9104.533087,-16728.654289,-5209.449386
163360.146232,-8068.244768,-14359.995275,-5515.887586
163360.146551,-1258.350101,-12435.459826,-1302.362347
163360.146870,5847.626942,-10658.965565,4826.401637
163360.147189,7698.141797,-3404.947333,8580.269578
163360.147508,4737.318029,3182.885551,5515.887586
163360.147827,4663.297435,518.144159,3830.477490
163360.148146,814.226536,-3182.885551,-76.609550
163360.148465,-4441.235652,-7476.080014,-4903.011187
163360.148784,-4811.338623,-15322.262999,-4673.182538
163360.149103,-7254.018232,-17320.819043,-5286.058936
163360.149422,-9548.656652,-17098.757260,-5515.887586
163360.149741,-7179.997637,-13619.789333,-6511.811733
163360.150060,-2738.761985,-12879.583391,-1302.362347
163360.150379,3182.885551,-8438.347739,2298.286494
163360.150698,7105.977043,-4811.338623,7354.516781
163360.151017,9178.553681,-888.247130,8580.269578
163360.151336,5921.647536,4071.132681,4290.134789
163360.151655,3182.885551,-1776.494261,-536.266849
163360.151974,0.000000,-7772.162391,-2834.553343
163360.152293,-1628.453072,-13619.789333,-2757.943793
163360.152612,-4367.215058,-16654.633695,-4979.620737
163360.152931,-7254.018232,-18949.272115,-4596.572988
163360.153250,-11251.130318,-14582.057057,-6128.763984
163360.153569,-4737.318029,-14137.933492,-2451.505594
163360.153888,3923.091493,-12139.377449,4519.963438
163360.154207,7846.182985,-5995.668130,7354.516781
163360.154526,9104.533087,-74.020594,8044.002729
163360.154845,6587.832884,2368.659014,5515.887586
163360.155164,1258.350101,-148.041188,-995.924147
163360.155483,-1776.494261,-6513.812290,-3677.258390
163360.155802,-1850.514855,-14211.954086,-2528.115143
163360.156121,-6883.915261,-17764.942608,-4979.620737
163360.156440,-9696.697840,-17616.901420,-6205.373534
163360.156759,-11029.068536,-14508.036463,-8273.831378
163360.157078,-5921.647536,-13693.809927,-3677.258390
163360.157397,518.144159,-9548.656652,-1838.629195
163360.157716,7994.224174,-8142.265362,7277.907231
163360.158035,9770.718434,-2738.761985,8963.317327
163360.158354,8882.471304,2072.576638,6128.763984
163360.158673,4663.297435,1110.308913,1455.581446
163360.158992,1480.411884,-5699.585753,-76.609550
163360.159311,-592.164754,-12361.439231,-3140.991542
163360.159630,-2960.823768,-16728.654289,-2834.553343
163360.159949,-7254.018232,-18505.148550,-4673.182538
163360.160268,-11251.130318,-15766.386565,-7048.078582
163360.160587,-8660.409521,-13989.892304,-4903.011187
163360.160906,-666.185348,-11843.295072,-689.485948
163360.161225,5033.400406,-7846.182985,5822.325785
163360.161544,9474.636058,-3627.009116,10418.898773
163360.161863,9400.615463,592.164754,6665.030833
163360.162182,3997.112087,518.144159,2451.505594
163360.162501,-1258.350101,-3627.009116,-2374.896044
163360.162820,-3182.885551,-10584.944971,-3983.696590
163360.163138,-5255.462188,-16654.633695,-3677.258390
163360.163457,-8364.327145,-17542.880825,-5209.449386
163360.163776,-11251.130318,-16654.633695,-6435.202183
163360.164095,-8068.244768,-14508.036463,-5592.497135
163360.164414,-1258.350101,-11843.295072,-2528.115143
163360.164733,3182.885551,-8068.244768,2834.553343
163360.165052,9400.615463,-4441.235652,6665.030833
163360.165371,8290.306550,-666.185348,6665.030833
163360.165690,5699.585753,74.020594,2834.553343
163360.166009,2294.638420,-2146.597232,-1225.752797
163360.166328,0.000000,-8438.347739,-2681.334243
163360.166647,-222.061783,-16506.592507,-919.314598
163360.166966,-2738.761985,-17616.901420,-1302.362347
163360.167285,-5403.503377,-18949.272115,-4060.306139
163360.167604,-9030.512492,-14434.015869,-6358.592633
163360.167923,-4145.153275,-12509.480420,-3677.258390
163360.168242,3478.967927,-9474.636058,1762.019645
163360.168561,9178.553681,-5847.626942,8733.488677
163360.168880,8956.491898,-814.226536,8197.221829
163360.169199,6069.688724,1776.494261,4596.572988
163360.169518,2886.803174,-2960.823768,-76.609550
163360.169837,-74.020594,-9474.636058,-3677.258390
163360.170156,-3552.988522,-15322.262999,-2451.505594
163360.170475,-5995.668130,-17764.942608,-4366.744339
163360.170794,-10214.842000,-18949.272115,-4979.620737
163360.171113,-11843.295072,-14285.974681,-6128.763984
163360.171432,-6143.709319,-13027.624579,-4826.401637
163360.171751,1036.288319,-10658.965565,1225.752797
163360.172070,6809.894666,-6587.832884,6665.030833
163360.172389,8882.471304,-1850.514855,7354.516781
163360.172708,8068.244768,370.102971,4519.963438
163360.173027,2368.659014,-814.226536,153.219100
163360.173347,0.000000,-5403.503377,-2451.505594
163360.173666,0.000000,-11917.315666,-1838.629195
163360.173985,-1850.514855,-18357.107362,-1915.238745
163360.174304,-8290.306550,-16654.633695,-3983.696590
163360.174623,-13027.624579,-13101.645173,-7967.393179
163360.174942,-7105.977043,-14211.954086,-3524.039291
163360.175261,518.144159,-11325.150913,689.485948
163360.175580,6957.935855,-7179.997637,5515.887586
163360.175899,8364.327145,-1702.473667,7354.516781
163360.176218,5921.647536,2590.720797,5209.449386
163360.176537,1184.329507,1702.473667,0.000000
163360.176856,1702.473667,-6809.894666,-1302.362347
163360.177175,-1702.473667,-12435.459826,-2528.115143
163360.177494,-5921.647536,-16654.633695,-2145.067394
163360.177813,-8586.388927,-17912.983796,-4826.401637
163360.178132,-10510.924376,-16506.592507,-5975.544884
163360.178451,-7772.162391,-14656.077652,-5669.106685
163360.178770,-3997.112087,-9548.656652,-3677.258390
163360.179089,2368.659014,-7179.997637,2834.553343
163360.179408,4737.318029,-1554.432478,5515.887586
163360.179727,7105.977043,518.144159,5822.325785
163360.180046,5773.606348,0.000000,2374.896044
163360.180365,3478.967927,-4737.318029,-1302.362347
163360.180684,0.000000,-11029.068536,-2298.286494
163360.181003,-2368.659014,-15988.448347,-2757.943793
163360.181322,-5403.503377,-17690.922014,-3447.429741
163360.181641,-8438.347739,-17098.757260,-5592.497135
163360.181960,-9178.553681,-14285.974681,-6588.421283
163360.182279,-74.020594,-12879.583391,-1302.362347
163360.182598,4663.297435,-8290.306550,4060.306139
163360.182917,10066.800811,-3034.844362,6741.640382
163360.183236,10066.800811,518.144159,8580.269578
163360.183555,8216.285956,592.164754,2374.896044
163360.183874,1776.494261,-2442.679609,-459.657299
163360.184193,-666.185348,-9252.574275,-2451.505594
163360.184512,-2812.782580,-14952.160028,-2681.334243
163360.184831,-5403.503377,-18949.272115,-2528.115143
163360.185150,-9548.656652,-18135.045579,-4060.306139
163360.185469,-8956.491898,-15100.201217,-6052.154434
163360.185789,-5403.503377,-11843.295072,-3753.867940
163360.186108,0.000000,-7772.162391,76.609550
163360.186427,5033.400406,-3034.844362,4903.011187
163360.186746,8808.450710,148.041188,5745.716235
163360.187065,6143.709319,1184.329507,3677.258390
163360.187384,3256.906145,-1702.473667,-919.314598
163360.187703,962.267725,-7920.203579,-2451.505594
163360.188022,-74.020594,-16580.613101,-689.485948
163360.188341,-3701.029710,-18357.107362,-2757.943793
163360.188660,-6587.832884,-19985.560434,-3140.991542
163360.188979,-9548.656652,-16580.613101,-6818.249932
163360.189298,-5329.482782,-13101.645173,-4290.134789
163360.189617,0.000000,-9548.656652,306.438199
163360.189936,7179.997637,-6069.688724,6052.154434
163360.190255,8364.327145,-888.247130,7660.954980
163360.190574,6439.791695,1480.411884,4749.792088
163360.190893,3552.988522,-296.082377,1532.190996
163360.191212,2886.803174,-8290.306550,-76.609550
163360.191531,-1776.494261,-11917.315666,0.000000
163360.191850,-3923.091493,-17468.860231,-995.924147
163360.192169,-8660.409521,-17098.757260,-2681.334243
163360.192488,-8364.327145,-16580.613101,-6128.763984
163360.192807,-8956.491898,-12213.398043,-6818.249932
163360.193126,-2294.638420,-11547.212695,-689.485948
163360.193445,3256.906145,-6809.894666,4290.134789
163360.193764,5699.585753,-2590.720797,5592.497135
163360.194083,7031.956449,0.000000,4213.525239
163360.194402,2590.720797,-74.020594,0.000000
163360.194721,0.000000,-4219.173869,-2451.505594
163360.195040,814.226536,-12139.377449,-153.219100
163360.195359,-370.102971,-17764.942608,-689.485948
163360.195678,-7031.956449,-15248.242405,-6128.763984
163360.195997,-8956.491898,-15988.448347,-5592.497135
163360.196316,-8364.327145,-14878.139434,-5669.106685
163360.196635,-2368.659014,-12509.480420,-1838.629195
163360.196954,4663.297435,-9252.574275,3907.087040
163360.197273,9992.780217,-5921.647536,10342.289223
163360.197592,7402.059420,1184.329507,5515.887586
163360.197912,5107.421000,-444.123565,2145.067394
163360.198231,1924.535449,-4145.153275,-766.095498
163360.198550,666.185348,-9622.677246,-1225.752797
163360.198869,-4441.235652,-12509.480420,-2451.505594
163360.199188,-7698.141797,-14878.139434,-3370.820191
163360.199507,-6735.874072,-16876.695478,-2068.457845
163360.199826,-7179.997637,-13027.624579,-2528.115143
163360.200145,-2886.803174,-9770.718434,-2834.553343
163360.200464,4663.297435,-10658.965565,3600.648841
163360.200783,5699.585753,-4071.132681,5362.668486
163360.201102,5995.668130,-444.123565,4519.963438
163360.201421,3256.906145,-740.205942,306.438199
163360.201740,0.000000,-4219.173869,-3064.381992
163360.202059,740.205942,-10362.883188,-2451.505594
163360.202378,-2072.576638,-13397.727550,-2451.505594
163360.202697,-3108.864956,-17394.839637,-3677.258390
163360.203016,-5921.647536,-16950.716072,-2221.676944
163360.203335,-7179.997637,-13027.624579,-6665.030833
163360.203654,-1258.350101,-13027.624579,-2528.115143
163360.203973,3701.029710,-9770.718434,2451.505594
163360.204292,8512.368333,-6365.771101,7660.954980
163360.204611,8956.491898,-1480.411884,6894.859482
163360.204930,5847.626942,0.000000,3907.087040
163360.205249,1776.494261,-3404.947333,-1149.143247
163360.205568,-444.123565,-8290.306550,-2834.553343
163360.205887,-3849.070898,-12509.480420,-3524.039291
163360.206206,-5625.565159,-16358.551318,-2298.286494
163360.206525,-9474.636058,-14285.974681,-7048.078582
163360.206844,-8364.327145,-15248.242405,-4596.572988
163360.207163,-5255.462188,-11843.295072,-2911.162892
163360.207482,814.226536,-8660.409521,1915.238745
163360.207801,5551.544565,-5921.647536,6052.154434
163360.208120,8216.285956,-2368.659014,8503.660028
163360.208439,5847.626942,0.000000,4826.401637
163360.208758,1998.556043,-1184.329507,-1302.362347
163360.209077,-1776.494261,-7179.997637,-3447.429741
163360.209396,-1776.494261,-13989.892304,-1838.629195
163360.209715,-6809.894666,-15470.304188,-4596.572988
163360.210034,-8364.327145,-17542.880825,-4060.306139
163360.210354,-10214.842000,-15544.324782,-6358.592633
163360.210673,-6883.915261,-13323.706956,-4903.011187
163360.210992,2294.638420,-11843.295072,1149.143247
163360.211311,8808.450710,-9178.553681,8503.660028
163360.211630,9400.615463,-3552.988522,7277.907231
163360.211949,5551.544565,1258.350101,3600.648841
163360.212268,0.000000,-74.020594,0.000000
163360.212587,0.000000,-7476.080014,-76.609550
163360.212906,-2368.659014,-11917.315666,-3064.381992
163360.213225,-3256.906145,-17098.757260,-1762.019645
163360.213544,-6513.812290,-17394.839637,-2987.772442
163360.213863,-8438.347739,-15174.221811,-4366.744339
163360.214182,-5921.647536,-13397.727550,-4903.011187
163360.214501,-296.082377,-11547.212695,229.828649
163360.214820,5181.441594,-7402.059420,2757.943793
163360.215139,8438.347739,-4441.235652,9422.974625
163360.215458,6439.791695,666.185348,4519.963438
163360.215777,4959.379811,-3256.906145,3600.648841
163360.216096,592.164754,-4737.318029,-1838.629195
163360.216415,-814.226536,-10732.986159,-2451.505594
163360.216734,-3108.864956,-16284.530724,-2451.505594
163360.217053,-7105.977043,-17838.963202,-3677.258390
163360.217372,-9474.636058,-14878.139434,-6128.763984
163360.217691,-7994.224174,-13989.892304,-6741.640382
163360.218010,-888.247130,-12805.562797,-76.609550
163360.218329,7031.956449,-8142.265362,4519.963438
163360.218648,11177.109724,-2960.823768,8503.660028
163360.218967,11177.109724,0.000000,7277.907231
163360.219286,3997.112087,-666.185348,919.314598
163360.219605,370.102971,-5033.400406,-2451.505594
163360.219924,-1702.473667,-10658.965565,-4290.134789
163360.220243,-4737.318029,-15470.304188,-3677.258390
163360.220562,-7105.977043,-16654.633695,-4979.620737
163360.220881,-10658.965565,-16654.633695,-4903.011187
163360.221200,-6883.915261,-14582.057057,-3753.867940
163360.221519,-666.185348,-12435.459826,995.924147
163360.221838,3478.967927,-6513.812290,1455.581446
163360.222157,8586.388927,-4663.297435,8810.098227
163360.222477,8364.327145,1258.350101,7354.516781
163360.222796,5255.462188,1258.350101,3217.601092
163360.223115,1850.514855,-3256.906145,-1149.143247
163360.223434,-2368.659014,-9548.656652,-3370.820191
163360.223753,-4737.318029,-13693.809927,-4903.011187
163360.224072,-7994.224174,-17246.798449,-4903.011187
163360.224391,-9474.636058,-19023.292709,-3677.258390
163360.224710,-7772.162391,-16580.613101,-5056.230287
163360.225029,-5921.647536,-9548.656652,-4903.011187
163360.225348,3478.967927,-8808.450710,2834.553343
163360.225667,8216.285956,-4663.297435,8197.221829
163360.225986,9178.553681,-518.144159,8273.831378
163360.226305,7624.121203,0.000000,4826.401637
163360.226624,2294.638420,-2368.659014,-76.609550
163360.226943,-3108.864956,-7846.182985,-4443.353888
163360.227262,-6513.812290,-13101.645173,-4903.011187
163360.227581,-4737.318029,-18283.086767,-2451.505594
163360.227900,-7550.100608,-17838.963202,-3983.696590
163360.228219,-9474.636058,-14285.974681,-5822.325785
163360.228538,-4441.235652,-12879.583391,-2834.553343
163360.228857,1332.370696,-9474.636058,1532.190996
163360.229176,6661.853478,-5403.503377,7048.078582
163360.229495,9400.615463,-2368.659014,6665.030833
163360.229814,6439.791695,518.144159,6052.154434
163360.230133,4071.132681,0.000000,-76.609550
163360.230452,0.000000,-5995.668130,-1838.629195
163360.230771,-518.144159,-12953.603985,-2451.505594
163360.231090,-6513.812290,-15470.304188,-4903.011187
163360.231409,-8142.265362,-18061.024985,-4979.620737
163360.231728,-10584.944971,-16728.654289,-6052.154434
163360.232047,-7476.080014,-13989.892304,-4903.011187
163360.232366,-222.061783,-10214.842000,-383.047749
163360.232685,7105.977043,-7624.121203,5515.887586
163360.233004,9474.636058,-2442.679609,8886.707777
163360.233323,9104.533087,592.164754,5745.716235
163360.233642,2368.659014,592.164754,-689.485948
163360.233961,-3552.988522,-3627.009116,-4903.011187
163360.234280,-2442.679609,-11547.212695,-5132.839837
163360.234599,-4737.318029,-16802.674883,-4290.134789
163360.234919,-6957.935855,-18875.251521,-4749.792088
163360.235238,-9104.533087,-17172.777854,-5286.058936
163360.235557,-4811.338623,-16580.613101,-2528.115143
163360.235876,518.144159,-11473.192101,383.047749
163360.236195,6291.750507,-6883.915261,5898.935335
163360.236514,7105.977043,-74.020594,7354.516781
163360.236833,8882.471304,1110.308913,8120.612279
163360.237152,5847.626942,1184.329507,1149.143247
163360.237471,1480.411884,-4737.318029,-1915.238745
163360.237790,-1184.329507,-11029.068536,-2681.334243
163360.238109,-3849.070898,-15618.345376,-3600.648841
163360.238428,-7105.977043,-17542.880825,-4060.306139
163360.238747,-11251.130318,-16950.716072,-4290.134789
163360.239066,-8956.491898,-14952.160028,-5515.887586
163360.239385,-2516.700203,-12361.439231,-1762.019645
163360.239704,4145.153275,-8586.388927,4213.525239
163360.240023,7105.977043,-2590.720797,7354.516781
163360.240342,7328.038826,666.185348,6741.640382
163360.240661,4367.215058,1332.370696,1455.581446
163360.240980,-1184.329507,-2738.761985,-2451.505594
163360.241299,-2960.823768,-9548.656652,-3677.258390
163360.241618,-2442.679609,-17172.777854,-2528.115143
163360.241937,-6513.812290,-18579.169144,-2987.772442
163360.242256,-8882.471304,-17172.777854,-5056.230287
163360.242575,-7772.162391,-15248.242405,-5515.887586
163360.242894,-2664.741391,-12509.480420,-2374.896044
163360.243213,3478.967927,-8660.409521,3677.258390
163360.243532,7402.059420,-5477.523971,8273.831378
163360.243851,9252.574275,-592.164754,9116.536426
163360.244170,7031.956449,1184.329507,2374.896044
163360.244489,518.144159,-1332.370696,-1991.848295
163360.244808,-74.020594,-8882.471304,-3753.867940
163360.245127,-1924.535449,-14434.015869,-2298.286494
163360.245446,-4959.379811,-16210.510130,-3064.381992
163360.245765,-8586.388927,-16876.695478,-4596.572988
163360.246084,-9400.615463,-15396.283594,-4979.620737
163360.246403,-4441.235652,-13397.727550,-1532.190996
163360.246722,4071.132681,-9474.636058,3983.696590
163360.247042,11769.274478,-7105.977043,9729.412825
163360.247361,9400.615463,-518.144159,7890.783629
163360.247680,5477.523971,1110.308913,2451.505594
163360.247999,1110.308913,-1184.329507,-3140.991542
163360.248318,-3701.029710,-7624.121203,-5132.839837
163360.248637,-5329.482782,-14285.974681,-5822.325785
163360.248956,-7624.121203,-17987.004391,-5515.887586
163360.249275,-7476.080014,-18949.272115,-3753.867940
163360.249594,-7179.997637,-17246.798449,-5822.325785
163360.249913,-4737.318029,-12213.398043,-2298.286494
163360.250232,3997.112087,-10362.883188,3370.820191
163360.250551,10584.944971,-7698.141797,9729.412825
163360.250870,7105.977043,-74.020594,9806.022374
163360.251189,7624.121203,1924.535449,5286.058936
163360.251508,2960.823768,-592.164754,306.438199
163360.251827,-592.164754,-6883.915261,-3753.867940
163360.252146,-3108.864956,-13175.665768,-5056.230287
163360.252465,-4811.338623,-17246.798449,-4979.620737
163360.252784,-8882.471304,-17838.963202,-5898.935335
163360.253103,-9474.636058,-16062.468941,-5822.325785
163360.253422,-6513.812290,-12509.480420,-2451.505594
163360.253741,2960.823768,-10658.965565,3677.258390
163360.254060,8290.306550,-5403.503377,9193.145976
163360.254379,12435.459826,-1702.473667,10955.165621
163360.254698,9030.512492,1776.494261,7584.345430
163360.255017,2886.803174,370.102971,1072.533697
163360.255336,-2368.659014,-4811.338623,-6128.763984
163360.255655,-5995.668130,-11917.315666,-8503.660028
163360.255974,-9178.553681,-17394.839637,-7660.954980
163360.256293,-11843.295072,-17838.963202,-7354.516781
163360.256612,-8808.450710,-18949.272115,-5592.497135
163360.256931,-5403.503377,-15988.448347,-3140.991542
163360.257250,0.000000,-11325.150913,1991.848295
163360.257569,7550.100608,-6513.812290,7048.078582
163360.257888,11177.109724,-2812.782580,10265.679673
163360.258207,9992.780217,1184.329507,8886.707777
163360.258526,4737.318029,3478.967927,1225.752797
163360.258845,0.000000,-1702.473667,-2374.896044
163360.259165,-1258.350101,-11251.130318,-4979.620737
163360.259484,-6809.894666,-15026.180623,-7201.297681
163360.259803,-8290.306550,-18135.045579,-9806.022374
163360.260122,-7772.162391,-18949.272115,-4979.620737
163360.260441,-7402.059420,-16654.633695,-4596.572988
163360.260760,-592.164754,-12509.480420,-153.219100
163360.261079,7476.080014,-8290.306550,6358.592633
163360.261398,12879.583391,-3034.844362,11568.042020
163360.261717,9474.636058,2886.803174,8810.098227
163360.262036,7920.203579,2368.659014,4826.401637
163360.262355,666.185348,-222.061783,-1685.410096
163360.262674,-3849.070898,-7476.080014,-7354.516781
163360.262993,-8290.306550,-15618.345376,-6128.763984
163360.263312,-7476.080014,-18949.272115,-7737.564530
163360.263631,-10658.965565,-19615.457463,-6588.421283
163360.263950,-9252.574275,-15914.427753,-6741.640382
163360.264269,-5107.421000,-13027.624579,-2757.943793
163360.264588,4071.132681,-10658.965565,5286.058936
163360.264907,8808.450710,-5921.647536,9422.974625
163360.265226,10584.944971,0.000000,9729.412825
163360.265545,6735.874072,2368.659014,4826.401637
163360.265864,1184.329507,1702.473667,0.000000
163360.266183,-2368.659014,-6587.832884,-4903.011187
163360.266502,-2442.679609,-13027.624579,-5592.497135
163360.266821,-5329.482782,-16728.654289,-5362.668486
163360.267140,-7994.224174,-18505.148550,-5362.668486
163360.267459,-8438.347739,-17394.839637,-6511.811733
163360.267778,-2442.679609,-15988.448347,-1302.362347
163360.268097,3997.112087,-11843.295072,2987.772442
163360.268416,10584.944971,-8512.368333,10572.117872
163360.268735,10584.944971,-2960.823768,9729.412825
163360.269054,6217.729913,3034.844362,6435.202183
163360.269373,0.000000,2294.638420,0.000000
163360.269692,-1850.514855,-4737.318029,-3217.601092
163360.270011,-4811.338623,-11325.150913,-4826.401637
163360.270330,-6291.750507,-15100.201217,-4290.134789
163360.270649,-8438.347739,-17764.942608,-5132.839837
163360.270969,-7179.997637,-18949.272115,-4979.620737
163360.271288,-8290.306550,-13693.809927,-4290.134789
163360.271607,1110.308913,-13027.624579,1762.019645
163360.271926,6883.915261,-8290.306550,7277.907231
163360.272245,9400.615463,-5625.565159,10112.460574
163360.272564,4959.379811,2886.803174,3370.820191
163360.272883,4441.235652,222.061783,1149.143247
163360.273202,-740.205942,-4811.338623,-3294.210641
163360.273521,-3108.864956,-11177.109724,-5286.058936
163360.273840,-5403.503377,-15988.448347,-4979.620737
163360.274159,-5921.647536,-18801.230927,-4366.744339
163360.274478,-8364.327145,-15692.365970,-7431.126331
163360.274797,-7105.977043,-14285.974681,-4903.011187
163360.275116,1776.494261,-13545.768739,2451.505594
163360.275435,7254.018232,-6587.832884,6128.763984
163360.275754,10140.821405,-4219.173869,10342.289223
163360.276073,9104.533087,0.000000,8044.002729
163360.276392,5255.462188,1110.308913,3217.601092
163360.276711,-518.144159,-3404.947333,-1685.410096
163360.277030,-2442.679609,-10658.965565,-3753.867940
163360.277350,-5921.647536,-14582.057057,-4903.011187
163360.277669,-7402.059420,-16654.633695,-5056.230287
163360.277988,-9400.615463,-16432.571912,-5822.325785
163360.278307,-8660.409521,-14656.077652,-3447.429741
163360.278626,-3552.988522,-11917.315666,-1532.190996
163360.278945,2516.700203,-7179.997637,3064.381992
163360.279264,7105.977043,-5403.503377,9346.365076
163360.279583,7031.956449,-1036.288319,8503.660028
163360.279902,4441.235652,1702.473667,612.876398
163360.280221,2294.638420,-2368.659014,-1915.238745
163360.280540,-2812.782580,-8734.430116,-5132.839837
163360.280859,-4515.256246,-14804.118840,-5056.230287
163360.281178,-7031.956449,-17098.757260,-6205.373534
163360.281497,-7105.977043,-17838.963202,-5822.325785
163360.281816,-6069.688724,-16580.613101,-4443.353888
163360.282135,-2368.659014,-12065.356855,-1838.629195
163360.282454,7846.182985,-10881.027347,5209.449386
163360.282773,12139.377449,-7476.080014,12104.308868
163360.283092,7698.141797,1702.473667,7354.516781
163360.283411,7031.956449,1480.411884,5132.839837
163360.283730,1924.535449,-962.267725,-612.876398
163360.284050,-3256.906145,-6809.894666,-4136.915689
163360.284369,-5995.668130,-13027.624579,-5439.278036
163360.284688,-6661.853478,-16580.613101,-4979.620737
163360.285007,-7476.080014,-17616.901420,-5209.449386
163360.285326,-9178.553681,-14285.974681,-7660.954980
163360.285645,-7105.977043,-13101.645173,-3064.381992
163360.285964,2146.597232,-11325.150913,3524.039291
163360.286283,5921.647536,-4811.338623,6741.640382
163360.286602,8216.285956,-2516.700203,8810.098227
163360.286921,6217.729913,814.226536,4826.401637
163360.287240,2516.700203,222.061783,383.047749
163360.287559,-1258.350101,-4811.338623,-4366.744339
163360.287878,-3034.844362,-11769.274478,-6205.373534
163360.288197,-6661.853478,-15396.283594,-6205.373534
163360.288516,-10510.924376,-15766.386565,-7048.078582
163360.288835,-9178.553681,-16950.716072,-6128.763984
163360.289154,-3627.009116,-15840.407159,-2528.115143
163360.289473,592.164754,-10732.986159,2451.505594
163360.289792,9400.615463,-7179.997637,8350.440928
163360.290111,10214.842000,-3478.967927,9959.241474
163360.290431,8734.430116,592.164754,7354.516781
163360.290750,3182.885551,2442.679609,-383.047749
163360.291069,-74.020594,-5329.482782,-1302.362347
163360.291388,-3034.844362,-10658.965565,-5286.058936
163360.291707,-7105.977043,-15470.304188,-4903.011187
163360.292026,-9474.636058,-16654.633695,-6128.763984
163360.292345,-7179.997637,-18949.272115,-3753.867940
163360.292664,-6809.894666,-14285.974681,-4290.134789
163360.292983,0.000000,-12287.418637,689.485948
163360.293302,6217.729913,-7920.203579,6052.154434
163360.293621,8142.265362,-4145.153275,9346.365076
163360.293940,7624.121203,888.247130,6894.859482
163360.294259,5255.462188,518.144159,2528.115143
163360.294578,370.102971,-3627.009116,-2528.115143
163360.294897,-2738.761985,-9474.636058,-6511.811733
163360.295216,-7105.977043,-14952.160028,-6435.202183
163360.295535,-6291.750507,-18949.272115,-6205.373534
163360.295854,-9770.718434,-17246.798449,-6818.249932
163360.296173,-7624.121203,-14730.098246,-5362.668486
163360.296492,0.000000,-12435.459826,-689.485948
163360.296811,9400.615463,-9252.574275,8810.098227
163360.297131,11029.068536,-5403.503377,12257.527968
163360.297450,10288.862594,0.000000,9806.022374
163360.297769,7402.059420,0.000000,4826.401637
163360.298088,814.226536,-2812.782580,-2528.115143
163360.298407,-6365.771101,-7179.997637,-7354.516781
163360.298726,-4811.338623,-15988.448347,-4979.620737
163360.299045,-6883.915261,-17542.880825,-5286.058936
163360.299364,-7550.100608,-17542.880825,-5056.230287
163360.299683,-7328.038826,-14730.098246,-3907.087040
163360.300002,-1924.535449,-13693.809927,1149.143247
163360.300321,4885.359217,-8956.491898,2757.943793
163360.300640,7698.141797,-4811.338623,8886.707777
163360.300959,9104.533087,-2664.741391,9729.412825
163360.301278,6439.791695,0.000000,6665.030833
163360.301597,0.000000,-74.020594,-3064.381992
163360.301916,-2442.679609,-8882.471304,-4366.744339
163360.302235,-5921.647536,-13619.789333,-6588.421283
163360.302554,-8734.430116,-16728.654289,-6511.811733
163360.302873,-9770.718434,-17468.860231,-7201.297681
163360.303192,-8882.471304,-16210.510130,-5056.230287
163360.303512,-5625.565159,-12213.398043,-3370.820191
163360.303831,3849.070898,-9844.739029,4136.915689
163360.304150,9474.636058,-4811.338623,8580.269578
163360.304469,10955.047942,-3108.864956,11874.480219
163360.304788,4737.318029,3478.967927,5515.887586
163360.305107,2812.782580,-518.144159,-76.609550
163360.305426,-1998.556043,-7254.018232,-3830.477490
163360.305745,-4219.173869,-13767.830521,-5439.278036
163360.306064,-6883.915261,-15322.262999,-6358.592633
163360.306383,-7179.997637,-17468.860231,-5592.497135
163360.306702,-8586.388927,-15618.345376,-5822.325785
163360.307021,-7105.977043,-11917.315666,-3677.258390
163360.307340,1480.411884,-11177.109724,3370.820191
163360.307659,11177.109724,-8290.306550,9729.412825
163360.307978,7698.141797,-2442.679609,9806.022374
163360.308297,7624.121203,1184.329507,7201.297681
163360.308616,3182.885551,1036.288319,1532.190996
163360.308935,-518.144159,-4737.318029,-2911.162892
163360.309254,-4811.338623,-10288.862594,-7814.174080
163360.309573,-7105.977043,-16802.674883,-6052.154434
163360.309893,-10140.821405,-17616.901420,-8197.221829
163360.310212,-11251.130318,-17246.798449,-7354.516781
163360.310531,-6735.874072,-14285.974681,-7201.297681
163360.310850,0.000000,-11325.150913,0.000000
163360.311169,8512.368333,-7846.182985,6894.859482
163360.311488,10510.924376,-3034.844362,9882.631924
163360.311807,8882.471304,888.247130,7967.393179
163360.312126,4663.297435,1110.308913,766.095498
163360.312445,1702.473667,-4737.318029,-3064.381992
163360.312764,-2960.823768,-11325.150913,-3983.696590
163360.313083,-4811.338623,-16580.613101,-5592.497135
163360.313402,-6809.894666,-18949.272115,-4979.620737
163360.313721,-8882.471304,-16950.716072,-4903.011187
163360.314040,-8734.430116,-13101.645173,-6435.202183
163360.314359,-740.205942,-13027.624579,-229.828649
163360.314678,6291.750507,-8438.347739,6358.592633
163360.314997,9548.656652,-4071.132681,9806.022374
163360.315316,11473.192101,0.000000,9729.412825
163360.315635,6587.832884,2368.659014,3753.867940
163360.315954,296.082377,-1554.432478,-1532.190996
163360.316273,-4145.153275,-7772.162391,-3677.258390
163360.316593,-3997.112087,-15840.407159,-3753.867940
163360.316912,-9400.615463,-15174.221811,-7967.393179
163360.317231,-9548.656652,-18283.086767,-6818.249932
163360.317550,-9326.594869,-15914.427753,-6205.373534
163360.317869,-3997.112087,-13397.727550,-2528.115143
163360.318188,3404.947333,-9622.677246,3447.429741
163360.318507,8882.471304,-8290.306550,9729.412825
163360.318826,7402.059420,-74.020594,7431.126331
163360.319145,5551.544565,2072.576638,3830.477490
163360.319464,814.226536,-1776.494261,-1149.143247
163360.319783,-3256.906145,-7179.997637,-4290.134789
163360.320102,-5181.441594,-13989.892304,-3447.429741
163360.320421,-6439.791695,-15766.386565,-4903.011187
163360.320740,-7105.977043,-17024.736666,-4290.134789
163360.321059,-8882.471304,-14582.057057,-4903.011187
163360.321378,-2442.679609,-13027.624579,-2528.115143
163360.321697,5255.462188,-11843.295072,4213.525239
163360.322016,7698.141797,-7179.997637,7431.126331
163360.322335,8882.471304,-2146.597232,9499.584175
163360.322654,7031.956449,1628.453072,4749.792088
163360.322974,1998.556043,-962.267725,1608.800546
163360.323293,-740.205942,-6069.688724,-3064.381992
163360.323612,-4145.153275,-11843.295072,-4826.401637
163360.323931,-8290.306550,-14285.974681,-6128.763984
163360.324250,-9474.636058,-16654.633695,-5975.544884
163360.324569,-10732.986159,-14508.036463,-8120.612279
163360.324888,-5773.606348,-14359.995275,-3753.867940
163360.325207,1850.514855,-11029.068536,1991.848295
163360.325526,7994.224174,-6735.874072,7124.688131
163360.325845,9030.512492,-2294.638420,8810.098227
163360.326164,7920.203579,0.000000,6052.154434
163360.326483,2886.803174,0.000000,-76.609550
163360.326802,-1258.350101,-5181.441594,-5286.058936
163360.327121,-4737.318029,-12509.480420,-4903.011187
163360.327440,-5255.462188,-17394.839637,-3983.696590
163360.327759,-8586.388927,-15470.304188,-6741.640382
163360.328078,-7772.162391,-16950.716072,-5592.497135
163360.328397,-4737.318029,-13841.851115,-3753.867940
163360.328716,1776.494261,-11769.274478,1532.190996
163360.329035,9400.615463,-8290.306550,8503.660028
163360.329354,11769.274478,-4737.318029,11414.822920
163360.329674,10584.944971,0.000000,8963.317327
163360.329993,6439.791695,296.082377,2374.896044
163360.330312,518.144159,-4145.153275,-1302.362347
163360.330631,-3256.906145,-10732.986159,-3064.381992
163360.330950,-6439.791695,-13989.892304,-5515.887586
163360.331269,-7772.162391,-17690.922014,-5745.716235
163360.331588,-9548.656652,-17616.901420,-6435.202183
163360.331907,-8364.327145,-15396.283594,-4903.011187
163360.332226,-1258.350101,-13027.624579,-689.485948
163360.332545,3849.070898,-8364.327145,4903.011187
163360.332864,8290.306550,-4515.256246,9499.584175
163360.333183,9400.615463,0.000000,9729.412825
163360.333502,6439.791695,1184.329507,3600.648841
