#time,accel_x,accel_y,accel_z
163438.670122,814.226536,-10584.944971,1149.143247
163438.670442,1110.308913,-9474.636058,-76.609550
163438.670761,-1184.329507,-8512.368333,0.000000
163438.671080,0.000000,-7179.997637,0.000000
163438.671400,2294.638420,-10658.965565,2374.896044
163438.671719,0.000000,-9548.656652,306.438199
163438.672038,-666.185348,-9178.553681,0.000000
163438.672358,-888.247130,-9400.615463,-536.266849
163438.672677,-666.185348,-9104.533087,0.000000
163438.672996,-74.020594,-8142.265362,-612.876398
163438.673316,-74.020594,-9474.636058,766.095498
163438.673635,-74.020594,-9252.574275,-76.609550
163438.673954,-74.020594,-9474.636058,-1302.362347
163438.674274,-1332.370696,-8956.491898,-1532.190996
163438.674593,1998.556043,-11251.130318,-76.609550
163438.674912,-1628.453072,-9030.512492,-919.314598
163438.675232,-666.185348,-9770.718434,-612.876398
163438.675551,-222.061783,-9548.656652,-689.485948
163438.675870,0.000000,-9844.739029,612.876398
163438.676190,0.000000,-9548.656652,0.000000
163438.676509,0.000000,-9844.739029,0.000000
163438.676828,2294.638420,-11843.295072,-76.609550
163438.677148,-370.102971,-8956.491898,-612.876398
163438.677467,-814.226536,-7846.182985,-1608.800546
163438.677786,2294.638420,-11251.130318,1149.143247
163438.678106,148.041188,-8586.388927,0.000000
163438.678425,296.082377,-9252.574275,459.657299
163438.678744,74.020594,-8438.347739,306.438199
163438.679064,0.000000,-9548.656652,1225.752797
163438.679383,-2072.576638,-8734.430116,-1302.362347
163438.679702,-2368.659014,-7772.162391,0.000000
163438.680022,-148.041188,-9474.636058,842.705048
163438.680341,-74.020594,-9474.636058,-76.609550
163438.680660,-370.102971,-8142.265362,-1149.143247
163438.680980,-74.020594,-10066.800811,536.266849
163438.681299,-962.267725,-8808.450710,0.000000
163438.681618,-962.267725,-9474.636058,-536.266849
163438.681937,0.000000,-8882.471304,-1302.362347
163438.682257,-3256.906145,-8364.327145,-995.924147
163438.682576,-666.185348,-9474.636058,-1302.362347
163438.682895,-1184.329507,-9548.656652,-1455.581446
163438.683215,888.247130,-11177.109724,1455.581446
163438.683534,-74.020594,-9844.739029,-1225.752797
163438.683853,-74.020594,-7994.224174,-1302.362347
163438.684173,148.041188,-9696.697840,-536.266849
163438.684492,0.000000,-9696.697840,-689.485948
163438.684811,-222.061783,-9400.615463,-459.657299
163438.685131,-74.020594,-11251.130318,2374.896044
163438.685450,0.000000,-8364.327145,-995.924147
163438.685769,0.000000,-7772.162391,0.000000
163438.686089,370.102971,-10214.842000,919.314598
163438.686408,1702.473667,-11547.212695,1762.019645
163438.686727,-74.020594,-7254.018232,-1838.629195
163438.687047,1110.308913,-9474.636058,-76.609550
163438.687366,-592.164754,-9252.574275,0.000000
163438.687685,-814.226536,-9030.512492,-306.438199
163438.688005,-740.205942,-9104.533087,0.000000
163438.688324,148.041188,-11547.212695,2068.457845
163438.688643,-888.247130,-8660.409521,-2451.505594
163438.688963,0.000000,-10140.821405,1072.533697
163438.689282,-74.020594,-9474.636058,-842.705048
163438.689601,-1184.329507,-7772.162391,-2221.676944
163438.689921,-74.020594,-10658.965565,-76.609550
163438.690240,-1332.370696,-9548.656652,-766.095498
163438.690559,-814.226536,-9474.636058,-919.314598
163438.690879,-666.185348,-9474.636058,-612.876398
163438.691198,592.164754,-9992.780217,1225.752797
163438.691517,-1036.288319,-9252.574275,-229.828649
163438.691837,2294.638420,-10066.800811,-76.609550
163438.692156,-1036.288319,-8438.347739,-919.314598
163438.692475,-2368.659014,-7179.997637,-1838.629195
163438.692795,1110.308913,-11843.295072,1762.019645
163438.693114,0.000000,-9696.697840,689.485948
163438.693433,0.000000,-9252.574275,-306.438199
163438.693753,222.061783,-9474.636058,229.828649
163438.694072,148.041188,-9030.512492,612.876398
163438.694391,-1924.535449,-7179.997637,-2451.505594
163438.694711,-74.020594,-9474.636058,-76.609550
163438.695030,-666.185348,-8882.471304,0.000000
163438.695349,-1480.411884,-8956.491898,-536.266849
163438.695669,-518.144159,-8882.471304,153.219100
163438.695988,-74.020594,-10658.965565,-76.609550
163438.696307,0.000000,-10288.862594,2451.505594
163438.696627,-74.020594,-9474.636058,-76.609550
163438.696946,-1036.288319,-8142.265362,-1302.362347
163438.697265,-1184.329507,-8956.491898,459.657299
163438.697584,-3552.988522,-6587.832884,-3370.820191
163438.697904,-444.123565,-9696.697840,-383.047749
163438.698223,-592.164754,-9326.594869,-919.314598
163438.698542,-518.144159,-9548.656652,-842.705048
163438.698862,-74.020594,-9474.636058,-1302.362347
163438.699181,222.061783,-9400.615463,-995.924147
163438.699500,1554.432478,-10658.965565,-76.609550
163438.699820,-518.144159,-8660.409521,-689.485948
163438.700139,-2368.659014,-7772.162391,-2145.067394
163438.700458,0.000000,-9548.656652,1532.190996
163438.700778,-888.247130,-7772.162391,-1378.971896
163438.701097,0.000000,-9400.615463,612.876398
163438.701416,444.123565,-9474.636058,76.609550
163438.701736,296.082377,-9252.574275,0.000000
163438.702055,666.185348,-7476.080014,-229.828649
163438.702374,-222.061783,-8660.409521,383.047749
163438.702694,0.000000,-8956.491898,0.000000
163438.703013,0.000000,-9918.759623,1225.752797
163438.703332,-74.020594,-9474.636058,-76.609550
163438.703652,0.000000,-9548.656652,1532.190996
163438.703971,-740.205942,-8882.471304,-383.047749
163438.704290,-666.185348,-9400.615463,0.000000
163438.704610,-1258.350101,-8364.327145,-842.705048
163438.704929,-1258.350101,-8956.491898,-2145.067394
163438.705248,-370.102971,-8586.388927,-3140.991542
163438.705568,-962.267725,-9474.636058,-689.485948
163438.705887,0.000000,-8364.327145,0.000000
163438.706206,-74.020594,-9474.636058,-689.485948
163438.706526,74.020594,-9474.636058,-76.609550
163438.706845,1184.329507,-9548.656652,612.876398
163438.707164,2220.617826,-8956.491898,-459.657299
163438.707484,1998.556043,-9770.718434,-459.657299
163438.707803,1702.473667,-9474.636058,-842.705048
163438.708122,222.061783,-8068.244768,-2221.676944
163438.708442,4071.132681,-10881.027347,-76.609550
163438.708761,4071.132681,-10066.800811,-383.047749
163438.709080,3552.988522,-8660.409521,229.828649
163438.709400,2368.659014,-7179.997637,0.000000
163438.709719,7031.956449,-11251.130318,3600.648841
163438.710038,4737.318029,-8364.327145,612.876398
163438.710358,5847.626942,-8734.430116,689.485948
163438.710677,4959.379811,-9178.553681,766.095498
163438.710996,5255.462188,-9030.512492,229.828649
163438.711316,4959.379811,-8882.471304,-919.314598
163438.711635,4737.318029,-9622.677246,-76.609550
163438.711954,4663.297435,-9474.636058,-689.485948
163438.712274,5847.626942,-9474.636058,-1915.238745
163438.712593,5255.462188,-8438.347739,-1915.238745
163438.712912,9400.615463,-11843.295072,-76.609550
163438.713232,6513.812290,-9548.656652,0.000000
163438.713551,6439.791695,-10066.800811,0.000000
163438.713870,4367.215058,-11769.274478,-689.485948
163438.714189,2368.659014,-11917.315666,0.000000
163438.714509,0.000000,-10140.821405,0.000000
163438.714828,2516.700203,-11399.171507,612.876398
163438.715147,5847.626942,-11843.295072,1762.019645
163438.715467,3552.988522,-6661.853478,-689.485948
163438.715786,4367.215058,-5329.482782,-689.485948
163438.716105,6143.709319,-7105.977043,995.924147
163438.716425,4367.215058,-5773.606348,-2145.067394
163438.716744,4219.173869,-8068.244768,-2068.457845
163438.717063,4441.235652,-9918.759623,-2145.067394
163438.717383,2368.659014,-11029.068536,0.000000
163438.717702,2368.659014,-15396.283594,-76.609550
163438.718021,1184.329507,-13249.686362,1225.752797
163438.718341,2368.659014,-13471.748144,3294.210641
163438.718660,4663.297435,-11695.253884,4213.525239
163438.718979,3478.967927,-5921.647536,-1302.362347
163438.719299,1258.350101,-4811.338623,0.000000
163438.719618,1628.453072,-5329.482782,-229.828649
163438.719937,2072.576638,-6587.832884,76.609550
163438.720257,222.061783,-7476.080014,-383.047749
163438.720576,-3775.050304,-7772.162391,-995.924147
163438.720895,-1850.514855,-11103.089130,-76.609550
163438.721215,-814.226536,-9918.759623,-76.609550
163438.721534,1110.308913,-7846.182985,-1302.362347
163438.721853,296.082377,-8364.327145,0.000000
163438.722173,2294.638420,-10362.883188,-689.485948
163438.722492,148.041188,-10140.821405,229.828649
163438.722811,592.164754,-9548.656652,-995.924147
163438.723131,-666.185348,-7624.121203,-3064.381992
163438.723450,-814.226536,-9474.636058,-3447.429741
163438.723769,-592.164754,-11029.068536,-3064.381992
163438.724089,2960.823768,-12731.542202,0.000000
163438.724408,5181.441594,-13323.706956,4213.525239
163438.724727,3775.050304,-10066.800811,2374.896044
163438.725047,814.226536,-5107.421000,0.000000
163438.725366,4071.132681,-7994.224174,842.705048
163438.725685,5921.647536,-8956.491898,2911.162892
163438.726005,7105.977043,-8438.347739,5362.668486
163438.726324,6365.771101,-7328.038826,4826.401637
163438.726643,4145.153275,-8068.244768,1455.581446
163438.726963,-1702.473667,-7179.997637,-8580.269578
163438.727282,-4441.235652,-11473.192101,-6741.640382
163438.727601,-1924.535449,-14063.912898,-4366.744339
163438.727921,-74.020594,-15692.365970,-1302.362347
163438.728240,-74.020594,-12435.459826,-1302.362347
163438.728559,1036.288319,-10436.903782,-1378.971896
163438.728879,6439.791695,-9474.636058,3064.381992
163438.729198,11473.192101,-7476.080014,7201.297681
163438.729517,12805.562797,-4589.276840,9959.241474
163438.729837,7105.977043,-2072.576638,4213.525239
163438.730156,7031.956449,-5329.482782,-76.609550
163438.730475,3182.885551,-9548.656652,-1685.410096
163438.730794,888.247130,-11325.150913,-2451.505594
163438.731114,-74.020594,-15100.201217,-3753.867940
163438.731433,-3256.906145,-14285.974681,-6128.763984
163438.731752,-1850.514855,-13915.871710,-7890.783629
163438.732072,1110.308913,-13249.686362,-3524.039291
163438.732391,4145.153275,-9992.780217,-689.485948
163438.732710,4737.318029,-6143.709319,0.000000
163438.733030,8808.450710,-7254.018232,2681.334243
163438.733349,8586.388927,-5107.421000,4443.353888
163438.733668,7550.100608,-4811.338623,4826.401637
163438.733988,6957.935855,-6883.915261,5286.058936
163438.734307,8808.450710,-9474.636058,4826.401637
163438.734626,5625.565159,-7772.162391,3064.381992
163438.734946,2886.803174,-11251.130318,-1608.800546
163438.735265,-2442.679609,-11325.150913,-5592.497135
163438.735584,-2960.823768,-14285.974681,-5286.058936
163438.735904,-5921.647536,-11917.315666,-7354.516781
163438.736223,-2442.679609,-13545.768739,-4673.182538
163438.736542,-1332.370696,-10436.903782,-2987.772442
163438.736862,0.000000,-8512.368333,-1608.800546
163438.737181,2886.803174,-8882.471304,-76.609550
163438.737500,2590.720797,-6883.915261,2374.896044
163438.737820,3552.988522,-6587.832884,4903.011187
163438.738139,2886.803174,-6513.812290,5745.716235
163438.738458,2294.638420,-7105.977043,1149.143247
163438.738778,-3552.988522,-7772.162391,1225.752797
163438.739097,-4737.318029,-8068.244768,-2757.943793
163438.739416,-4145.153275,-11103.089130,-3600.648841
163438.739736,-4811.338623,-12213.398043,-3753.867940
163438.740055,-5403.503377,-12065.356855,-2834.553343
163438.740374,-3923.091493,-12139.377449,-1915.238745
163438.740694,-1850.514855,-10362.883188,689.485948
163438.741013,-592.164754,-8364.327145,0.000000
163438.741332,-2368.659014,-6587.832884,2145.067394
163438.741652,-2442.679609,-7698.141797,1149.143247
163438.741971,-3552.988522,-7179.997637,2757.943793
163438.742290,-2738.761985,-7846.182985,689.485948
163438.742610,-3775.050304,-9030.512492,842.705048
163438.742929,-4441.235652,-8956.491898,76.609550
163438.743248,-3701.029710,-8364.327145,-2451.505594
163438.743568,-3627.009116,-7476.080014,-4290.134789
163438.743887,-3923.091493,-9178.553681,-2528.115143
163438.744206,-4219.173869,-9548.656652,-2987.772442
163438.744526,-3404.947333,-10140.821405,-1072.533697
163438.744845,-1184.329507,-12435.459826,2374.896044
163438.745164,0.000000,-9844.739029,2451.505594
163438.745484,-148.041188,-8068.244768,-383.047749
163438.745803,-1480.411884,-9252.574275,-383.047749
163438.746122,-1258.350101,-10140.821405,-383.047749
163438.746441,-1554.432478,-7476.080014,-1149.143247
163438.746761,-74.020594,-10362.883188,-76.609550
163438.747080,-666.185348,-9178.553681,-1915.238745
163438.747399,-2220.617826,-8364.327145,-2451.505594
163438.747719,0.000000,-8364.327145,0.000000
163438.748038,3478.967927,-11843.295072,2068.457845
163438.748357,740.205942,-9252.574275,0.000000
163438.748677,2368.659014,-9326.594869,842.705048
163438.748996,3182.885551,-9400.615463,2298.286494
163438.749316,4959.379811,-9622.677246,3524.039291
163438.749635,5995.668130,-8512.368333,2757.943793
163438.749954,3256.906145,-9474.636058,1685.410096
163438.750274,1110.308913,-10658.965565,0.000000
163438.750593,1554.432478,-12953.603985,-766.095498
163438.750912,-74.020594,-11843.295072,-2834.553343
163438.751232,-74.020594,-13027.624579,-1302.362347
163438.751551,-3552.988522,-7772.162391,-6052.154434
163438.751870,-74.020594,-8808.450710,-2451.505594
163438.752190,2368.659014,-7698.141797,-536.266849
163438.752509,3552.988522,-7179.997637,1225.752797
163438.752828,2368.659014,-6587.832884,1225.752797
163438.753148,2960.823768,-7772.162391,1225.752797
163438.753467,3552.988522,-11177.109724,3600.648841
163438.753786,4663.297435,-11843.295072,2068.457845
163438.754106,2590.720797,-8882.471304,-689.485948
163438.754425,1702.473667,-11843.295072,-76.609550
163438.754745,-2368.659014,-11695.253884,-2681.334243
163438.755064,-2368.659014,-12213.398043,-4060.306139
163438.755383,-3330.926739,-11547.212695,-3217.601092
163438.755703,-3552.988522,-7772.162391,-3677.258390
163438.756022,-2960.823768,-6143.709319,-4366.744339
163438.756341,-2072.576638,-5995.668130,0.000000
163438.756661,2664.741391,-6735.874072,2298.286494
163438.756980,2294.638420,-8290.306550,4826.401637
163438.757299,2294.638420,-6809.894666,2374.896044
163438.757619,222.061783,-8216.285956,3753.867940
163438.757938,-370.102971,-9770.718434,3140.991542
163438.758257,1406.391290,-9992.780217,3294.210641
163438.758577,148.041188,-10066.800811,1532.190996
163438.758896,-5921.647536,-9696.697840,-1608.800546
163438.759215,-5995.668130,-11843.295072,-4979.620737
163438.759535,-8808.450710,-11473.192101,-5592.497135
163438.759854,-8290.306550,-8956.491898,-7048.078582
163438.760174,-6809.894666,-8956.491898,-4903.011187
163438.760493,-4811.338623,-7698.141797,-3753.867940
163438.760812,-1554.432478,-6735.874072,383.047749
163438.761132,1702.473667,-6143.709319,2221.676944
163438.761451,3775.050304,-6439.791695,4136.915689
163438.761770,5255.462188,-9474.636058,7277.907231
163438.762090,2664.741391,-9918.759623,5439.278036
163438.762409,3034.844362,-10658.965565,5439.278036
163438.762728,3478.967927,-9474.636058,842.705048
163438.763048,-2368.659014,-9548.656652,-1838.629195
163438.763367,-6957.935855,-10732.986159,-4903.011187
163438.763686,-5403.503377,-13027.624579,-6205.373534
163438.764006,-5403.503377,-13027.624579,-5209.449386
163438.764325,-3849.070898,-10881.027347,-4213.525239
163438.764644,-2960.823768,-8586.388927,-2145.067394
163438.764964,2146.597232,-9474.636058,1762.019645
163438.765283,4367.215058,-5107.421000,1838.629195
163438.765603,7031.956449,-6513.812290,6052.154434
163438.765922,6439.791695,-5625.565159,5439.278036
163438.766241,4737.318029,-6957.935855,4826.401637
163438.766561,3478.967927,-9178.553681,3600.648841
163438.766880,2886.803174,-11103.089130,2681.334243
163438.767199,888.247130,-11103.089130,-766.095498
163438.767519,-3330.926739,-11621.233289,-3983.696590
163438.767838,-4811.338623,-14211.954086,-5745.716235
163438.768157,-7994.224174,-14211.954086,-6588.421283
163438.768477,-3923.091493,-12435.459826,-7124.688131
163438.768796,-3997.112087,-10732.986159,-5745.716235
163438.769115,-4737.318029,-7179.997637,-3677.258390
163438.769435,1702.473667,-5921.647536,-689.485948
163438.769754,5255.462188,-6809.894666,3524.039291
163438.770074,4885.359217,-5699.585753,4673.182538
163438.770393,6365.771101,-6365.771101,5822.325785
163438.770712,5181.441594,-7402.059420,6741.640382
163438.771032,2368.659014,-7179.997637,5515.887586
163438.771351,4145.153275,-10510.924376,2298.286494
163438.771670,1702.473667,-11029.068536,-2451.505594
163438.771990,-3701.029710,-13175.665768,-3907.087040
163438.772309,-6587.832884,-14804.118840,-6818.249932
163438.772628,-5625.565159,-15322.262999,-5056.230287
163438.772948,-5033.400406,-12509.480420,-5515.887586
163438.773267,-3849.070898,-9770.718434,-3140.991542
163438.773586,-1850.514855,-6957.935855,-1302.362347
163438.773906,888.247130,-5403.503377,1225.752797
163438.774225,3478.967927,-2664.741391,2987.772442
163438.774544,5329.482782,-4145.153275,6435.202183
163438.774864,4663.297435,-5033.400406,7201.297681
163438.775183,2516.700203,-7179.997637,5745.716235
163438.775503,3182.885551,-11251.130318,4213.525239
163438.775822,518.144159,-10658.965565,-76.609550
163438.776141,-5329.482782,-12805.562797,-3753.867940
163438.776461,-8660.409521,-14730.098246,-7354.516781
163438.776780,-8882.471304,-17246.798449,-8044.002729
163438.777099,-9474.636058,-13397.727550,-8580.269578
163438.777419,-4811.338623,-10362.883188,-5439.278036
163438.777738,-2442.679609,-8290.306550,-1378.971896
163438.778057,74.020594,-6217.729913,1532.190996
163438.778377,4219.173869,-3330.926739,4596.572988
163438.778696,7920.203579,-3552.988522,7890.783629
163438.779015,8216.285956,-4737.318029,9039.926876
163438.779335,5625.565159,-5403.503377,5209.449386
163438.779654,3552.988522,-9548.656652,5822.325785
163438.779973,2294.638420,-11843.295072,2374.896044
163438.780293,-3552.988522,-11325.150913,-2451.505594
163438.780612,-7179.997637,-13619.789333,-5822.325785
163438.780932,-10362.883188,-15100.201217,-9346.365076
163438.781251,-9400.615463,-15100.201217,-8810.098227
163438.781570,-5625.565159,-11399.171507,-7277.907231
163438.781890,-1258.350101,-10066.800811,-2834.553343
163438.782209,370.102971,-7105.977043,-76.609550
163438.782528,1036.288319,-1554.432478,1532.190996
163438.782848,4885.359217,-2442.679609,5209.449386
163438.783167,9400.615463,-4737.318029,9422.974625
163438.783486,5329.482782,-4811.338623,6435.202183
163438.783806,4367.215058,-8882.471304,5132.839837
163438.784125,1924.535449,-11991.336260,1685.410096
163438.784444,-222.061783,-12731.542202,-2451.505594
163438.784764,-4811.338623,-13619.789333,-7431.126331
163438.785083,-7772.162391,-16358.551318,-6971.469032
163438.785402,-6587.832884,-15988.448347,-8656.879127
163438.785722,-5107.421000,-13101.645173,-6588.421283
163438.786041,-74.020594,-10066.800811,-3753.867940
163438.786361,4441.235652,-9178.553681,3600.648841
163438.786680,1480.411884,-5403.503377,2604.724693
163438.786999,4663.297435,-1184.329507,4749.792088
163438.787319,6513.812290,-1924.535449,4596.572988
163438.787638,5847.626942,-5181.441594,6435.202183
163438.787957,5255.462188,-7550.100608,4903.011187
163438.788277,2960.823768,-11399.171507,4519.963438
163438.788596,1702.473667,-13619.789333,919.314598
163438.788915,-74.020594,-15396.283594,-2528.115143
163438.789235,-6883.915261,-14952.160028,-5898.935335
163438.789554,-8290.306550,-16580.613101,-6205.373534
163438.789873,-8142.265362,-13989.892304,-8044.002729
163438.790193,-5403.503377,-10510.924376,-4903.011187
163438.790512,-1258.350101,-8512.368333,-766.095498
163438.790831,0.000000,-5107.421000,612.876398
163438.791151,592.164754,-1258.350101,1225.752797
163438.791470,3108.864956,-1850.514855,1225.752797
163438.791790,2368.659014,-3923.091493,4903.011187
163438.792109,3478.967927,-8882.471304,3600.648841
163438.792428,2294.638420,-11251.130318,2374.896044
163438.792748,2294.638420,-13619.789333,2374.896044
163438.793067,518.144159,-13471.748144,-383.047749
163438.793386,-2590.720797,-12805.562797,-3677.258390
163438.793706,-6439.791695,-13841.851115,-4903.011187
163438.794025,-8290.306550,-11325.150913,-7967.393179
163438.794344,-5181.441594,-11843.295072,-5592.497135
163438.794664,-2072.576638,-9104.533087,-2911.162892
163438.794983,0.000000,-7476.080014,1532.190996
163438.795302,1184.329507,-4811.338623,4903.011187
163438.795622,4663.297435,-2368.659014,2987.772442
163438.795941,1776.494261,-3627.009116,3677.258390
163438.796260,1036.288319,-6217.729913,3140.991542
163438.796580,1258.350101,-8290.306550,3677.258390
163438.796899,888.247130,-9992.780217,2987.772442
163438.797219,0.000000,-11917.315666,1455.581446
163438.797538,-74.020594,-13027.624579,-383.047749
163438.797857,-5033.400406,-11103.089130,-3907.087040
163438.798177,-9474.636058,-11917.315666,-7354.516781
163438.798496,-7402.059420,-12361.439231,-7354.516781
163438.798815,-2442.679609,-11251.130318,-5592.497135
163438.799135,-1406.391290,-9622.677246,-306.438199
163438.799454,-296.082377,-7550.100608,1225.752797
163438.799773,962.267725,-5773.606348,1378.971896
163438.800093,3627.009116,-5255.462188,3600.648841
163438.800412,2960.823768,-4811.338623,3524.039291
163438.800731,2886.803174,-7698.141797,4596.572988
163438.801051,4663.297435,-9474.636058,3294.210641
163438.801370,1776.494261,-9844.739029,2451.505594
163438.801689,592.164754,-9548.656652,0.000000
163438.802009,1998.556043,-10658.965565,-995.924147
163438.802328,-2812.782580,-11695.253884,-3140.991542
163438.802648,-3923.091493,-12287.418637,-4826.401637
163438.802967,-3256.906145,-12805.562797,-5439.278036
163438.803286,592.164754,-12879.583391,-995.924147
163438.803606,-148.041188,-9252.574275,-1838.629195
163438.803925,2294.638420,-11251.130318,1149.143247
163438.804244,148.041188,-4811.338623,-1149.143247
163438.804564,592.164754,-5107.421000,0.000000
163438.804883,3478.967927,-8142.265362,-76.609550
163438.805202,2072.576638,-8364.327145,3140.991542
163438.805522,2960.823768,-8068.244768,4979.620737
163438.805841,4071.132681,-9030.512492,4903.011187
163438.806160,4663.297435,-10066.800811,4519.963438
163438.806480,0.000000,-9030.512492,-383.047749
163438.806799,-3627.009116,-11103.089130,-4979.620737
163438.807118,-6661.853478,-13101.645173,-6741.640382
163438.807438,-7698.141797,-11917.315666,-8427.050478
163438.807757,-3256.906145,-13027.624579,-4979.620737
163438.808077,-1702.473667,-12509.480420,-2604.724693
163438.808396,-1110.308913,-9770.718434,-1991.848295
163438.808715,1110.308913,-7105.977043,-153.219100
163438.809035,2294.638420,-6069.688724,2145.067394
163438.809354,592.164754,-3627.009116,3064.381992
163438.809673,4441.235652,-5995.668130,6128.763984
163438.809993,5625.565159,-6957.935855,8580.269578
163438.810312,7624.121203,-8290.306550,7890.783629
163438.810631,3478.967927,-7105.977043,2757.943793
163438.810951,-1776.494261,-8956.491898,306.438199
163438.811270,-5551.544565,-11251.130318,-4596.572988
163438.811589,-6217.729913,-13989.892304,-5745.716235
163438.811909,-6513.812290,-14359.995275,-6358.592633
163438.812228,-6809.894666,-13397.727550,-6741.640382
163438.812547,-4811.338623,-10362.883188,-5592.497135
163438.812867,-2960.823768,-8364.327145,-2145.067394
163438.813186,-888.247130,-6513.812290,-229.828649
163438.813506,666.185348,-5551.544565,1915.238745
163438.813825,3923.091493,-6143.709319,5056.230287
163438.814144,5847.626942,-6513.812290,7277.907231
163438.814464,4737.318029,-6587.832884,7660.954980
163438.814783,5551.544565,-8216.285956,7048.078582
163438.815102,2146.597232,-8882.471304,2374.896044
163438.815422,-5625.565159,-7772.162391,-4903.011187
163438.815741,-4811.338623,-13027.624579,-5745.716235
163438.816060,-5773.606348,-15100.201217,-5975.544884
163438.816380,-6217.729913,-14434.015869,-6205.373534
163438.816699,-5773.606348,-13175.665768,-5669.106685
163438.817018,-4219.173869,-11251.130318,-4979.620737
163438.817338,-2368.659014,-8290.306550,-3447.429741
163438.817657,-2368.659014,-6217.729913,-2681.334243
163438.817976,0.000000,-4811.338623,2451.505594
163438.818296,4145.153275,-5995.668130,6435.202183
163438.818615,4737.318029,-3034.844362,7354.516781
163438.818935,9548.656652,-6217.729913,9269.755526
163438.819254,6661.853478,-6143.709319,6281.983084
163438.819573,1628.453072,-7031.956449,1762.019645
163438.819893,-2812.782580,-9474.636058,-2834.553343
163438.820212,-3034.844362,-13619.789333,-6205.373534
163438.820531,-4811.338623,-17764.942608,-4979.620737
163438.820851,-5995.668130,-15396.283594,-6818.249932
163438.821170,-6439.791695,-12509.480420,-6971.469032
163438.821489,-3923.091493,-11695.253884,-4596.572988
163438.821809,-5921.647536,-6291.750507,-4903.011187
163438.822128,-592.164754,-6661.853478,-459.657299
163438.822447,2664.741391,-5921.647536,3524.039291
163438.822767,6957.935855,-4515.256246,6971.469032
163438.823086,9400.615463,-4737.318029,9729.412825
163438.823405,9400.615463,-5995.668130,8886.707777
163438.823725,6439.791695,-7105.977043,4826.401637
163438.824044,518.144159,-7920.203579,-689.485948
163438.824364,-2738.761985,-11843.295072,-5898.935335
163438.824683,-3552.988522,-16654.633695,-4443.353888
163438.825002,-5921.647536,-16062.468941,-6741.640382
163438.825322,-4811.338623,-15618.345376,-5439.278036
163438.825641,-3923.091493,-11917.315666,-5745.716235
163438.825960,-3108.864956,-9474.636058,-4443.353888
163438.826280,-370.102971,-5847.626942,-1532.190996
163438.826599,1480.411884,-6069.688724,3217.601092
163438.826918,5847.626942,-5921.647536,7354.516781
163438.827238,9400.615463,-3552.988522,8503.660028
163438.827557,7105.977043,-3034.844362,8733.488677
163438.827876,6735.874072,-8068.244768,9729.412825
163438.828196,1406.391290,-7476.080014,1302.362347
163438.828515,-3330.926739,-10732.986159,-2987.772442
163438.828834,-5181.441594,-14359.995275,-6588.421283
163438.829154,-7994.224174,-16062.468941,-9806.022374
163438.829473,-8882.471304,-14285.974681,-7967.393179
163438.829793,-7105.977043,-13175.665768,-8044.002729
163438.830112,-7105.977043,-9844.739029,-6128.763984
163438.830431,-3552.988522,-7476.080014,-3447.429741
163438.830751,-74.020594,-8290.306550,-76.609550
163438.831070,1776.494261,-5107.421000,4749.792088
163438.831389,4959.379811,-3404.947333,7124.688131
163438.831709,8364.327145,-2960.823768,8810.098227
163438.832028,7920.203579,-5329.482782,8120.612279
163438.832347,2368.659014,-4811.338623,3064.381992
163438.832667,-518.144159,-8290.306550,-76.609550
163438.832986,-4737.318029,-11621.233289,-5286.058936
163438.833305,-6513.812290,-15618.345376,-7354.516781
163438.833625,-9474.636058,-16654.633695,-7967.393179
163438.833944,-4811.338623,-16580.613101,-5592.497135
163438.834263,-5329.482782,-12657.521608,-4596.572988
163438.834583,-3923.091493,-8734.430116,-2757.943793
163438.834902,-3330.926739,-6587.832884,-766.095498
163438.835222,592.164754,-2590.720797,3600.648841
163438.835541,3478.967927,-3034.844362,7124.688131
163438.835860,8808.450710,-2368.659014,9729.412825
163438.836180,7846.182985,-3701.029710,8503.660028
163438.836499,2960.823768,-3627.009116,3217.601092
163438.836818,0.000000,-6587.832884,0.000000
163438.837138,-666.185348,-11843.295072,-3753.867940
163438.837457,-5477.523971,-15322.262999,-6894.859482
163438.837776,-6883.915261,-16654.633695,-7890.783629
163438.838096,-7994.224174,-17098.757260,-8044.002729
163438.838415,-5477.523971,-16654.633695,-4596.572988
163438.838734,-3256.906145,-11473.192101,-4749.792088
163438.839054,-2442.679609,-7402.059420,-3064.381992
163438.839373,1110.308913,-8290.306550,1762.019645
163438.839692,4367.215058,-4293.194464,3600.648841
163438.840012,6365.771101,-74.020594,5515.887586
163438.840331,10584.944971,-2960.823768,9729.412825
163438.840651,9178.553681,-4663.297435,8656.879127
163438.840970,6143.709319,-6439.791695,4826.401637
163438.841289,962.267725,-8438.347739,229.828649
163438.841609,-2664.741391,-13471.748144,-2604.724693
163438.841928,-4811.338623,-15174.221811,-9193.145976
163438.842247,-6513.812290,-18431.127956,-6435.202183
163438.842567,-6735.874072,-16580.613101,-6358.592633
163438.842886,-4811.338623,-15988.448347,-3753.867940
163438.843205,-1850.514855,-9474.636058,-3753.867940
163438.843525,-2072.576638,-6661.853478,-842.705048
163438.843844,1110.308913,-5477.523971,2298.286494
163438.844163,4959.379811,-3997.112087,6128.763984
163438.844483,9104.533087,-2738.761985,9652.803275
163438.844802,7179.997637,-4071.132681,8733.488677
163438.845121,7031.956449,-5033.400406,4673.182538
163438.845441,0.000000,-7179.997637,1532.190996
163438.845760,-4737.318029,-9548.656652,-2451.505594
163438.846080,-4811.338623,-15396.283594,-4979.620737
163438.846399,-5921.647536,-18135.045579,-6435.202183
163438.846718,-7698.141797,-16654.633695,-8197.221829
163438.847038,-5699.585753,-15026.180623,-6128.763984
163438.847357,-3108.864956,-11917.315666,-4366.744339
163438.847676,-4145.153275,-6587.832884,-4903.011187
163438.847996,-888.247130,-6143.709319,0.000000
163438.848315,4071.132681,-3997.112087,3677.258390
163438.848634,9400.615463,-6513.812290,8503.660028
163438.848954,6513.812290,-1258.350101,8656.879127
163438.849273,10066.800811,-7105.977043,10955.165621
163438.849592,5107.421000,-6365.771101,5056.230287
163438.849912,666.185348,-8364.327145,536.266849
163438.850231,-2886.803174,-11843.295072,-2757.943793
163438.850550,-5181.441594,-14285.974681,-6741.640382
163438.850870,-6587.832884,-14952.160028,-8350.440928
163438.851189,-7698.141797,-16432.571912,-6588.421283
163438.851508,-6291.750507,-13397.727550,-5056.230287
163438.851828,-4071.132681,-8734.430116,-3753.867940
163438.852147,-962.267725,-7402.059420,-612.876398
163438.852466,-74.020594,-8290.306550,2374.896044
163438.852786,1702.473667,-4737.318029,2221.676944
163438.853105,4737.318029,-3034.844362,6435.202183
163438.853424,7846.182985,-3701.029710,7354.516781
163438.853743,5329.482782,-7179.997637,7354.516781
163438.854063,296.082377,-7476.080014,689.485948
163438.854382,-1554.432478,-9474.636058,-2068.457845
163438.854701,-4737.318029,-12805.562797,-4903.011187
163438.855021,-5329.482782,-15618.345376,-6128.763984
163438.855340,-6291.750507,-17172.777854,-6511.811733
163438.855659,-6439.791695,-13915.871710,-5898.935335
163438.855979,-2368.659014,-12213.398043,-3294.210641
163438.856298,-74.020594,-9844.739029,-76.609550
163438.856617,1110.308913,-7105.977043,-76.609550
163438.856936,1184.329507,-4811.338623,4903.011187
163438.857256,3552.988522,-4219.173869,4596.572988
163438.857575,5847.626942,-4071.132681,7737.564530
163438.857894,6735.874072,-6957.935855,7354.516781
163438.858214,3552.988522,-8142.265362,4903.011187
163438.858533,-1184.329507,-6587.832884,0.000000
163438.858852,-3404.947333,-11103.089130,-2451.505594
163438.859172,-3775.050304,-15470.304188,-2451.505594
163438.859491,-4811.338623,-14211.954086,-5592.497135
163438.859810,-6143.709319,-14211.954086,-5209.449386
163438.860129,-4737.318029,-14137.933492,-2298.286494
163438.860449,-1702.473667,-9104.533087,-3064.381992
163438.860768,-962.267725,-7402.059420,-919.314598
163438.861087,-1036.288319,-6587.832884,-383.047749
163438.861407,0.000000,-4811.338623,0.000000
163438.861726,666.185348,-3627.009116,2757.943793
163438.862045,3552.988522,-3627.009116,6128.763984
163438.862365,6513.812290,-7920.203579,7737.564530
163438.862684,3478.967927,-7698.141797,3600.648841
163438.863003,1110.308913,-9474.636058,-76.609550
163438.863322,-888.247130,-11473.192101,-1532.190996
163438.863642,-2738.761985,-12731.542202,-4596.572988
163438.863961,-3923.091493,-14508.036463,-4903.011187
163438.864280,-5107.421000,-13471.748144,-4519.963438
163438.864600,-4589.276840,-10807.006753,-4366.744339
163438.864919,-74.020594,-10658.965565,-1915.238745
163438.865238,-1628.453072,-7105.977043,-1532.190996
163438.865558,0.000000,-7179.997637,0.000000
163438.865877,2072.576638,-8660.409521,3677.258390
163438.866196,5847.626942,-6809.894666,6052.154434
163438.866515,4885.359217,-6587.832884,7354.516781
163438.866835,5107.421000,-6661.853478,6052.154434
163438.867154,2590.720797,-6439.791695,2681.334243
163438.867473,-962.267725,-7994.224174,1149.143247
163438.867793,-2072.576638,-10214.842000,-2757.943793
163438.868112,-2738.761985,-13915.871710,-4826.401637
163438.868431,-3923.091493,-15840.407159,-3830.477490
163438.868751,-5107.421000,-15396.283594,-6205.373534
163438.869070,-5329.482782,-11917.315666,-8273.831378
163438.869389,-666.185348,-10658.965565,-4979.620737
163438.869708,-2664.741391,-8364.327145,-2681.334243
163438.870028,0.000000,-7920.203579,0.000000
163438.870347,2812.782580,-6439.791695,2757.943793
163438.870666,7254.018232,-6883.915261,8656.879127
163438.870986,7698.141797,-5995.668130,8886.707777
163438.871305,5921.647536,-5995.668130,7354.516781
163438.871624,4293.194464,-7105.977043,3907.087040
163438.871944,-666.185348,-9104.533087,-76.609550
163438.872263,-4293.194464,-9548.656652,-6128.763984
163438.872582,-2738.761985,-13323.706956,-4979.620737
163438.872901,-5107.421000,-14137.933492,-4673.182538
163438.873221,-4293.194464,-12805.562797,-4826.401637
163438.873540,-2960.823768,-10510.924376,-4290.134789
163438.873859,-1480.411884,-9844.739029,-2145.067394
163438.874179,-3552.988522,-6587.832884,-2451.505594
163438.874498,0.000000,-8438.347739,1991.848295
163438.874817,3478.967927,-7994.224174,5209.449386
163438.875136,7031.956449,-7105.977043,7890.783629
163438.875456,3552.988522,-3034.844362,4903.011187
163438.875775,4515.256246,-6809.894666,4826.401637
163438.876094,-222.061783,-7105.977043,153.219100
163438.876414,-3182.885551,-9844.739029,-3294.210641
163438.876733,-4219.173869,-13027.624579,-4979.620737
163438.877052,-5477.523971,-13915.871710,-4979.620737
163438.877372,-6883.915261,-14285.974681,-6435.202183
163438.877691,-4737.318029,-13027.624579,-5592.497135
163438.878010,-4737.318029,-9548.656652,-4903.011187
163438.878329,-2368.659014,-8364.327145,-1532.190996
163438.878649,-3404.947333,-5995.668130,-2145.067394
163438.878968,1628.453072,-8142.265362,2221.676944
163438.879287,4959.379811,-6513.812290,5975.544884
163438.879607,6661.853478,-5921.647536,7431.126331
163438.879926,8216.285956,-7105.977043,7277.907231
163438.880245,4663.297435,-7105.977043,5286.058936
163438.880565,0.000000,-7698.141797,-76.609550
163438.880884,-3849.070898,-8956.491898,-4136.915689
163438.881203,-4737.318029,-12287.418637,-4519.963438
163438.881522,-4737.318029,-13397.727550,-3064.381992
163438.881842,-4145.153275,-12509.480420,-4213.525239
163438.882161,-1406.391290,-10732.986159,-2987.772442
163438.882480,-2368.659014,-8512.368333,-2528.115143
163438.882800,-3034.844362,-7698.141797,-2145.067394
163438.883119,-74.020594,-9474.636058,-383.047749
163438.883438,1110.308913,-9400.615463,4213.525239
163438.883758,2294.638420,-7698.141797,3600.648841
163438.884077,2368.659014,-5995.668130,4290.134789
163438.884396,0.000000,-4811.338623,2451.505594
163438.884715,0.000000,-4811.338623,0.000000
163438.885035,-1110.308913,-9104.533087,-1762.019645
163438.885354,-3182.885551,-10807.006753,-4213.525239
163438.885673,-2960.823768,-12509.480420,-4826.401637
163438.885993,-370.102971,-14211.954086,-3753.867940
163438.886312,444.123565,-12805.562797,-2068.457845
163438.886631,0.000000,-9548.656652,-2145.067394
163438.886951,0.000000,-8660.409521,-3677.258390
163438.887270,-518.144159,-10214.842000,-76.609550
163438.887589,-1554.432478,-7254.018232,-3217.601092
163438.887908,2886.803174,-8586.388927,3600.648841
163438.888228,4663.297435,-7476.080014,5745.716235
163438.888547,5921.647536,-6587.832884,6281.983084
163438.888866,4441.235652,-5403.503377,4903.011187
163438.889186,2368.659014,-6587.832884,3064.381992
163438.889505,-2516.700203,-8068.244768,-3294.210641
163438.889824,-3997.112087,-10955.047942,-4826.401637
163438.890144,-4589.276840,-12657.521608,-5286.058936
163438.890463,-3330.926739,-13471.748144,-4903.011187
163438.890782,-3256.906145,-10881.027347,-4903.011187
163438.891101,-1258.350101,-10066.800811,-3753.867940
163438.891421,-5329.482782,-8956.491898,-3677.258390
163438.891740,-2368.659014,-9400.615463,-3370.820191
163438.892059,-74.020594,-9474.636058,1149.143247
163438.892379,3552.988522,-8956.491898,5822.325785
163438.892698,5033.400406,-6883.915261,5745.716235
163438.893017,5625.565159,-6143.709319,5592.497135
163438.893337,3923.091493,-5403.503377,3753.867940
163438.893656,0.000000,-5551.544565,-536.266849
163438.893975,-4737.318029,-8364.327145,-4903.011187
163438.894294,-4811.338623,-11843.295072,-5898.935335
163438.894614,-3923.091493,-14211.954086,-4979.620737
163438.894933,-1554.432478,-13915.871710,-4060.306139
163438.895252,2294.638420,-13619.789333,-2528.115143
163438.895572,-2738.761985,-10140.821405,-1532.190996
163438.895891,-3627.009116,-8956.491898,-2374.896044
163438.896210,-740.205942,-8882.471304,383.047749
163438.896530,1998.556043,-7994.224174,3677.258390
163438.896849,4441.235652,-5403.503377,7354.516781
163438.897168,4885.359217,-5107.421000,6894.859482
163438.897487,6439.791695,-7105.977043,7277.907231
163438.897807,1998.556043,-4737.318029,1762.019645
163438.898126,-3552.988522,-7328.038826,-2451.505594
163438.898445,-3627.009116,-11251.130318,-5592.497135
163438.898765,-7031.956449,-13397.727550,-5515.887586
163438.899084,-4589.276840,-14656.077652,-4596.572988
163438.899403,-2516.700203,-13545.768739,-3524.039291
163438.899723,-2146.597232,-12361.439231,-2681.334243
163438.900042,-5921.647536,-9844.739029,-2451.505594
163438.900361,-4737.318029,-8660.409521,-2451.505594
163438.900680,1998.556043,-9474.636058,2374.896044
163438.901000,4515.256246,-7105.977043,6665.030833
163438.901319,4737.318029,-4219.173869,4903.011187
163438.901638,8216.285956,-5921.647536,5745.716235
163438.901958,5033.400406,-5625.565159,4596.572988
163438.902277,1850.514855,-7179.997637,383.047749
163438.902596,-2368.659014,-10732.986159,-4060.306139
163438.902916,-4441.235652,-12805.562797,-4903.011187
163438.903235,-3627.009116,-13915.871710,-6205.373534
163438.903554,-3849.070898,-14285.974681,-4136.915689
163438.903873,-1776.494261,-11621.233289,-3830.477490
163438.904193,-3552.988522,-9548.656652,-1838.629195
163438.904512,-1258.350101,-10658.965565,-76.609550
163438.904831,-1776.494261,-7179.997637,0.000000
163438.905151,2368.659014,-7105.977043,4213.525239
163438.905470,5107.421000,-5403.503377,6971.469032
163438.905789,6439.791695,-4959.379811,7048.078582
163438.906109,5551.544565,-5181.441594,5362.668486
163438.906428,2886.803174,-7402.059420,2987.772442
163438.906747,-1850.514855,-9474.636058,-1302.362347
163438.907066,-5403.503377,-11843.295072,-6511.811733
163438.907386,-7920.203579,-13619.789333,-8733.488677
163438.907705,-3627.009116,-17764.942608,-3753.867940
163438.908024,-2590.720797,-13545.768739,-3907.087040
163438.908344,-962.267725,-10362.883188,-2374.896044
163438.908663,-1258.350101,-7772.162391,-1685.410096
163438.908982,0.000000,-7179.997637,612.876398
163438.909302,2368.659014,-5995.668130,2757.943793
163438.909621,5403.503377,-6735.874072,6128.763984
163438.909940,8808.450710,-8290.306550,7277.907231
163438.910259,5847.626942,-7105.977043,5132.839837
163438.910579,2886.803174,-6291.750507,2068.457845
163438.910898,-74.020594,-10066.800811,-76.609550
163438.911217,-4515.256246,-10955.047942,-4290.134789
163438.911537,-6735.874072,-12435.459826,-6435.202183
163438.911856,-5551.544565,-13619.789333,-5592.497135
163438.912175,-3552.988522,-13101.645173,-1838.629195
163438.912495,-1184.329507,-9622.677246,-1302.362347
163438.912814,-1850.514855,-5995.668130,-1225.752797
163438.913133,-1628.453072,-6587.832884,-612.876398
163438.913452,-74.020594,-8512.368333,2374.896044
163438.913772,1702.473667,-5329.482782,76.609550
163438.914091,3701.029710,-7846.182985,5286.058936
163438.914410,3404.947333,-8068.244768,4903.011187
163438.914730,1998.556043,-8734.430116,3064.381992
163438.915049,-666.185348,-8882.471304,536.266849
163438.915368,-4737.318029,-8956.491898,-3677.258390
163438.915688,-5403.503377,-11251.130318,-6205.373534
163438.916007,-6291.750507,-11473.192101,-5898.935335
163438.916326,-5625.565159,-10732.986159,-5822.325785
163438.916645,-1776.494261,-10732.986159,0.000000
163438.916965,-222.061783,-6587.832884,-2451.505594
163438.917284,1554.432478,-7105.977043,0.000000
163438.917603,-370.102971,-7105.977043,-536.266849
163438.917923,74.020594,-8512.368333,153.219100
163438.918242,2294.638420,-11843.295072,4213.525239
163438.918561,5551.544565,-10510.924376,5745.716235
163438.918880,4219.173869,-9474.636058,4213.525239
163438.919200,1110.308913,-7550.100608,1225.752797
163438.919519,-1776.494261,-7179.997637,0.000000
163438.919838,-5921.647536,-7772.162391,-2451.505594
163438.920158,-5107.421000,-9252.574275,-5669.106685
163438.920477,-3701.029710,-11621.233289,-3600.648841
163438.920796,-1554.432478,-10584.944971,-919.314598
163438.921116,888.247130,-9104.533087,0.000000
163438.921435,2886.803174,-9474.636058,-76.609550
163438.921754,-1258.350101,-7476.080014,-1225.752797
163438.922073,-74.020594,-10658.965565,-76.609550
163438.922393,-2294.638420,-8956.491898,-1455.581446
163438.922712,0.000000,-10436.903782,0.000000
163438.923031,1110.308913,-10658.965565,842.705048
163438.923351,1850.514855,-9918.759623,3370.820191
163438.923670,1480.411884,-7254.018232,919.314598
163438.923989,-148.041188,-7550.100608,-2221.676944
163438.924309,-2664.741391,-10066.800811,-2528.115143
163438.924628,-4441.235652,-9548.656652,-2528.115143
163438.924947,-2146.597232,-9104.533087,-3064.381992
163438.925266,0.000000,-10288.862594,0.000000
163438.925586,1776.494261,-9548.656652,1838.629195
163438.925905,1702.473667,-7105.977043,-76.609550
163438.926224,1702.473667,-9474.636058,-76.609550
163438.926544,0.000000,-9474.636058,229.828649
163438.926863,666.185348,-10362.883188,1225.752797
163438.927182,444.123565,-10584.944971,2451.505594
163438.927502,592.164754,-10140.821405,3677.258390
163438.927821,1776.494261,-8512.368333,1838.629195
163438.928140,1406.391290,-7698.141797,1225.752797
163438.928459,-74.020594,-9474.636058,-76.609550
163438.928779,-4515.256246,-8808.450710,-3677.258390
163438.929098,-1554.432478,-13027.624579,-76.609550
163438.929417,-2220.617826,-9400.615463,-919.314598
163438.929737,-666.185348,-8808.450710,-842.705048
163438.930056,-370.102971,-7846.182985,-1455.581446
163438.930375,-444.123565,-7624.121203,-919.314598
163438.930695,-2368.659014,-7920.203579,-2451.505594
163438.931014,-222.061783,-11547.212695,229.828649
163438.931333,-370.102971,-10955.047942,459.657299
163438.931652,-518.144159,-10362.883188,1378.971896
163438.931972,2294.638420,-10955.047942,1762.019645
163438.932291,1110.308913,-9178.553681,-689.485948
163438.932610,0.000000,-9252.574275,0.000000
163438.932930,-1258.350101,-10066.800811,-1915.238745
163438.933249,-1258.350101,-10066.800811,-2528.115143
163438.933568,-2368.659014,-8364.327145,0.000000
163438.933888,0.000000,-8290.306550,-1149.143247
163438.934207,1554.432478,-7698.141797,0.000000
163438.934526,1998.556043,-6661.853478,0.000000
163438.934845,1184.329507,-7846.182985,766.095498
163438.935165,1702.473667,-10066.800811,229.828649
163438.935484,518.144159,-10066.800811,766.095498
163438.935803,-888.247130,-10436.903782,0.000000
163438.936123,592.164754,-11621.233289,2298.286494
163438.936442,1554.432478,-10066.800811,-76.609550
163438.936761,0.000000,-7772.162391,0.000000
163438.937081,-1702.473667,-8586.388927,-1915.238745
163438.937400,-2664.741391,-9844.739029,-2298.286494
163438.937719,-2368.659014,-9844.739029,-1915.238745
163438.938038,-814.226536,-7772.162391,-2145.067394
163438.938358,-74.020594,-7031.956449,-4060.306139
163438.938677,0.000000,-5995.668130,-3064.381992
163438.938996,0.000000,-7179.997637,0.000000
163438.939316,1702.473667,-9474.636058,-76.609550
163438.939635,1110.308913,-11251.130318,-76.609550
163438.939954,0.000000,-10140.821405,0.000000
163438.940274,-1110.308913,-11473.192101,-76.609550
163438.940593,74.020594,-10510.924376,229.828649
163438.940912,1628.453072,-9992.780217,229.828649
163438.941231,0.000000,-7179.997637,-1532.190996
163438.941551,-74.020594,-10362.883188,-383.047749
163438.941870,-1850.514855,-8882.471304,-2068.457845
163438.942189,-1628.453072,-7772.162391,-689.485948
163438.942509,1110.308913,-6809.894666,-383.047749
163438.942828,2294.638420,-9474.636058,-76.609550
163438.943147,0.000000,-6883.915261,612.876398
163438.943467,518.144159,-7846.182985,995.924147
163438.943786,444.123565,-9474.636058,919.314598
163438.944105,-518.144159,-10510.924376,0.000000
163438.944424,-2368.659014,-10658.965565,-919.314598
163438.944744,-1998.556043,-12435.459826,-76.609550
163438.945063,-1258.350101,-10658.965565,-76.609550
163438.945382,-666.185348,-8142.265362,-2528.115143
163438.945702,-2960.823768,-8364.327145,-2451.505594
163438.946021,-222.061783,-11843.295072,-76.609550
163438.946340,-2294.638420,-8956.491898,-919.314598
163438.946660,222.061783,-8290.306550,-306.438199
163438.946979,1258.350101,-7402.059420,612.876398
163438.947298,1184.329507,-6587.832884,1225.752797
163438.947617,0.000000,-5995.668130,0.000000
163438.947937,1406.391290,-9252.574275,612.876398
163438.948256,2294.638420,-11843.295072,-76.609550
163438.948575,-1776.494261,-10584.944971,-1685.410096
163438.948895,-2442.679609,-10214.842000,-2374.896044
163438.949214,-74.020594,-11843.295072,-229.828649
163438.949533,1036.288319,-9696.697840,306.438199
163438.949853,666.185348,-8364.327145,-459.657299
163438.950172,-1110.308913,-8512.368333,-153.219100
163438.950492,1406.391290,-11103.089130,2374.896044
163438.950811,1184.329507,-7772.162391,0.000000
163438.951130,592.164754,-8068.244768,2221.676944
163438.951450,1110.308913,-8290.306550,-76.609550
163438.951769,0.000000,-6735.874072,0.000000
163438.952089,0.000000,-6291.750507,0.000000
163438.952408,-74.020594,-9474.636058,-383.047749
163438.952728,-1258.350101,-11251.130318,-1302.362347
163438.953047,-2368.659014,-11029.068536,-1302.362347
163438.953366,-2072.576638,-11473.192101,-995.924147
163438.953686,0.000000,-10362.883188,306.438199
163438.954005,-1554.432478,-7772.162391,-1608.800546
163438.954325,-1480.411884,-8364.327145,-612.876398
163438.954644,0.000000,-8956.491898,1225.752797
163438.954963,1110.308913,-10658.965565,-76.609550
163438.955283,0.000000,-7179.997637,0.000000
163438.955602,814.226536,-8586.388927,-229.828649
163438.955922,296.082377,-8364.327145,-689.485948
163438.956241,592.164754,-8364.327145,-459.657299
163438.956561,1998.556043,-8882.471304,-76.609550
163438.956880,1110.308913,-10658.965565,-76.609550
163438.957199,-814.226536,-9844.739029,0.000000
163438.957519,-1554.432478,-8734.430116,0.000000
163438.957838,0.000000,-9548.656652,1532.190996
163438.958158,3552.988522,-10140.821405,4979.620737
163438.958477,0.000000,-5995.668130,612.876398
163438.958796,74.020594,-8216.285956,306.438199
163438.959116,-888.247130,-9178.553681,-689.485948
163438.959435,-2072.576638,-9770.718434,-1149.143247
163438.959755,-1258.350101,-9474.636058,-2528.115143
163438.960074,-2886.803174,-9474.636058,-2528.115143
163438.960394,-1554.432478,-9474.636058,-3140.991542
163438.960713,-2220.617826,-7476.080014,-2834.553343
163438.961032,0.000000,-7772.162391,-2451.505594
163438.961352,-2072.576638,-7179.997637,0.000000
163438.961671,814.226536,-9770.718434,919.314598
163438.961991,0.000000,-9622.677246,1608.800546
163438.962310,2072.576638,-9252.574275,2068.457845
163438.962629,2886.803174,-8290.306550,1149.143247
163438.962949,1332.370696,-8956.491898,383.047749
163438.963268,-740.205942,-8290.306550,-2221.676944
163438.963588,-4145.153275,-9548.656652,-3677.258390
163438.963907,-3182.885551,-11325.150913,-2451.505594
163438.964227,-4145.153275,-9548.656652,-4290.134789
163438.964546,-1850.514855,-9474.636058,-4060.306139
163438.964865,-592.164754,-7254.018232,-1532.190996
163438.965185,2294.638420,-8364.327145,536.266849
163438.965504,3034.844362,-8882.471304,1915.238745
163438.965824,4367.215058,-8882.471304,4213.525239
163438.966143,2368.659014,-6365.771101,2451.505594
163438.966462,592.164754,-6217.729913,3064.381992
163438.966782,2368.659014,-7179.997637,2987.772442
163438.967101,1184.329507,-8216.285956,306.438199
163438.967421,-666.185348,-8882.471304,-689.485948
163438.967740,-3627.009116,-10510.924376,-3600.648841
163438.968060,-5625.565159,-12213.398043,-4443.353888
163438.968379,-5847.626942,-11695.253884,-5056.230287
163438.968698,-5625.565159,-10140.821405,-5056.230287
163438.969018,-3034.844362,-11251.130318,-2528.115143
163438.969337,-1850.514855,-8142.265362,-1762.019645
163438.969657,592.164754,-6883.915261,536.266849
163438.969976,2886.803174,-6883.915261,2757.943793
163438.970295,5255.462188,-7846.182985,4213.525239
163438.970615,2294.638420,-7105.977043,2374.896044
163438.970934,0.000000,-6587.832884,1225.752797
163438.971254,3478.967927,-11251.130318,919.314598
163438.971573,592.164754,-11843.295072,0.000000
163438.971893,-2368.659014,-12731.542202,-3370.820191
163438.972212,-4959.379811,-14285.974681,-5056.230287
163438.972531,-5329.482782,-13027.624579,-4903.011187
163438.972851,-3849.070898,-10955.047942,-3677.258390
163438.973170,-2738.761985,-8882.471304,-2451.505594
163438.973490,-1110.308913,-7105.977043,0.000000
163438.973809,3478.967927,-4737.318029,-76.609550
163438.974128,2960.823768,-6291.750507,5056.230287
163438.974448,4663.297435,-8290.306550,4519.963438
163438.974767,1406.391290,-6957.935855,3447.429741
163438.975087,666.185348,-8068.244768,3753.867940
163438.975406,592.164754,-9548.656652,3064.381992
163438.975726,814.226536,-10955.047942,153.219100
163438.976045,-1998.556043,-10807.006753,-2604.724693
163438.976364,-5255.462188,-11843.295072,-4903.011187
163438.976684,-7254.018232,-11991.336260,-6358.592633
163438.977003,-4219.173869,-11843.295072,-4826.401637
163438.977323,-1850.514855,-11843.295072,-2528.115143
163438.977642,-1258.350101,-7105.977043,-1378.971896
163438.977961,0.000000,-3627.009116,0.000000
163438.978281,5847.626942,-7105.977043,4826.401637
163438.978600,2368.659014,-4811.338623,3983.696590
163438.978920,4441.235652,-6291.750507,4060.306139
163438.979239,2368.659014,-8586.388927,3140.991542
163438.979559,1924.535449,-10881.027347,2528.115143
163438.979878,1184.329507,-11325.150913,612.876398
163438.980197,-74.020594,-12139.377449,-2145.067394
163438.980517,-3034.844362,-12879.583391,-2834.553343
163438.980836,-3627.009116,-15100.201217,-4366.744339
163438.981156,-5625.565159,-11917.315666,-5822.325785
163438.981475,-666.185348,-11843.295072,-1915.238745
163438.981794,-888.247130,-8882.471304,-1302.362347
163438.982114,1776.494261,-5921.647536,1378.971896
163438.982433,3330.926739,-4367.215058,3677.258390
163438.982753,3627.009116,-4071.132681,5362.668486
163438.983072,2368.659014,-6069.688724,4826.401637
163438.983392,1406.391290,-8586.388927,3064.381992
163438.983711,2294.638420,-11547.212695,3600.648841
163438.984030,814.226536,-11843.295072,1149.143247
163438.984350,0.000000,-11029.068536,-1838.629195
163438.984669,-666.185348,-12435.459826,-4366.744339
163438.984989,-6217.729913,-11917.315666,-6128.763984
163438.985308,-5329.482782,-12583.501014,-6588.421283
163438.985627,-5033.400406,-11621.233289,-4979.620737
163438.985947,-1850.514855,-10658.965565,-689.485948
163438.986266,296.082377,-7179.997637,0.000000
163438.986586,0.000000,-4811.338623,1225.752797
163438.986905,4885.359217,-4737.318029,3524.039291
163438.987225,5847.626942,-7105.977043,6052.154434
163438.987544,2368.659014,-4811.338623,1225.752797
163438.987863,4663.297435,-8882.471304,2987.772442
163438.988183,1776.494261,-10288.862594,2987.772442
163438.988502,1332.370696,-11177.109724,1762.019645
163438.988822,592.164754,-11621.233289,-1149.143247
163438.989141,-4145.153275,-11325.150913,-2757.943793
163438.989460,-6883.915261,-11547.212695,-6588.421283
163438.989780,-7698.141797,-12509.480420,-6128.763984
163438.990099,-7105.977043,-9548.656652,-4903.011187
163438.990419,-74.020594,-10362.883188,-383.047749
163438.990738,0.000000,-5107.421000,0.000000
163438.991058,2886.803174,-5033.400406,2681.334243
163438.991377,1850.514855,-4145.153275,3064.381992
163438.991696,1702.473667,-5921.647536,3064.381992
163438.992016,1110.308913,-6809.894666,2987.772442
163438.992335,2294.638420,-9474.636058,4213.525239
163438.992655,1554.432478,-10807.006753,2374.896044
163438.992974,1998.556043,-11547.212695,-76.609550
163438.993293,-2368.659014,-10732.986159,-3294.210641
163438.993613,-5625.565159,-11917.315666,-4290.134789
163438.993932,-8290.306550,-10732.986159,-8580.269578
163438.994252,-6365.771101,-13027.624579,-6818.249932
163438.994571,-4589.276840,-12213.398043,-4673.182538
163438.994891,-1998.556043,-9992.780217,-459.657299
163438.995210,2294.638420,-5921.647536,1149.143247
163438.995529,4663.297435,-6513.812290,4596.572988
163438.995849,5847.626942,-4737.318029,5439.278036
163438.996168,3330.926739,-4219.173869,3600.648841
163438.996488,4441.235652,-5995.668130,3064.381992
163438.996807,4737.318029,-8364.327145,7354.516781
163438.997126,2368.659014,-10288.862594,2604.724693
163438.997446,1110.308913,-11843.295072,306.438199
163438.997765,-3923.091493,-11177.109724,-4060.306139
163438.998085,-7402.059420,-13693.809927,-6052.154434
163438.998404,-5995.668130,-15396.283594,-7431.126331
163438.998724,-7105.977043,-12213.398043,-6741.640382
163438.999043,-3034.844362,-11843.295072,-2528.115143
163438.999362,-74.020594,-8290.306550,-76.609550
163438.999682,1702.473667,-4959.379811,1302.362347
163439.000001,5033.400406,-5995.668130,6435.202183
163439.000321,3404.947333,-2442.679609,3140.991542
163439.000640,3997.112087,-5107.421000,4290.134789
163439.000960,5107.421000,-7624.121203,4443.353888
163439.001279,2368.659014,-8364.327145,2451.505594
163439.001598,888.247130,-11325.150913,0.000000
163439.001918,-2368.659014,-12065.356855,-3677.258390
163439.002237,-7105.977043,-13101.645173,-7354.516781
163439.002557,-7328.038826,-17468.860231,-7737.564530
163439.002876,-5403.503377,-15396.283594,-7431.126331
163439.003195,-2960.823768,-12805.562797,-3294.210641
163439.003515,1406.391290,-9400.615463,459.657299
163439.003834,4663.297435,-3997.112087,3447.429741
163439.004154,5329.482782,-3330.926739,5745.716235
163439.004473,2664.741391,-74.020594,2757.943793
163439.004793,4663.297435,-3775.050304,4213.525239
163439.005112,2738.761985,-4071.132681,3064.381992
163439.005431,2368.659014,-9548.656652,4596.572988
163439.005751,1110.308913,-13471.748144,3370.820191
163439.006070,-74.020594,-14211.954086,-1302.362347
163439.006390,-5181.441594,-13101.645173,-5515.887586
163439.006709,-8290.306550,-14137.933492,-7890.783629
163439.007028,-8142.265362,-13323.706956,-8120.612279
163439.007348,-5625.565159,-12953.603985,-5132.839837
163439.007667,-3701.029710,-9548.656652,-4596.572988
163439.007987,3478.967927,-8290.306550,-76.609550
163439.008306,2516.700203,-3701.029710,2528.115143
163439.008626,4737.318029,-1850.514855,1838.629195
163439.008945,3552.988522,-3775.050304,3447.429741
163439.009264,3849.070898,-7179.997637,4903.011187
163439.009584,2294.638420,-8882.471304,3064.381992
163439.009903,1184.329507,-11177.109724,2298.286494
163439.010223,1184.329507,-12139.377449,766.095498
163439.010542,-1554.432478,-9548.656652,-4290.134789
163439.010861,-5477.523971,-11769.274478,-4903.011187
163439.011181,-7698.141797,-13693.809927,-6435.202183
163439.011500,-6809.894666,-13249.686362,-5515.887586
163439.011820,-3034.844362,-12435.459826,-4366.744339
163439.012139,-3552.988522,-8364.327145,0.000000
163439.012459,1258.350101,-5773.606348,2145.067394
163439.012778,4145.153275,-5995.668130,4366.744339
163439.013097,4145.153275,-962.267725,4826.401637
163439.013417,3182.885551,-3478.967927,3677.258390
163439.013736,4663.297435,-6809.894666,3600.648841
163439.014056,1776.494261,-8660.409521,3830.477490
163439.014375,1110.308913,-11547.212695,2681.334243
163439.014694,-370.102971,-11843.295072,536.266849
163439.015014,-1998.556043,-12583.501014,-2068.457845
163439.015333,-7105.977043,-13249.686362,-4366.744339
163439.015653,-9474.636058,-11917.315666,-7967.393179
163439.015972,-6513.812290,-12065.356855,-6818.249932
163439.016292,-5921.647536,-9548.656652,-4903.011187
163439.016611,-1110.308913,-8660.409521,-2374.896044
163439.016930,2886.803174,-8290.306550,2374.896044
163439.017250,3849.070898,-4811.338623,2374.896044
163439.017569,4441.235652,-3627.009116,2987.772442
163439.017889,2960.823768,-5403.503377,2681.334243
163439.018208,2368.659014,-7402.059420,4673.182538
163439.018527,2886.803174,-9474.636058,4290.134789
163439.018847,2368.659014,-10140.821405,2757.943793
163439.019166,0.000000,-8364.327145,0.000000
163439.019486,-3404.947333,-10732.986159,-2757.943793
163439.019805,-7402.059420,-9844.739029,-7354.516781
163439.020125,-4811.338623,-13619.789333,-5898.935335
163439.020444,-4367.215058,-12213.398043,-5209.449386
163439.020763,-2368.659014,-10658.965565,-2451.505594
163439.021083,0.000000,-8956.491898,0.000000
163439.021402,2886.803174,-7105.977043,2068.457845
163439.021722,2368.659014,-3849.070898,2451.505594
163439.022041,0.000000,-2146.597232,153.219100
163439.022360,1480.411884,-7179.997637,3677.258390
163439.022680,3478.967927,-8586.388927,4826.401637
163439.022999,592.164754,-6587.832884,1225.752797
163439.023319,2516.700203,-10732.986159,2221.676944
163439.023638,-666.185348,-9474.636058,-2068.457845
163439.023958,-4515.256246,-10807.006753,-5209.449386
163439.024277,-4811.338623,-14211.954086,-6205.373534
163439.024596,-2442.679609,-14211.954086,-5132.839837
163439.024916,-1258.350101,-14211.954086,-2834.553343
163439.025235,-74.020594,-10362.883188,-1455.581446
163439.025555,74.020594,-6587.832884,-2145.067394
163439.025874,1184.329507,-5403.503377,3677.258390
163439.026193,888.247130,-2442.679609,1378.971896
163439.026513,2590.720797,-4737.318029,3447.429741
163439.026832,3330.926739,-5921.647536,3983.696590
163439.027152,3627.009116,-8290.306550,4596.572988
163439.027471,3478.967927,-11251.130318,4519.963438
163439.027791,1184.329507,-9548.656652,1762.019645
163439.028110,-1406.391290,-11251.130318,-1685.410096
163439.028429,-3775.050304,-14211.954086,-3753.867940
163439.028749,-4811.338623,-14211.954086,-5592.497135
163439.029068,-4145.153275,-13101.645173,-2451.505594
163439.029388,-1850.514855,-10881.027347,-2681.334243
163439.029707,-370.102971,-9474.636058,-383.047749
163439.030026,74.020594,-7550.100608,612.876398
163439.030346,518.144159,-4515.256246,0.000000
163439.030665,-518.144159,-4811.338623,0.000000
163439.030985,0.000000,-6291.750507,1838.629195
163439.031304,1776.494261,-8364.327145,4903.011187
163439.031624,4663.297435,-9474.636058,4826.401637
163439.031943,3478.967927,-11251.130318,3294.210641
163439.032262,0.000000,-9548.656652,612.876398
163439.032582,-3478.967927,-10510.924376,-4673.182538
163439.032901,-5625.565159,-12953.603985,-6511.811733
163439.033221,-5329.482782,-14285.974681,-6818.249932
163439.033540,-5551.544565,-11325.150913,-7354.516781
163439.033859,-3256.906145,-10510.924376,-2528.115143
163439.034179,-74.020594,-8882.471304,-383.047749
163439.034498,1184.329507,-5403.503377,1838.629195
163439.034818,3478.967927,-4441.235652,5745.716235
163439.035137,4071.132681,-4737.318029,4826.401637
163439.035457,2368.659014,-5995.668130,4443.353888
163439.035776,3256.906145,-7550.100608,4749.792088
163439.036095,2590.720797,-9252.574275,4213.525239
163439.036415,1184.329507,-9622.677246,1991.848295
163439.036734,-2664.741391,-7550.100608,-1915.238745
163439.037054,-2442.679609,-13027.624579,-3294.210641
163439.037373,-3627.009116,-13027.624579,-5898.935335
163439.037692,-4737.318029,-12805.562797,-6511.811733
163439.038012,-5329.482782,-11029.068536,-5515.887586
163439.038331,-74.020594,-13619.789333,-1302.362347
163439.038651,-814.226536,-8660.409521,-612.876398
163439.038970,592.164754,-6957.935855,536.266849
163439.039290,666.185348,-5477.523971,1455.581446
163439.039609,1776.494261,-6291.750507,3677.258390
163439.039928,3701.029710,-7179.997637,4290.134789
163439.040248,5255.462188,-9178.553681,5745.716235
163439.040567,4663.297435,-9474.636058,4826.401637
163439.040887,592.164754,-7846.182985,229.828649
163439.041206,-3552.988522,-7920.203579,-4673.182538
163439.041525,-1850.514855,-13027.624579,-4979.620737
163439.041845,-4589.276840,-13693.809927,-6128.763984
163439.042164,-3552.988522,-13841.851115,-5439.278036
163439.042484,-3552.988522,-13101.645173,-3447.429741
163439.042803,-2072.576638,-10732.986159,306.438199
163439.043123,0.000000,-8364.327145,0.000000
163439.043442,0.000000,-4811.338623,2451.505594
163439.043761,3182.885551,-6513.812290,3600.648841
163439.044081,1776.494261,-4811.338623,3064.381992
163439.044400,3478.967927,-4515.256246,3907.087040
163439.044720,6291.750507,-7402.059420,7048.078582
163439.045039,3627.009116,-8290.306550,3907.087040
163439.045358,814.226536,-7772.162391,229.828649
163439.045678,-2442.679609,-9178.553681,-4060.306139
163439.045997,-4737.318029,-12509.480420,-5822.325785
163439.046317,-7105.977043,-11917.315666,-8886.707777
163439.046636,-5625.565159,-16062.468941,-5515.887586
163439.046956,-3775.050304,-14656.077652,-3140.991542
163439.047275,-1258.350101,-8882.471304,-5592.497135
163439.047594,-74.020594,-10658.965565,-76.609550
163439.047914,518.144159,-5921.647536,1532.190996
163439.048233,2664.741391,-4441.235652,4290.134789
163439.048553,4663.297435,-5033.400406,6128.763984
163439.048872,5921.647536,-4811.338623,8580.269578
163439.049191,5329.482782,-6735.874072,6818.249932
163439.049511,4515.256246,-8142.265362,3600.648841
163439.049830,-1184.329507,-8586.388927,-2528.115143
163439.050149,-6513.812290,-10140.821405,-6741.640382
163439.050469,-5551.544565,-16580.613101,-6205.373534
163439.050788,-7105.977043,-16062.468941,-7048.078582
163439.051108,-5921.647536,-15544.324782,-5898.935335
163439.051427,-4441.235652,-13471.748144,-3217.601092
163439.051746,-2294.638420,-9696.697840,-1608.800546
163439.052066,-2590.720797,-3627.009116,0.000000
163439.052385,1110.308913,-4589.276840,3753.867940
163439.052704,3775.050304,-3923.091493,6205.373534
163439.053024,5995.668130,-3552.988522,7660.954980
163439.053343,5921.647536,-4145.153275,7277.907231
163439.053662,5847.626942,-8290.306550,7277.907231
163439.053982,0.000000,-5995.668130,0.000000
163439.054301,-3404.947333,-11177.109724,-3753.867940
163439.054621,-6365.771101,-13915.871710,-7431.126331
163439.054940,-8216.285956,-14878.139434,-11031.775171
163439.055259,-8586.388927,-16062.468941,-8886.707777
163439.055579,-6143.709319,-14878.139434,-5669.106685
163439.055898,-2146.597232,-11251.130318,-3064.381992
163439.056217,0.000000,-8290.306550,-383.047749
163439.056537,3034.844362,-4737.318029,1762.019645
163439.056856,5255.462188,-3256.906145,4519.963438
163439.057175,7105.977043,-4441.235652,8503.660028
163439.057495,11177.109724,-6957.935855,9729.412825
163439.057814,8808.450710,-6957.935855,7277.907231
163439.058133,4737.318029,-8660.409521,6128.763984
163439.058453,518.144159,-8364.327145,-612.876398
163439.058772,-2072.576638,-12065.356855,-4060.306139
163439.059092,-4737.318029,-13767.830521,-7507.735880
163439.059411,-5773.606348,-16802.674883,-8656.879127
163439.059730,-6587.832884,-15766.386565,-8580.269578
163439.060050,-5921.647536,-13693.809927,-5056.230287
163439.060369,-4737.318029,-9548.656652,-3677.258390
163439.060688,740.205942,-8882.471304,-76.609550
163439.061008,1110.308913,-5699.585753,2987.772442
163439.061327,4737.318029,-5699.585753,8273.831378
163439.061646,7328.038826,-2072.576638,7890.783629
163439.061966,8290.306550,-4071.132681,8963.317327
163439.062285,6291.750507,-5699.585753,6281.983084
163439.062605,0.000000,-7179.997637,0.000000
163439.062924,-3923.091493,-8364.327145,-4519.963438
163439.063243,-6587.832884,-11399.171507,-8656.879127
163439.063563,-9474.636058,-15470.304188,-9806.022374
163439.063882,-8586.388927,-18431.127956,-11031.775171
163439.064201,-5995.668130,-18949.272115,-5592.497135
163439.064521,-3256.906145,-13397.727550,-1532.190996
163439.064840,1332.370696,-7920.203579,76.609550
163439.065159,2590.720797,-5107.421000,2528.115143
163439.065479,2886.803174,-3478.967927,4979.620737
163439.065798,4811.338623,-2516.700203,6665.030833
163439.066118,8512.368333,-4441.235652,9116.536426
163439.066437,5847.626942,-4589.276840,6971.469032
163439.066756,1776.494261,-6735.874072,1225.752797
163439.067076,-592.164754,-10584.944971,842.705048
163439.067395,-2442.679609,-12435.459826,-3753.867940
163439.067714,-7994.224174,-14285.974681,-7354.516781
163439.068034,-9252.574275,-15766.386565,-10342.289223
163439.068353,-9326.594869,-16432.571912,-8427.050478
163439.068672,-7179.997637,-14137.933492,-4136.915689
163439.068992,-2368.659014,-10658.965565,-536.266849
163439.069311,592.164754,-7920.203579,1455.581446
163439.069631,3108.864956,-5773.606348,4596.572988
163439.069950,4663.297435,-4145.153275,4213.525239
163439.070269,5847.626942,-3034.844362,4903.011187
163439.070589,8216.285956,-5921.647536,6971.469032
163439.070908,3552.988522,-7920.203579,4519.963438
163439.071227,0.000000,-9696.697840,-306.438199
163439.071547,-2886.803174,-11325.150913,-3907.087040
163439.071866,-4293.194464,-13989.892304,-5132.839837
163439.072185,-6365.771101,-16210.510130,-6588.421283
163439.072505,-7105.977043,-14285.974681,-7354.516781
163439.072824,-3627.009116,-15396.283594,-4979.620737
163439.073144,-1332.370696,-11325.150913,-1302.362347
163439.073463,1036.288319,-5403.503377,0.000000
163439.073782,5255.462188,-4737.318029,3294.210641
163439.074102,3627.009116,-4737.318029,3677.258390
163439.074421,4071.132681,-5181.441594,4903.011187
163439.074740,4737.318029,-5477.523971,6358.592633
163439.075060,5773.606348,-7179.997637,6741.640382
163439.075379,296.082377,-6587.832884,2145.067394
163439.075698,666.185348,-9696.697840,766.095498
163439.076018,-2294.638420,-9992.780217,-3677.258390
163439.076337,-3330.926739,-13915.871710,-3753.867940
163439.076657,-7105.977043,-11325.150913,-9806.022374
163439.076976,-4811.338623,-14804.118840,-6205.373534
163439.077295,-4293.194464,-12509.480420,-4673.182538
163439.077615,-1258.350101,-10214.842000,-1685.410096
163439.077934,222.061783,-7994.224174,-76.609550
163439.078253,740.205942,-5329.482782,1455.581446
163439.078573,1702.473667,-5255.462188,1608.800546
163439.078892,2960.823768,-5403.503377,2451.505594
163439.079211,5921.647536,-7179.997637,7048.078582
163439.079531,5773.606348,-8956.491898,7660.954980
163439.079850,1332.370696,-7476.080014,1225.752797
163439.080170,370.102971,-9622.677246,-383.047749
163439.080489,-2220.617826,-10436.903782,-3677.258390
163439.080808,-3849.070898,-12731.542202,-5822.325785
163439.081128,-2442.679609,-14211.954086,-6205.373534
163439.081447,-3627.009116,-13619.789333,-4673.182538
163439.081766,-1258.350101,-13027.624579,-1302.362347
163439.082086,1702.473667,-10658.965565,-76.609550
163439.082405,0.000000,-5995.668130,612.876398
163439.082724,0.000000,-5995.668130,3064.381992
163439.083044,740.205942,-4959.379811,1762.019645
163439.083363,3478.967927,-6513.812290,5362.668486
163439.083683,3330.926739,-7031.956449,6358.592633
163439.084002,2368.659014,-8142.265362,4903.011187
163439.084321,1702.473667,-8290.306550,1762.019645
163439.084641,-2072.576638,-8956.491898,-306.438199
163439.084960,-3034.844362,-10658.965565,-4060.306139
163439.085279,-5773.606348,-12287.418637,-6818.249932
163439.085599,-5107.421000,-13027.624579,-6665.030833
163439.085918,-6217.729913,-10881.027347,-6741.640382
163439.086237,-1480.411884,-11695.253884,-2681.334243
163439.086557,-1332.370696,-8956.491898,-1685.410096
163439.086876,-222.061783,-7624.121203,-383.047749
163439.087196,1702.473667,-8290.306550,2374.896044
163439.087515,2146.597232,-6661.853478,3600.648841
163439.087834,2368.659014,-5995.668130,4903.011187
163439.088154,5255.462188,-7698.141797,6435.202183
163439.088473,6439.791695,-8882.471304,4519.963438
163439.088792,1702.473667,-6513.812290,-1302.362347
163439.089112,-74.020594,-9474.636058,-1302.362347
163439.089431,-3775.050304,-10732.986159,-4903.011187
163439.089750,-4811.338623,-13249.686362,-5822.325785
163439.090070,-4663.297435,-13767.830521,-5362.668486
163439.090389,-4145.153275,-13841.851115,-919.314598
163439.090709,-1332.370696,-10288.862594,-1225.752797
163439.091028,-222.061783,-7994.224174,-612.876398
163439.091347,-1110.308913,-6365.771101,153.219100
163439.091667,-148.041188,-6735.874072,0.000000
163439.091986,0.000000,-4811.338623,919.314598
163439.092305,2294.638420,-6513.812290,2374.896044
163439.092625,2368.659014,-7179.997637,3983.696590
163439.092944,2294.638420,-9178.553681,2451.505594
163439.093263,962.267725,-9178.553681,-76.609550
163439.093583,-1776.494261,-9400.615463,-1915.238745
163439.093902,-3997.112087,-11103.089130,-6052.154434
163439.094222,-4441.235652,-13249.686362,-6052.154434
163439.094541,-3330.926739,-13619.789333,-4519.963438
163439.094860,-1554.432478,-11325.150913,-1532.190996
163439.095180,888.247130,-9030.512492,-383.047749
163439.095499,1702.473667,-7994.224174,-76.609550
163439.095818,-370.102971,-7105.977043,-76.609550
163439.096138,0.000000,-5995.668130,1225.752797
163439.096457,3478.967927,-9474.636058,4213.525239
163439.096776,4145.153275,-9474.636058,6741.640382
163439.097096,3997.112087,-7624.121203,4979.620737
163439.097415,2516.700203,-7031.956449,3677.258390
163439.097735,0.000000,-6661.853478,-306.438199
163439.098054,-3256.906145,-9104.533087,-2451.505594
163439.098373,-4441.235652,-10288.862594,-5592.497135
163439.098693,-2738.761985,-14211.954086,-3140.991542
163439.099012,-2442.679609,-13915.871710,-2604.724693
163439.099331,-1998.556043,-11103.089130,-2528.115143
163439.099651,-74.020594,-10066.800811,-3140.991542
163439.099970,-2072.576638,-8290.306550,-1225.752797
163439.100289,-2368.659014,-8438.347739,-689.485948
163439.100609,-592.164754,-9178.553681,1532.190996
163439.100928,3478.967927,-9474.636058,6052.154434
163439.101248,4959.379811,-10140.821405,7354.516781
163439.101567,4145.153275,-7179.997637,5515.887586
163439.101886,4071.132681,-7698.141797,2987.772442
163439.102206,-1184.329507,-6291.750507,-1915.238745
163439.102525,-4737.318029,-7772.162391,-7048.078582
163439.102844,-2442.679609,-12435.459826,-6205.373534
163439.103164,-3256.906145,-13841.851115,-4213.525239
163439.103483,0.000000,-13397.727550,-2221.676944
163439.103802,814.226536,-11325.150913,-1455.581446
163439.104122,1184.329507,-10214.842000,-919.314598
163439.104441,-2368.659014,-6883.915261,-2298.286494
163439.104761,0.000000,-8364.327145,766.095498
163439.105080,3552.988522,-9400.615463,4290.134789
163439.105399,5847.626942,-9474.636058,6665.030833
163439.105719,2368.659014,-4811.338623,3677.258390
163439.106038,4663.297435,-6513.812290,5132.839837
163439.106357,1702.473667,-5995.668130,1762.019645
163439.106677,-2368.659014,-7254.018232,-2374.896044
163439.106996,-5033.400406,-9770.718434,-5439.278036
163439.107315,-4885.359217,-12731.542202,-5132.839837
163439.107635,-3552.988522,-13101.645173,-4443.353888
163439.107954,-2072.576638,-11917.315666,-3753.867940
163439.108273,-2368.659014,-9548.656652,-3677.258390
163439.108593,-3256.906145,-9548.656652,-3064.381992
163439.108912,-7105.977043,-7179.997637,-4903.011187
163439.109232,-666.185348,-10066.800811,1225.752797
163439.109551,2590.720797,-8956.491898,3907.087040
163439.109870,5033.400406,-7402.059420,6741.640382
163439.110190,7031.956449,-5921.647536,4826.401637
163439.110509,7031.956449,-5921.647536,4826.401637
163439.110828,1850.514855,-7105.977043,2374.896044
163439.111148,-2590.720797,-6513.812290,-4290.134789
163439.111467,-4737.318029,-10436.903782,-6128.763984
163439.111786,-4441.235652,-14285.974681,-4290.134789
163439.112106,-4737.318029,-13471.748144,-4596.572988
163439.112425,-1998.556043,-13027.624579,-2145.067394
163439.112745,-1554.432478,-10362.883188,-2451.505594
163439.113064,-3849.070898,-8364.327145,-2221.676944
163439.113383,-1850.514855,-9474.636058,-689.485948
163439.113703,1628.453072,-9178.553681,5362.668486
163439.114022,4663.297435,-7698.141797,6665.030833
163439.114341,4145.153275,-4219.173869,6588.421283
163439.114661,3552.988522,-4811.338623,5515.887586
163439.114980,592.164754,-6291.750507,4213.525239
163439.115299,-3182.885551,-7772.162391,-2681.334243
163439.115619,-6069.688724,-11029.068536,-5745.716235
163439.115938,-7179.997637,-12583.501014,-7431.126331
163439.116258,-5329.482782,-14285.974681,-6128.763984
163439.116577,-1554.432478,-13915.871710,-4749.792088
163439.116896,-1776.494261,-11029.068536,-1838.629195
163439.117216,-1850.514855,-9474.636058,-2145.067394
163439.117535,-1258.350101,-9474.636058,-76.609550
163439.117854,-74.020594,-9474.636058,1762.019645
163439.118174,2960.823768,-8660.409521,5439.278036
163439.118493,4441.235652,-7624.121203,5439.278036
163439.118812,5773.606348,-7031.956449,5745.716235
163439.119132,4367.215058,-7179.997637,3753.867940
163439.119451,0.000000,-4811.338623,0.000000
163439.119771,-3552.988522,-8660.409521,-3830.477490
163439.120090,-5255.462188,-9548.656652,-7124.688131
163439.120409,-4737.318029,-13101.645173,-4903.011187
163439.120729,-1480.411884,-14656.077652,-2145.067394
163439.121048,2294.638420,-14211.954086,-76.609550
163439.121367,888.247130,-8068.244768,612.876398
163439.121687,-1110.308913,-6365.771101,-766.095498
163439.122006,-814.226536,-7550.100608,306.438199
163439.122325,1332.370696,-8068.244768,1762.019645
163439.122645,1184.329507,-5403.503377,2451.505594
163439.122964,4663.297435,-8290.306550,4826.401637
163439.123284,2442.679609,-6661.853478,2451.505594
163439.123603,1776.494261,-8512.368333,1685.410096
163439.123922,-1184.329507,-8364.327145,-1225.752797
163439.124242,-4441.235652,-11621.233289,-4596.572988
163439.124561,-5403.503377,-12139.377449,-6358.592633
163439.124880,-3627.009116,-13249.686362,-3983.696590
163439.125200,-666.185348,-11621.233289,-1685.410096
163439.125519,0.000000,-8364.327145,-2451.505594
163439.125838,1184.329507,-7772.162391,0.000000
163439.126158,-444.123565,-8142.265362,842.705048
163439.126477,-74.020594,-8586.388927,1149.143247
163439.126797,1110.308913,-7179.997637,1378.971896
163439.127116,3552.988522,-8364.327145,6128.763984
163439.127435,3034.844362,-7179.997637,3830.477490
163439.127755,2960.823768,-7550.100608,2987.772442
163439.128074,444.123565,-7920.203579,0.000000
163439.128393,-2072.576638,-8956.491898,-3524.039291
163439.128713,-3034.844362,-10658.965565,-4979.620737
163439.129032,-5255.462188,-11917.315666,-4443.353888
163439.129351,-2072.576638,-11695.253884,-2451.505594
163439.129671,0.000000,-10955.047942,0.000000
163439.129990,518.144159,-8808.450710,1149.143247
163439.130310,0.000000,-7179.997637,1685.410096
163439.130629,-4589.276840,-5995.668130,0.000000
163439.130948,1480.411884,-10658.965565,2681.334243
163439.131268,1702.473667,-9474.636058,3294.210641
163439.131587,1184.329507,-8364.327145,1838.629195
163439.131906,4663.297435,-9474.636058,2987.772442
163439.132226,814.226536,-7254.018232,689.485948
163439.132545,-1332.370696,-7624.121203,-2068.457845
163439.132864,-3997.112087,-8586.388927,-4749.792088
163439.133184,-4441.235652,-11029.068536,-5515.887586
163439.133503,-2960.823768,-12731.542202,-3447.429741
163439.133823,-3256.906145,-10732.986159,-3064.381992
163439.134142,0.000000,-9548.656652,-2451.505594
163439.134461,1184.329507,-8956.491898,0.000000
163439.134781,-1776.494261,-5403.503377,-2451.505594
163439.135100,-74.020594,-8882.471304,842.705048
163439.135419,1554.432478,-9030.512492,2757.943793
163439.135739,3034.844362,-9770.718434,4596.572988
163439.136058,3478.967927,-9178.553681,4366.744339
163439.136377,3775.050304,-8882.471304,4826.401637
163439.136697,1702.473667,-7328.038826,1455.581446
163439.137016,-1776.494261,-7179.997637,-4596.572988
163439.137336,-4737.318029,-9696.697840,-3677.258390
163439.137655,-4811.338623,-11769.274478,-4290.134789
163439.137974,-5921.647536,-9844.739029,-4903.011187
163439.138294,-1258.350101,-11251.130318,-1608.800546
163439.138613,0.000000,-8512.368333,-612.876398
163439.138932,-444.123565,-7772.162391,-1302.362347
163439.139252,-962.267725,-7994.224174,-383.047749
163439.139571,1702.473667,-9474.636058,2374.896044
163439.139890,1554.432478,-10658.965565,3600.648841
163439.140210,0.000000,-7772.162391,1225.752797
163439.140529,2368.659014,-9252.574275,2681.334243
163439.140849,3108.864956,-9474.636058,3217.601092
163439.141168,-3256.906145,-7179.997637,-3064.381992
163439.141487,-3701.029710,-9474.636058,-3983.696590
163439.141807,-4811.338623,-11029.068536,-4903.011187
163439.142126,-3923.091493,-12065.356855,-3447.429741
163439.142445,-74.020594,-12435.459826,-689.485948
163439.142765,1924.535449,-10140.821405,1838.629195
163439.143084,3478.967927,-8290.306550,2374.896044
163439.143403,888.247130,-6217.729913,995.924147
163439.143723,518.144159,-6291.750507,229.828649
163439.144042,1776.494261,-9548.656652,4749.792088
163439.144362,0.000000,-8512.368333,2757.943793
163439.144681,444.123565,-9474.636058,2298.286494
163439.145000,592.164754,-9844.739029,842.705048
163439.145320,-296.082377,-9474.636058,153.219100
163439.145639,-2442.679609,-8956.491898,-3064.381992
163439.145958,-4737.318029,-9844.739029,-3677.258390
163439.146278,-3701.029710,-11473.192101,-3677.258390
163439.146597,-1776.494261,-11843.295072,-1608.800546
163439.146916,-1258.350101,-8882.471304,-2068.457845
163439.147236,0.000000,-8956.491898,1838.629195
163439.147555,222.061783,-7031.956449,0.000000
163439.147875,1406.391290,-7698.141797,1149.143247
163439.148194,2664.741391,-9030.512492,2145.067394
163439.148513,0.000000,-8364.327145,0.000000
163439.148833,0.000000,-9548.656652,0.000000
163439.149152,148.041188,-10140.821405,0.000000
163439.149471,1776.494261,-11325.150913,1225.752797
163439.149791,962.267725,-9474.636058,-1915.238745
163439.150110,-666.185348,-11251.130318,-1915.238745
163439.150429,-2368.659014,-10881.027347,-2145.067394
163439.150749,-2072.576638,-9104.533087,-2911.162892
163439.151068,-74.020594,-9474.636058,-1149.143247
163439.151388,1554.432478,-8956.491898,229.828649
163439.151707,592.164754,-5403.503377,0.000000
163439.152027,2590.720797,-7698.141797,2987.772442
163439.152346,1776.494261,-5995.668130,1532.190996
163439.152666,2516.700203,-9104.533087,2451.505594
163439.152985,518.144159,-11843.295072,2374.896044
163439.153305,1702.473667,-11843.295072,-76.609550
163439.153624,-888.247130,-10732.986159,-995.924147
163439.153944,-1332.370696,-10584.944971,-1915.238745
163439.154263,-1702.473667,-10066.800811,-2528.115143
163439.154583,-2812.782580,-9400.615463,-3217.601092
163439.154902,-2664.741391,-8660.409521,-2911.162892
163439.155222,-2812.782580,-8364.327145,-3524.039291
163439.155541,-2960.823768,-6587.832884,-2451.505594
163439.155861,1332.370696,-8512.368333,383.047749
163439.156180,2294.638420,-6883.915261,-689.485948
163439.156499,4663.297435,-9474.636058,1762.019645
163439.156819,2368.659014,-9252.574275,2145.067394
163439.157138,2146.597232,-9844.739029,1762.019645
163439.157458,1332.370696,-9992.780217,1302.362347
163439.157777,1184.329507,-11103.089130,3830.477490
163439.158097,0.000000,-10732.986159,612.876398
163439.158416,-444.123565,-10362.883188,0.000000
163439.158736,-370.102971,-11843.295072,-995.924147
163439.159055,-2442.679609,-9918.759623,-2528.115143
163439.159375,-4441.235652,-7179.997637,-4290.134789
163439.159694,-666.185348,-9474.636058,-689.485948
163439.160014,-1406.391290,-8290.306550,229.828649
163439.160333,222.061783,-7179.997637,995.924147
163439.160653,1184.329507,-6291.750507,1838.629195
163439.160972,296.082377,-8068.244768,3830.477490
163439.161292,-1110.308913,-7772.162391,0.000000
163439.161611,-3552.988522,-10732.986159,306.438199
163439.161931,-3923.091493,-11843.295072,-383.047749
163439.162250,-4515.256246,-13027.624579,-1302.362347
163439.162570,-666.185348,-13027.624579,-76.609550
163439.162889,-2960.823768,-10510.924376,-1455.581446
163439.163209,-3330.926739,-9252.574275,-2068.457845
163439.163528,-2220.617826,-9400.615463,-1608.800546
163439.163847,-74.020594,-8956.491898,1225.752797
163439.164167,0.000000,-7698.141797,-76.609550
163439.164486,-74.020594,-7105.977043,-229.828649
163439.164806,0.000000,-7179.997637,0.000000
163439.165125,2368.659014,-7179.997637,2451.505594
163439.165445,4071.132681,-11547.212695,2374.896044
163439.165764,0.000000,-11029.068536,1378.971896
163439.166084,-1924.535449,-11325.150913,-766.095498
163439.166403,-1628.453072,-12139.377449,-153.219100
163439.166723,74.020594,-11695.253884,0.000000
163439.167042,-1480.411884,-7772.162391,-2451.505594
163439.167362,-370.102971,-9474.636058,-766.095498
163439.167681,-1554.432478,-8882.471304,-1225.752797
163439.168001,-1554.432478,-8734.430116,-1532.190996
163439.168320,-592.164754,-7698.141797,-612.876398
163439.168640,1702.473667,-8290.306550,-76.609550
163439.168959,1110.308913,-9474.636058,-76.609550
163439.169279,296.082377,-6291.750507,0.000000
163439.169598,3330.926739,-9178.553681,1838.629195
163439.169918,1554.432478,-9400.615463,1762.019645
163439.170237,-2960.823768,-7179.997637,-2451.505594
163439.170557,-1850.514855,-11695.253884,-1915.238745
163439.170876,-1554.432478,-12139.377449,-612.876398
163439.171195,740.205942,-11251.130318,0.000000
163439.171515,2294.638420,-9474.636058,-689.485948
163439.171834,1258.350101,-8438.347739,-2221.676944
163439.172154,1702.473667,-9474.636058,-229.828649
163439.172473,518.144159,-8216.285956,-76.609550
163439.172793,2294.638420,-9474.636058,-689.485948
163439.173112,296.082377,-9548.656652,0.000000
163439.173432,0.000000,-7772.162391,-1838.629195
163439.173751,1702.473667,-8660.409521,766.095498
163439.174071,1998.556043,-8956.491898,1378.971896
163439.174390,1850.514855,-9030.512492,1915.238745
163439.174710,518.144159,-9030.512492,0.000000
163439.175029,-814.226536,-9770.718434,306.438199
163439.175349,814.226536,-11473.192101,1225.752797
163439.175668,3478.967927,-11843.295072,2987.772442
163439.175988,1110.308913,-9770.718434,689.485948
163439.176307,-1776.494261,-9548.656652,1072.533697
163439.176627,-3478.967927,-9252.574275,-2681.334243
163439.176946,-3330.926739,-10140.821405,-2145.067394
163439.177266,-3108.864956,-9252.574275,-1838.629195
163439.177585,-3034.844362,-8364.327145,-2451.505594
163439.177904,-2886.803174,-5995.668130,-3677.258390
163439.178224,0.000000,-7179.997637,0.000000
163439.178543,0.000000,-8660.409521,2451.505594
163439.178863,1406.391290,-9474.636058,1149.143247
163439.179182,-1480.411884,-9474.636058,1149.143247
163439.179502,-1184.329507,-10732.986159,1762.019645
163439.179821,-222.061783,-10140.821405,229.828649
163439.180141,-370.102971,-9696.697840,-612.876398
163439.180460,-2146.597232,-9918.759623,-1762.019645
163439.180780,-4737.318029,-8364.327145,-3677.258390
163439.181099,-3330.926739,-11547.212695,-1915.238745
163439.181419,-1258.350101,-9474.636058,-2528.115143
163439.181738,-2516.700203,-8364.327145,-2374.896044
163439.182058,-3552.988522,-7179.997637,-2451.505594
163439.182377,2294.638420,-8290.306550,-76.609550
163439.182697,2368.659014,-7105.977043,3064.381992
163439.183016,1702.473667,-7846.182985,2374.896044
163439.183336,370.102971,-8956.491898,2068.457845
163439.183655,-666.185348,-9474.636058,2451.505594
163439.183975,222.061783,-9104.533087,1608.800546
163439.184294,1702.473667,-10066.800811,-76.609550
163439.184614,-1480.411884,-10066.800811,-1302.362347
163439.184933,-3034.844362,-10362.883188,-4979.620737
163439.185252,-4737.318029,-10140.821405,-5515.887586
163439.185572,-2442.679609,-11843.295072,-3753.867940
163439.185891,-2960.823768,-10732.986159,-3064.381992
163439.186211,-2368.659014,-8808.450710,-2451.505594
163439.186530,0.000000,-7476.080014,-383.047749
163439.186850,4293.194464,-7846.182985,3370.820191
163439.187169,3997.112087,-8068.244768,3983.696590
163439.187489,4293.194464,-8882.471304,4290.134789
163439.187808,2294.638420,-8290.306550,1762.019645
163439.188128,0.000000,-8660.409521,1225.752797
163439.188447,0.000000,-8660.409521,0.000000
163439.188767,3478.967927,-11843.295072,-76.609550
163439.189086,-1036.288319,-10066.800811,-2757.943793
163439.189406,-3256.906145,-10732.986159,-4366.744339
163439.189725,-3552.988522,-12583.501014,-4366.744339
163439.190045,-2368.659014,-11991.336260,-1378.971896
163439.190364,-1776.494261,-9548.656652,-2451.505594
163439.190684,0.000000,-7179.997637,1225.752797
163439.191003,2960.823768,-6587.832884,3294.210641
163439.191323,5551.544565,-7105.977043,4826.401637
163439.191642,1554.432478,-3775.050304,1532.190996
163439.191961,3478.967927,-7994.224174,4213.525239
163439.192281,740.205942,-9030.512492,2451.505594
163439.192600,-444.123565,-10510.924376,1302.362347
163439.192920,-962.267725,-10955.047942,-1072.533697
163439.193239,-3256.906145,-11325.150913,-2757.943793
163439.193559,-5403.503377,-11029.068536,-6128.763984
163439.193878,-6365.771101,-12287.418637,-5975.544884
163439.194198,-7105.977043,-10732.986159,-4903.011187
163439.194517,-2738.761985,-10955.047942,-919.314598
163439.194837,-4737.318029,-5107.421000,-3983.696590
163439.195156,1406.391290,-7624.121203,1149.143247
163439.195476,2960.823768,-5107.421000,2451.505594
163439.195795,3923.091493,-5699.585753,4213.525239
163439.196115,4663.297435,-7105.977043,4213.525239
163439.196434,3478.967927,-9474.636058,2374.896044
163439.196754,-592.164754,-9696.697840,1762.019645
163439.197073,-74.020594,-10658.965565,-153.219100
163439.197393,0.000000,-10732.986159,-2145.067394
163439.197712,-2072.576638,-11917.315666,-1838.629195
163439.198032,-3849.070898,-10140.821405,-4673.182538
163439.198351,-3552.988522,-10807.006753,-4136.915689
163439.198671,-2368.659014,-9844.739029,-2834.553343
163439.198990,-1036.288319,-8364.327145,-1762.019645
163439.199309,2294.638420,-8290.306550,-76.609550
163439.199629,1702.473667,-6587.832884,3524.039291
163439.199948,4071.132681,-6513.812290,2374.896044
163439.200268,592.164754,-5403.503377,2451.505594
163439.200587,2960.823768,-7772.162391,1225.752797
163439.200907,0.000000,-6661.853478,0.000000
163439.201226,740.205942,-10658.965565,1991.848295
163439.201546,0.000000,-10584.944971,-612.876398
163439.201865,-1406.391290,-11177.109724,-3140.991542
163439.202185,-3775.050304,-11251.130318,-4979.620737
163439.202504,-5625.565159,-12213.398043,-6588.421283
163439.202824,-7105.977043,-10732.986159,-7354.516781
163439.203143,-4367.215058,-12287.418637,-4290.134789
163439.203463,-74.020594,-12731.542202,-76.609550
163439.203782,-74.020594,-6809.894666,-995.924147
163439.204102,4663.297435,-7105.977043,3600.648841
163439.204421,4219.173869,-4811.338623,4366.744339
163439.204741,5255.462188,-5403.503377,5515.887586
163439.205060,5329.482782,-6291.750507,4979.620737
163439.205380,4145.153275,-8364.327145,7048.078582
163439.205699,2886.803174,-9474.636058,3600.648841
163439.206019,2294.638420,-10658.965565,2374.896044
163439.206338,-370.102971,-12731.542202,-2528.115143
163439.206657,-6143.709319,-11843.295072,-6741.640382
163439.206977,-5403.503377,-14211.954086,-6205.373534
163439.207296,-6143.709319,-13175.665768,-5209.449386
163439.207616,-3849.070898,-11399.171507,-3370.820191
163439.207935,-3034.844362,-9770.718434,-612.876398
163439.208255,-666.185348,-6735.874072,2528.115143
163439.208574,0.000000,-1258.350101,612.876398
163439.208894,4071.132681,-4219.173869,4826.401637
163439.209213,3775.050304,-4515.256246,5209.449386
163439.209533,2442.679609,-6883.915261,5132.839837
163439.209852,2886.803174,-9474.636058,3907.087040
163439.210172,2072.576638,-9252.574275,229.828649
163439.210491,-74.020594,-12435.459826,-1608.800546
163439.210811,-6069.688724,-12065.356855,-6511.811733
163439.211130,-8956.491898,-14211.954086,-9882.631924
163439.211450,-8290.306550,-15766.386565,-7967.393179
163439.211769,-7105.977043,-12509.480420,-7201.297681
163439.212089,-2442.679609,-11029.068536,-1991.848295
163439.212408,888.247130,-6883.915261,1455.581446
163439.212728,4589.276840,-4811.338623,4366.744339
163439.213047,6291.750507,-74.020594,4519.963438
163439.213366,7994.224174,-2442.679609,6511.811733
163439.213686,7105.977043,-4219.173869,4903.011187
163439.214005,4737.318029,-9030.512492,7507.735880
163439.214325,2294.638420,-10658.965565,2374.896044
163439.214644,-888.247130,-12509.480420,459.657299
163439.214964,-4737.318029,-12953.603985,-5898.935335
163439.215283,-8956.491898,-14656.077652,-8656.879127
163439.215603,-10140.821405,-15840.407159,-8963.317327
163439.215922,-7254.018232,-13693.809927,-8580.269578
163439.216242,-5847.626942,-9548.656652,-6741.640382
163439.216561,0.000000,-6365.771101,-1608.800546
163439.216881,1184.329507,-3923.091493,2451.505594
163439.217200,6439.791695,-2368.659014,5975.544884
163439.217520,7031.956449,0.000000,6052.154434
163439.217839,5921.647536,-5255.462188,6741.640382
163439.218159,2516.700203,-7772.162391,3370.820191
163439.218478,1480.411884,-11843.295072,2451.505594
163439.218798,0.000000,-13027.624579,-919.314598
163439.219117,-4145.153275,-12213.398043,-4903.011187
163439.219437,-5403.503377,-15396.283594,-5745.716235
163439.219756,-5403.503377,-14211.954086,-8044.002729
163439.220076,-5477.523971,-12213.398043,-6665.030833
163439.220395,-4071.132681,-9548.656652,-4903.011187
163439.220714,3478.967927,-9474.636058,-76.609550
163439.221034,2738.761985,-7920.203579,4903.011187
163439.221353,4959.379811,-3256.906145,5515.887586
163439.221673,5699.585753,-2516.700203,4903.011187
163439.221992,4145.153275,-4441.235652,4903.011187
163439.222312,1850.514855,-5551.544565,3677.258390
163439.222631,1406.391290,-10658.965565,2374.896044
163439.222951,-962.267725,-11177.109724,1149.143247
163439.223270,-2664.741391,-9844.739029,-2911.162892
163439.223590,-4737.318029,-12213.398043,-4290.134789
163439.223909,-4811.338623,-13619.789333,-7431.126331
163439.224229,-8290.306550,-14211.954086,-7048.078582
163439.224548,-5847.626942,-12805.562797,-5745.716235
163439.224868,-2368.659014,-10881.027347,-1838.629195
163439.225187,2294.638420,-9104.533087,3064.381992
163439.225507,2960.823768,-6587.832884,4290.134789
163439.225826,4663.297435,-5625.565159,4903.011187
163439.226146,6735.874072,-4737.318029,4213.525239
163439.226465,1776.494261,-5107.421000,2528.115143
163439.226785,0.000000,-7179.997637,306.438199
163439.227104,1702.473667,-12731.542202,2374.896044
163439.227423,296.082377,-11917.315666,842.705048
163439.227743,-148.041188,-11991.336260,-842.705048
163439.228062,-3849.070898,-11325.150913,-4519.963438
163439.228382,-7105.977043,-12213.398043,-4136.915689
163439.228701,-5921.647536,-10732.986159,-7354.516781
163439.229021,-2368.659014,-10732.986159,-2451.505594
163439.229340,1110.308913,-11251.130318,1149.143247
163439.229660,518.144159,-8290.306550,2374.896044
163439.229979,962.267725,-4071.132681,306.438199
163439.230299,3478.967927,-5329.482782,2681.334243
163439.230618,1036.288319,-5255.462188,2374.896044
163439.230938,-296.082377,-7772.162391,1915.238745
163439.231257,-222.061783,-9400.615463,1685.410096
163439.231577,0.000000,-9548.656652,2911.162892
163439.231896,0.000000,-9548.656652,0.000000
163439.232216,-2368.659014,-10732.986159,-2145.067394
163439.232535,-6513.812290,-11325.150913,-4290.134789
163439.232855,-6143.709319,-13323.706956,-5209.449386
163439.233174,-7476.080014,-9548.656652,-7354.516781
163439.233494,-2294.638420,-10658.965565,-2528.115143
163439.233813,666.185348,-9474.636058,-306.438199
163439.234133,1554.432478,-8438.347739,1685.410096
163439.234452,4663.297435,-7105.977043,3294.210641
163439.234771,3478.967927,-6513.812290,2221.676944
163439.235091,888.247130,-6957.935855,536.266849
163439.235410,-2368.659014,-5995.668130,0.000000
163439.235730,2368.659014,-11621.233289,3830.477490
163439.236049,3256.906145,-10732.986159,5209.449386
163439.236369,2590.720797,-9548.656652,2145.067394
163439.236688,888.247130,-9400.615463,76.609550
163439.237008,-3256.906145,-9548.656652,-3217.601092
163439.237327,-4737.318029,-11103.089130,-4673.182538
163439.237647,-1258.350101,-11843.295072,-4979.620737
163439.237966,-1850.514855,-11843.295072,-1225.752797
163439.238286,-74.020594,-11251.130318,-1302.362347
163439.238605,-2368.659014,-8364.327145,0.000000
163439.238925,296.082377,-8068.244768,0.000000
163439.239244,-2442.679609,-3627.009116,-3677.258390
163439.239564,-666.185348,-7772.162391,1225.752797
163439.239883,1184.329507,-7920.203579,2068.457845
163439.240203,3849.070898,-8660.409521,4213.525239
163439.240522,4663.297435,-9474.636058,5439.278036
163439.240842,2960.823768,-7772.162391,2987.772442
163439.241161,-2960.823768,-7179.997637,-2451.505594
163439.241481,-5329.482782,-11177.109724,-4596.572988
163439.241800,-4885.359217,-14582.057057,-5056.230287
163439.242119,-5403.503377,-11547.212695,-7431.126331
163439.242439,-370.102971,-14211.954086,-2834.553343
163439.242758,-888.247130,-11251.130318,-1532.190996
163439.243078,74.020594,-9178.553681,0.000000
163439.243397,518.144159,-5699.585753,306.438199
163439.243717,0.000000,-5995.668130,3064.381992
163439.244036,1702.473667,-6365.771101,2298.286494
163439.244356,5255.462188,-7698.141797,4826.401637
163439.244675,5551.544565,-6513.812290,5132.839837
163439.244995,4737.318029,-7476.080014,5515.887586
163439.245314,4663.297435,-10658.965565,2374.896044
163439.245634,-3849.070898,-9400.615463,-3524.039291
163439.245953,-5699.585753,-12287.418637,-5745.716235
163439.246273,-5625.565159,-14285.974681,-6894.859482
163439.246592,-4589.276840,-14285.974681,-3753.867940
163439.246912,-5921.647536,-9548.656652,-6128.763984
163439.247231,-1036.288319,-10510.924376,-1302.362347
163439.247551,444.123565,-7920.203579,-995.924147
163439.247870,592.164754,-6143.709319,919.314598
163439.248190,1110.308913,-5921.647536,536.266849
163439.248509,2294.638420,-4737.318029,1915.238745
163439.248828,5847.626942,-8290.306550,6052.154434
163439.249148,5403.503377,-7920.203579,5286.058936
163439.249467,1184.329507,-5995.668130,612.876398
163439.249787,148.041188,-9548.656652,-612.876398
163439.250106,-5921.647536,-9696.697840,-6741.640382
163439.250426,-6291.750507,-14211.954086,-7048.078582
163439.250745,-4737.318029,-14952.160028,-6281.983084
163439.251065,-2960.823768,-13545.768739,-4290.134789
163439.251384,-518.144159,-11029.068536,-3064.381992
163439.251704,1036.288319,-8586.388927,0.000000
163439.252023,1924.535449,-5699.585753,0.000000
163439.252343,1776.494261,-4811.338623,3677.258390
163439.252662,2294.638420,-6513.812290,2834.553343
163439.252982,3256.906145,-6587.832884,6741.640382
163439.253301,4737.318029,-6513.812290,6818.249932
163439.253621,5033.400406,-8364.327145,6511.811733
163439.253940,2368.659014,-8364.327145,2681.334243
163439.254260,-2294.638420,-9252.574275,-2451.505594
163439.254579,-6143.709319,-10362.883188,-6128.763984
163439.254899,-5403.503377,-14804.118840,-6511.811733
163439.255218,-6439.791695,-15396.283594,-6205.373534
163439.255537,-5773.606348,-13249.686362,-6205.373534
163439.255857,-4737.318029,-11029.068536,-3064.381992
163439.256176,-74.020594,-9474.636058,-1991.848295
163439.256496,-74.020594,-7698.141797,1149.143247
163439.256815,-814.226536,-5033.400406,1149.143247
163439.257135,1110.308913,-5699.585753,3447.429741
163439.257454,5107.421000,-6587.832884,7967.393179
163439.257774,5033.400406,-7179.997637,8580.269578
163439.258093,2368.659014,-7179.997637,4903.011187
163439.258413,2294.638420,-9474.636058,2374.896044
163439.258732,-2516.700203,-9178.553681,-2528.115143
163439.259052,-6957.935855,-11029.068536,-7967.393179
163439.259371,-4811.338623,-16580.613101,-7431.126331
163439.259691,-5921.647536,-14285.974681,-5515.887586
163439.260010,-3923.091493,-12805.562797,-4366.744339
163439.260330,-1480.411884,-10288.862594,-1608.800546
163439.260649,0.000000,-7179.997637,612.876398
163439.260968,74.020594,-4367.215058,1225.752797
163439.261288,1184.329507,-4811.338623,4060.306139
163439.261607,5033.400406,-5699.585753,6435.202183
163439.261927,8808.450710,-6513.812290,8503.660028
163439.262246,3997.112087,-4219.173869,3983.696590
163439.262566,2886.803174,-8290.306550,2987.772442
163439.262885,-1776.494261,-9030.512492,-1991.848295
163439.263205,-4737.318029,-11473.192101,-5975.544884
163439.263524,-6809.894666,-14285.974681,-8350.440928
163439.263844,-7105.977043,-15396.283594,-6818.249932
163439.264163,-7476.080014,-13397.727550,-7354.516781
163439.264483,-3478.967927,-10732.986159,-6052.154434
163439.264802,1258.350101,-10658.965565,-229.828649
163439.265122,1702.473667,-6365.771101,766.095498
163439.265441,0.000000,-3034.844362,612.876398
163439.265761,5699.585753,-5477.523971,5132.839837
163439.266080,6809.894666,-5181.441594,6894.859482
163439.266400,7550.100608,-6735.874072,7584.345430
163439.266719,7624.121203,-9474.636058,4826.401637
163439.267038,4663.297435,-9474.636058,2374.896044
163439.267358,-518.144159,-10362.883188,-2528.115143
163439.267677,-5329.482782,-10732.986159,-7354.516781
163439.267997,-4737.318029,-15026.180623,-6971.469032
163439.268316,-5625.565159,-15470.304188,-4596.572988
163439.268636,-4293.194464,-12657.521608,-4903.011187
163439.268955,-2072.576638,-10584.944971,-1302.362347
163439.269275,-740.205942,-7994.224174,-842.705048
163439.269594,148.041188,-6587.832884,1762.019645
163439.269914,3478.967927,-6513.812290,3600.648841
163439.270233,3849.070898,-4811.338623,6128.763984
163439.270553,5625.565159,-6217.729913,7584.345430
163439.270872,4219.173869,-6365.771101,5286.058936
163439.271192,1702.473667,-6587.832884,2681.334243
163439.271511,-1776.494261,-8364.327145,0.000000
163439.271831,-4959.379811,-11103.089130,-5745.716235
163439.272150,-7550.100608,-14285.974681,-8427.050478
163439.272470,-7402.059420,-16062.468941,-8044.002729
163439.272789,-7179.997637,-14878.139434,-8120.612279
163439.273108,-4219.173869,-14508.036463,-4596.572988
163439.273428,-3256.906145,-10732.986159,-1685.410096
163439.273747,222.061783,-6143.709319,0.000000
163439.274067,3775.050304,-6513.812290,5439.278036
163439.274386,5255.462188,-7105.977043,6665.030833
163439.274706,5921.647536,-5107.421000,8886.707777
163439.275025,6587.832884,-5329.482782,7967.393179
163439.275345,5921.647536,-7179.997637,6665.030833
163439.275664,2072.576638,-7846.182985,2298.286494
163439.275984,-3478.967927,-8364.327145,-4903.011187
163439.276303,-6217.729913,-10807.006753,-7354.516781
163439.276623,-7105.977043,-13471.748144,-9269.755526
163439.276942,-9474.636058,-14878.139434,-8273.831378
163439.277262,-6957.935855,-15470.304188,-4903.011187
163439.277581,-2442.679609,-14211.954086,-1302.362347
163439.277901,-1776.494261,-8734.430116,-919.314598
163439.278220,-592.164754,-6143.709319,995.924147
163439.278539,2368.659014,-4811.338623,4060.306139
163439.278859,5329.482782,-3701.029710,6052.154434
163439.279178,4737.318029,-2442.679609,7354.516781
163439.279498,6513.812290,-5255.462188,5745.716235
163439.279817,2960.823768,-7179.997637,3064.381992
163439.280137,962.267725,-10066.800811,-76.609550
163439.280456,-2442.679609,-13619.789333,-3753.867940
163439.280776,-7105.977043,-16062.468941,-5975.544884
163439.281095,-7105.977043,-15396.283594,-9193.145976
163439.281415,-6291.750507,-15692.365970,-6435.202183
163439.281734,-2664.741391,-12731.542202,-3677.258390
163439.282054,0.000000,-9548.656652,-1225.752797
163439.282373,3478.967927,-5995.668130,1838.629195
163439.282693,4663.297435,-4737.318029,3600.648841
163439.283012,4367.215058,-4959.379811,5362.668486
163439.283332,4737.318029,-2442.679609,7354.516781
163439.283651,8734.430116,-7105.977043,9116.536426
163439.283971,3552.988522,-5995.668130,6128.763984
163439.284290,2294.638420,-7624.121203,1838.629195
163439.284609,-592.164754,-9400.615463,-1225.752797
163439.284929,-4441.235652,-11621.233289,-4749.792088
163439.285248,-8068.244768,-11029.068536,-9806.022374
163439.285568,-5995.668130,-15396.283594,-8120.612279
163439.285887,-5107.421000,-14582.057057,-6358.592633
163439.286207,-2960.823768,-12953.603985,-3524.039291
163439.286526,-1258.350101,-9992.780217,-536.266849
163439.286846,2146.597232,-7698.141797,-76.609550
163439.287165,3775.050304,-7920.203579,4596.572988
163439.287485,4663.297435,-5033.400406,4673.182538
163439.287804,4885.359217,-3627.009116,6281.983084
163439.288124,5995.668130,-5625.565159,8273.831378
163439.288443,1480.411884,-4811.338623,612.876398
163439.288763,1406.391290,-9178.553681,306.438199
163439.289082,-3182.885551,-10436.903782,-2911.162892
163439.289402,-5107.421000,-11621.233289,-6435.202183
163439.289721,-5403.503377,-15396.283594,-8044.002729
163439.290040,-5033.400406,-16062.468941,-5439.278036
163439.290360,-3849.070898,-14063.912898,-2987.772442
163439.290679,-1702.473667,-10658.965565,-153.219100
163439.290999,2294.638420,-7550.100608,842.705048
163439.291318,592.164754,-5403.503377,2451.505594
163439.291638,0.000000,-3627.009116,2451.505594
163439.291957,3997.112087,-5773.606348,5286.058936
163439.292277,5107.421000,-5699.585753,7048.078582
163439.292596,4145.153275,-6291.750507,5592.497135
163439.292916,2442.679609,-7105.977043,2451.505594
163439.293235,-1258.350101,-8882.471304,-459.657299
163439.293555,-3775.050304,-9844.739029,-3677.258390
163439.293874,-5033.400406,-13693.809927,-5745.716235
163439.294194,-5551.544565,-15100.201217,-6588.421283
163439.294513,-5921.647536,-14285.974681,-3677.258390
163439.294833,-4811.338623,-12879.583391,-4443.353888
163439.295152,-1554.432478,-10658.965565,-2298.286494
163439.295472,0.000000,-7476.080014,-995.924147
163439.295791,888.247130,-6143.709319,0.000000
163439.296110,2442.679609,-4219.173869,1225.752797
163439.296430,4737.318029,-4219.173869,3677.258390
163439.296749,4737.318029,-5995.668130,7048.078582
163439.297069,6439.791695,-8290.306550,5286.058936
163439.297388,2294.638420,-9178.553681,3294.210641
163439.297708,-1184.329507,-8956.491898,-306.438199
163439.298027,-3997.112087,-10732.986159,-4979.620737
163439.298347,-5107.421000,-12435.459826,-7048.078582
163439.298666,-4811.338623,-14952.160028,-6511.811733
163439.298986,-5773.606348,-11917.315666,-6128.763984
163439.299305,-1554.432478,-12435.459826,-1302.362347
163439.299625,370.102971,-7846.182985,-1532.190996
163439.299944,0.000000,-5995.668130,766.095498
163439.300264,2368.659014,-6291.750507,3064.381992
163439.300583,6439.791695,-8882.471304,7277.907231
163439.300903,4737.318029,-5995.668130,6741.640382
163439.301222,4441.235652,-6513.812290,6741.640382
163439.301541,3108.864956,-7846.182985,4366.744339
163439.301861,1406.391290,-7254.018232,1532.190996
163439.302180,-1776.494261,-7254.018232,-1838.629195
163439.302500,-4219.173869,-11251.130318,-5286.058936
163439.302819,-4811.338623,-13175.665768,-7431.126331
163439.303139,-4811.338623,-14211.954086,-6511.811733
163439.303458,-4737.318029,-14285.974681,-4596.572988
163439.303778,-74.020594,-12435.459826,-2528.115143
163439.304097,-888.247130,-8956.491898,-2145.067394
163439.304417,-444.123565,-7402.059420,76.609550
163439.304736,962.267725,-7476.080014,2298.286494
163439.305056,3552.988522,-6883.915261,6588.421283
163439.305375,5033.400406,-6587.832884,7660.954980
163439.305695,6143.709319,-7550.100608,7354.516781
163439.306014,5847.626942,-8882.471304,4826.401637
163439.306334,0.000000,-5995.668130,612.876398
163439.306653,-4145.153275,-7179.997637,-4290.134789
163439.306973,-2442.679609,-13027.624579,-4979.620737
163439.307292,-5329.482782,-13915.871710,-6435.202183
163439.307611,-5107.421000,-14137.933492,-4290.134789
163439.307931,-2738.761985,-13397.727550,-3294.210641
163439.308250,0.000000,-11029.068536,919.314598
163439.308570,-888.247130,-5995.668130,-2911.162892
163439.308889,-2368.659014,-5995.668130,0.000000
163439.309209,1702.473667,-7698.141797,2374.896044
163439.309528,4663.297435,-8290.306550,6052.154434
163439.309848,4441.235652,-4811.338623,3830.477490
163439.310167,4367.215058,-7698.141797,5439.278036
163439.310487,518.144159,-8734.430116,1915.238745
163439.310806,-1924.535449,-8882.471304,-1991.848295
163439.311126,-5403.503377,-10066.800811,-5898.935335
163439.311445,-8290.306550,-11917.315666,-7124.688131
163439.311765,-7402.059420,-13101.645173,-7584.345430
163439.312084,-4145.153275,-13101.645173,-3677.258390
163439.312404,-3256.906145,-9548.656652,-2451.505594
163439.312723,1628.453072,-9326.594869,612.876398
163439.313042,0.000000,-3923.091493,-2451.505594
163439.313362,518.144159,-7402.059420,1532.190996
163439.313681,1554.432478,-7476.080014,3140.991542
163439.314001,3552.988522,-7550.100608,5209.449386
163439.314320,6735.874072,-9474.636058,7890.783629
163439.314640,5847.626942,-10066.800811,5439.278036
163439.314959,1036.288319,-7179.997637,2068.457845
163439.315279,-4293.194464,-5107.421000,-2911.162892
163439.315598,-5625.565159,-9104.533087,-4903.011187
163439.315918,-5921.647536,-11029.068536,-4903.011187
163439.316237,-4737.318029,-11917.315666,-4903.011187
163439.316557,-2590.720797,-11769.274478,-2451.505594
163439.316876,-1036.288319,-10288.862594,-1762.019645
163439.317196,-1332.370696,-8586.388927,-1685.410096
163439.317515,-74.020594,-9474.636058,-76.609550
163439.317835,-1850.514855,-9400.615463,1532.190996
163439.318154,-74.020594,-9474.636058,1762.019645
163439.318474,1776.494261,-7772.162391,3983.696590
163439.318793,5255.462188,-8364.327145,4903.011187
163439.319112,3478.967927,-5699.585753,2451.505594
163439.319432,2072.576638,-6735.874072,2068.457845
163439.319751,-1702.473667,-7254.018232,-2528.115143
163439.320071,-3775.050304,-9992.780217,-4903.011187
163439.320390,-3182.885551,-13027.624579,-4060.306139
163439.320710,-2368.659014,-13101.645173,-2987.772442
163439.321029,-2368.659014,-11029.068536,-3064.381992
163439.321349,-1184.329507,-10140.821405,-1838.629195
163439.321668,-74.020594,-11695.253884,-76.609550
163439.321988,-2442.679609,-8290.306550,-3140.991542
163439.322307,-74.020594,-10066.800811,2374.896044
163439.322627,1776.494261,-7624.121203,4903.011187
163439.322946,5329.482782,-7179.997637,7354.516781
163439.323266,6291.750507,-6661.853478,7354.516781
163439.323585,4737.318029,-5403.503377,7354.516781
163439.323905,370.102971,-5921.647536,766.095498
163439.324224,-2738.761985,-8438.347739,-3064.381992
163439.324543,-3034.844362,-12435.459826,-6818.249932
163439.324863,-4811.338623,-13545.768739,-7124.688131
163439.325182,-1850.514855,-15396.283594,-3753.867940
163439.325502,-2960.823768,-13175.665768,-3983.696590
163439.325821,-2960.823768,-11473.192101,-4519.963438
163439.326141,-3478.967927,-9252.574275,-3830.477490
163439.326460,-2442.679609,-9622.677246,-76.609550
163439.326780,0.000000,-5995.668130,0.000000
163439.327099,4811.338623,-7476.080014,6665.030833
163439.327419,7402.059420,-5921.647536,8733.488677
163439.327738,7994.224174,-4737.318029,7048.078582
163439.328058,5847.626942,-4737.318029,3600.648841
163439.328377,518.144159,-5699.585753,-2451.505594
163439.328697,-2590.720797,-10955.047942,-4979.620737
163439.329016,-5773.606348,-13027.624579,-7431.126331
163439.329336,-3034.844362,-15396.283594,-5592.497135
163439.329655,-2368.659014,-14285.974681,-4136.915689
163439.329975,-2960.823768,-11325.150913,-3064.381992
163439.330294,-3330.926739,-9992.780217,-3370.820191
163439.330613,-4219.173869,-7994.224174,-2221.676944
163439.330933,-1332.370696,-8290.306550,919.314598
163439.331252,2886.803174,-6291.750507,3524.039291
163439.331572,4663.297435,-6143.709319,7048.078582
163439.331891,7031.956449,-6513.812290,9652.803275
163439.332211,7031.956449,-5625.565159,6052.154434
163439.332530,444.123565,-4219.173869,1072.533697
163439.332850,-4441.235652,-7772.162391,-3064.381992
163439.333169,-6883.915261,-10732.986159,-7890.783629
163439.333489,-6735.874072,-14582.057057,-7814.174080
163439.333808,-4441.235652,-16210.510130,-5745.716235
163439.334128,-3478.967927,-14434.015869,-4903.011187
163439.334447,-4959.379811,-10436.903782,-4903.011187
163439.334767,-4145.153275,-8882.471304,-4060.306139
163439.335086,-2960.823768,-7179.997637,-1225.752797
163439.335406,2368.659014,-7846.182985,4290.134789
163439.335725,6809.894666,-6513.812290,8503.660028
163439.336045,8290.306550,-5995.668130,11031.775171
163439.336364,8216.285956,-5033.400406,7967.393179
163439.336683,4959.379811,-5107.421000,4749.792088
163439.337003,0.000000,-6735.874072,0.000000
163439.337322,-6217.729913,-8364.327145,-6741.640382
163439.337642,-7179.997637,-14211.954086,-7431.126331
163439.337961,-5995.668130,-16580.613101,-6358.592633
163439.338281,-4515.256246,-14656.077652,-4290.134789
163439.338600,-1850.514855,-11843.295072,-4060.306139
163439.338920,-370.102971,-10658.965565,-76.609550
163439.339239,-2960.823768,-7476.080014,-1149.143247
163439.339559,0.000000,-7105.977043,1532.190996
163439.339878,3775.050304,-5921.647536,5286.058936
163439.340198,6513.812290,-5921.647536,7660.954980
163439.340517,7031.956449,-5255.462188,8120.612279
163439.340837,6439.791695,-7698.141797,5439.278036
163439.341156,1480.411884,-7698.141797,1455.581446
163439.341476,-5329.482782,-7179.997637,-6128.763984
163439.341795,-6809.894666,-12213.398043,-7660.954980
163439.342114,-4811.338623,-14211.954086,-7431.126331
163439.342434,-3701.029710,-15174.221811,-4903.011187
163439.342753,-444.123565,-13249.686362,-2987.772442
163439.343073,-74.020594,-10436.903782,-1608.800546
163439.343392,-74.020594,-7328.038826,306.438199
163439.343712,222.061783,-7476.080014,1225.752797
163439.344031,3478.967927,-7994.224174,3677.258390
163439.344351,7031.956449,-7698.141797,4826.401637
163439.344670,5403.503377,-6661.853478,6281.983084
163439.344990,4737.318029,-4811.338623,4903.011187
163439.345309,4663.297435,-8290.306550,3600.648841
163439.345629,-1998.556043,-8068.244768,-995.924147
163439.345948,-6069.688724,-9400.615463,-5898.935335
163439.346268,-8142.265362,-11991.336260,-8350.440928
163439.346587,-6217.729913,-13693.809927,-4596.572988
163439.346907,-2960.823768,-11325.150913,-3753.867940
163439.347226,-2368.659014,-9548.656652,0.000000
163439.347546,444.123565,-8956.491898,306.438199
163439.347865,-666.185348,-9474.636058,-76.609550
163439.348184,-2368.659014,-5107.421000,-2451.505594
163439.348504,2294.638420,-9474.636058,2987.772442
163439.348823,3330.926739,-9400.615463,4596.572988
163439.349143,4737.318029,-9770.718434,6358.592633
163439.349462,3478.967927,-8808.450710,3907.087040
163439.349782,0.000000,-7179.997637,1838.629195
163439.350101,-2146.597232,-7698.141797,-3753.867940
163439.350421,-5329.482782,-8956.491898,-6052.154434
163439.350740,-5403.503377,-10807.006753,-6818.249932
163439.351060,-2368.659014,-11917.315666,-1225.752797
163439.351379,0.000000,-9548.656652,-2451.505594
163439.351699,1406.391290,-9400.615463,1608.800546
163439.352018,-962.267725,-6217.729913,-1149.143247
163439.352337,-2590.720797,-7031.956449,-1225.752797
163439.352657,1110.308913,-9474.636058,-76.609550
163439.352976,3478.967927,-9474.636058,3447.429741
163439.353296,2590.720797,-9548.656652,4749.792088
163439.353615,0.000000,-7179.997637,3064.381992
163439.353934,888.247130,-7994.224174,2987.772442
163439.354254,-1776.494261,-7179.997637,0.000000
163439.354573,-5403.503377,-7031.956449,-5822.325785
163439.354893,-3923.091493,-9844.739029,-6971.469032
163439.355212,-2368.659014,-11917.315666,-1608.800546
163439.355531,296.082377,-10584.944971,-536.266849
163439.355851,3478.967927,-10658.965565,-76.609550
163439.356170,222.061783,-7994.224174,-76.609550
163439.356490,-74.020594,-8882.471304,-2528.115143
163439.356809,-2664.741391,-8660.409521,-2221.676944
163439.357128,-1776.494261,-10140.821405,-2451.505594
163439.357448,-592.164754,-9400.615463,0.000000
163439.357767,2294.638420,-10807.006753,3600.648841
163439.358087,2368.659014,-8660.409521,3064.381992
163439.358406,-1036.288319,-7105.977043,306.438199
163439.358725,-3627.009116,-7994.224174,-2528.115143
163439.359045,-6513.812290,-8660.409521,-5132.839837
163439.359364,-7698.141797,-10140.821405,-4596.572988
163439.359684,-5921.647536,-11325.150913,-1532.190996
163439.360003,-3552.988522,-10732.986159,1532.190996
163439.360322,-1258.350101,-8438.347739,-76.609550
163439.360642,-74.020594,-8290.306550,-76.609550
163439.360961,-3923.091493,-6291.750507,153.219100
163439.361281,-4737.318029,-8438.347739,0.000000
163439.361600,-3997.112087,-10214.842000,459.657299
163439.361919,-3404.947333,-10732.986159,3677.258390
163439.362239,-4293.194464,-10214.842000,1915.238745
163439.362558,-5107.421000,-10362.883188,1762.019645
163439.362878,-3627.009116,-9474.636058,-383.047749
163439.363197,-6513.812290,-6957.935855,-1991.848295
163439.363516,-5403.503377,-8290.306550,-2528.115143
163439.363836,-9030.512492,-8512.368333,-3677.258390
163439.364155,-7179.997637,-10658.965565,-2374.896044
163439.364475,-5995.668130,-9770.718434,0.000000
163439.364794,-6513.812290,-9030.512492,153.219100
163439.365113,-9474.636058,-5995.668130,-2451.505594
163439.365433,-3627.009116,-10066.800811,1302.362347
163439.365752,-2220.617826,-8142.265362,2757.943793
163439.366072,-3923.091493,-7328.038826,1838.629195
163439.366391,-5107.421000,-7994.224174,-995.924147
163439.366710,-5403.503377,-8290.306550,-3907.087040
163439.367030,-3552.988522,-12213.398043,-689.485948
163439.367349,-3923.091493,-13027.624579,383.047749
163439.367669,-4811.338623,-12879.583391,1149.143247
163439.367988,-7105.977043,-10140.821405,-1225.752797
163439.368307,-5699.585753,-8364.327145,-3064.381992
163439.368627,-740.205942,-9844.739029,1302.362347
163439.368946,1406.391290,-7846.182985,4903.011187
163439.369266,1184.329507,-5773.606348,4596.572988
163439.369585,-666.185348,-4145.153275,0.000000
163439.369904,-3256.906145,-7254.018232,-3524.039291
163439.370224,-3627.009116,-12065.356855,-2451.505594
163439.370543,-3034.844362,-15988.448347,-76.609550
163439.370863,-5107.421000,-12583.501014,-229.828649
163439.371182,-6809.894666,-11029.068536,229.828649
163439.371501,-5551.544565,-8364.327145,-2681.334243
163439.371821,-1258.350101,-8512.368333,-1149.143247
163439.372140,2220.617826,-8660.409521,2451.505594
163439.372460,3108.864956,-7254.018232,3677.258390
163439.372779,0.000000,-4811.338623,0.000000
163439.373098,-592.164754,-6217.729913,-689.485948
163439.373418,-2664.741391,-5403.503377,-4443.353888
163439.373737,-2368.659014,-9326.594869,-3983.696590
163439.374057,-2442.679609,-13027.624579,-4060.306139
163439.374376,-3849.070898,-15174.221811,-2757.943793
163439.374695,-4219.173869,-15174.221811,-2374.896044
163439.375015,-4293.194464,-13767.830521,689.485948
163439.375334,-2738.761985,-10510.924376,2451.505594
163439.375654,-2368.659014,-4811.338623,1838.629195
163439.375973,1702.473667,-4589.276840,4213.525239
163439.376292,3478.967927,-3552.988522,4826.401637
163439.376612,1628.453072,-3849.070898,3294.210641
163439.376931,0.000000,-4811.338623,1225.752797
163439.377251,-1258.350101,-11843.295072,-76.609550
163439.377570,-6957.935855,-12509.480420,-2911.162892
163439.377889,-9104.533087,-13027.624579,-5822.325785
163439.378209,-9992.780217,-13693.809927,-5515.887586
163439.378528,-9104.533087,-11843.295072,-5209.449386
163439.378848,-6513.812290,-9548.656652,-3064.381992
163439.379167,-3478.967927,-9030.512492,-1302.362347
163439.379486,-1258.350101,-8290.306550,306.438199
163439.379806,-74.020594,-8882.471304,2374.896044
163439.380125,-3404.947333,-6957.935855,2757.943793
163439.380445,-666.185348,-9474.636058,4826.401637
163439.380764,-2220.617826,-9252.574275,5056.230287
163439.381083,-1924.535449,-8882.471304,4596.572988
163439.381403,-2886.803174,-8882.471304,2528.115143
163439.381722,-3627.009116,-9030.512492,-76.609550
163439.382042,-7698.141797,-8364.327145,-3370.820191
163439.382361,-9030.512492,-9696.697840,-7354.516781
163439.382680,-8512.368333,-11843.295072,-6971.469032
163439.383000,-8660.409521,-10955.047942,-6818.249932
163439.383319,-6809.894666,-9548.656652,-4290.134789
163439.383639,-74.020594,-11251.130318,1762.019645
163439.383958,1628.453072,-7772.162391,5439.278036
163439.384277,2960.823768,-7550.100608,6971.469032
163439.384597,3256.906145,-8068.244768,6971.469032
163439.384916,1184.329507,-9548.656652,7048.078582
163439.385236,-2368.659014,-7772.162391,1149.143247
163439.385555,-5921.647536,-10140.821405,0.000000
163439.385874,-7179.997637,-11547.212695,-3753.867940
163439.386194,-9844.739029,-11843.295072,-5592.497135
163439.386513,-11843.295072,-8660.409521,-8580.269578
163439.386833,-7254.018232,-10955.047942,-5132.839837
163439.387152,-4145.153275,-9844.739029,-2298.286494
163439.387471,-296.082377,-9252.574275,1762.019645
163439.387791,1776.494261,-7846.182985,4060.306139
163439.388110,2368.659014,-7476.080014,5745.716235
163439.388430,2294.638420,-6513.812290,3447.429741
163439.388749,1184.329507,-6587.832884,3064.381992
163439.389068,0.000000,-8364.327145,2451.505594
163439.389388,-444.123565,-10732.986159,2757.943793
163439.389707,-2368.659014,-9548.656652,0.000000
163439.390027,1332.370696,-11843.295072,459.657299
163439.390346,1702.473667,-11547.212695,153.219100
163439.390665,2294.638420,-11399.171507,1225.752797
163439.390985,4367.215058,-11251.130318,3600.648841
163439.391304,5551.544565,-8882.471304,3600.648841
163439.391624,3923.091493,-7179.997637,4673.182538
163439.391943,2886.803174,-5403.503377,4290.134789
163439.392262,3552.988522,-8364.327145,7660.954980
163439.392582,3552.988522,-8364.327145,7967.393179
163439.392901,0.000000,-7772.162391,4903.011187
163439.393221,-1258.350101,-9252.574275,4366.744339
163439.393540,-3256.906145,-10066.800811,2757.943793
163439.393859,-3849.070898,-10288.862594,1838.629195
163439.394179,-1850.514855,-11843.295072,1762.019645
163439.394498,-2442.679609,-11547.212695,4290.134789
163439.394818,-74.020594,-11251.130318,5439.278036
163439.395137,0.000000,-7772.162391,6741.640382
163439.395456,1776.494261,-5403.503377,4903.011187
163439.395776,888.247130,-3478.967927,3677.258390
163439.396095,2294.638420,-5329.482782,5439.278036
163439.396415,814.226536,-7031.956449,4290.134789
163439.396734,-296.082377,-10214.842000,4290.134789
163439.397053,-1554.432478,-13619.789333,3600.648841
163439.397373,-2368.659014,-15470.304188,5745.716235
163439.397692,-3552.988522,-15174.221811,6128.763984
163439.398012,-2368.659014,-13693.809927,9193.145976
163439.398331,-3552.988522,-8364.327145,8580.269578
163439.398650,-666.185348,-3256.906145,7354.516781
163439.398970,2294.638420,-2368.659014,6971.469032
163439.399289,1332.370696,-1702.473667,6358.592633
163439.399609,1258.350101,-5033.400406,6052.154434
163439.399928,148.041188,-8586.388927,6205.373534
163439.400247,-1776.494261,-11325.150913,7737.564530
163439.400567,-3552.988522,-11695.253884,4826.401637
163439.400886,-4515.256246,-12879.583391,3983.696590
163439.401206,-3034.844362,-11843.295072,2987.772442
163439.401525,-3627.009116,-11251.130318,2374.896044
163439.401844,-74.020594,-11843.295072,4826.401637
163439.402164,0.000000,-9548.656652,5056.230287
163439.402483,222.061783,-10140.821405,6128.763984
163439.402803,-2072.576638,-8660.409521,3600.648841
163439.403122,-3330.926739,-7772.162391,2987.772442
163439.403441,-4737.318029,-3627.009116,0.000000
163439.403761,1480.411884,-6661.853478,2451.505594
163439.404080,2368.659014,-7179.997637,3600.648841
163439.404400,2960.823768,-8882.471304,3217.601092
163439.404719,2590.720797,-11843.295072,1149.143247
163439.405038,-962.267725,-11843.295072,-1915.238745
163439.405358,-2220.617826,-15100.201217,-153.219100
163439.405677,-2442.679609,-14211.954086,-76.609550
163439.405997,-74.020594,-13027.624579,-76.609550
163439.406316,0.000000,-9548.656652,306.438199
163439.406635,148.041188,-6883.915261,0.000000
163439.406955,2960.823768,-8586.388927,2451.505594
163439.407274,2812.782580,-7550.100608,3140.991542
163439.407594,1480.411884,-5773.606348,1762.019645
163439.407913,1110.308913,-6291.750507,-1378.971896
163439.408232,2886.803174,-8512.368333,612.876398
163439.408552,4663.297435,-10140.821405,5209.449386
163439.408871,4663.297435,-8290.306550,2374.896044
163439.409191,-1554.432478,-8068.244768,-1838.629195
163439.409510,-5625.565159,-11029.068536,-4903.011187
163439.409829,-7105.977043,-13249.686362,-4673.182538
163439.410149,-5329.482782,-12953.603985,-1072.533697
163439.410468,-3330.926739,-9918.759623,229.828649
163439.410788,148.041188,-7402.059420,0.000000
163439.411107,888.247130,-3330.926739,0.000000
163439.411426,3034.844362,-3627.009116,0.000000
163439.411746,2664.741391,-6291.750507,2145.067394
163439.412065,2294.638420,-9474.636058,-76.609550
163439.412385,222.061783,-12731.542202,-76.609550
