#time,accel_x,accel_y,accel_z
59262.074606,0.000000,-9548.656652,3217.601092
59262.074915,-74.020594,-9474.636058,-76.609550
59262.075225,0.000000,-8364.327145,0.000000
59262.075535,-666.185348,-8216.285956,-536.266849
59262.075844,0.000000,-8956.491898,1072.533697
59262.076154,-370.102971,-8882.471304,689.485948
59262.076463,-518.144159,-9104.533087,995.924147
59262.076773,-74.020594,-10140.821405,2834.553343
59262.077083,1110.308913,-11843.295072,2987.772442
59262.077392,-74.020594,-10066.800811,1762.019645
59262.077702,-3552.988522,-7179.997637,0.000000
59262.078012,1998.556043,-11251.130318,2374.896044
59262.078321,-2072.576638,-7179.997637,0.000000
59262.078631,-74.020594,-9474.636058,842.705048
59262.078941,-740.205942,-8808.450710,383.047749
59262.079250,-370.102971,-9104.533087,612.876398
59262.079560,-74.020594,-9326.594869,1149.143247
59262.079869,0.000000,-8956.491898,2451.505594
59262.080179,740.205942,-11325.150913,2911.162892
59262.080489,1110.308913,-10510.924376,2374.896044
59262.080798,-370.102971,-7698.141797,-689.485948
59262.081108,0.000000,-8956.491898,1225.752797
59262.081418,-74.020594,-8882.471304,-76.609550
59262.081727,-74.020594,-9474.636058,1762.019645
59262.082037,-444.123565,-8512.368333,842.705048
59262.082346,-518.144159,-8734.430116,842.705048
59262.082656,-296.082377,-8882.471304,612.876398
59262.082966,-1776.494261,-7772.162391,0.000000
59262.083275,0.000000,-8364.327145,1532.190996
59262.083585,-148.041188,-9326.594869,1838.629195
59262.083895,-1406.391290,-7254.018232,-766.095498
59262.084204,0.000000,-9548.656652,1378.971896
59262.084514,-74.020594,-9474.636058,2374.896044
59262.084824,1702.473667,-10955.047942,2068.457845
59262.085133,-74.020594,-8956.491898,459.657299
59262.085443,-296.082377,-8956.491898,919.314598
59262.085752,-296.082377,-9252.574275,995.924147
59262.086062,-1924.535449,-7772.162391,0.000000
59262.086372,-2368.659014,-7179.997637,0.000000
59262.086681,-888.247130,-9252.574275,1225.752797
59262.086991,-74.020594,-9474.636058,-76.609550
59262.087301,0.000000,-8956.491898,1225.752797
59262.087610,1406.391290,-11843.295072,2374.896044
59262.087920,0.000000,-9844.739029,1838.629195
59262.088230,-74.020594,-9474.636058,919.314598
59262.088539,-370.102971,-9030.512492,995.924147
59262.088849,-444.123565,-9178.553681,612.876398
59262.089158,-1110.308913,-7550.100608,-995.924147
59262.089468,-3552.988522,-5995.668130,0.000000
59262.089778,-1184.329507,-8364.327145,306.438199
59262.090087,2294.638420,-11547.212695,1762.019645
59262.090397,-3552.988522,-7772.162391,0.000000
59262.090707,1110.308913,-11251.130318,2374.896044
59262.091016,0.000000,-8660.409521,1225.752797
59262.091326,-74.020594,-9622.677246,995.924147
59262.091636,-296.082377,-9030.512492,919.314598
59262.091945,-370.102971,-9178.553681,842.705048
59262.092255,-666.185348,-8290.306550,-383.047749
59262.092564,-3552.988522,-5995.668130,0.000000
59262.092874,0.000000,-9844.739029,3064.381992
59262.093184,-74.020594,-8882.471304,-76.609550
59262.093493,0.000000,-8364.327145,1225.752797
59262.093803,-74.020594,-11843.295072,2374.896044
59262.094113,0.000000,-8660.409521,1838.629195
59262.094422,370.102971,-9178.553681,229.828649
59262.094732,-74.020594,-9104.533087,1149.143247
59262.095042,-222.061783,-9326.594869,995.924147
59262.095351,-370.102971,-7994.224174,-689.485948
59262.095661,-2368.659014,-5995.668130,0.000000
59262.095970,0.000000,-8956.491898,1225.752797
59262.096280,-74.020594,-9474.636058,-76.609550
59262.096590,0.000000,-7772.162391,0.000000
59262.096899,1110.308913,-11843.295072,2374.896044
59262.097209,1184.329507,-9548.656652,2451.505594
59262.097519,-74.020594,-9178.553681,689.485948
59262.097828,-148.041188,-8956.491898,995.924147
59262.098138,444.123565,-8734.430116,1149.143247
59262.098447,0.000000,-7179.997637,0.000000
59262.098757,0.000000,-5995.668130,0.000000
59262.099067,1332.370696,-9030.512492,3064.381992
59262.099376,2294.638420,-9474.636058,-76.609550
59262.099686,0.000000,-7179.997637,612.876398
59262.099996,4071.132681,-11251.130318,2374.896044
59262.100305,2664.741391,-8956.491898,1838.629195
59262.100615,3182.885551,-9770.718434,842.705048
59262.100925,2368.659014,-9474.636058,306.438199
59262.101234,2220.617826,-9474.636058,0.000000
59262.101544,2590.720797,-8586.388927,-689.485948
59262.101853,1406.391290,-7772.162391,-1685.410096
59262.102163,2516.700203,-8068.244768,0.000000
59262.102473,7031.956449,-10658.965565,2374.896044
59262.102782,5329.482782,-8808.450710,1838.629195
59262.103092,7031.956449,-9474.636058,3524.039291
59262.103402,4737.318029,-7328.038826,1838.629195
59262.103711,6069.688724,-8956.491898,1991.848295
59262.104021,5403.503377,-8660.409521,995.924147
59262.104331,5625.565159,-8956.491898,689.485948
59262.104640,7031.956449,-9474.636058,-76.609550
59262.104950,6735.874072,-8882.471304,-689.485948
59262.105259,5181.441594,-8364.327145,-3677.258390
59262.105569,8216.285956,-13027.624579,2374.896044
59262.105879,4071.132681,-10658.965565,-1378.971896
59262.106188,3552.988522,-12509.480420,612.876398
59262.106498,1036.288319,-11843.295072,-1225.752797
59262.106808,888.247130,-11399.171507,0.000000
59262.107117,1998.556043,-9622.677246,612.876398
59262.107427,2886.803174,-7402.059420,1378.971896
59262.107737,5847.626942,-7698.141797,3600.648841
59262.108046,8216.285956,-4737.318029,2374.896044
59262.108356,7031.956449,-4145.153275,2374.896044
59262.108665,9474.636058,-5699.585753,3677.258390
59262.108975,10584.944971,-7994.224174,3294.210641
59262.109285,2960.823768,-7772.162391,0.000000
59262.109594,814.226536,-14656.077652,-1915.238745
59262.109904,-3182.885551,-17764.942608,-3830.477490
59262.110214,-5329.482782,-18135.045579,-4060.306139
59262.110523,-6217.729913,-14211.954086,-3753.867940
59262.110833,-5773.606348,-11621.233289,-1149.143247
59262.111143,-2442.679609,-9474.636058,-76.609550
59262.111452,-74.020594,-7698.141797,2987.772442
59262.111762,740.205942,-1850.514855,2451.505594
59262.112071,5847.626942,-4737.318029,7814.174080
59262.112381,0.000000,-1258.350101,3064.381992
59262.112691,-74.020594,-4737.318029,4826.401637
59262.113000,-2590.720797,-5107.421000,3524.039291
59262.113310,-4071.132681,-5773.606348,1225.752797
59262.113620,-4885.359217,-7105.977043,-842.705048
59262.113929,-7105.977043,-9548.656652,-1225.752797
59262.114239,-6957.935855,-13545.768739,-1225.752797
59262.114548,-5995.668130,-17764.942608,-383.047749
59262.114858,-7772.162391,-18949.272115,-1915.238745
59262.115168,-11843.295072,-16654.633695,-1838.629195
59262.115477,-7179.997637,-12435.459826,-1302.362347
59262.115787,-6143.709319,-9474.636058,1915.238745
59262.116097,-3034.844362,-2294.638420,2681.334243
59262.116406,2812.782580,-518.144159,5515.887586
59262.116716,2664.741391,222.061783,7737.564530
59262.117026,3552.988522,-74.020594,6128.763984
59262.117335,3552.988522,-5107.421000,6128.763984
59262.117645,0.000000,-9548.656652,4903.011187
59262.117954,-2442.679609,-14211.954086,-76.609550
59262.118264,-9474.636058,-14582.057057,-3677.258390
59262.118574,-6587.832884,-15988.448347,-2528.115143
59262.118883,-4811.338623,-13619.789333,-2221.676944
59262.119193,-3775.050304,-9992.780217,-2298.286494
59262.119503,0.000000,-8438.347739,-536.266849
59262.119812,2960.823768,-7254.018232,1685.410096
59262.120122,2664.741391,-5995.668130,1838.629195
59262.120432,1184.329507,-5995.668130,1838.629195
59262.120741,0.000000,-7772.162391,1225.752797
59262.121051,3478.967927,-11843.295072,2987.772442
59262.121360,0.000000,-8364.327145,0.000000
59262.121670,4663.297435,-11843.295072,3600.648841
59262.121980,2516.700203,-7031.956449,1532.190996
59262.122289,3330.926739,-7254.018232,612.876398
59262.122599,3256.906145,-9326.594869,1225.752797
59262.122909,2960.823768,-11843.295072,995.924147
59262.123218,1702.473667,-11843.295072,-1608.800546
59262.123528,-1998.556043,-11917.315666,-1378.971896
59262.123838,-3552.988522,-9548.656652,-2451.505594
59262.124147,1184.329507,-11177.109724,1149.143247
59262.124457,1110.308913,-6217.729913,-459.657299
59262.124766,4145.153275,-5107.421000,3064.381992
59262.125076,3849.070898,-3627.009116,919.314598
59262.125386,5995.668130,-5921.647536,1455.581446
59262.125695,5033.400406,-9030.512492,1225.752797
59262.126005,2590.720797,-11473.192101,459.657299
59262.126315,-74.020594,-14211.954086,-1302.362347
59262.126624,-1850.514855,-15988.448347,-689.485948
59262.126934,-4811.338623,-11917.315666,-3907.087040
59262.127243,-3552.988522,-10732.986159,0.000000
59262.127553,-74.020594,-7994.224174,-76.609550
59262.127863,592.164754,-3627.009116,1225.752797
59262.128172,3182.885551,-3923.091493,2757.943793
59262.128482,3923.091493,-5403.503377,3753.867940
59262.128792,2294.638420,-7105.977043,2911.162892
59262.129101,-814.226536,-9474.636058,2374.896044
59262.129411,-666.185348,-11843.295072,-76.609550
59262.129721,-2442.679609,-11843.295072,-153.219100
59262.130030,-2738.761985,-9474.636058,-2528.115143
59262.130340,-4737.318029,-7772.162391,-2451.505594
59262.130649,-1258.350101,-10066.800811,-689.485948
59262.130959,-5921.647536,-7179.997637,-2451.505594
59262.131269,-1776.494261,-11547.212695,-612.876398
59262.131578,-2664.741391,-12879.583391,0.000000
59262.131888,-4441.235652,-12583.501014,536.266849
59262.132198,-4219.173869,-10658.965565,1149.143247
59262.132507,-1776.494261,-9474.636058,4826.401637
59262.132817,-74.020594,-6217.729913,3677.258390
59262.133127,4663.297435,-4737.318029,6052.154434
59262.133436,0.000000,-370.102971,3064.381992
59262.133746,3256.906145,-5625.565159,5439.278036
59262.134055,0.000000,-4959.379811,153.219100
59262.134365,-1850.514855,-11843.295072,1762.019645
59262.134675,-5921.647536,-12879.583391,-1532.190996
59262.134984,-8438.347739,-14434.015869,-2528.115143
59262.135294,-7031.956449,-12509.480420,-2834.553343
59262.135604,-5921.647536,-10140.821405,0.000000
59262.135913,-1184.329507,-6587.832884,-1608.800546
59262.136223,1184.329507,-5995.668130,2451.505594
59262.136533,7031.956449,-6809.894666,4213.525239
59262.136842,4145.153275,-6587.832884,2451.505594
59262.137152,4663.297435,-9474.636058,3600.648841
59262.137461,2146.597232,-11547.212695,2374.896044
59262.137771,-1628.453072,-11695.253884,1072.533697
59262.138081,-1628.453072,-10732.986159,0.000000
59262.138390,-1554.432478,-9918.759623,76.609550
59262.138700,-2368.659014,-5995.668130,0.000000
59262.139010,0.000000,-5403.503377,0.000000
59262.139319,592.164754,-8364.327145,2451.505594
59262.139629,3478.967927,-11251.130318,2374.896044
59262.139939,0.000000,-9548.656652,-1762.019645
59262.140248,1110.308913,-11843.295072,-76.609550
59262.140558,-296.082377,-10955.047942,0.000000
59262.140867,-148.041188,-8882.471304,-536.266849
59262.141177,666.185348,-7772.162391,-229.828649
59262.141487,2664.741391,-6291.750507,536.266849
59262.141796,1850.514855,-3627.009116,-1762.019645
59262.142106,2368.659014,-5403.503377,-2068.457845
59262.142416,2368.659014,-9548.656652,1225.752797
59262.142725,2294.638420,-14211.954086,-76.609550
59262.143035,-2368.659014,-13397.727550,0.000000
59262.143344,-74.020594,-15396.283594,-76.609550
59262.143654,-2368.659014,-10140.821405,153.219100
59262.143964,148.041188,-7105.977043,1072.533697
59262.144274,2294.638420,-4885.359217,2451.505594
59262.144583,3997.112087,-4071.132681,2834.553343
59262.144893,4663.297435,-3997.112087,2374.896044
59262.145203,1184.329507,-5107.421000,536.266849
59262.145513,-3552.988522,-7179.997637,0.000000
59262.145822,-1776.494261,-13989.892304,-76.609550
59262.146132,-4811.338623,-13619.789333,-2528.115143
59262.146442,-4737.318029,-12287.418637,-1225.752797
59262.146752,-3182.885551,-10066.800811,-2221.676944
59262.147061,-2368.659014,-7179.997637,-1838.629195
59262.147371,592.164754,-6883.915261,612.876398
59262.147681,2368.659014,-7624.121203,1608.800546
59262.147990,1702.473667,-7328.038826,383.047749
59262.148300,0.000000,-8364.327145,612.876398
59262.148610,-1184.329507,-11917.315666,3677.258390
59262.148920,-1258.350101,-11843.295072,-76.609550
59262.149229,-4737.318029,-8956.491898,153.219100
59262.149539,-222.061783,-9474.636058,3600.648841
59262.149849,-2368.659014,-5995.668130,612.876398
59262.150159,-888.247130,-6291.750507,1608.800546
59262.150468,-296.082377,-7920.203579,1762.019645
59262.150778,-1110.308913,-9326.594869,1455.581446
59262.151088,-1258.350101,-10658.965565,1149.143247
59262.151398,-4811.338623,-9548.656652,-76.609550
59262.151707,-7105.977043,-8364.327145,0.000000
59262.152017,-1258.350101,-11547.212695,2068.457845
59262.152327,-2294.638420,-6291.750507,0.000000
59262.152637,2664.741391,-7179.997637,3370.820191
59262.152946,1258.350101,-4811.338623,766.095498
59262.153256,2886.803174,-7550.100608,1915.238745
59262.153566,1480.411884,-9992.780217,1608.800546
59262.153876,-1110.308913,-12805.562797,919.314598
59262.154185,-1258.350101,-14211.954086,-76.609550
59262.154495,-3034.844362,-12731.542202,-76.609550
59262.154805,-3627.009116,-8586.388927,-1302.362347
59262.155115,0.000000,-7179.997637,2451.505594
59262.155424,2886.803174,-5329.482782,3294.210641
59262.155734,1184.329507,-2442.679609,2451.505594
59262.156044,2960.823768,-4219.173869,2604.724693
59262.156353,3108.864956,-7476.080014,3217.601092
59262.156663,666.185348,-9844.739029,1378.971896
59262.156973,-2368.659014,-11843.295072,-153.219100
59262.157283,-1850.514855,-14211.954086,-76.609550
59262.157592,-1850.514855,-13027.624579,-76.609550
59262.157902,-1258.350101,-8290.306550,-3140.991542
59262.158212,0.000000,-5995.668130,-2145.067394
59262.158522,3478.967927,-8660.409521,2374.896044
59262.158831,1184.329507,-6291.750507,612.876398
59262.159141,2886.803174,-9474.636058,1149.143247
59262.159451,1480.411884,-11325.150913,1532.190996
59262.159761,-370.102971,-11769.274478,842.705048
59262.160070,-1480.411884,-10732.986159,229.828649
59262.160380,74.020594,-11251.130318,2221.676944
59262.160690,2294.638420,-8882.471304,2451.505594
59262.161000,3478.967927,-5921.647536,-76.609550
59262.161309,0.000000,-3627.009116,306.438199
59262.161619,3478.967927,-8290.306550,3600.648841
59262.161929,0.000000,-7476.080014,0.000000
59262.162239,-74.020594,-11843.295072,-76.609550
59262.162548,-2738.761985,-12953.603985,-612.876398
59262.162858,-3404.947333,-12953.603985,-1685.410096
59262.163168,-2738.761985,-10881.027347,-1532.190996
59262.163477,-1776.494261,-8364.327145,612.876398
59262.163787,2368.659014,-7179.997637,0.000000
59262.164097,4663.297435,-8068.244768,2911.162892
59262.164407,3478.967927,-7698.141797,1149.143247
59262.164716,1480.411884,-9992.780217,3370.820191
59262.165026,-74.020594,-11251.130318,-689.485948
59262.165336,-1554.432478,-13619.789333,842.705048
59262.165646,-3849.070898,-11399.171507,-383.047749
59262.165955,-2886.803174,-9326.594869,153.219100
59262.166265,-1332.370696,-6735.874072,1608.800546
59262.166575,0.000000,-3627.009116,1838.629195
59262.166885,296.082377,-4811.338623,612.876398
59262.167194,2368.659014,-7772.162391,4903.011187
59262.167504,1702.473667,-9474.636058,2987.772442
59262.167814,-3256.906145,-10732.986159,1225.752797
59262.168124,-2442.679609,-13619.789333,-76.609550
59262.168433,-4811.338623,-12139.377449,-229.828649
59262.168743,-4515.256246,-10066.800811,-1302.362347
59262.169053,-2368.659014,-7772.162391,-229.828649
59262.169363,-74.020594,-6069.688724,383.047749
59262.169672,0.000000,-4811.338623,0.000000
59262.169982,1184.329507,-4811.338623,0.000000
59262.170292,2664.741391,-11029.068536,4903.011187
59262.170602,-74.020594,-12435.459826,2374.896044
59262.170911,-2960.823768,-11917.315666,2451.505594
59262.171221,-1258.350101,-13027.624579,-76.609550
59262.171531,-3849.070898,-9696.697840,1225.752797
59262.171840,-1776.494261,-7105.977043,1149.143247
59262.172150,-370.102971,-5403.503377,1302.362347
59262.172460,1406.391290,-5847.626942,1991.848295
59262.172770,814.226536,-5255.462188,536.266849
59262.173079,0.000000,-7254.018232,536.266849
59262.173389,-3552.988522,-9548.656652,0.000000
59262.173699,-666.185348,-13027.624579,-76.609550
59262.174009,-4737.318029,-11029.068536,0.000000
59262.174318,-666.185348,-13027.624579,-76.609550
59262.174628,-1184.329507,-7920.203579,-919.314598
59262.174938,1480.411884,-6957.935855,-383.047749
59262.175248,2960.823768,-6735.874072,612.876398
59262.175557,3404.947333,-8068.244768,1225.752797
59262.175867,2886.803174,-9474.636058,-76.609550
59262.176177,-74.020594,-11843.295072,-76.609550
59262.176487,-4145.153275,-10732.986159,0.000000
59262.176796,-1628.453072,-12509.480420,1225.752797
59262.177106,-1554.432478,-7772.162391,-2221.676944
59262.177416,1184.329507,-7772.162391,3217.601092
59262.177726,1184.329507,-3923.091493,1225.752797
59262.178035,3182.885551,-5329.482782,2145.067394
59262.178345,3330.926739,-7179.997637,2451.505594
59262.178655,1702.473667,-9844.739029,1915.238745
59262.178965,-74.020594,-12435.459826,1762.019645
59262.179274,-2442.679609,-15396.283594,-76.609550
59262.179584,-5773.606348,-11029.068536,-3907.087040
59262.179894,-2960.823768,-10732.986159,-919.314598
59262.180203,-370.102971,-8290.306550,-76.609550
59262.180513,0.000000,-4811.338623,306.438199
59262.180823,2146.597232,-5255.462188,76.609550
59262.181133,3849.070898,-7476.080014,2068.457845
59262.181442,2886.803174,-9992.780217,2528.115143
59262.181752,370.102971,-11695.253884,1762.019645
59262.182062,-74.020594,-14211.954086,2068.457845
59262.182372,-1258.350101,-13619.789333,2374.896044
59262.182681,-2442.679609,-8882.471304,-689.485948
59262.182991,-2368.659014,-6291.750507,153.219100
59262.183301,2294.638420,-7772.162391,4290.134789
59262.183611,0.000000,-4811.338623,1838.629195
59262.183920,1110.308913,-7105.977043,2068.457845
59262.184230,592.164754,-9252.574275,2145.067394
59262.184540,-1184.329507,-11029.068536,1378.971896
59262.184850,-3478.967927,-11695.253884,-229.828649
59262.185159,-2146.597232,-12657.521608,76.609550
59262.185469,-1184.329507,-10732.986159,1838.629195
59262.185779,-74.020594,-8290.306550,-76.609550
59262.186089,0.000000,-5403.503377,306.438199
59262.186398,4367.215058,-9474.636058,3600.648841
59262.186708,0.000000,-5403.503377,612.876398
59262.187018,1110.308913,-11251.130318,2374.896044
59262.187328,-1554.432478,-13027.624579,1302.362347
59262.187637,-3330.926739,-13323.706956,536.266849
59262.187947,-3701.029710,-11399.171507,306.438199
59262.188257,-2368.659014,-8660.409521,1225.752797
59262.188566,0.000000,-4811.338623,2451.505594
59262.188876,3478.967927,-4737.318029,3600.648841
59262.189186,1554.432478,-3034.844362,1532.190996
59262.189496,2368.659014,-7179.997637,4903.011187
59262.189805,-74.020594,-8290.306550,612.876398
59262.190115,-1850.514855,-12361.439231,229.828649
59262.190425,-3849.070898,-13249.686362,-995.924147
59262.190735,-4737.318029,-12509.480420,-2221.676944
59262.191044,-3256.906145,-9844.739029,-1685.410096
59262.191354,-2368.659014,-5403.503377,0.000000
59262.191664,0.000000,-3627.009116,0.000000
59262.191974,4589.276840,-7550.100608,3524.039291
59262.192283,4663.297435,-8290.306550,2068.457845
59262.192593,2368.659014,-9548.656652,2757.943793
59262.192903,-74.020594,-11843.295072,-76.609550
59262.193213,-1850.514855,-13027.624579,459.657299
59262.193522,-3404.947333,-11029.068536,-689.485948
59262.193832,-2442.679609,-8956.491898,-153.219100
59262.194142,-370.102971,-6957.935855,842.705048
59262.194452,0.000000,-3627.009116,0.000000
59262.194761,0.000000,-3627.009116,0.000000
59262.195071,1184.329507,-7772.162391,2451.505594
59262.195381,2886.803174,-11251.130318,2374.896044
59262.195690,-4145.153275,-9548.656652,0.000000
59262.196000,-74.020594,-13619.789333,-383.047749
59262.196310,-3552.988522,-11103.089130,-1532.190996
59262.196620,-1702.473667,-9548.656652,-1149.143247
59262.196929,0.000000,-7698.141797,-766.095498
59262.197239,1628.453072,-6365.771101,383.047749
59262.197549,1998.556043,-6513.812290,-842.705048
59262.197859,2294.638420,-7550.100608,76.609550
59262.198168,0.000000,-10140.821405,1225.752797
59262.198478,-74.020594,-13619.789333,1762.019645
59262.198788,-3552.988522,-11917.315666,1225.752797
59262.199098,-74.020594,-13027.624579,2374.896044
59262.199407,-1776.494261,-7772.162391,612.876398
59262.199717,814.226536,-5699.585753,1991.848295
59262.200027,2146.597232,-4441.235652,2528.115143
59262.200337,2886.803174,-5477.523971,2451.505594
59262.200646,3478.967927,-8290.306550,2374.896044
59262.200956,2294.638420,-10658.965565,-76.609550
59262.201266,-4737.318029,-10140.821405,0.000000
59262.201576,-2442.679609,-14211.954086,-76.609550
59262.201885,-5995.668130,-9548.656652,-3677.258390
59262.202195,-1776.494261,-11251.130318,1991.848295
59262.202505,-592.164754,-6735.874072,-229.828649
59262.202815,1184.329507,-5773.606348,1072.533697
59262.203124,3404.947333,-5995.668130,2298.286494
59262.203434,3182.885551,-8660.409521,2604.724693
59262.203744,3478.967927,-11843.295072,3600.648841
59262.204053,-74.020594,-14211.954086,2374.896044
59262.204363,-3627.009116,-11325.150913,-689.485948
59262.204673,-4441.235652,-10436.903782,2145.067394
59262.204983,-3627.009116,-7105.977043,-689.485948
59262.205292,-1776.494261,-6291.750507,1838.629195
59262.205602,518.144159,-5625.565159,1455.581446
59262.205912,1184.329507,-6217.729913,1608.800546
59262.206222,1332.370696,-8142.265362,2451.505594
59262.206531,0.000000,-9696.697840,1685.410096
59262.206841,-444.123565,-12435.459826,1685.410096
59262.207151,-1332.370696,-14063.912898,1149.143247
59262.207461,-3627.009116,-10658.965565,-1915.238745
59262.207770,-3256.906145,-8364.327145,0.000000
59262.208080,2146.597232,-9104.533087,1762.019645
59262.208390,592.164754,-5995.668130,919.314598
59262.208700,2886.803174,-7402.059420,1762.019645
59262.209009,2442.679609,-8808.450710,1762.019645
59262.209319,962.267725,-11251.130318,1762.019645
59262.209629,-1406.391290,-12435.459826,536.266849
59262.209939,-3552.988522,-12805.562797,1225.752797
59262.210248,-2368.659014,-11325.150913,1225.752797
59262.210558,-370.102971,-8882.471304,-76.609550
59262.210868,0.000000,-4811.338623,1225.752797
59262.211178,4663.297435,-6513.812290,2374.896044
59262.211487,592.164754,-3034.844362,612.876398
59262.211797,2294.638420,-8216.285956,2145.067394
59262.212107,0.000000,-10807.006753,1302.362347
59262.212416,-1850.514855,-12435.459826,-383.047749
59262.212726,-3923.091493,-12435.459826,-1225.752797
59262.213036,-4441.235652,-10140.821405,-2451.505594
59262.213346,-3552.988522,-7772.162391,0.000000
59262.213655,2294.638420,-8290.306550,-76.609550
59262.213965,2294.638420,-3849.070898,-1302.362347
59262.214275,2368.659014,-5995.668130,2451.505594
59262.214585,3182.885551,-8068.244768,1838.629195
59262.214894,2072.576638,-11325.150913,2374.896044
59262.215204,-1110.308913,-12361.439231,689.485948
59262.215514,-3404.947333,-11917.315666,153.219100
59262.215824,-3627.009116,-10066.800811,-306.438199
59262.216133,-3552.988522,-6587.832884,-842.705048
59262.216443,-2368.659014,-4811.338623,612.876398
59262.216753,1776.494261,-6143.709319,2757.943793
59262.217063,2886.803174,-5329.482782,1149.143247
59262.217372,592.164754,-7179.997637,2451.505594
59262.217682,1110.308913,-9474.636058,76.609550
59262.217992,-1776.494261,-11621.233289,919.314598
59262.218302,-3404.947333,-11991.336260,-689.485948
59262.218611,-3330.926739,-11621.233289,-1302.362347
59262.218921,-1998.556043,-9844.739029,-76.609550
59262.219231,-1406.391290,-7105.977043,-383.047749
59262.219540,222.061783,-4959.379811,-689.485948
59262.219850,1776.494261,-7179.997637,1532.190996
59262.220160,4219.173869,-11843.295072,4826.401637
59262.220470,0.000000,-9548.656652,0.000000
59262.220779,-666.185348,-12731.542202,536.266849
59262.221089,-3256.906145,-11399.171507,612.876398
59262.221399,-2368.659014,-9622.677246,842.705048
59262.221709,-740.205942,-7254.018232,1225.752797
59262.222018,518.144159,-5181.441594,2834.553343
59262.222328,1110.308913,-4145.153275,2374.896044
59262.222638,2294.638420,-5921.647536,1149.143247
59262.222948,0.000000,-7476.080014,612.876398
59262.223257,-74.020594,-13397.727550,3677.258390
59262.223567,-3034.844362,-12139.377449,-1915.238745
59262.223877,-3627.009116,-13323.706956,-1608.800546
59262.224187,-4071.132681,-10732.986159,-1762.019645
59262.224496,-1184.329507,-8438.347739,-229.828649
59262.224806,1036.288319,-5699.585753,536.266849
59262.225116,2812.782580,-4959.379811,1838.629195
59262.225426,4663.297435,-7105.977043,3600.648841
59262.225735,4663.297435,-9474.636058,2374.896044
59262.226045,-1184.329507,-10436.903782,612.876398
59262.226355,-1998.556043,-15396.283594,2374.896044
59262.226665,-7105.977043,-10140.821405,-2451.505594
59262.226974,-3034.844362,-11251.130318,-76.609550
59262.227284,-2442.679609,-7550.100608,-76.609550
59262.227594,-222.061783,-6143.709319,1149.143247
59262.227903,1184.329507,-5181.441594,2068.457845
59262.228213,1924.535449,-6365.771101,1225.752797
59262.228523,3775.050304,-9474.636058,4136.915689
59262.228833,2294.638420,-11843.295072,2374.896044
59262.229142,-2960.823768,-10140.821405,0.000000
59262.229452,-2442.679609,-13027.624579,-76.609550
59262.229762,-5921.647536,-9548.656652,-3064.381992
59262.230072,-2072.576638,-10436.903782,1072.533697
59262.230381,888.247130,-7328.038826,-306.438199
59262.230691,2072.576638,-6587.832884,689.485948
59262.231001,3256.906145,-7550.100608,1838.629195
59262.231311,2812.782580,-9548.656652,612.876398
59262.231620,1258.350101,-11769.274478,1225.752797
59262.231930,-74.020594,-14211.954086,2374.896044
59262.232240,-3627.009116,-11547.212695,-689.485948
59262.232550,-3552.988522,-9548.656652,1225.752797
59262.232859,-74.020594,-8290.306550,2374.896044
59262.233169,592.164754,-5107.421000,3064.381992
59262.233479,2146.597232,-4589.276840,2068.457845
59262.233789,2072.576638,-6069.688724,1532.190996
59262.234098,1258.350101,-8882.471304,1302.362347
59262.234408,-518.144159,-10362.883188,229.828649
59262.234718,-4145.153275,-11917.315666,0.000000
59262.235028,-3108.864956,-13989.892304,-76.609550
59262.235337,-2442.679609,-11251.130318,-1302.362347
59262.235647,-592.164754,-9252.574275,2451.505594
59262.235957,2294.638420,-6513.812290,2374.896044
59262.236266,2812.782580,-4811.338623,1532.190996
59262.236576,4293.194464,-6957.935855,2528.115143
59262.236886,3034.844362,-9400.615463,2451.505594
59262.237196,0.000000,-11843.295072,1608.800546
59262.237505,-3256.906145,-12435.459826,-76.609550
59262.237815,-5921.647536,-10732.986159,-2451.505594
59262.238125,-4737.318029,-9548.656652,0.000000
59262.238435,-666.185348,-9178.553681,2987.772442
59262.238744,-962.267725,-3775.050304,0.000000
59262.239054,0.000000,-4811.338623,3677.258390
59262.239364,1776.494261,-5107.421000,2451.505594
59262.239674,1924.535449,-8734.430116,2987.772442
59262.239983,518.144159,-10140.821405,2374.896044
59262.240293,-2294.638420,-10732.986159,383.047749
59262.240603,-3478.967927,-11843.295072,-76.609550
59262.240913,-4515.256246,-8956.491898,-1302.362347
59262.241222,-3552.988522,-7179.997637,-2451.505594
59262.241532,1036.288319,-8660.409521,1149.143247
59262.241842,0.000000,-4811.338623,0.000000
59262.242152,2960.823768,-9844.739029,1225.752797
59262.242461,370.102971,-8956.491898,536.266849
59262.242771,0.000000,-11917.315666,995.924147
59262.243081,-1776.494261,-12879.583391,1455.581446
59262.243391,-2294.638420,-11695.253884,995.924147
59262.243701,-74.020594,-10658.965565,3447.429741
59262.244011,1110.308913,-7105.977043,2987.772442
59262.244320,0.000000,-2442.679609,919.314598
59262.244630,2072.576638,-4811.338623,3064.381992
59262.244940,2294.638420,-5921.647536,-76.609550
59262.245250,0.000000,-9548.656652,1225.752797
59262.245560,-1554.432478,-12213.398043,-383.047749
59262.245870,-4811.338623,-11621.233289,-2987.772442
59262.246180,-4219.173869,-13027.624579,-1915.238745
59262.246490,-2664.741391,-10807.006753,-1149.143247
59262.246799,-444.123565,-7772.162391,1762.019645
59262.247109,1110.308913,-5625.565159,536.266849
59262.247419,1998.556043,-3627.009116,0.000000
59262.247729,2960.823768,-6587.832884,2451.505594
59262.248039,4663.297435,-10658.965565,3600.648841
59262.248349,0.000000,-10140.821405,612.876398
59262.248659,-1258.350101,-13027.624579,-76.609550
59262.248968,-4737.318029,-11769.274478,-1455.581446
59262.249278,-3849.070898,-9770.718434,-995.924147
59262.249588,-1850.514855,-7476.080014,459.657299
59262.249898,148.041188,-5403.503377,1838.629195
59262.250208,2294.638420,-6513.812290,3294.210641
59262.250518,2886.803174,-6513.812290,1762.019645
59262.250828,592.164754,-7772.162391,2451.505594
59262.251138,1702.473667,-13915.871710,4213.525239
59262.251447,-3775.050304,-9548.656652,-1838.629195
59262.251757,-2516.700203,-12139.377449,-76.609550
59262.252067,-3330.926739,-10658.965565,-1608.800546
59262.252377,-1184.329507,-8956.491898,-842.705048
59262.252687,444.123565,-6883.915261,-76.609550
59262.252997,1702.473667,-6883.915261,0.000000
59262.253307,4663.297435,-8882.471304,2987.772442
59262.253617,4663.297435,-11843.295072,3600.648841
59262.253926,-1184.329507,-10436.903782,612.876398
59262.254236,-814.226536,-14211.954086,2374.896044
59262.254546,-4737.318029,-9548.656652,0.000000
59262.254856,-592.164754,-10362.883188,3600.648841
59262.255166,-222.061783,-6587.832884,1685.410096
59262.255476,518.144159,-4515.256246,1838.629195
59262.255786,1258.350101,-4441.235652,1991.848295
59262.256096,1924.535449,-6291.750507,306.438199
59262.256405,1628.453072,-9622.677246,2451.505594
59262.256715,-74.020594,-14211.954086,2374.896044
59262.257025,-4367.215058,-12139.377449,-1915.238745
59262.257335,-2516.700203,-14730.098246,1455.581446
59262.257645,-1258.350101,-10658.965565,-689.485948
59262.257955,-1184.329507,-7476.080014,766.095498
59262.258265,2294.638420,-5255.462188,1149.143247
59262.258575,3404.947333,-5255.462188,2298.286494
59262.258884,3997.112087,-7402.059420,2604.724693
59262.259194,2664.741391,-8364.327145,1225.752797
59262.259504,0.000000,-11621.233289,0.000000
59262.259814,-2072.576638,-13841.851115,1072.533697
59262.260124,-4219.173869,-11695.253884,-1302.362347
59262.260434,-3552.988522,-10732.986159,2451.505594
59262.260744,-74.020594,-8882.471304,2374.896044
59262.261054,-1184.329507,-4811.338623,1915.238745
59262.261363,1702.473667,-6217.729913,2374.896044
59262.261673,2368.659014,-7550.100608,3064.381992
59262.261983,1332.370696,-9104.533087,2451.505594
59262.262293,-444.123565,-10362.883188,1149.143247
59262.262603,-4145.153275,-10140.821405,-2451.505594
59262.262913,-4737.318029,-11917.315666,0.000000
59262.263223,-1258.350101,-11547.212695,-76.609550
59262.263533,-4737.318029,-5995.668130,0.000000
59262.263842,1480.411884,-7994.224174,2374.896044
59262.264152,1184.329507,-5403.503377,612.876398
59262.264462,2960.823768,-9104.533087,2221.676944
59262.264772,1480.411884,-10436.903782,1991.848295
59262.265082,-592.164754,-11917.315666,1225.752797
59262.265392,-1998.556043,-13027.624579,-76.609550
59262.265702,-2960.823768,-10436.903782,-383.047749
59262.266012,-3256.906145,-7772.162391,1225.752797
59262.266321,1110.308913,-7105.977043,2374.896044
59262.266631,-2368.659014,-1258.350101,0.000000
59262.266941,2590.720797,-6735.874072,3064.381992
59262.267251,740.205942,-5995.668130,612.876398
59262.267561,444.123565,-9770.718434,1915.238745
59262.267871,-1258.350101,-12139.377449,229.828649
59262.268181,-2886.803174,-13249.686362,-459.657299
59262.268491,-2590.720797,-13619.789333,-76.609550
59262.268800,-1850.514855,-9178.553681,-76.609550
59262.269110,0.000000,-5551.544565,0.000000
59262.269420,2664.741391,-5403.503377,2451.505594
59262.269730,7031.956449,-7105.977043,2987.772442
59262.270040,2368.659014,-5995.668130,612.876398
59262.270350,1258.350101,-9622.677246,842.705048
59262.270660,-1776.494261,-11917.315666,612.876398
59262.270970,-4367.215058,-12879.583391,-1225.752797
59262.271279,-4441.235652,-11621.233289,-842.705048
59262.271589,-2072.576638,-10510.924376,1532.190996
59262.271899,-74.020594,-8290.306550,2374.896044
59262.272209,74.020594,-3849.070898,536.266849
59262.272519,1184.329507,-4811.338623,0.000000
59262.272829,5847.626942,-9474.636058,4826.401637
59262.273139,0.000000,-7179.997637,0.000000
59262.273449,-370.102971,-10658.965565,842.705048
59262.273758,-3997.112087,-11917.315666,-1225.752797
59262.274068,-3849.070898,-11769.274478,-1608.800546
59262.274378,-2812.782580,-10362.883188,-1149.143247
59262.274688,-592.164754,-7772.162391,0.000000
59262.274998,2294.638420,-9178.553681,1762.019645
59262.275308,3182.885551,-8290.306550,1149.143247
59262.275618,1480.411884,-7179.997637,0.000000
59262.275927,4071.132681,-13027.624579,4749.792088
59262.276237,-2072.576638,-9548.656652,76.609550
59262.276547,-666.185348,-13027.624579,1762.019645
59262.276857,-2442.679609,-10436.903782,689.485948
59262.277167,-1628.453072,-8438.347739,995.924147
59262.277477,-74.020594,-5699.585753,1532.190996
59262.277787,0.000000,-3923.091493,612.876398
59262.278097,2886.803174,-6735.874072,3064.381992
59262.278406,3182.885551,-9474.636058,2834.553343
59262.278716,-370.102971,-9548.656652,0.000000
59262.279026,-74.020594,-14656.077652,1991.848295
59262.279336,-4737.318029,-12139.377449,-1608.800546
59262.279646,-1554.432478,-13027.624579,-76.609550
59262.279956,-1554.432478,-9326.594869,-229.828649
59262.280266,370.102971,-6513.812290,459.657299
59262.280576,2368.659014,-5033.400406,1225.752797
59262.280885,1776.494261,-4219.173869,0.000000
59262.281195,3552.988522,-7179.997637,3064.381992
59262.281505,2886.803174,-11843.295072,3140.991542
59262.281815,-2368.659014,-10436.903782,-2221.676944
59262.282125,-2812.782580,-14952.160028,1072.533697
59262.282435,-4811.338623,-13027.624579,-689.485948
59262.282745,-3256.906145,-9844.739029,612.876398
59262.283055,-888.247130,-6587.832884,995.924147
59262.283364,814.226536,-5181.441594,1762.019645
59262.283674,2516.700203,-5477.523971,2528.115143
59262.283984,1850.514855,-5699.585753,1762.019645
59262.284294,0.000000,-7179.997637,1225.752797
59262.284604,0.000000,-11769.274478,1915.238745
59262.284914,-3034.844362,-10436.903782,-2834.553343
59262.285224,-3552.988522,-12509.480420,0.000000
59262.285534,-74.020594,-13027.624579,-76.609550
59262.285843,-1776.494261,-7476.080014,0.000000
59262.286153,1554.432478,-7105.977043,229.828649
59262.286463,2738.761985,-7179.997637,1302.362347
59262.286773,3034.844362,-8660.409521,2068.457845
59262.287083,2886.803174,-10066.800811,1762.019645
59262.287393,-2368.659014,-9844.739029,76.609550
59262.287703,-3552.988522,-11325.150913,612.876398
59262.288013,-1258.350101,-13027.624579,-76.609550
59262.288322,-4737.318029,-5995.668130,0.000000
59262.288632,1628.453072,-7476.080014,3830.477490
59262.288942,0.000000,-3034.844362,766.095498
59262.289252,1184.329507,-5551.544565,1685.410096
59262.289562,1554.432478,-7846.182985,1455.581446
59262.289872,74.020594,-10436.903782,1149.143247
59262.290182,-74.020594,-14211.954086,-76.609550
59262.290492,-3034.844362,-12139.377449,-1762.019645
59262.290801,-4737.318029,-11029.068536,-2145.067394
59262.291111,-74.020594,-11843.295072,-76.609550
59262.291421,0.000000,-4811.338623,-1225.752797
59262.291731,2368.659014,-4811.338623,2451.505594
59262.292041,2442.679609,-4219.173869,1378.971896
59262.292351,3849.070898,-7920.203579,2911.162892
59262.292661,1332.370696,-10658.965565,1838.629195
59262.292971,-2220.617826,-12731.542202,459.657299
59262.293280,-3034.844362,-15396.283594,-76.609550
59262.293590,-3034.844362,-11843.295072,-1302.362347
59262.293900,-3997.112087,-8216.285956,-842.705048
59262.294210,0.000000,-7179.997637,3064.381992
59262.294520,2294.638420,-5921.647536,2374.896044
59262.294830,0.000000,-3627.009116,1225.752797
59262.295140,2294.638420,-7105.977043,2374.896044
59262.295450,592.164754,-9622.677246,1915.238745
59262.295759,-2220.617826,-11251.130318,229.828649
59262.296069,-4663.297435,-12213.398043,-1378.971896
59262.296379,-4145.153275,-12361.439231,-76.609550
59262.296689,-1554.432478,-11251.130318,-383.047749
59262.296999,-962.267725,-7105.977043,-1302.362347
59262.297309,0.000000,-5995.668130,1225.752797
59262.297619,4663.297435,-8882.471304,3294.210641
59262.297929,0.000000,-5995.668130,0.000000
59262.298238,2294.638420,-10955.047942,2374.896044
59262.298548,-740.205942,-12065.356855,1378.971896
59262.298858,-2886.803174,-11917.315666,306.438199
59262.299168,-3182.885551,-10436.903782,0.000000
59262.299478,-2072.576638,-8364.327145,2451.505594
59262.299788,1332.370696,-7105.977043,3217.601092
59262.300098,2294.638420,-5329.482782,2374.896044
59262.300408,0.000000,-2442.679609,0.000000
59262.300717,2368.659014,-8660.409521,3677.258390
59262.301027,-74.020594,-9474.636058,-76.609550
59262.301337,-222.061783,-12953.603985,842.705048
59262.301647,-2738.761985,-12435.459826,-459.657299
59262.301957,-2072.576638,-11843.295072,-689.485948
59262.302267,-518.144159,-9326.594869,-306.438199
59262.302577,0.000000,-4811.338623,612.876398
59262.302886,3552.988522,-5995.668130,2451.505594
59262.303196,4663.297435,-7994.224174,2987.772442
59262.303506,370.102971,-6587.832884,0.000000
59262.303816,1332.370696,-13027.624579,2911.162892
59262.304126,-2442.679609,-11843.295072,-689.485948
59262.304436,-4219.173869,-13841.851115,-76.609550
59262.304746,-4293.194464,-10732.986159,-612.876398
59262.305056,-2146.597232,-7476.080014,229.828649
59262.305365,592.164754,-4959.379811,1455.581446
59262.305675,0.000000,-2442.679609,1225.752797
59262.305985,2368.659014,-4811.338623,2757.943793
59262.306295,3923.091493,-8882.471304,4826.401637
59262.306605,0.000000,-7476.080014,0.000000
59262.306915,-74.020594,-13619.789333,1149.143247
59262.307225,-4219.173869,-13027.624579,-689.485948
59262.307535,-4737.318029,-12509.480420,-1838.629195
59262.307844,-2812.782580,-10140.821405,-1915.238745
59262.308154,-1036.288319,-7254.018232,-995.924147
59262.308464,1702.473667,-6587.832884,612.876398
59262.308774,2442.679609,-5551.544565,0.000000
59262.309084,1184.329507,-7179.997637,1838.629195
59262.309394,2664.741391,-11325.150913,5209.449386
59262.309704,-1258.350101,-9622.677246,76.609550
59262.310014,-1184.329507,-12287.418637,2451.505594
59262.310323,-1258.350101,-11843.295072,2374.896044
59262.310633,-2368.659014,-7476.080014,612.876398
59262.310943,-222.061783,-6217.729913,1072.533697
59262.311253,296.082377,-5403.503377,1225.752797
59262.311563,1036.288319,-6587.832884,995.924147
59262.311873,-74.020594,-8290.306550,1149.143247
59262.312183,-1924.535449,-9548.656652,0.000000
59262.312493,-3256.906145,-11325.150913,0.000000
59262.312802,-1258.350101,-13027.624579,-689.485948
59262.313112,-3552.988522,-9548.656652,0.000000
59262.313422,1702.473667,-10066.800811,2604.724693
59262.313732,592.164754,-4811.338623,612.876398
59262.314042,3256.906145,-5255.462188,1838.629195
59262.314352,3256.906145,-6439.791695,1455.581446
59262.314662,2294.638420,-9400.615463,1838.629195
59262.314972,1998.556043,-13027.624579,1762.019645
59262.315281,-3627.009116,-13027.624579,-1302.362347
59262.315591,-5921.647536,-12509.480420,-2451.505594
59262.315901,-1258.350101,-13619.789333,-76.609550
59262.316211,-3997.112087,-5995.668130,0.000000
59262.316521,0.000000,-4811.338623,2451.505594
59262.316831,1184.329507,-3627.009116,2451.505594
59262.317141,3478.967927,-5477.523971,3524.039291
59262.317451,2368.659014,-7772.162391,3140.991542
59262.317760,592.164754,-9918.759623,1991.848295
59262.318070,-74.020594,-13619.789333,-76.609550
59262.318380,-3627.009116,-12435.459826,-2528.115143
59262.318690,-5921.647536,-10436.903782,-4903.011187
59262.319000,-370.102971,-11843.295072,-76.609550
59262.319310,-1258.350101,-7105.977043,-1762.019645
59262.319620,0.000000,-5403.503377,1225.752797
59262.319930,1776.494261,-6957.935855,612.876398
59262.320239,2516.700203,-9326.594869,2451.505594
59262.320549,888.247130,-11103.089130,2298.286494
59262.320859,-592.164754,-11769.274478,1762.019645
59262.321169,-74.020594,-13027.624579,3294.210641
59262.321479,-666.185348,-10362.883188,1149.143247
59262.321789,-2146.597232,-4811.338623,-2451.505594
59262.322099,2368.659014,-7105.977043,3447.429741
59262.322409,1110.308913,-4737.318029,536.266849
59262.322718,0.000000,-4811.338623,0.000000
59262.323028,518.144159,-9178.553681,536.266849
59262.323338,-1776.494261,-11769.274478,306.438199
59262.323648,-2812.782580,-12879.583391,-229.828649
59262.323958,-3627.009116,-12583.501014,-536.266849
59262.324268,-1480.411884,-11621.233289,1991.848295
59262.324578,2294.638420,-8882.471304,2374.896044
59262.324888,3478.967927,-5921.647536,2374.896044
59262.325197,1776.494261,-2442.679609,383.047749
59262.325507,4145.153275,-6661.853478,2757.943793
59262.325817,1998.556043,-8290.306550,0.000000
59262.326127,-370.102971,-12731.542202,536.266849
59262.326437,-4589.276840,-13619.789333,-1378.971896
59262.326747,-5181.441594,-13693.809927,-1302.362347
59262.327057,-4367.215058,-10510.924376,-995.924147
59262.327367,-2960.823768,-7179.997637,2145.067394
59262.327676,2220.617826,-5921.647536,3370.820191
59262.327986,4071.132681,-7105.977043,4826.401637
59262.328296,1998.556043,-3923.091493,1762.019645
59262.328606,4071.132681,-9474.636058,4443.353888
59262.328916,-74.020594,-8290.306550,-689.485948
59262.329226,-1258.350101,-12879.583391,536.266849
59262.329536,-4367.215058,-12435.459826,-1532.190996
59262.329845,-3923.091493,-11029.068536,-2145.067394
59262.330155,-2146.597232,-9622.677246,-1838.629195
59262.330465,0.000000,-5995.668130,-1838.629195
59262.330775,592.164754,-7179.997637,306.438199
59262.331085,4589.276840,-10658.965565,4213.525239
59262.331395,2886.803174,-9178.553681,1149.143247
59262.331705,1184.329507,-11325.150913,3064.381992
59262.332015,-74.020594,-12435.459826,-76.609550
59262.332324,-1554.432478,-10955.047942,1455.581446
59262.332634,-1480.411884,-8438.347739,1072.533697
59262.332944,-962.267725,-6143.709319,995.924147
59262.333254,0.000000,-4367.215058,1072.533697
59262.333564,-1776.494261,-2738.761985,0.000000
59262.333874,0.000000,-6587.832884,919.314598
59262.334184,592.164754,-9548.656652,2451.505594
59262.334494,-74.020594,-11843.295072,-76.609550
59262.334803,-4145.153275,-12509.480420,0.000000
59262.335113,-74.020594,-14211.954086,-76.609550
59262.335423,-1480.411884,-10436.903782,0.000000
59262.335733,1406.391290,-7772.162391,1302.362347
59262.336043,2220.617826,-5403.503377,1685.410096
59262.336353,3478.967927,-4811.338623,1838.629195
59262.336663,2590.720797,-5033.400406,76.609550
59262.336973,592.164754,-8364.327145,1225.752797
59262.337282,-1184.329507,-13101.645173,2604.724693
59262.337592,-4219.173869,-13027.624579,-1915.238745
59262.337902,-5625.565159,-13101.645173,-1225.752797
59262.338212,-2442.679609,-13027.624579,-76.609550
59262.338522,-2960.823768,-6587.832884,306.438199
59262.338832,888.247130,-5403.503377,2451.505594
59262.339142,2886.803174,-4811.338623,3370.820191
59262.339452,3701.029710,-5699.585753,3983.696590
59262.339761,3478.967927,-7698.141797,1762.019645
59262.340071,-1258.350101,-9548.656652,1302.362347
59262.340381,-4737.318029,-11325.150913,0.000000
59262.340691,-3034.844362,-13027.624579,-1915.238745
59262.341001,-6513.812290,-10732.986159,-2451.505594
59262.341311,-3701.029710,-7476.080014,-2451.505594
59262.341621,-518.144159,-7698.141797,-689.485948
59262.341931,888.247130,-6883.915261,306.438199
59262.342240,2220.617826,-8438.347739,1378.971896
59262.342550,2294.638420,-10288.862594,2528.115143
59262.342860,1184.329507,-12509.480420,4290.134789
59262.343170,-74.020594,-12509.480420,3064.381992
59262.343480,-74.020594,-11843.295072,-76.609550
59262.343790,-3552.988522,-7179.997637,612.876398
59262.344099,1110.308913,-7105.977043,3600.648841
59262.344409,2886.803174,-5921.647536,3294.210641
59262.344719,296.082377,-4515.256246,919.314598
59262.345029,1110.308913,-7772.162391,995.924147
59262.345339,296.082377,-9770.718434,919.314598
59262.345649,-2442.679609,-11917.315666,0.000000
59262.345958,-3182.885551,-12879.583391,-1532.190996
59262.346268,-4219.173869,-11917.315666,-1225.752797
59262.346578,-4737.318029,-7179.997637,-2451.505594
59262.346888,3108.864956,-9252.574275,3064.381992
59262.347198,3330.926739,-4737.318029,1149.143247
59262.347508,2368.659014,-3034.844362,995.924147
59262.347817,4663.297435,-7698.141797,2451.505594
59262.348127,2442.679609,-9770.718434,1762.019645
59262.348437,-740.205942,-12213.398043,536.266849
59262.348747,-4515.256246,-13545.768739,-1302.362347
59262.349057,-3923.091493,-13027.624579,-536.266849
59262.349366,-3034.844362,-11843.295072,-76.609550
59262.349676,-4145.153275,-5403.503377,0.000000
59262.349986,2146.597232,-6587.832884,3217.601092
59262.350296,2294.638420,-4441.235652,0.000000
59262.350606,4663.297435,-6513.812290,2451.505594
59262.350916,2812.782580,-8438.347739,3294.210641
59262.351225,1110.308913,-10436.903782,2374.896044
59262.351535,-2738.761985,-11621.233289,-76.609550
59262.351845,-4811.338623,-12139.377449,-76.609550
59262.352155,-4737.318029,-9548.656652,-3217.601092
59262.352465,-4737.318029,-7179.997637,-2451.505594
59262.352775,962.267725,-8808.450710,1378.971896
59262.353084,1702.473667,-7105.977043,-76.609550
59262.353394,1184.329507,-8364.327145,2451.505594
59262.353704,1924.535449,-12435.459826,3294.210641
59262.354014,518.144159,-11843.295072,1685.410096
59262.354324,-1776.494261,-12139.377449,766.095498
59262.354634,-2516.700203,-10955.047942,536.266849
59262.354943,-1850.514855,-8068.244768,0.000000
59262.355253,1110.308913,-6661.853478,2987.772442
59262.355563,3182.885551,-7105.977043,3600.648841
59262.355873,0.000000,-3182.885551,76.609550
59262.356183,2072.576638,-8142.265362,4673.182538
59262.356493,-74.020594,-8882.471304,0.000000
59262.356802,-3552.988522,-9548.656652,-1225.752797
59262.357112,-4145.153275,-12657.521608,-536.266849
59262.357422,-3997.112087,-12065.356855,-1455.581446
59262.357732,-1776.494261,-9548.656652,-459.657299
59262.358042,1702.473667,-8142.265362,2374.896044
59262.358352,1776.494261,-3627.009116,536.266849
59262.358661,1184.329507,-3627.009116,0.000000
59262.358971,5107.421000,-9400.615463,3677.258390
59262.359281,1110.308913,-9548.656652,0.000000
59262.359591,-74.020594,-15396.283594,2374.896044
59262.359901,-2442.679609,-15396.283594,-76.609550
59262.360211,-4515.256246,-12287.418637,-995.924147
59262.360520,-3701.029710,-9844.739029,153.219100
59262.360830,-444.123565,-6291.750507,1378.971896
59262.361140,296.082377,-2590.720797,1225.752797
59262.361450,4663.297435,-5699.585753,4903.011187
59262.361760,4663.297435,-7105.977043,3600.648841
59262.362070,0.000000,-8364.327145,1838.629195
59262.362379,-74.020594,-13027.624579,3600.648841
59262.362689,-6513.812290,-10732.986159,0.000000
59262.362999,-5921.647536,-11325.150913,-2451.505594
59262.363309,-3849.070898,-9992.780217,-1838.629195
59262.363619,-1332.370696,-8142.265362,-1072.533697
59262.363928,222.061783,-6809.894666,0.000000
59262.364238,3478.967927,-8586.388927,3600.648841
59262.364548,1998.556043,-7254.018232,919.314598
59262.364858,0.000000,-9548.656652,1532.190996
59262.365168,1110.308913,-13323.706956,2987.772442
59262.365478,-3552.988522,-9548.656652,0.000000
59262.365787,-74.020594,-11843.295072,-76.609550
59262.366097,-74.020594,-9474.636058,1762.019645
59262.366407,-666.185348,-5847.626942,689.485948
59262.366717,888.247130,-5107.421000,1532.190996
59262.367027,1998.556043,-5921.647536,1915.238745
59262.367337,0.000000,-5995.668130,0.000000
59262.367646,1332.370696,-10955.047942,2298.286494
59262.367956,-74.020594,-12435.459826,-76.609550
59262.368266,-4145.153275,-11325.150913,0.000000
59262.368576,-74.020594,-14211.954086,-76.609550
59262.368886,-2368.659014,-7772.162391,0.000000
59262.369196,0.000000,-5699.585753,153.219100
59262.369505,2368.659014,-5107.421000,919.314598
59262.369815,3256.906145,-6365.771101,1455.581446
59262.370125,2960.823768,-8660.409521,1685.410096
59262.370435,2294.638420,-12435.459826,2987.772442
59262.370745,-2960.823768,-12139.377449,-612.876398
59262.371055,-5625.565159,-13101.645173,-1225.752797
59262.371364,-3034.844362,-12731.542202,-76.609550
59262.371674,-4737.318029,-6587.832884,0.000000
59262.371984,1702.473667,-6513.812290,2987.772442
59262.372294,3478.967927,-4737.318029,4060.306139
59262.372604,3478.967927,-4515.256246,3524.039291
59262.372914,2886.803174,-6809.894666,3524.039291
59262.373223,740.205942,-9548.656652,2298.286494
59262.373533,-4737.318029,-9548.656652,0.000000
59262.373843,-4367.215058,-13841.851115,-1225.752797
59262.374153,-5403.503377,-12731.542202,-2681.334243
59262.374463,-7105.977043,-9548.656652,-3370.820191
59262.374773,-74.020594,-9474.636058,-76.609550
59262.375082,148.041188,-7920.203579,1532.190996
59262.375392,1480.411884,-5995.668130,306.438199
59262.375702,2960.823768,-8438.347739,2681.334243
59262.376012,2146.597232,-10214.842000,2681.334243
59262.376322,74.020594,-11251.130318,2528.115143
59262.376632,-74.020594,-11843.295072,1149.143247
59262.376941,-2960.823768,-9622.677246,612.876398
59262.377251,-2072.576638,-8290.306550,689.485948
59262.377561,-592.164754,-6217.729913,1072.533697
59262.377871,0.000000,-5699.585753,1225.752797
59262.378181,0.000000,-6291.750507,2451.505594
59262.378490,1258.350101,-8956.491898,2374.896044
59262.378800,-2146.597232,-8364.327145,0.000000
59262.379110,-444.123565,-12657.521608,2145.067394
59262.379420,-1406.391290,-12435.459826,-229.828649
59262.379730,-74.020594,-11843.295072,-76.609550
59262.380040,-1184.329507,-8364.327145,153.219100
59262.380349,1480.411884,-6439.791695,1149.143247
59262.380659,2886.803174,-4737.318029,1378.971896
59262.380969,3478.967927,-5847.626942,1302.362347
59262.381279,2368.659014,-7179.997637,1225.752797
59262.381589,888.247130,-11917.315666,1838.629195
59262.381899,-1258.350101,-13027.624579,-1302.362347
59262.382208,-4737.318029,-14285.974681,0.000000
59262.382518,-3627.009116,-11843.295072,-995.924147
59262.382828,-666.185348,-9474.636058,2221.676944
59262.383138,592.164754,-5107.421000,1838.629195
59262.383448,2664.741391,-4293.194464,2911.162892
59262.383758,3775.050304,-4885.359217,2987.772442
59262.384067,3330.926739,-7105.977043,2681.334243
59262.384377,0.000000,-8364.327145,1225.752797
59262.384687,-2812.782580,-11029.068536,0.000000
59262.384997,-3034.844362,-14211.954086,-1302.362347
59262.385307,-7105.977043,-10732.986159,-3064.381992
59262.385617,-1850.514855,-10584.944971,-995.924147
59262.385926,-518.144159,-9178.553681,1149.143247
59262.386236,296.082377,-5921.647536,-766.095498
59262.386546,2516.700203,-7476.080014,1378.971896
59262.386856,3701.029710,-8956.491898,1991.848295
59262.387166,1776.494261,-11177.109724,2298.286494
59262.387476,-2072.576638,-10732.986159,0.000000
59262.387785,-2516.700203,-11325.150913,0.000000
59262.388095,-74.020594,-11843.295072,-76.609550
59262.388405,-4145.153275,-6587.832884,0.000000
59262.388715,-74.020594,-7105.977043,1455.581446
59262.389025,0.000000,-5773.606348,2451.505594
59262.389335,1406.391290,-6587.832884,1762.019645
59262.389644,370.102971,-8216.285956,1455.581446
59262.389954,-740.205942,-10436.903782,1302.362347
59262.390264,-2442.679609,-11843.295072,612.876398
59262.390574,-4737.318029,-10140.821405,0.000000
59262.390884,-1924.535449,-10140.821405,0.000000
59262.391194,2294.638420,-9474.636058,-76.609550
59262.391503,0.000000,-4219.173869,306.438199
59262.391813,3404.947333,-5699.585753,2451.505594
59262.392123,4441.235652,-8142.265362,3600.648841
59262.392433,1702.473667,-9178.553681,-76.609550
59262.392743,-444.123565,-11991.336260,306.438199
59262.393052,-2812.782580,-13841.851115,-459.657299
59262.393362,-4959.379811,-13989.892304,-1302.362347
59262.393672,-4737.318029,-10140.821405,0.000000
59262.393982,-2072.576638,-7772.162391,2528.115143
59262.394292,2294.638420,-4737.318029,2374.896044
59262.394602,2368.659014,-3034.844362,3677.258390
59262.394911,4959.379811,-5699.585753,5132.839837
59262.395221,4663.297435,-9178.553681,6052.154434
59262.395531,1110.308913,-10066.800811,2374.896044
59262.395841,-3849.070898,-10140.821405,-3064.381992
59262.396151,-4145.153275,-13693.809927,-76.609550
59262.396461,-4811.338623,-11843.295072,-2528.115143
59262.396770,-1850.514855,-9474.636058,-1915.238745
59262.397080,-74.020594,-9474.636058,-76.609550
59262.397390,1110.308913,-6439.791695,459.657299
59262.397700,2516.700203,-6735.874072,1532.190996
59262.398010,2886.803174,-9474.636058,2221.676944
59262.398320,296.082377,-10140.821405,2528.115143
59262.398629,-370.102971,-12435.459826,1762.019645
59262.398939,-2886.803174,-11695.253884,383.047749
59262.399249,-2738.761985,-9992.780217,306.438199
59262.399559,-1554.432478,-7328.038826,459.657299
59262.399869,-74.020594,-5329.482782,536.266849
59262.400179,148.041188,-3627.009116,0.000000
59262.400488,2220.617826,-8068.244768,2757.943793
59262.400798,2294.638420,-9474.636058,1762.019645
59262.401108,-1924.535449,-9548.656652,0.000000
59262.401418,-2368.659014,-11473.192101,306.438199
59262.401728,-1850.514855,-12435.459826,-76.609550
59262.402038,-1036.288319,-10584.944971,0.000000
59262.402347,518.144159,-8142.265362,536.266849
59262.402657,1554.432478,-5477.523971,689.485948
59262.402967,4071.132681,-4589.276840,536.266849
59262.403277,2368.659014,-4811.338623,-689.485948
59262.403587,592.164754,-9548.656652,1225.752797
59262.403897,-74.020594,-14211.954086,-76.609550
59262.404206,-4071.132681,-12805.562797,-1991.848295
59262.404516,-4219.173869,-13175.665768,-689.485948
59262.404826,-2738.761985,-10658.965565,-536.266849
59262.405136,-1110.308913,-7254.018232,1072.533697
59262.405446,1998.556043,-4959.379811,2987.772442
59262.405756,3627.009116,-3775.050304,3753.867940
59262.406065,5847.626942,-5625.565159,3294.210641
59262.406375,1776.494261,-5403.503377,306.438199
59262.406685,0.000000,-9548.656652,1225.752797
59262.406995,-1850.514855,-13027.624579,-76.609550
59262.407305,-6809.894666,-11917.315666,-2451.505594
59262.407614,-5403.503377,-11251.130318,-1991.848295
59262.407924,-3034.844362,-9474.636058,-2374.896044
59262.408234,-962.267725,-7476.080014,-306.438199
59262.408544,1406.391290,-6513.812290,536.266849
59262.408854,2960.823768,-7105.977043,1991.848295
59262.409164,4663.297435,-10362.883188,2374.896044
59262.409473,2294.638420,-11843.295072,2987.772442
59262.409783,-2960.823768,-9696.697840,0.000000
59262.410093,-1480.411884,-13027.624579,2528.115143
59262.410403,-2146.597232,-10066.800811,536.266849
59262.410713,-2960.823768,-5995.668130,842.705048
59262.411023,-74.020594,-6365.771101,1455.581446
59262.411332,444.123565,-5699.585753,1685.410096
59262.411642,1258.350101,-6735.874072,2145.067394
59262.411952,962.267725,-8956.491898,1915.238745
59262.412262,-74.020594,-12435.459826,2374.896044
59262.412572,-2442.679609,-11843.295072,-76.609550
59262.412882,-4737.318029,-10140.821405,0.000000
59262.413191,-74.020594,-11843.295072,-76.609550
59262.413501,-1110.308913,-6587.832884,0.000000
59262.413811,1554.432478,-4959.379811,0.000000
59262.414121,2738.761985,-5551.544565,689.485948
59262.414431,2812.782580,-7550.100608,1225.752797
59262.414741,1480.411884,-10362.883188,995.924147
59262.415050,-1258.350101,-13101.645173,689.485948
59262.415360,-2664.741391,-15840.407159,-76.609550
59262.415670,-2738.761985,-16580.613101,-76.609550
59262.415980,-4071.132681,-8068.244768,-1455.581446
59262.416290,592.164754,-7179.997637,3064.381992
59262.416600,2738.761985,-3701.029710,3600.648841
59262.416909,4663.297435,-3256.906145,2374.896044
59262.417219,3849.070898,-4811.338623,3677.258390
59262.417529,2590.720797,-8290.306550,2681.334243
59262.417839,-962.267725,-10658.965565,842.705048
59262.418149,-4515.256246,-12879.583391,-76.609550
59262.418459,-5921.647536,-14211.954086,-1225.752797
59262.418768,-4811.338623,-14211.954086,-1302.362347
59262.419078,-3034.844362,-9178.553681,-3753.867940
59262.419388,-1184.329507,-7476.080014,0.000000
59262.419698,2590.720797,-7698.141797,1455.581446
59262.420008,4663.297435,-7698.141797,1762.019645
59262.420318,3108.864956,-9252.574275,2604.724693
59262.420627,2072.576638,-11029.068536,2987.772442
59262.420937,-814.226536,-11769.274478,1302.362347
59262.421247,-2220.617826,-11103.089130,1225.752797
59262.421557,-2960.823768,-8956.491898,306.438199
59262.421867,-1184.329507,-8364.327145,2451.505594
59262.422176,-1258.350101,-4737.318029,-76.609550
59262.422486,0.000000,-5403.503377,1378.971896
59262.422796,1998.556043,-8290.306550,2298.286494
59262.423106,1406.391290,-8882.471304,2374.896044
59262.423416,-1776.494261,-10881.027347,306.438199
59262.423726,-2516.700203,-12065.356855,0.000000
59262.424035,-2812.782580,-11769.274478,-76.609550
59262.424345,-1554.432478,-10066.800811,0.000000
59262.424655,0.000000,-5995.668130,0.000000
59262.424965,2368.659014,-4811.338623,2451.505594
59262.425275,4663.297435,-4737.318029,2374.896044
59262.425585,2072.576638,-5995.668130,919.314598
59262.425894,1776.494261,-10140.821405,1685.410096
59262.426204,-444.123565,-14211.954086,1762.019645
59262.426514,-3552.988522,-13915.871710,-995.924147
59262.426824,-4145.153275,-13175.665768,-842.705048
59262.427134,-2738.761985,-10066.800811,0.000000
59262.427444,74.020594,-6439.791695,1378.971896
59262.427753,888.247130,-2442.679609,3064.381992
59262.428063,2368.659014,-2442.679609,3677.258390
59262.428373,5847.626942,-7105.977043,4826.401637
59262.428683,1184.329507,-7476.080014,1838.629195
59262.428993,-1184.329507,-11547.212695,1455.581446
59262.429303,-4589.276840,-13471.748144,-306.438199
59262.429612,-5699.585753,-13027.624579,-2528.115143
59262.429922,-5033.400406,-10881.027347,-2834.553343
59262.430232,-2368.659014,-8438.347739,-1378.971896
59262.430542,0.000000,-5995.668130,-1838.629195
59262.430852,962.267725,-5329.482782,229.828649
59262.431162,2294.638420,-6513.812290,536.266849
59262.431471,1184.329507,-9548.656652,2451.505594
59262.431781,2294.638420,-12879.583391,3600.648841
59262.432091,-2146.597232,-11325.150913,536.266849
59262.432401,-3552.988522,-11029.068536,612.876398
59262.432711,-1850.514855,-9252.574275,766.095498
59262.433021,-1554.432478,-7031.956449,459.657299
59262.433330,-370.102971,-5477.523971,1225.752797
59262.433640,518.144159,-5329.482782,1149.143247
59262.433950,2294.638420,-7698.141797,-76.609550
59262.434260,222.061783,-7846.182985,0.000000
59262.434570,-2368.659014,-10732.986159,1225.752797
59262.434880,-666.185348,-13619.789333,-76.609550
59262.435189,-2812.782580,-11473.192101,-76.609550
59262.435499,-2368.659014,-8364.327145,0.000000
59262.435809,666.185348,-7772.162391,536.266849
59262.436119,1628.453072,-5847.626942,536.266849
59262.436429,2812.782580,-5403.503377,919.314598
59262.436738,3478.967927,-8882.471304,2374.896044
59262.437048,3478.967927,-11843.295072,1762.019645
59262.437358,-74.020594,-13619.789333,-76.609550
59262.437668,-5921.647536,-11917.315666,-1838.629195
59262.437978,-2442.679609,-13619.789333,-76.609550
59262.438288,-2294.638420,-8512.368333,0.000000
59262.438597,0.000000,-3627.009116,0.000000
59262.438907,2072.576638,-4219.173869,2987.772442
59262.439217,3034.844362,-4293.194464,3140.991542
59262.439527,2960.823768,-6587.832884,3217.601092
59262.439837,1110.308913,-9474.636058,3600.648841
59262.440147,-814.226536,-12731.542202,1838.629195
59262.440456,-2442.679609,-14211.954086,-689.485948
59262.440766,-7994.224174,-10732.986159,-4290.134789
59262.441076,-3034.844362,-11843.295072,-76.609550
59262.441386,-1258.350101,-7179.997637,-2451.505594
59262.441696,296.082377,-5625.565159,-766.095498
59262.442006,2960.823768,-5995.668130,1838.629195
59262.442315,4293.194464,-7846.182985,3294.210641
59262.442625,3108.864956,-10140.821405,2834.553343
59262.442935,1702.473667,-13027.624579,4136.915689
59262.443245,-2072.576638,-12657.521608,766.095498
59262.443555,-1258.350101,-13619.789333,-76.609550
59262.443865,-3849.070898,-7624.121203,-1455.581446
59262.444174,-1628.453072,-7179.997637,2757.943793
59262.444484,-74.020594,-5107.421000,0.000000
59262.444794,1110.308913,-5921.647536,1149.143247
59262.445104,888.247130,-6883.915261,1838.629195
59262.445413,666.185348,-9400.615463,1915.238745
59262.445723,-666.185348,-11029.068536,1532.190996
59262.446033,-1776.494261,-11325.150913,612.876398
59262.446343,-2368.659014,-11177.109724,842.705048
59262.446653,0.000000,-9844.739029,1532.190996
59262.446962,2886.803174,-8882.471304,1762.019645
59262.447272,1998.556043,-4145.153275,-689.485948
59262.447582,0.000000,-2442.679609,0.000000
59262.447892,1036.288319,-7179.997637,76.609550
59262.448201,518.144159,-9770.718434,-1302.362347
59262.448511,-2368.659014,-12805.562797,-612.876398
59262.448821,-3849.070898,-14211.954086,-995.924147
59262.449131,-2590.720797,-13619.789333,612.876398
59262.449440,-592.164754,-8586.388927,842.705048
59262.449750,3478.967927,-7105.977043,4673.182538
59262.450060,1850.514855,-1554.432478,2451.505594
59262.450370,3256.906145,-3923.091493,3677.258390
59262.450680,4367.215058,-6883.915261,1685.410096
59262.450989,1702.473667,-9474.636058,1762.019645
59262.451299,-3108.864956,-11769.274478,-919.314598
59262.451609,-5329.482782,-13841.851115,-2451.505594
59262.451919,-6069.688724,-13101.645173,-3370.820191
59262.452228,-3552.988522,-10140.821405,-2451.505594
59262.452538,-2368.659014,-7179.997637,-2451.505594
59262.452848,2590.720797,-8586.388927,2374.896044
59262.453158,2294.638420,-5403.503377,229.828649
59262.453467,3552.988522,-8068.244768,3064.381992
59262.453777,3775.050304,-10510.924376,2987.772442
59262.454087,2294.638420,-13027.624579,2987.772442
59262.454397,-2886.803174,-11695.253884,76.609550
59262.454706,-3108.864956,-10732.986159,383.047749
59262.455016,-2738.761985,-8068.244768,229.828649
59262.455326,-3552.988522,-4811.338623,0.000000
59262.455636,-2368.659014,-4441.235652,1455.581446
59262.455946,0.000000,-5403.503377,306.438199
59262.456255,1924.535449,-9474.636058,2834.553343
59262.456565,-74.020594,-8586.388927,-76.609550
59262.456875,-2294.638420,-11843.295072,1149.143247
59262.457185,-1258.350101,-13915.871710,919.314598
59262.457494,-2146.597232,-11621.233289,-76.609550
59262.457804,-518.144159,-9474.636058,153.219100
59262.458114,592.164754,-7031.956449,1225.752797
59262.458424,518.144159,-3775.050304,229.828649
59262.458733,2294.638420,-5921.647536,2221.676944
59262.459043,2072.576638,-7179.997637,1072.533697
59262.459353,0.000000,-10140.821405,1378.971896
59262.459663,-666.185348,-15396.283594,2374.896044
59262.459973,-3923.091493,-14211.954086,-76.609550
59262.460282,-3552.988522,-11917.315666,766.095498
59262.460592,-1258.350101,-8586.388927,1455.581446
59262.460902,814.226536,-5329.482782,2068.457845
59262.461212,2368.659014,-3997.112087,2604.724693
59262.461521,2886.803174,-4737.318029,2374.896044
59262.461831,2886.803174,-8586.388927,2757.943793
59262.462141,1110.308913,-10362.883188,1762.019645
59262.462451,-4145.153275,-11325.150913,0.000000
59262.462760,-3627.009116,-14211.954086,-76.609550
59262.463070,-4811.338623,-12879.583391,-689.485948
59262.463380,-4145.153275,-8364.327145,-1838.629195
59262.463690,-296.082377,-7772.162391,0.000000
59262.463999,1702.473667,-5625.565159,842.705048
59262.464309,3330.926739,-6439.791695,1838.629195
59262.464619,5255.462188,-9474.636058,3294.210641
59262.464929,4663.297435,-13027.624579,4519.963438
59262.465239,-2294.638420,-10214.842000,0.000000
59262.465548,-3552.988522,-12509.480420,153.219100
59262.465858,-3034.844362,-11843.295072,-76.609550
59262.466168,-3552.988522,-7772.162391,919.314598
59262.466478,-2368.659014,-5403.503377,0.000000
59262.466787,0.000000,-5181.441594,1532.190996
59262.467097,1258.350101,-6143.709319,1378.971896
59262.467407,1924.535449,-7254.018232,2068.457845
59262.467717,2294.638420,-11251.130318,2681.334243
59262.468026,-74.020594,-11843.295072,2451.505594
59262.468336,-1258.350101,-13027.624579,-76.609550
59262.468646,-4145.153275,-9696.697840,-1838.629195
59262.468956,-74.020594,-13027.624579,-76.609550
59262.469266,0.000000,-5699.585753,0.000000
59262.469575,666.185348,-4811.338623,0.000000
59262.469885,2812.782580,-6587.832884,766.095498
59262.470195,2886.803174,-9252.574275,1455.581446
59262.470505,888.247130,-11473.192101,1302.362347
59262.470814,-518.144159,-13471.748144,1685.410096
59262.471124,-2960.823768,-13101.645173,0.000000
59262.471434,-1258.350101,-11843.295072,-76.609550
59262.471744,-2368.659014,-6587.832884,612.876398
59262.472053,3182.885551,-8290.306550,4213.525239
59262.472363,1184.329507,-1850.514855,306.438199
59262.472673,3478.967927,-4441.235652,2068.457845
59262.472983,2368.659014,-7772.162391,2298.286494
59262.473292,-74.020594,-10955.047942,842.705048
59262.473602,-3701.029710,-12805.562797,-919.314598
59262.473912,-5625.565159,-13989.892304,-2451.505594
59262.474222,-7105.977043,-11917.315666,-2451.505594
59262.474532,-1258.350101,-11251.130318,-1302.362347
59262.474841,-2072.576638,-5107.421000,0.000000
59262.475151,2960.823768,-5403.503377,3677.258390
59262.475461,3478.967927,-4515.256246,2374.896044
59262.475771,5847.626942,-8882.471304,3600.648841
59262.476080,1924.535449,-10658.965565,3064.381992
59262.476390,-962.267725,-12213.398043,1608.800546
59262.476700,-3627.009116,-12509.480420,0.000000
59262.477010,-4737.318029,-10140.821405,0.000000
59262.477319,-6513.812290,-5995.668130,0.000000
59262.477629,-592.164754,-8068.244768,1991.848295
59262.477939,-74.020594,-5329.482782,1149.143247
59262.478249,0.000000,-4811.338623,2451.505594
59262.478559,3478.967927,-7698.141797,2987.772442
59262.478868,1702.473667,-10658.965565,3294.210641
59262.479178,-814.226536,-10881.027347,1225.752797
59262.479488,-2368.659014,-11473.192101,153.219100
59262.479798,-1776.494261,-10510.924376,459.657299
59262.480107,-1702.473667,-7772.162391,0.000000
59262.480417,2220.617826,-6513.812290,536.266849
59262.480727,0.000000,-4811.338623,0.000000
59262.481037,3775.050304,-8290.306550,2374.896044
59262.481346,0.000000,-7254.018232,-919.314598
59262.481656,-74.020594,-13619.789333,-76.609550
59262.481966,-2146.597232,-14804.118840,612.876398
59262.482276,-3997.112087,-13471.748144,-306.438199
59262.482585,-2812.782580,-10362.883188,153.219100
59262.482895,-296.082377,-7105.977043,2068.457845
59262.483205,1702.473667,-3182.885551,2987.772442
59262.483515,4367.215058,-2960.823768,3907.087040
59262.483825,2368.659014,-3627.009116,2451.505594
59262.484134,3478.967927,-8956.491898,5669.106685
59262.484444,-74.020594,-11251.130318,-76.609550
59262.484754,-3034.844362,-15248.242405,-383.047749
59262.485064,-5921.647536,-14285.974681,-2451.505594
59262.485373,-5403.503377,-12435.459826,-3294.210641
59262.485683,-3404.947333,-9104.533087,-2221.676944
59262.485993,0.000000,-7179.997637,-383.047749
59262.486303,3182.885551,-6513.812290,842.705048
59262.486612,4145.153275,-6957.935855,2451.505594
59262.486922,3182.885551,-8142.265362,2068.457845
59262.487232,1184.329507,-10732.986159,4290.134789
59262.487542,-74.020594,-11843.295072,-76.609550
59262.487852,-2368.659014,-12509.480420,1532.190996
59262.488161,-4737.318029,-9548.656652,0.000000
59262.488471,-2220.617826,-7920.203579,306.438199
59262.488781,-1332.370696,-6291.750507,459.657299
59262.489091,0.000000,-5625.565159,612.876398
59262.489400,1702.473667,-7994.224174,1149.143247
59262.489710,666.185348,-8364.327145,1532.190996
59262.490020,-74.020594,-11251.130318,1455.581446
59262.490330,-3404.947333,-10732.986159,0.000000
59262.490639,-74.020594,-14211.954086,2374.896044
59262.490949,-1776.494261,-9844.739029,612.876398
59262.491259,-1628.453072,-7179.997637,0.000000
59262.491569,1332.370696,-6291.750507,995.924147
59262.491878,2442.679609,-5329.482782,995.924147
59262.492188,2960.823768,-7105.977043,1838.629195
59262.492498,2886.803174,-10658.965565,2068.457845
59262.492808,-740.205942,-12213.398043,612.876398
59262.493118,-1554.432478,-14211.954086,-76.609550
59262.493427,-4737.318029,-11917.315666,0.000000
59262.493737,-74.020594,-13027.624579,2374.896044
59262.494047,0.000000,-4811.338623,1532.190996
59262.494357,1850.514855,-3627.009116,1991.848295
59262.494666,3108.864956,-3478.967927,3217.601092
59262.494976,3330.926739,-5181.441594,3064.381992
59262.495286,1332.370696,-8364.327145,2068.457845
59262.495596,-1184.329507,-10732.986159,383.047749
59262.495905,-4737.318029,-13693.809927,0.000000
59262.496215,-3923.091493,-14211.954086,-1608.800546
59262.496525,-5921.647536,-10140.821405,-4903.011187
59262.496835,-370.102971,-10955.047942,842.705048
59262.497145,0.000000,-4811.338623,0.000000
59262.497454,2590.720797,-5329.482782,1149.143247
59262.497764,3997.112087,-7105.977043,2757.943793
59262.498074,3552.988522,-9622.677246,3140.991542
59262.498384,1036.288319,-11103.089130,2451.505594
59262.498693,-2960.823768,-11621.233289,1225.752797
59262.499003,-5921.647536,-10732.986159,0.000000
59262.499313,-3330.926739,-10510.924376,536.266849
59262.499623,-2442.679609,-5477.523971,-2528.115143
59262.499932,-1776.494261,-5403.503377,1225.752797
59262.500242,-74.020594,-5107.421000,0.000000
59262.500552,2886.803174,-7698.141797,2374.896044
59262.500862,1554.432478,-8660.409521,1532.190996
59262.501172,148.041188,-10510.924376,1838.629195
59262.501481,-1480.411884,-11695.253884,612.876398
59262.501791,-3849.070898,-11621.233289,0.000000
59262.502101,-4145.153275,-9548.656652,-1838.629195
59262.502411,-74.020594,-9918.759623,842.705048
59262.502720,-74.020594,-4737.318029,-2528.115143
59262.503030,0.000000,-4811.338623,0.000000
59262.503340,4367.215058,-7698.141797,1149.143247
59262.503650,3404.947333,-10658.965565,2374.896044
59262.503959,-74.020594,-11769.274478,1072.533697
59262.504269,-2368.659014,-12435.459826,0.000000
59262.504579,-2738.761985,-12213.398043,229.828649
59262.504889,-1850.514855,-9474.636058,1149.143247
59262.505198,962.267725,-7105.977043,1991.848295
59262.505508,1480.411884,-4219.173869,2451.505594
59262.505818,4071.132681,-4737.318029,2374.896044
59262.506128,0.000000,-4811.338623,0.000000
59262.506438,2294.638420,-10658.965565,2374.896044
59262.506747,-1850.514855,-12213.398043,76.609550
59262.507057,-4885.359217,-13693.809927,-1762.019645
59262.507367,-5995.668130,-13397.727550,-2451.505594
59262.507677,-4367.215058,-10732.986159,-2374.896044
59262.507986,-370.102971,-8216.285956,-76.609550
59262.508296,2590.720797,-5625.565159,1762.019645
59262.508606,2960.823768,-3701.029710,1838.629195
59262.508916,7031.956449,-9178.553681,6665.030833
59262.509225,4663.297435,-9474.636058,2987.772442
59262.509535,2294.638420,-13619.789333,4213.525239
59262.509845,-3404.947333,-13249.686362,612.876398
59262.510155,-4737.318029,-13027.624579,-612.876398
59262.510465,-4515.256246,-10214.842000,-1149.143247
59262.510774,-2812.782580,-7179.997637,-306.438199
59262.511084,-666.185348,-5255.462188,1991.848295
59262.511394,2294.638420,-5921.647536,2374.896044
59262.511704,1850.514855,-5033.400406,1915.238745
59262.512013,0.000000,-7179.997637,2451.505594
59262.512323,2072.576638,-11547.212695,3447.429741
59262.512633,-296.082377,-13619.789333,2987.772442
59262.512943,-3552.988522,-11029.068536,0.000000
59262.513252,-2220.617826,-11029.068536,-536.266849
59262.513562,-740.205942,-8068.244768,-766.095498
59262.513872,592.164754,-6439.791695,306.438199
59262.514182,2294.638420,-6587.832884,0.000000
59262.514491,3478.967927,-9474.636058,2374.896044
59262.514801,1702.473667,-10658.965565,1762.019645
59262.515111,-3552.988522,-10732.986159,0.000000
59262.515421,-74.020594,-14211.954086,-76.609550
59262.515731,-3552.988522,-10732.986159,2451.505594
59262.516040,-1702.473667,-7624.121203,689.485948
59262.516350,1258.350101,-5773.606348,2451.505594
59262.516660,4663.297435,-5551.544565,4596.572988
59262.516970,3478.967927,-4441.235652,2374.896044
59262.517279,2294.638420,-6883.915261,919.314598
59262.517589,1036.288319,-11843.295072,2374.896044
59262.517899,-2442.679609,-13915.871710,-383.047749
59262.518209,-8882.471304,-11917.315666,-4903.011187
59262.518518,-3627.009116,-15322.262999,-842.705048
59262.518828,-4737.318029,-9548.656652,0.000000
59262.519138,-444.123565,-7179.997637,0.000000
59262.519448,2368.659014,-4959.379811,1991.848295
59262.519758,4219.173869,-5033.400406,3064.381992
59262.520067,4515.256246,-6661.853478,3370.820191
59262.520377,2664.741391,-9252.574275,2987.772442
59262.520687,0.000000,-11029.068536,1532.190996
59262.520997,-2516.700203,-13619.789333,2068.457845
59262.521306,-7624.121203,-9548.656652,-3677.258390
59262.521616,-3552.988522,-11547.212695,-76.609550
59262.521926,-4737.318029,-5995.668130,-1838.629195
59262.522236,-1258.350101,-6069.688724,229.828649
59262.522545,74.020594,-5773.606348,1302.362347
59262.522855,2294.638420,-6809.894666,2374.896044
59262.523165,1776.494261,-9030.512492,2911.162892
59262.523475,296.082377,-9770.718434,2374.896044
59262.523784,-2368.659014,-9548.656652,0.000000
59262.524094,-518.144159,-11843.295072,1762.019645
59262.524404,-3330.926739,-7402.059420,-2681.334243
59262.524714,0.000000,-7772.162391,0.000000
59262.525024,0.000000,-5699.585753,-1915.238745
59262.525333,2886.803174,-7698.141797,995.924147
59262.525643,1924.535449,-8734.430116,995.924147
59262.525953,814.226536,-10955.047942,1225.752797
59262.526263,-1406.391290,-12953.603985,766.095498
59262.526572,-2738.761985,-13915.871710,2068.457845
59262.526882,-2146.597232,-11547.212695,1149.143247
59262.527192,-1480.411884,-7920.203579,2451.505594
59262.527502,3478.967927,-5921.647536,2374.896044
59262.527811,1184.329507,-3034.844362,2757.943793
59262.528121,4071.132681,-3256.906145,1455.581446
59262.528431,2960.823768,-7031.956449,2145.067394
59262.528741,740.205942,-9918.759623,842.705048
59262.529051,-2812.782580,-12805.562797,-536.266849
59262.529360,-5033.400406,-14434.015869,-2681.334243
59262.529670,-4811.338623,-14804.118840,-1915.238745
59262.529980,-3997.112087,-10066.800811,-2834.553343
59262.530290,-1776.494261,-7179.997637,0.000000
59262.530599,4663.297435,-8290.306550,3600.648841
59262.530909,3478.967927,-4071.132681,1149.143247
59262.531219,7031.956449,-8290.306550,3294.210641
59262.531529,3552.988522,-9548.656652,4290.134789
59262.531838,-148.041188,-11399.171507,1762.019645
59262.532148,-3256.906145,-11991.336260,0.000000
59262.532458,-4515.256246,-11843.295072,-842.705048
59262.532768,-3256.906145,-9252.574275,383.047749
59262.533077,-2738.761985,-6809.894666,0.000000
59262.533387,-666.185348,-4811.338623,0.000000
59262.533697,2368.659014,-7179.997637,3677.258390
59262.534007,4071.132681,-8882.471304,2374.896044
59262.534317,3478.967927,-11843.295072,3600.648841
59262.534626,-1184.329507,-10732.986159,612.876398
59262.534936,-1702.473667,-11843.295072,76.609550
59262.535246,-2368.659014,-11325.150913,-76.609550
59262.535556,-1850.514855,-9548.656652,-306.438199
59262.535865,0.000000,-7179.997637,919.314598
59262.536175,2294.638420,-6513.812290,536.266849
59262.536485,1258.350101,-4441.235652,-1302.362347
59262.536795,1184.329507,-8364.327145,2451.505594
59262.537104,2294.638420,-11843.295072,1762.019645
59262.537414,-1480.411884,-14137.933492,2374.896044
59262.537724,-3404.947333,-12953.603985,0.000000
59262.538034,-3182.885551,-11769.274478,383.047749
59262.538344,-888.247130,-8364.327145,1455.581446
59262.538653,444.123565,-5625.565159,1915.238745
59262.538963,1184.329507,-2738.761985,1225.752797
59262.539273,3923.091493,-5033.400406,2987.772442
59262.539583,3478.967927,-8882.471304,2374.896044
59262.539892,-3552.988522,-7772.162391,0.000000
59262.540202,-1554.432478,-14211.954086,-76.609550
59262.540512,-5329.482782,-14285.974681,-612.876398
59262.540822,-5107.421000,-12435.459826,-2528.115143
59262.541131,-2738.761985,-9918.759623,-1302.362347
59262.541441,740.205942,-7105.977043,766.095498
59262.541751,3108.864956,-5329.482782,2145.067394
59262.542061,3701.029710,-3923.091493,1225.752797
59262.542370,3849.070898,-7772.162391,3064.381992
59262.542680,3478.967927,-14211.954086,4826.401637
59262.542990,-4737.318029,-10140.821405,0.000000
59262.543300,-4145.153275,-14285.974681,306.438199
59262.543607,-5921.647536,-10732.986159,-1225.752797
59262.543917,-3627.009116,-9400.615463,-76.609550
59262.544227,-1480.411884,-5995.668130,612.876398
59262.544537,592.164754,-4959.379811,2145.067394
59262.544847,2294.638420,-5107.421000,2528.115143
59262.545156,2294.638420,-5995.668130,2374.896044
59262.545466,0.000000,-8956.491898,2451.505594
59262.545776,-592.164754,-12509.480420,3217.601092
59262.546086,-2442.679609,-11843.295072,-1302.362347
59262.546396,-4737.318029,-10732.986159,-1838.629195
59262.546706,-3256.906145,-8364.327145,-1838.629195
59262.547016,-222.061783,-8142.265362,-229.828649
59262.547325,740.205942,-5847.626942,153.219100
59262.547635,2664.741391,-6883.915261,1532.190996
59262.547945,2516.700203,-8586.388927,1991.848295
59262.548255,1110.308913,-10288.862594,1608.800546
59262.548565,0.000000,-13397.727550,2757.943793
59262.548875,-1554.432478,-11843.295072,-76.609550
59262.549184,-2368.659014,-9548.656652,1838.629195
59262.549494,-74.020594,-8290.306550,1762.019645
59262.549804,0.000000,-3034.844362,0.000000
59262.550114,2738.761985,-4737.318029,2221.676944
59262.550424,2368.659014,-5921.647536,1532.190996
59262.550734,1406.391290,-8586.388927,1149.143247
59262.551043,-1332.370696,-11695.253884,-229.828649
59262.551353,-3034.844362,-13027.624579,-1608.800546
59262.551663,-4959.379811,-13841.851115,-2068.457845
59262.551973,-4737.318029,-10732.986159,0.000000
59262.552283,-74.020594,-9474.636058,-76.609550
59262.552593,0.000000,-4811.338623,306.438199
59262.552902,2442.679609,-2738.761985,1838.629195
59262.553212,5255.462188,-6143.709319,3830.477490
59262.553522,4293.194464,-7994.224174,3217.601092
59262.553832,1110.308913,-10584.944971,1685.410096
59262.554142,-2294.638420,-12213.398043,229.828649
59262.554452,-3627.009116,-14211.954086,-76.609550
59262.554761,-6069.688724,-10436.903782,-2911.162892
59262.555071,-4737.318029,-9548.656652,0.000000
59262.555381,-666.185348,-7105.977043,-76.609550
59262.555691,-1480.411884,-4219.173869,306.438199
59262.556001,2294.638420,-5329.482782,919.314598
59262.556311,3256.906145,-7328.038826,3370.820191
59262.556620,2886.803174,-9474.636058,3524.039291
59262.556930,814.226536,-10362.883188,1762.019645
59262.557240,-1628.453072,-11547.212695,1149.143247
59262.557550,-1258.350101,-13619.789333,-76.609550
59262.557860,-1554.432478,-10066.800811,-689.485948
59262.558170,-4293.194464,-4811.338623,-3677.258390
59262.558479,0.000000,-7179.997637,612.876398
59262.558789,2886.803174,-8290.306550,1149.143247
59262.559099,3775.050304,-9474.636058,-76.609550
59262.559409,592.164754,-10881.027347,1378.971896
59262.559719,-1110.308913,-12361.439231,1302.362347
59262.560029,-2146.597232,-12139.377449,1072.533697
59262.560338,-1702.473667,-9844.739029,2604.724693
59262.560648,148.041188,-7920.203579,4596.572988
59262.560958,2886.803174,-5921.647536,3600.648841
59262.561268,0.000000,-1258.350101,0.000000
59262.561578,2960.823768,-6735.874072,3677.258390
59262.561888,1998.556043,-9474.636058,1762.019645
59262.562197,-666.185348,-11843.295072,-76.609550
59262.562507,-4737.318029,-13175.665768,-1455.581446
59262.562817,-5403.503377,-13545.768739,-1991.848295
59262.563127,-4663.297435,-11621.233289,-1762.019645
59262.563437,-1850.514855,-9178.553681,0.000000
59262.563747,1184.329507,-5403.503377,1838.629195
59262.564056,5847.626942,-5329.482782,4826.401637
59262.564366,7031.956449,-5921.647536,2987.772442
59262.564676,2368.659014,-6587.832884,2451.505594
59262.564986,1776.494261,-11177.109724,2757.943793
59262.565296,-1924.535449,-13619.789333,2374.896044
59262.565606,-5699.585753,-13619.789333,-1762.019645
59262.565916,-5921.647536,-11769.274478,-2145.067394
59262.566225,-4589.276840,-9252.574275,-1072.533697
59262.566535,-1998.556043,-5847.626942,0.000000
59262.566845,0.000000,-3627.009116,306.438199
59262.567155,2368.659014,-5995.668130,3064.381992
59262.567465,5847.626942,-9474.636058,4826.401637
59262.567775,444.123565,-7846.182985,1225.752797
59262.568084,0.000000,-10955.047942,2298.286494
59262.568394,-2368.659014,-13323.706956,1685.410096
59262.568704,-2516.700203,-10955.047942,-536.266849
59262.569014,-1924.535449,-9104.533087,-919.314598
59262.569324,-370.102971,-7179.997637,-842.705048
59262.569634,1332.370696,-5403.503377,-1685.410096
59262.569943,592.164754,-5403.503377,0.000000
59262.570253,888.247130,-9548.656652,0.000000
59262.570563,1776.494261,-13767.830521,2911.162892
59262.570873,-1554.432478,-12435.459826,-76.609550
59262.571183,-4145.153275,-11621.233289,0.000000
59262.571493,-2368.659014,-9844.739029,1225.752797
59262.571802,296.082377,-7550.100608,1915.238745
59262.572112,2368.659014,-4145.153275,2451.505594
59262.572422,3478.967927,-3552.988522,3064.381992
59262.572732,2516.700203,-4515.256246,1762.019645
59262.573042,518.144159,-7698.141797,0.000000
59262.573352,-2960.823768,-9548.656652,-3064.381992
59262.573661,-2960.823768,-15100.201217,-76.609550
59262.573971,-4811.338623,-14211.954086,-2528.115143
59262.574281,-5625.565159,-11325.150913,-919.314598
59262.574591,-1406.391290,-7772.162391,0.000000
59262.574901,2294.638420,-6883.915261,1838.629195
59262.575211,4219.173869,-4737.318029,2604.724693
59262.575520,5181.441594,-5847.626942,3370.820191
59262.575830,4367.215058,-9178.553681,3294.210641
59262.576140,2294.638420,-11251.130318,-76.609550
59262.576450,-3701.029710,-10732.986159,-2451.505594
59262.576760,-3701.029710,-14582.057057,919.314598
59262.577070,-5403.503377,-10510.924376,-2221.676944
59262.577379,-4145.153275,-8364.327145,0.000000
59262.577689,-2960.823768,-4219.173869,0.000000
59262.577999,444.123565,-5329.482782,1991.848295
59262.578309,2368.659014,-5625.565159,2681.334243
59262.578619,2812.782580,-7920.203579,3524.039291
59262.578929,1406.391290,-11251.130318,4213.525239
59262.579238,-74.020594,-12435.459826,-76.609550
59262.579548,-2738.761985,-11251.130318,-1915.238745
59262.579858,-4145.153275,-9548.656652,0.000000
59262.580168,-74.020594,-10658.965565,-76.609550
59262.580478,-1776.494261,-5995.668130,0.000000
59262.580788,370.102971,-5107.421000,-995.924147
59262.581097,1998.556043,-7550.100608,1225.752797
59262.581407,2146.597232,-9474.636058,1685.410096
59262.581717,222.061783,-11695.253884,1225.752797
59262.582027,-74.020594,-13841.851115,3217.601092
59262.582337,-1332.370696,-14211.954086,3600.648841
59262.582647,-1258.350101,-10658.965565,-76.609550
59262.582957,-3552.988522,-5403.503377,612.876398
59262.583266,2886.803174,-5921.647536,3600.648841
59262.583576,2886.803174,-3108.864956,76.609550
59262.583886,3478.967927,-5625.565159,1455.581446
59262.584196,666.185348,-8660.409521,1225.752797
59262.584506,-1702.473667,-11695.253884,-306.438199
59262.584816,-4367.215058,-13767.830521,-1608.800546
59262.585125,-4737.318029,-13397.727550,-612.876398
59262.585435,-3552.988522,-12583.501014,612.876398
59262.585745,-74.020594,-11251.130318,2374.896044
59262.586055,1110.308913,-4811.338623,0.000000
59262.586365,4737.318029,-5699.585753,3370.820191
59262.586675,5847.626942,-5921.647536,2987.772442
59262.586984,4663.297435,-9474.636058,3600.648841
59262.587294,0.000000,-10881.027347,1149.143247
59262.587604,-3478.967927,-12953.603985,-383.047749
59262.587914,-5181.441594,-12731.542202,-1225.752797
59262.588224,-5921.647536,-9548.656652,-2451.505594
59262.588534,-2960.823768,-7179.997637,0.000000
59262.588843,592.164754,-6735.874072,3370.820191
59262.589153,2886.803174,-5921.647536,2374.896044
59262.589463,1184.329507,-4811.338623,1225.752797
59262.589773,3404.947333,-9474.636058,4213.525239
59262.590083,2294.638420,-12287.418637,2987.772442
59262.590393,-2220.617826,-12139.377449,-153.219100
59262.590702,-3552.988522,-12287.418637,-995.924147
59262.591012,-3182.885551,-11177.109724,-995.924147
59262.591322,-3404.947333,-7179.997637,-2451.505594
59262.591632,0.000000,-4811.338623,0.000000
59262.591942,2368.659014,-6587.832884,2757.943793
59262.592252,4663.297435,-8290.306550,2374.896044
59262.592561,1184.329507,-8364.327145,1225.752797
59262.592871,1924.535449,-13915.871710,3600.648841
59262.593181,-888.247130,-13693.809927,1838.629195
59262.593491,-1998.556043,-12435.459826,536.266849
59262.593801,-1702.473667,-9844.739029,689.485948
59262.594111,0.000000,-7031.956449,1532.190996
59262.594420,518.144159,-2960.823768,536.266849
59262.594730,0.000000,-2442.679609,153.219100
59262.595040,0.000000,-4811.338623,0.000000
59262.595350,740.205942,-10436.903782,2145.067394
59262.595660,-1258.350101,-12435.459826,-76.609550
59262.595970,-3701.029710,-14137.933492,-76.609550
59262.596279,-4737.318029,-12509.480420,0.000000
59262.596589,-2220.617826,-11029.068536,-536.266849
59262.596899,444.123565,-8142.265362,536.266849
59262.597209,2812.782580,-5255.462188,1991.848295
59262.597519,4663.297435,-4737.318029,1762.019645
59262.597829,4367.215058,-5921.647536,1149.143247
59262.598138,518.144159,-7179.997637,0.000000
59262.598448,-1776.494261,-11917.315666,1225.752797
59262.598758,-3034.844362,-14211.954086,-689.485948
59262.599068,-5921.647536,-13101.645173,0.000000
59262.599378,-6513.812290,-8956.491898,-2145.067394
59262.599688,-2368.659014,-7105.977043,383.047749
59262.599997,74.020594,-5181.441594,1455.581446
59262.600307,2220.617826,-4515.256246,2911.162892
59262.600617,4663.297435,-7105.977043,4826.401637
59262.600927,4663.297435,-9474.636058,4826.401637
59262.601237,-74.020594,-9474.636058,842.705048
59262.601547,-4145.153275,-10732.986159,0.000000
59262.601857,-2442.679609,-12435.459826,-383.047749
59262.602166,-4737.318029,-9548.656652,0.000000
59262.602476,-2368.659014,-6883.915261,-1838.629195
59262.602786,0.000000,-6587.832884,0.000000
59262.603096,1850.514855,-6217.729913,536.266849
59262.603406,3108.864956,-7624.121203,1225.752797
59262.603716,4071.132681,-11843.295072,4826.401637
59262.604025,2886.803174,-13915.871710,2834.553343
59262.604335,-74.020594,-14211.954086,-76.609550
59262.604645,-4737.318029,-10140.821405,0.000000
59262.604955,-74.020594,-11251.130318,1762.019645
59262.605265,-2368.659014,-4811.338623,0.000000
59262.605575,1110.308913,-4145.153275,995.924147
59262.605884,1628.453072,-5033.400406,1762.019645
59262.606194,2072.576638,-6883.915261,1991.848295
59262.606504,222.061783,-9622.677246,1608.800546
59262.606814,-1776.494261,-12065.356855,1378.971896
59262.607124,-2590.720797,-14434.015869,0.000000
59262.607434,-1258.350101,-14211.954086,-76.609550
59262.607743,-3182.885551,-8660.409521,-1991.848295
59262.608053,1628.453072,-8734.430116,2987.772442
59262.608363,1850.514855,-3627.009116,0.000000
59262.608673,5847.626942,-4737.318029,2374.896044
59262.608983,4145.153275,-7328.038826,2221.676944
59262.609293,2220.617826,-10658.965565,2068.457845
59262.609602,-962.267725,-13175.665768,229.828649
59262.609912,-4737.318029,-14285.974681,0.000000
59262.610222,-5329.482782,-12509.480420,0.000000
59262.610532,-2442.679609,-13027.624579,-76.609550
59262.610842,-2664.741391,-5181.441594,-536.266849
59262.611152,0.000000,-4811.338623,2451.505594
59262.611461,4663.297435,-4441.235652,2987.772442
59262.611771,4663.297435,-6513.812290,4519.963438
59262.612081,2516.700203,-8364.327145,3370.820191
59262.612391,0.000000,-10288.862594,1915.238745
59262.612701,-2664.741391,-11695.253884,383.047749
59262.613011,-5921.647536,-9548.656652,0.000000
59262.613320,-4737.318029,-7179.997637,-3677.258390
59262.613630,-2368.659014,-8364.327145,0.000000
59262.613940,-74.020594,-7698.141797,-76.609550
59262.614250,0.000000,-4811.338623,0.000000
59262.614560,4367.215058,-9474.636058,2374.896044
59262.614870,2072.576638,-11695.253884,2604.724693
59262.615179,-962.267725,-12435.459826,536.266849
59262.615489,-2516.700203,-13027.624579,459.657299
59262.615799,-2220.617826,-11325.150913,766.095498
59262.616109,-2220.617826,-6291.750507,536.266849
59262.616419,0.000000,-4145.153275,1762.019645
59262.616729,1184.329507,-3627.009116,3064.381992
59262.617038,4071.132681,-5921.647536,2987.772442
59262.617348,0.000000,-6291.750507,0.000000
59262.617658,-74.020594,-13027.624579,2374.896044
59262.617968,-3108.864956,-12805.562797,0.000000
59262.618278,-5255.462188,-13619.789333,-2068.457845
59262.618588,-5033.400406,-12361.439231,-1532.190996
59262.618898,-2220.617826,-9400.615463,-459.657299
59262.619207,1110.308913,-6513.812290,-76.609550
59262.619517,2294.638420,-4737.318029,2374.896044
59262.619827,3330.926739,-3701.029710,689.485948
59262.620137,3552.988522,-7179.997637,2451.505594
59262.620447,3478.967927,-11843.295072,2374.896044
59262.620757,-962.267725,-13397.727550,1378.971896
59262.621066,-6513.812290,-14285.974681,-1838.629195
59262.621376,-5699.585753,-12879.583391,-2374.896044
59262.621686,-4441.235652,-10140.821405,-1072.533697
59262.621996,-1628.453072,-6809.894666,536.266849
59262.622306,2294.638420,-5921.647536,2374.896044
59262.622616,4663.297435,-6513.812290,4826.401637
59262.622925,3182.885551,-4589.276840,2528.115143
59262.623235,1480.411884,-7476.080014,3370.820191
59262.623545,1702.473667,-13619.789333,4213.525239
59262.623855,-3404.947333,-10732.986159,1225.752797
59262.624165,-5477.523971,-10881.027347,-1685.410096
59262.624475,-3478.967927,-10732.986159,-995.924147
59262.624784,-1480.411884,-8290.306550,-995.924147
59262.625094,222.061783,-6587.832884,-306.438199
59262.625404,4367.215058,-8290.306550,1762.019645
59262.625714,5847.626942,-11843.295072,3600.648841
59262.626024,1998.556043,-10066.800811,536.266849
59262.626334,-1776.494261,-11029.068536,612.876398
59262.626643,-74.020594,-15396.283594,2987.772442
59262.626953,-4145.153275,-9548.656652,612.876398
59262.627263,-1036.288319,-7476.080014,689.485948
59262.627573,888.247130,-5699.585753,1991.848295
59262.627883,1924.535449,-4293.194464,2298.286494
59262.628193,2220.617826,-4811.338623,2145.067394
59262.628502,2886.803174,-9252.574275,3064.381992
59262.628812,888.247130,-11029.068536,3064.381992
59262.629122,-1258.350101,-14211.954086,-76.609550
59262.629432,-6439.791695,-11621.233289,-2451.505594
59262.629742,-4737.318029,-11917.315666,0.000000
59262.630052,-3552.988522,-8364.327145,-1838.629195
59262.630361,1110.308913,-6809.894666,229.828649
59262.630671,2960.823768,-4663.297435,1455.581446
59262.630981,4959.379811,-5477.523971,2374.896044
59262.631291,4589.276840,-7994.224174,2681.334243
59262.631601,2072.576638,-11325.150913,2451.505594
59262.631911,-2368.659014,-13101.645173,612.876398
59262.632220,-3034.844362,-16580.613101,-76.609550
59262.632530,-5995.668130,-11917.315666,-2681.334243
59262.632840,-2072.576638,-11917.315666,2298.286494
59262.633150,-1406.391290,-4811.338623,-842.705048
59262.633460,2294.638420,-4737.318029,2987.772442
59262.633770,3256.906145,-4515.256246,3217.601092
59262.634079,3330.926739,-6291.750507,3830.477490
59262.634389,1628.453072,-8808.450710,3447.429741
59262.634699,-2368.659014,-9548.656652,0.000000
59262.635009,-7105.977043,-10140.821405,0.000000
59262.635319,-2960.823768,-13323.706956,-76.609550
59262.635629,-3923.091493,-9178.553681,-2221.676944
59262.635938,-1776.494261,-7179.997637,306.438199
59262.636248,2294.638420,-6513.812290,-76.609550
59262.636558,3330.926739,-7105.977043,842.705048
59262.636868,2590.720797,-8734.430116,995.924147
59262.637178,1480.411884,-11177.109724,2068.457845
59262.637488,-592.164754,-12435.459826,689.485948
59262.637798,-4441.235652,-11029.068536,0.000000
59262.638107,-5921.647536,-8364.327145,0.000000
59262.638417,-74.020594,-9474.636058,3294.210641
59262.638727,1406.391290,-5329.482782,1762.019645
59262.639037,2368.659014,-4811.338623,3677.258390
59262.639347,4663.297435,-7105.977043,2374.896044
59262.639657,1776.494261,-8586.388927,2145.067394
59262.639966,-444.123565,-10584.944971,842.705048
59262.640276,-3108.864956,-12435.459826,-689.485948
59262.640586,-4515.256246,-12879.583391,-1302.362347
59262.640896,-4219.173869,-10955.047942,-1915.238745
59262.641206,-1258.350101,-8290.306550,-1302.362347
59262.641516,0.000000,-5995.668130,1225.752797
59262.641825,4663.297435,-6513.812290,3600.648841
59262.642135,2368.659014,-3034.844362,0.000000
59262.642445,6513.812290,-10510.924376,4519.963438
59262.642755,1184.329507,-11621.233289,1838.629195
59262.643065,-2368.659014,-13693.809927,-306.438199
59262.643375,-4441.235652,-14285.974681,-1072.533697
59262.643684,-5107.421000,-12509.480420,-1378.971896
59262.643994,-1850.514855,-8882.471304,-76.609550
59262.644304,-74.020594,-7105.977043,-76.609550
59262.644614,0.000000,-2442.679609,1532.190996
59262.644924,3849.070898,-4811.338623,3983.696590
59262.645234,5847.626942,-8290.306550,4213.525239
59262.645543,1184.329507,-10658.965565,5286.058936
59262.645853,-2960.823768,-10732.986159,0.000000
59262.646163,-4367.215058,-12361.439231,-1455.581446
59262.646473,-5107.421000,-12213.398043,-1532.190996
59262.646783,-3330.926739,-9474.636058,-1762.019645
59262.647093,-74.020594,-9474.636058,-383.047749
59262.647403,3478.967927,-8290.306550,2374.896044
59262.647713,1332.370696,-4515.256246,0.000000
59262.648023,2960.823768,-8660.409521,2451.505594
59262.648332,2146.597232,-12213.398043,3677.258390
59262.648642,-740.205942,-11917.315666,2451.505594
59262.648952,-2516.700203,-12805.562797,2374.896044
59262.649262,-74.020594,-11843.295072,-76.609550
59262.649572,-1332.370696,-7179.997637,766.095498
59262.649882,222.061783,-5329.482782,1685.410096
59262.650192,3478.967927,-5921.647536,2681.334243
59262.650502,4071.132681,-8586.388927,3600.648841
59262.650812,1702.473667,-8586.388927,1762.019645
59262.651122,-2368.659014,-9548.656652,0.000000
59262.651431,-2072.576638,-13915.871710,1225.752797
59262.651741,-5921.647536,-12509.480420,0.000000
59262.652051,-4145.153275,-10140.821405,-1532.190996
59262.652361,-1036.288319,-8438.347739,0.000000
59262.652671,1924.535449,-6439.791695,1225.752797
59262.652981,3701.029710,-5107.421000,1532.190996
59262.653291,5551.544565,-8290.306550,3677.258390
59262.653601,4589.276840,-11177.109724,3983.696590
59262.653911,-74.020594,-11843.295072,842.705048
59262.654220,-4145.153275,-13693.809927,0.000000
59262.654530,-2442.679609,-16580.613101,-76.609550
59262.654840,-6513.812290,-9548.656652,-2451.505594
59262.655150,-2442.679609,-7550.100608,-76.609550
59262.655460,444.123565,-5255.462188,2604.724693
59262.655770,2590.720797,-3256.906145,3064.381992
59262.656080,3997.112087,-4589.276840,3830.477490
59262.656390,3552.988522,-7179.997637,3983.696590
59262.656700,1184.329507,-10140.821405,3830.477490
59262.657010,-666.185348,-12435.459826,-76.609550
59262.657319,-5921.647536,-11917.315666,-3677.258390
59262.657629,-2442.679609,-14211.954086,-76.609550
59262.657939,-4737.318029,-7772.162391,-3524.039291
59262.658249,-74.020594,-7105.977043,-383.047749
59262.658559,1480.411884,-6439.791695,383.047749
59262.658869,3552.988522,-6587.832884,1762.019645
59262.659179,3849.070898,-8882.471304,2451.505594
59262.659489,1184.329507,-9548.656652,1838.629195
59262.659799,-2368.659014,-11029.068536,1225.752797
59262.660109,-666.185348,-13323.706956,1608.800546
59262.660418,-2738.761985,-8364.327145,-2451.505594
59262.660728,0.000000,-8364.327145,2451.505594
59262.661038,-74.020594,-4145.153275,0.000000
59262.661348,1850.514855,-5921.647536,2068.457845
59262.661658,1406.391290,-7105.977043,1915.238745
59262.661968,74.020594,-8956.491898,995.924147
59262.662278,-1998.556043,-11473.192101,-306.438199
59262.662588,-5329.482782,-11695.253884,-1149.143247
59262.662898,-6513.812290,-10140.821405,-2451.505594
59262.663207,-1480.411884,-11547.212695,612.876398
59262.663517,-74.020594,-7031.956449,-2451.505594
59262.663827,3552.988522,-6587.832884,3217.601092
59262.664137,5847.626942,-4737.318029,-76.609550
59262.664447,4145.153275,-6883.915261,2451.505594
59262.664757,2886.803174,-10436.903782,1915.238745
59262.665067,-666.185348,-12805.562797,612.876398
59262.665377,-4219.173869,-14878.139434,-995.924147
59262.665687,-5995.668130,-13915.871710,-1915.238745
59262.665997,-6735.874072,-8956.491898,-3064.381992
59262.666306,-2368.659014,-7476.080014,612.876398
59262.666616,1998.556043,-7105.977043,3600.648841
59262.666926,888.247130,-1258.350101,1838.629195
59262.667236,5847.626942,-5921.647536,4213.525239
59262.667546,3108.864956,-7476.080014,4290.134789
59262.667856,74.020594,-10066.800811,1915.238745
59262.668166,-2738.761985,-12065.356855,-306.438199
59262.668476,-4811.338623,-12509.480420,-1532.190996
59262.668786,-3627.009116,-11843.295072,-1302.362347
59262.669095,-2442.679609,-8882.471304,-2528.115143
59262.669405,-2368.659014,-6587.832884,0.000000
59262.669715,1776.494261,-7179.997637,2451.505594
59262.670025,4663.297435,-9474.636058,2374.896044
59262.670335,4663.297435,-10658.965565,4213.525239
59262.670645,592.164754,-10732.986159,1991.848295
59262.670955,-888.247130,-12213.398043,1455.581446
59262.671265,-2220.617826,-11103.089130,1072.533697
59262.671575,-2072.576638,-9030.512492,919.314598
59262.671885,-74.020594,-7698.141797,2374.896044
59262.672194,2294.638420,-5921.647536,2374.896044
59262.672504,0.000000,-3923.091493,612.876398
59262.672814,2368.659014,-9400.615463,3983.696590
59262.673124,-74.020594,-9474.636058,-76.609550
59262.673434,-2368.659014,-12213.398043,1455.581446
59262.673744,-4367.215058,-12953.603985,-1302.362347
59262.674054,-3997.112087,-12509.480420,-689.485948
59262.674364,-1924.535449,-10288.862594,229.828649
59262.674674,444.123565,-7476.080014,1532.190996
59262.674983,2960.823768,-5255.462188,2451.505594
59262.675293,5995.668130,-5921.647536,3600.648841
59262.675603,5847.626942,-7105.977043,3600.648841
59262.675913,2368.659014,-9548.656652,2451.505594
59262.676223,-666.185348,-12435.459826,-1302.362347
59262.676533,-4737.318029,-15470.304188,-1225.752797
59262.676843,-5551.544565,-14508.036463,-2374.896044
59262.677153,-4885.359217,-11177.109724,-1302.362347
59262.677463,-2294.638420,-7402.059420,153.219100
59262.677773,814.226536,-5329.482782,2221.676944
59262.678082,2664.741391,-3034.844362,2451.505594
59262.678392,4737.318029,-5995.668130,5209.449386
59262.678702,4367.215058,-8290.306550,6052.154434
59262.679012,-1776.494261,-7179.997637,0.000000
59262.679322,-2960.823768,-12065.356855,1225.752797
59262.679632,-4515.256246,-11325.150913,-919.314598
59262.679942,-3627.009116,-11399.171507,-1302.362347
59262.680252,-2368.659014,-8734.430116,-1455.581446
59262.680562,-296.082377,-7254.018232,-459.657299
59262.680871,1628.453072,-6957.935855,383.047749
59262.681181,1776.494261,-6587.832884,0.000000
59262.681491,1184.329507,-9548.656652,2451.505594
59262.681801,1850.514855,-13027.624579,4749.792088
59262.682111,-2442.679609,-10066.800811,-689.485948
59262.682421,-3552.988522,-10732.986159,612.876398
59262.682731,-2072.576638,-7772.162391,1608.800546
59262.683041,222.061783,-6217.729913,1608.800546
59262.683351,1184.329507,-4219.173869,1838.629195
59262.683661,1554.432478,-4811.338623,1455.581446
59262.683970,1406.391290,-7476.080014,1455.581446
59262.684280,0.000000,-8512.368333,-153.219100
59262.684590,-4737.318029,-10732.986159,0.000000
59262.684900,-3256.906145,-14359.995275,-76.609550
59262.685210,-5847.626942,-10732.986159,-3600.648841
59262.685520,-518.144159,-11843.295072,1149.143247
59262.685830,74.020594,-6957.935855,0.000000
59262.686140,2590.720797,-5255.462188,1532.190996
59262.686450,4515.256246,-4737.318029,1608.800546
59262.686760,4515.256246,-6809.894666,2298.286494
59262.687069,2590.720797,-9696.697840,2145.067394
59262.687379,-1258.350101,-12435.459826,-76.609550
59262.687689,-5847.626942,-13101.645173,-3064.381992
59262.687999,-5625.565159,-13989.892304,-612.876398
59262.688309,-4219.173869,-9770.718434,-2528.115143
59262.688619,-2368.659014,-7179.997637,1225.752797
59262.688929,2294.638420,-4737.318029,1149.143247
59262.689239,2960.823768,-4219.173869,3064.381992
59262.689549,3182.885551,-5699.585753,3600.648841
59262.689858,2368.659014,-7920.203579,3524.039291
59262.690168,-444.123565,-10732.986159,2374.896044
59262.690478,-2442.679609,-13027.624579,-76.609550
59262.690788,-4811.338623,-12139.377449,-1608.800546
59262.691098,-5625.565159,-9548.656652,-3677.258390
59262.691408,-74.020594,-10658.965565,-76.609550
59262.691718,-74.020594,-6513.812290,-689.485948
59262.692028,2294.638420,-5921.647536,-689.485948
59262.692338,2368.659014,-7994.224174,1838.629195
59262.692648,2072.576638,-10140.821405,2298.286494
59262.692957,222.061783,-12213.398043,1685.410096
59262.693267,-2220.617826,-12287.418637,2221.676944
59262.693577,-1850.514855,-11843.295072,-76.609550
59262.693887,-3404.947333,-6735.874072,0.000000
59262.694197,-592.164754,-5995.668130,2451.505594
59262.694507,-74.020594,-4145.153275,-76.609550
59262.694817,0.000000,-3627.009116,1225.752797
59262.695127,2886.803174,-7105.977043,689.485948
59262.695437,-740.205942,-9844.739029,919.314598
59262.695746,-3404.947333,-11843.295072,-459.657299
59262.696056,-4885.359217,-13619.789333,-1302.362347
59262.696366,-4071.132681,-12435.459826,-229.828649
59262.696676,-2590.720797,-9844.739029,-995.924147
59262.696986,0.000000,-5551.544565,0.000000
59262.697296,3552.988522,-5699.585753,3064.381992
59262.697606,7031.956449,-5921.647536,2374.896044
59262.697916,2664.741391,-5403.503377,1225.752797
59262.698226,4071.132681,-12435.459826,5515.887586
59262.698536,-2146.597232,-12361.439231,-459.657299
59262.698845,-4441.235652,-14582.057057,-1532.190996
59262.699155,-5033.400406,-13767.830521,-1838.629195
59262.699465,-3552.988522,-9622.677246,-1608.800546
59262.699775,0.000000,-7328.038826,1225.752797
59262.700085,3478.967927,-6217.729913,3600.648841
59262.700395,4663.297435,-4737.318029,4213.525239
59262.700705,592.164754,-3627.009116,1225.752797
59262.701015,4441.235652,-10214.842000,4826.401637
59262.701325,-1184.329507,-11029.068536,1838.629195
59262.701634,-3034.844362,-11843.295072,-1302.362347
59262.701944,-4441.235652,-11769.274478,-1378.971896
59262.702254,-3997.112087,-9918.759623,-2221.676944
59262.702564,-2220.617826,-7550.100608,-1991.848295
59262.702874,0.000000,-5995.668130,0.000000
59262.703184,2368.659014,-7179.997637,1225.752797
59262.703494,4663.297435,-9474.636058,2987.772442
59262.703804,0.000000,-7772.162391,0.000000
59262.704114,1184.329507,-13693.809927,3064.381992
59262.704424,-2368.659014,-11917.315666,689.485948
59262.704733,-2146.597232,-11547.212695,995.924147
59262.705043,-1628.453072,-8142.265362,766.095498
59262.705353,444.123565,-5773.606348,1608.800546
59262.705663,370.102971,-3849.070898,1225.752797
59262.705973,592.164754,-3923.091493,306.438199
59262.706283,0.000000,-6587.832884,1225.752797
59262.706593,-74.020594,-11621.233289,1991.848295
59262.706903,-1850.514855,-13619.789333,-689.485948
59262.707213,-5921.647536,-13101.645173,-1225.752797
59262.707522,-4737.318029,-11917.315666,0.000000
59262.707832,-1776.494261,-9252.574275,-459.657299
59262.708142,814.226536,-7328.038826,1302.362347
59262.708452,3034.844362,-4737.318029,1302.362347
59262.708762,4441.235652,-5403.503377,2374.896044
59262.709072,2960.823768,-6587.832884,1225.752797
59262.709382,296.082377,-10140.821405,2451.505594
59262.709692,-1110.308913,-14211.954086,1149.143247
59262.710002,-8290.306550,-10732.986159,-3677.258390
59262.710312,-3775.050304,-13989.892304,-76.609550
59262.710621,-4441.235652,-7772.162391,-2145.067394
59262.710931,-74.020594,-7105.977043,1608.800546
59262.711241,2072.576638,-4293.194464,2757.943793
59262.711551,3478.967927,-4663.297435,3370.820191
59262.711861,3775.050304,-6661.853478,3907.087040
59262.712171,592.164754,-7179.997637,2451.505594
59262.712481,-2368.659014,-10140.821405,612.876398
59262.712791,-2442.679609,-13471.748144,-76.609550
59262.713101,-7105.977043,-9548.656652,-3677.258390
59262.713411,-1998.556043,-11843.295072,-76.609550
59262.713720,-1850.514855,-6735.874072,-1685.410096
59262.714030,1110.308913,-7031.956449,536.266849
59262.714340,2886.803174,-6587.832884,1532.190996
59262.714650,3552.988522,-8660.409521,2451.505594
59262.714960,1850.514855,-10362.883188,2298.286494
59262.715270,-1554.432478,-11547.212695,1149.143247
59262.715580,-3552.988522,-10436.903782,0.000000
59262.715890,-2368.659014,-11029.068536,1532.190996
59262.716200,-74.020594,-7698.141797,-76.609550
59262.716509,0.000000,-4811.338623,766.095498
59262.716819,1332.370696,-3478.967927,1225.752797
59262.717129,2146.597232,-6513.812290,1991.848295
59262.717439,1036.288319,-7920.203579,1608.800546
59262.717749,-1036.288319,-10436.903782,383.047749
59262.718059,-3849.070898,-12509.480420,-383.047749
59262.718369,-4811.338623,-13027.624579,-1915.238745
59262.718679,-4737.318029,-10436.903782,-2757.943793
59262.718989,-888.247130,-9030.512492,1685.410096
59262.719299,2294.638420,-5329.482782,-383.047749
59262.719608,2368.659014,-4219.173869,2451.505594
59262.719918,6143.709319,-5773.606348,842.705048
59262.720228,4219.173869,-8956.491898,2757.943793
59262.720538,1480.411884,-11399.171507,1762.019645
59262.720848,-2368.659014,-14063.912898,-306.438199
59262.721158,-4737.318029,-14211.954086,-1302.362347
59262.721468,-3627.009116,-13915.871710,-76.609550
59262.721778,-2442.679609,-8882.471304,-995.924147
59262.722088,-1184.329507,-4811.338623,0.000000
59262.722397,4663.297435,-7105.977043,4826.401637
59262.722707,4663.297435,-5625.565159,2987.772442
59262.723017,4367.215058,-7105.977043,2374.896044
59262.723327,740.205942,-8956.491898,2451.505594
59262.723637,-1776.494261,-11325.150913,689.485948
59262.723947,-4737.318029,-12139.377449,-995.924147
59262.724257,-5255.462188,-11547.212695,-1072.533697
59262.724567,-2442.679609,-10362.883188,-76.609550
59262.724877,-74.020594,-7698.141797,-76.609550
59262.725187,74.020594,-4811.338623,-2451.505594
59262.725496,3849.070898,-8068.244768,3677.258390
59262.725806,3478.967927,-8882.471304,1762.019645
59262.726116,2294.638420,-10955.047942,2987.772442
59262.726426,-1628.453072,-11917.315666,459.657299
59262.726736,-3182.885551,-12435.459826,76.609550
59262.727046,-3108.864956,-10807.006753,306.438199
59262.727356,-1554.432478,-7994.224174,612.876398
59262.727666,1480.411884,-6291.750507,1991.848295
59262.727976,2886.803174,-5921.647536,2987.772442
59262.728285,1702.473667,-5625.565159,1762.019645
59262.728595,0.000000,-7179.997637,1532.190996
59262.728905,-74.020594,-11843.295072,2068.457845
59262.729215,-2516.700203,-13027.624579,2374.896044
59262.729525,-4367.215058,-12361.439231,-689.485948
59262.729835,-3701.029710,-11621.233289,-689.485948
59262.730145,-1628.453072,-8808.450710,-76.609550
59262.730455,814.226536,-5921.647536,0.000000
59262.730765,2368.659014,-4219.173869,1838.629195
59262.731075,4737.318029,-7031.956449,3217.601092
59262.731384,3478.967927,-9474.636058,2374.896044
59262.731694,-3552.988522,-9548.656652,0.000000
59262.732004,-2220.617826,-15396.283594,842.705048
59262.732314,-4441.235652,-15396.283594,-76.609550
59262.732624,-4367.215058,-11769.274478,-1149.143247
59262.732934,-2516.700203,-8142.265362,0.000000
59262.733244,370.102971,-5403.503377,1685.410096
59262.733554,3108.864956,-2442.679609,1225.752797
59262.733864,2368.659014,-2738.761985,2451.505594
59262.734173,3849.070898,-7772.162391,4903.011187
59262.734483,3478.967927,-13027.624579,4826.401637
59262.734793,-4441.235652,-9548.656652,0.000000
59262.735103,-1850.514855,-14211.954086,-76.609550
59262.735413,-4663.297435,-12509.480420,0.000000
59262.735723,-1924.535449,-9474.636058,-1378.971896
59262.736033,-592.164754,-7179.997637,-689.485948
59262.736343,2146.597232,-5921.647536,306.438199
59262.736653,3997.112087,-6439.791695,1149.143247
59262.736963,2368.659014,-7476.080014,0.000000
59262.737272,592.164754,-10436.903782,1532.190996
59262.737582,-74.020594,-15988.448347,2987.772442
59262.737892,-5921.647536,-10140.821405,0.000000
59262.738202,-1554.432478,-11843.295072,3447.429741
59262.738512,-2072.576638,-5995.668130,306.438199
59262.738822,1110.308913,-5699.585753,1685.410096
59262.739132,2220.617826,-4737.318029,2298.286494
59262.739442,2516.700203,-5995.668130,2298.286494
59262.739752,2294.638420,-8882.471304,2374.896044
59262.740062,-370.102971,-10658.965565,-76.609550
59262.740371,-4441.235652,-11325.150913,-1838.629195
59262.740681,-2960.823768,-14582.057057,2145.067394
59262.740991,-4219.173869,-9548.656652,-2528.115143
59262.741301,-1184.329507,-8438.347739,612.876398
59262.741611,0.000000,-4219.173869,0.000000
59262.741921,3256.906145,-5107.421000,1838.629195
59262.742231,3701.029710,-6587.832884,1838.629195
59262.742541,2368.659014,-9474.636058,1915.238745
59262.742851,-370.102971,-13027.624579,2374.896044
59262.743160,-2442.679609,-14211.954086,-76.609550
59262.743470,-7105.977043,-11473.192101,-3370.820191
59262.743780,-3552.988522,-11917.315666,306.438199
59262.744090,-1554.432478,-7402.059420,536.266849
59262.744400,592.164754,-4811.338623,2451.505594
59262.744710,4589.276840,-3701.029710,3677.258390
59262.745020,3108.864956,-4811.338623,4060.306139
59262.745330,2886.803174,-7698.141797,3753.867940
59262.745640,-148.041188,-9918.759623,1838.629195
59262.745949,-3034.844362,-13619.789333,-76.609550
59262.746259,-4811.338623,-12435.459826,-1302.362347
59262.746569,-6365.771101,-10436.903782,-2987.772442
59262.746879,-2072.576638,-11029.068536,1225.752797
59262.747189,-1258.350101,-5625.565159,-1608.800546
59262.747499,1184.329507,-5551.544565,1225.752797
59262.747809,1850.514855,-4811.338623,76.609550
59262.748118,3108.864956,-9400.615463,3064.381992
59262.748428,592.164754,-11399.171507,2451.505594
59262.748738,-1924.535449,-11621.233289,0.000000
59262.749048,-2442.679609,-14211.954086,1762.019645
59262.749358,-2442.679609,-9474.636058,-76.609550
59262.749668,-2664.741391,-5699.585753,0.000000
59262.749978,2368.659014,-7031.956449,4519.963438
59262.750287,1998.556043,-4441.235652,842.705048
59262.750597,0.000000,-5403.503377,0.000000
59262.750907,0.000000,-7179.997637,0.000000
59262.751217,-2072.576638,-11399.171507,459.657299
59262.751527,-3627.009116,-12657.521608,-995.924147
59262.751837,-3923.091493,-12953.603985,-1225.752797
59262.752147,-1850.514855,-11843.295072,-76.609550
59262.752456,1702.473667,-9474.636058,-76.609550
59262.752766,1998.556043,-5181.441594,383.047749
59262.753076,2368.659014,-3627.009116,1225.752797
59262.753386,5847.626942,-7698.141797,2374.896044
59262.753696,888.247130,-7772.162391,0.000000
59262.754006,-1258.350101,-11399.171507,-995.924147
59262.754316,-3849.070898,-13989.892304,-1072.533697
59262.754625,-4885.359217,-13471.748144,-1302.362347
59262.754935,-3034.844362,-11251.130318,-536.266849
59262.755245,-74.020594,-9104.533087,3140.991542
59262.755555,4071.132681,-8290.306550,4826.401637
59262.755865,4367.215058,-4441.235652,3600.648841
59262.756175,0.000000,-2442.679609,1225.752797
59262.756485,4663.297435,-9474.636058,4826.401637
59262.756795,74.020594,-8808.450710,0.000000
59262.757104,-2442.679609,-11843.295072,-76.609550
59262.757414,-4737.318029,-11769.274478,-1685.410096
59262.757724,-4293.194464,-11103.089130,-2145.067394
59262.758034,-2368.659014,-8512.368333,-1378.971896
59262.758344,592.164754,-6143.709319,306.438199
59262.758654,2886.803174,-8068.244768,2911.162892
59262.758964,4663.297435,-8290.306550,2374.896044
59262.759273,962.267725,-7476.080014,0.000000
59262.759583,740.205942,-12509.480420,3064.381992
59262.759893,-666.185348,-11843.295072,-76.609550
59262.760203,-1554.432478,-12731.542202,1762.019645
59262.760513,-2368.659014,-9474.636058,536.266849
59262.760823,-740.205942,-6809.894666,1302.362347
59262.761133,740.205942,-4737.318029,2145.067394
59262.761442,0.000000,-3627.009116,612.876398
59262.761752,1480.411884,-6587.832884,2757.943793
59262.762062,2294.638420,-10658.965565,4826.401637
59262.762372,-1258.350101,-10658.965565,-689.485948
59262.762682,-5921.647536,-12509.480420,0.000000
59262.762992,-3627.009116,-14211.954086,-76.609550
59262.763302,-1258.350101,-12361.439231,-76.609550
59262.763611,-74.020594,-8142.265362,459.657299
59262.763921,1850.514855,-5551.544565,1225.752797
59262.764231,3256.906145,-5255.462188,1991.848295
59262.764541,1332.370696,-5995.668130,0.000000
59262.764851,0.000000,-7772.162391,1225.752797
59262.765161,-962.267725,-12657.521608,2528.115143
59262.765471,-4811.338623,-12287.418637,-2528.115143
59262.765780,-4737.318029,-12805.562797,0.000000
59262.766090,-1850.514855,-11843.295072,-76.609550
59262.766400,-592.164754,-7772.162391,2451.505594
59262.766710,1702.473667,-4737.318029,2374.896044
59262.767020,2812.782580,-4589.276840,3064.381992
59262.767330,3701.029710,-6291.750507,3524.039291
59262.767640,1998.556043,-6809.894666,1915.238745
59262.767949,-2368.659014,-7772.162391,0.000000
59262.768259,-2960.823768,-12657.521608,1225.752797
59262.768569,-2442.679609,-13915.871710,-1302.362347
59262.768879,-4737.318029,-10140.821405,-1838.629195
59262.769189,-74.020594,-10658.965565,-76.609550
59262.769499,0.000000,-5995.668130,0.000000
59262.769809,2294.638420,-6513.812290,1149.143247
59262.770119,3552.988522,-7550.100608,1762.019645
59262.770428,2886.803174,-10140.821405,2374.896044
59262.770738,1702.473667,-11843.295072,-76.609550
59262.771048,-3627.009116,-10510.924376,-1302.362347
59262.771358,-3849.070898,-10732.986159,0.000000
59262.771668,-74.020594,-11547.212695,2911.162892
59262.771978,-1258.350101,-5699.585753,76.609550
59262.772288,592.164754,-4811.338623,2451.505594
59262.772597,888.247130,-3923.091493,1225.752797
59262.772907,2442.679609,-7624.121203,2145.067394
59262.773217,1036.288319,-9548.656652,1302.362347
59262.773527,-1998.556043,-11251.130318,76.609550
59262.773837,-2442.679609,-14211.954086,-76.609550
59262.774147,-2738.761985,-12731.542202,-2528.115143
59262.774457,-3256.906145,-8364.327145,-3677.258390
59262.774766,1184.329507,-8660.409521,1838.629195
59262.775076,4071.132681,-5921.647536,1149.143247
59262.775386,2368.659014,-3627.009116,1225.752797
59262.775696,2516.700203,-6587.832884,1378.971896
59262.776006,2590.720797,-10510.924376,2145.067394
59262.776316,-962.267725,-12509.480420,459.657299
59262.776626,-3997.112087,-13989.892304,-612.876398
59262.776935,-3034.844362,-14211.954086,-76.609550
59262.777245,-74.020594,-10658.965565,-689.485948
59262.777555,-1554.432478,-4811.338623,-1608.800546
59262.777865,1184.329507,-5403.503377,3677.258390
59262.778175,4071.132681,-4737.318029,2374.896044
59262.778485,296.082377,-3627.009116,0.000000
59262.778795,1702.473667,-8290.306550,2374.896044
59262.779104,-1036.288319,-10732.986159,1225.752797
59262.779414,-3256.906145,-12731.542202,-229.828649
59262.779724,-4515.256246,-12583.501014,-1455.581446
59262.780034,-2516.700203,-11103.089130,306.438199
59262.780344,-74.020594,-9474.636058,-76.609550
59262.780654,2294.638420,-8290.306550,-76.609550
59262.780964,1184.329507,-4293.194464,0.000000
59262.781274,3552.988522,-8660.409521,3064.381992
59262.781583,814.226536,-9030.512492,229.828649
59262.781893,-74.020594,-11843.295072,1149.143247
59262.782203,-3256.906145,-12065.356855,459.657299
59262.782513,-3997.112087,-10955.047942,612.876398
59262.782823,-2590.720797,-8364.327145,766.095498
59262.783133,0.000000,-5995.668130,2451.505594
59262.783443,1480.411884,-5773.606348,3830.477490
59262.783752,4071.132681,-8290.306550,4826.401637
59262.784062,2294.638420,-8290.306550,1149.143247
59262.784372,-2368.659014,-9548.656652,1225.752797
59262.784682,-2442.679609,-11843.295072,-1302.362347
59262.784992,-3627.009116,-13915.871710,-689.485948
59262.785302,-4515.256246,-12213.398043,-1225.752797
59262.785612,-2146.597232,-9548.656652,-766.095498
59262.785921,0.000000,-7254.018232,612.876398
59262.786231,0.000000,-3627.009116,612.876398
59262.786541,3552.988522,-5107.421000,2757.943793
59262.786851,7031.956449,-11103.089130,6052.154434
59262.787161,1110.308913,-9474.636058,536.266849
59262.787471,-2368.659014,-12213.398043,612.876398
59262.787781,-1554.432478,-14211.954086,-76.609550
59262.788090,-3034.844362,-12731.542202,-76.609550
59262.788400,-2146.597232,-9400.615463,76.609550
59262.788710,222.061783,-6587.832884,1072.533697
59262.789020,1998.556043,-4737.318029,2374.896044
59262.789330,1184.329507,-2442.679609,612.876398
59262.789640,1184.329507,-5403.503377,2451.505594
59262.789950,1776.494261,-9548.656652,3677.258390
59262.790259,-74.020594,-10955.047942,-76.609550
59262.790569,-3552.988522,-12509.480420,0.000000
59262.790879,-1258.350101,-14211.954086,-76.609550
59262.791189,-2368.659014,-10140.821405,-1378.971896
59262.791499,0.000000,-7402.059420,-383.047749
59262.791809,1776.494261,-5625.565159,612.876398
59262.792119,3478.967927,-6143.709319,995.924147
59262.792429,3478.967927,-7476.080014,229.828649
59262.792738,0.000000,-8364.327145,766.095498
59262.793048,0.000000,-11917.315666,2451.505594
59262.793358,-3034.844362,-11843.295072,-842.705048
59262.793668,-3552.988522,-11325.150913,459.657299
59262.793978,-74.020594,-10658.965565,2068.457845
59262.794288,-1184.329507,-5403.503377,1225.752797
59262.794598,666.185348,-5329.482782,1762.019645
59262.794907,1554.432478,-5773.606348,1762.019645
59262.795217,1776.494261,-7994.224174,2451.505594
59262.795527,1702.473667,-10510.924376,-76.609550
59262.795837,-2442.679609,-10658.965565,-1302.362347
59262.796147,-5921.647536,-10732.986159,0.000000
59262.796457,-666.185348,-14211.954086,-76.609550
59262.796767,-3256.906145,-8660.409521,-1532.190996
59262.797076,1332.370696,-7772.162391,3064.381992
59262.797386,740.205942,-4811.338623,612.876398
59262.797696,3552.988522,-6069.688724,1991.848295
59262.798006,2960.823768,-8364.327145,2451.505594
59262.798316,444.123565,-11029.068536,1455.581446
59262.798626,-74.020594,-14211.954086,-76.609550
59262.798936,-3034.844362,-14211.954086,-76.609550
59262.799245,-4811.338623,-9770.718434,-2374.896044
59262.799555,-3256.906145,-8364.327145,1225.752797
59262.799865,1110.308913,-5921.647536,1762.019645
59262.800175,0.000000,-2442.679609,2451.505594
59262.800485,2442.679609,-3701.029710,2451.505594
59262.800795,2738.761985,-6809.894666,2834.553343
59262.801105,962.267725,-9474.636058,2145.067394
59262.801414,-2368.659014,-11843.295072,-76.609550
59262.801724,-2812.782580,-14804.118840,-76.609550
59262.802034,-2442.679609,-14211.954086,-76.609550
59262.802344,-4515.256246,-7772.162391,-3600.648841
59262.802654,592.164754,-8364.327145,1225.752797
59262.802964,1110.308913,-5255.462188,76.609550
59262.803274,0.000000,-3627.009116,0.000000
59262.803584,3775.050304,-8586.388927,2374.896044
59262.803893,1776.494261,-10510.924376,2221.676944
59262.804203,-1036.288319,-12065.356855,1608.800546
59262.804513,-3330.926739,-12731.542202,0.000000
59262.804823,-2664.741391,-12065.356855,2145.067394
59262.805133,-74.020594,-9474.636058,1838.629195
59262.805443,2294.638420,-7105.977043,1762.019645
59262.805753,0.000000,-3627.009116,612.876398
59262.806062,3478.967927,-7105.977043,2987.772442
59262.806372,296.082377,-5995.668130,0.000000
59262.806682,-74.020594,-11251.130318,1455.581446
59262.806992,-2590.720797,-11917.315666,0.000000
59262.807302,-3701.029710,-12583.501014,-919.314598
59262.807612,-3552.988522,-11621.233289,-1149.143247
59262.807922,-1776.494261,-8364.327145,0.000000
59262.808231,1776.494261,-7179.997637,0.000000
59262.808541,4663.297435,-7550.100608,2987.772442
59262.808851,4663.297435,-7105.977043,1455.581446
59262.809161,2368.659014,-8512.368333,3064.381992
59262.809471,1998.556043,-11251.130318,-76.609550
59262.809781,-1258.350101,-14063.912898,536.266849
59262.810091,-3849.070898,-13175.665768,-995.924147
59262.810400,-3256.906145,-11399.171507,-536.266849
59262.810710,-1332.370696,-8512.368333,612.876398
59262.811020,0.000000,-3627.009116,612.876398
59262.811330,1480.411884,-3627.009116,0.000000
59262.811640,5329.482782,-7105.977043,5132.839837
59262.811950,4071.132681,-7698.141797,2374.896044
59262.812260,0.000000,-9844.739029,2451.505594
59262.812569,-74.020594,-13027.624579,-76.609550
59262.812879,-3701.029710,-13915.871710,-919.314598
59262.813189,-4071.132681,-12435.459826,-1608.800546
59262.813499,-2220.617826,-9844.739029,-1072.533697
59262.813809,-370.102971,-7254.018232,-383.047749
59262.814119,0.000000,-3034.844362,0.000000
59262.814429,2368.659014,-3775.050304,536.266849
59262.814738,1184.329507,-6587.832884,1225.752797
59262.815048,2960.823768,-11843.295072,3830.477490
59262.815358,-2368.659014,-10732.986159,0.000000
59262.815668,-1554.432478,-14211.954086,2374.896044
59262.815978,-4737.318029,-10732.986159,0.000000
59262.816288,-2442.679609,-7994.224174,229.828649
59262.816598,-740.205942,-5329.482782,1072.533697
59262.816908,1554.432478,-5329.482782,2374.896044
59262.817217,518.144159,-3849.070898,1149.143247
59262.817527,0.000000,-7105.977043,1149.143247
