#time,accel_x,accel_y,accel_z
59424.324107,-74.020594,-9252.574275,766.095498
59424.324417,-444.123565,-8956.491898,919.314598
59424.324726,-666.185348,-9030.512492,536.266849
59424.325036,-2220.617826,-7179.997637,0.000000
59424.325346,0.000000,-7772.162391,0.000000
59424.325656,0.000000,-9104.533087,1225.752797
59424.325965,-74.020594,-7994.224174,-1302.362347
59424.326275,0.000000,-8364.327145,612.876398
59424.326585,-74.020594,-9474.636058,2374.896044
59424.326894,0.000000,-8956.491898,1225.752797
59424.327204,-74.020594,-9474.636058,842.705048
59424.327514,-592.164754,-8956.491898,842.705048
59424.327823,-592.164754,-8882.471304,842.705048
59424.328133,-666.185348,-7994.224174,-689.485948
59424.328443,-2368.659014,-7476.080014,0.000000
59424.328752,-1776.494261,-8364.327145,0.000000
59424.329062,-74.020594,-9474.636058,-76.609550
59424.329372,0.000000,-8364.327145,1225.752797
59424.329682,2294.638420,-11251.130318,2987.772442
59424.329991,0.000000,-8364.327145,0.000000
59424.330301,222.061783,-9178.553681,919.314598
59424.330611,-74.020594,-9178.553681,1072.533697
59424.330920,-444.123565,-8956.491898,612.876398
59424.331230,-74.020594,-9474.636058,-76.609550
59424.331540,-962.267725,-7402.059420,0.000000
59424.331849,-1628.453072,-7772.162391,0.000000
59424.332159,0.000000,-10140.821405,3064.381992
59424.332469,-74.020594,-8734.430116,-383.047749
59424.332778,0.000000,-9548.656652,2451.505594
59424.333088,-1776.494261,-8364.327145,0.000000
59424.333398,-370.102971,-9030.512492,612.876398
59424.333708,-296.082377,-9178.553681,1149.143247
59424.334017,-296.082377,-9030.512492,766.095498
59424.334327,1702.473667,-11251.130318,2374.896044
59424.334637,-74.020594,-9474.636058,-76.609550
59424.334946,-1184.329507,-7994.224174,0.000000
59424.335256,1332.370696,-11251.130318,3524.039291
59424.335566,-1554.432478,-7402.059420,0.000000
59424.335875,0.000000,-8364.327145,612.876398
59424.336185,-962.267725,-8438.347739,536.266849
59424.336495,-370.102971,-9326.594869,1072.533697
59424.336804,-296.082377,-8956.491898,919.314598
59424.337114,-148.041188,-9326.594869,842.705048
59424.337424,1628.453072,-10955.047942,2528.115143
59424.337734,1702.473667,-10658.965565,1762.019645
59424.338043,-148.041188,-8734.430116,229.828649
59424.338353,518.144159,-11843.295072,3600.648841
59424.338663,-2072.576638,-7179.997637,0.000000
59424.338972,-1776.494261,-7772.162391,0.000000
59424.339282,-74.020594,-9400.615463,-76.609550
59424.339592,-740.205942,-8882.471304,306.438199
59424.339901,-370.102971,-9030.512492,842.705048
59424.340211,-518.144159,-9104.533087,612.876398
59424.340521,0.000000,-8956.491898,1225.752797
59424.340831,1110.308913,-10584.944971,2374.896044
59424.341140,-74.020594,-9474.636058,842.705048
59424.341450,0.000000,-7179.997637,1225.752797
59424.341760,-74.020594,-9474.636058,-76.609550
59424.342069,-2368.659014,-7179.997637,-1455.581446
59424.342379,1110.308913,-9474.636058,1149.143247
59424.342689,-740.205942,-8882.471304,536.266849
59424.342998,-370.102971,-9104.533087,919.314598
59424.343308,-444.123565,-9252.574275,766.095498
59424.343618,-2368.659014,-7772.162391,0.000000
59424.343927,0.000000,-9252.574275,1302.362347
59424.344237,888.247130,-10066.800811,2374.896044
59424.344547,-2368.659014,-6587.832884,0.000000
59424.344857,1628.453072,-10658.965565,2374.896044
59424.345166,-74.020594,-8290.306550,-76.609550
59424.345476,-74.020594,-9992.780217,1915.238745
59424.345786,-74.020594,-9252.574275,842.705048
59424.346095,222.061783,-8882.471304,766.095498
59424.346405,740.205942,-8438.347739,1378.971896
59424.346715,0.000000,-6587.832884,0.000000
59424.347024,0.000000,-8364.327145,612.876398
59424.347334,1480.411884,-9252.574275,3294.210641
59424.347644,370.102971,-7031.956449,-689.485948
59424.347953,2368.659014,-9548.656652,1991.848295
59424.348263,4071.132681,-10658.965565,2374.896044
59424.348573,3108.864956,-9548.656652,1532.190996
59424.348883,3330.926739,-9474.636058,995.924147
59424.349192,2812.782580,-9252.574275,383.047749
59424.349502,2368.659014,-9252.574275,459.657299
59424.349812,2294.638420,-7846.182985,-1762.019645
59424.350121,1184.329507,-7476.080014,0.000000
59424.350431,2960.823768,-8956.491898,1225.752797
59424.350741,4663.297435,-8290.306550,-76.609550
59424.351050,5033.400406,-8660.409521,2451.505594
59424.351360,8216.285956,-11251.130318,4213.525239
59424.351670,4737.318029,-7476.080014,612.876398
59424.351980,5847.626942,-9030.512492,1072.533697
59424.352289,5921.647536,-8734.430116,536.266849
59424.352599,6069.688724,-9030.512492,459.657299
59424.352909,7031.956449,-9474.636058,-76.609550
59424.353218,5255.462188,-8290.306550,-1302.362347
59424.353528,4145.153275,-9548.656652,0.000000
59424.353838,7031.956449,-13027.624579,-76.609550
59424.354147,1776.494261,-11325.150913,0.000000
59424.354457,3552.988522,-13397.727550,2145.067394
59424.354767,1184.329507,-10732.986159,0.000000
59424.355076,2516.700203,-9548.656652,842.705048
59424.355386,3108.864956,-7328.038826,1838.629195
59424.355696,4663.297435,-4959.379811,1915.238745
59424.356006,7920.203579,-4737.318029,3600.648841
59424.356315,8216.285956,-4145.153275,2374.896044
59424.356625,8512.368333,-3034.844362,0.000000
59424.356935,10658.965565,-8512.368333,4903.011187
59424.357244,4367.215058,-9326.594869,536.266849
59424.357554,2368.659014,-14878.139434,0.000000
59424.357864,-1258.350101,-17024.736666,-3140.991542
59424.358173,-4737.318029,-18431.127956,-3830.477490
59424.358483,-4219.173869,-16136.489536,-3140.991542
59424.358793,-3552.988522,-11547.212695,-2528.115143
59424.359102,-1406.391290,-11547.212695,2068.457845
59424.359412,3182.885551,-7994.224174,3294.210641
59424.359722,5255.462188,-4737.318029,2987.772442
59424.360032,4737.318029,-3627.009116,6128.763984
59424.360341,4367.215058,-4145.153275,4826.401637
59424.360651,0.000000,-74.020594,1532.190996
59424.360961,2886.803174,-3552.988522,3600.648841
59424.361270,3256.906145,-3552.988522,1762.019645
59424.361580,2442.679609,-5477.523971,306.438199
59424.361890,-296.082377,-11103.089130,-1532.190996
59424.362199,-3256.906145,-17987.004391,-2145.067394
59424.362509,-4811.338623,-21614.013506,-2911.162892
59424.362819,-4811.338623,-21317.931130,-1608.800546
59424.363128,-3627.009116,-15396.283594,-2834.553343
59424.363438,-1776.494261,-8364.327145,0.000000
59424.363748,3478.967927,-4737.318029,689.485948
59424.364058,5847.626942,-5625.565159,5209.449386
59424.364367,5477.523971,-4367.215058,4903.011187
59424.364677,6143.709319,-5699.585753,5822.325785
59424.364987,7920.203579,-3997.112087,5975.544884
59424.365296,5921.647536,-3627.009116,5515.887586
59424.365606,4737.318029,-5403.503377,3677.258390
59424.365916,2294.638420,-13619.789333,2374.896044
59424.366225,-1850.514855,-14211.954086,-4060.306139
59424.366535,-3552.988522,-16654.633695,-4290.134789
59424.366845,-1258.350101,-17764.942608,-4979.620737
59424.367155,-4219.173869,-16136.489536,-4213.525239
59424.367464,-3775.050304,-11029.068536,-4443.353888
59424.367774,-1480.411884,-9696.697840,-919.314598
59424.368084,5773.606348,-2664.741391,1915.238745
59424.368393,9770.718434,-74.020594,4903.011187
59424.368703,14211.954086,814.226536,8580.269578
59424.369013,14211.954086,-2738.761985,10418.898773
59424.369322,11769.274478,-7105.977043,6052.154434
59424.369632,4737.318029,-7179.997637,2451.505594
59424.369942,4663.297435,-11843.295072,-76.609550
59424.370251,-5625.565159,-12287.418637,-4903.011187
59424.370561,-2442.679609,-16506.592507,-6971.469032
59424.370871,-2442.679609,-14730.098246,-5515.887586
59424.371181,1184.329507,-11843.295072,-2757.943793
59424.371490,2886.803174,-6735.874072,-2145.067394
59424.371800,0.000000,-7772.162391,-1225.752797
59424.372110,2368.659014,-2442.679609,0.000000
59424.372419,11473.192101,-3256.906145,4826.401637
59424.372729,8586.388927,2294.638420,3983.696590
59424.373039,9252.574275,-5625.565159,6665.030833
59424.373348,4737.318029,-2442.679609,1378.971896
59424.373658,7254.018232,-6809.894666,2068.457845
59424.373968,5847.626942,-8660.409521,2068.457845
59424.374277,1110.308913,-11473.192101,-536.266849
59424.374587,-2442.679609,-13619.789333,-4673.182538
59424.374897,-4071.132681,-13545.768739,-4673.182538
59424.375207,-5921.647536,-11029.068536,-4903.011187
59424.375516,-444.123565,-11399.171507,612.876398
59424.375826,2590.720797,-7179.997637,536.266849
59424.376136,7994.224174,-6587.832884,5515.887586
59424.376445,6291.750507,-3923.091493,2757.943793
59424.376755,4737.318029,-7031.956449,4443.353888
59424.377065,2590.720797,-6217.729913,2221.676944
59424.377374,1406.391290,-7402.059420,1608.800546
59424.377684,2294.638420,-7994.224174,-76.609550
59424.377994,-2442.679609,-10066.800811,-76.609550
59424.378303,-3034.844362,-7105.977043,-4366.744339
59424.378613,-6513.812290,-10732.986159,-3370.820191
59424.378923,-4219.173869,-14211.954086,-689.485948
59424.379233,-7105.977043,-9548.656652,0.000000
59424.379542,-2886.803174,-8956.491898,919.314598
59424.379852,-74.020594,-6291.750507,2451.505594
59424.380162,3849.070898,-5477.523971,4903.011187
59424.380471,4589.276840,-4737.318029,5975.544884
59424.380781,6291.750507,-7698.141797,7277.907231
59424.381091,-74.020594,-8290.306550,4213.525239
59424.381400,-5995.668130,-7179.997637,-2451.505594
59424.381710,-5033.400406,-11917.315666,-306.438199
59424.382020,-5995.668130,-11843.295072,-1302.362347
59424.382330,-7179.997637,-11843.295072,-2528.115143
59424.382639,-8364.327145,-11399.171507,-2528.115143
59424.382949,-8512.368333,-11843.295072,-2068.457845
59424.383259,-3923.091493,-9992.780217,0.000000
59424.383568,-2146.597232,-6513.812290,2221.676944
59424.383878,0.000000,-3034.844362,2451.505594
59424.384188,888.247130,-3034.844362,1762.019645
59424.384497,5329.482782,-5625.565159,7814.174080
59424.384807,5255.462188,-2812.782580,3294.210641
59424.385117,0.000000,-7179.997637,1225.752797
59424.385426,-4737.318029,-12139.377449,-383.047749
59424.385736,-5403.503377,-14211.954086,-2834.553343
59424.386046,-5699.585753,-15396.283594,-1915.238745
59424.386356,-5403.503377,-12435.459826,-2451.505594
59424.386665,-4515.256246,-10658.965565,-2298.286494
59424.386975,-1850.514855,-10362.883188,-76.609550
59424.387285,-74.020594,-11843.295072,3447.429741
59424.387594,518.144159,-6809.894666,1915.238745
59424.387904,3849.070898,-5107.421000,4903.011187
59424.388214,5847.626942,-3552.988522,4826.401637
59424.388523,4367.215058,-3997.112087,2528.115143
59424.388833,5921.647536,-5699.585753,3983.696590
59424.389143,5403.503377,-7402.059420,2451.505594
59424.389452,888.247130,-11029.068536,459.657299
59424.389762,-3627.009116,-14211.954086,-2528.115143
59424.390072,-5921.647536,-14285.974681,-4903.011187
59424.390382,-7105.977043,-13101.645173,-6128.763984
59424.390691,-1036.288319,-15100.201217,-383.047749
59424.391001,-1702.473667,-8216.285956,-2374.896044
59424.391311,0.000000,-7772.162391,1532.190996
59424.391620,2368.659014,-9178.553681,4366.744339
59424.391930,6143.709319,-5773.606348,3907.087040
59424.392240,8142.265362,-3701.029710,6358.592633
59424.392549,7328.038826,-2812.782580,5286.058936
59424.392859,5551.544565,-4367.215058,1532.190996
59424.393169,6439.791695,-7105.977043,3600.648841
59424.393478,5847.626942,-12435.459826,-76.609550
59424.393788,-3034.844362,-11917.315666,-4060.306139
59424.394097,-5477.523971,-17246.798449,-2528.115143
59424.394407,-5403.503377,-18949.272115,-2528.115143
59424.394717,-3849.070898,-14878.139434,-2451.505594
59424.395026,-2072.576638,-11029.068536,0.000000
59424.395336,2294.638420,-11251.130318,2987.772442
59424.395645,-814.226536,-5329.482782,383.047749
59424.395955,-1184.329507,-7698.141797,2374.896044
59424.396265,4737.318029,-4811.338623,4903.011187
59424.396574,7105.977043,-3627.009116,8120.612279
59424.396884,5847.626942,-1184.329507,4213.525239
59424.397194,1184.329507,-2442.679609,0.000000
59424.397503,3552.988522,-9104.533087,2757.943793
59424.397813,1702.473667,-10658.965565,-76.609550
59424.398122,-6661.853478,-15988.448347,-2681.334243
59424.398432,-8734.430116,-16210.510130,-5669.106685
59424.398742,-8882.471304,-18357.107362,-4749.792088
59424.399051,-5921.647536,-12509.480420,-2451.505594
59424.399361,-2886.803174,-10658.965565,-76.609550
59424.399670,-3404.947333,-3627.009116,-995.924147
59424.399980,-148.041188,-6735.874072,2604.724693
59424.400290,-740.205942,-6143.709319,612.876398
59424.400599,5847.626942,-9474.636058,8503.660028
59424.400909,4737.318029,-3997.112087,6818.249932
59424.401218,3849.070898,-3330.926739,5822.325785
59424.401528,2886.803174,-6291.750507,4519.963438
59424.401838,2442.679609,-7994.224174,2987.772442
59424.402147,-1554.432478,-9030.512492,-689.485948
59424.402457,-5921.647536,-12509.480420,-2451.505594
59424.402767,-5995.668130,-16580.613101,-1302.362347
59424.403076,-8956.491898,-14285.974681,-5439.278036
59424.403386,-4737.318029,-11917.315666,0.000000
59424.403695,-1258.350101,-9474.636058,-612.876398
59424.404005,-3552.988522,-5107.421000,-1532.190996
59424.404315,-1036.288319,-7105.977043,1455.581446
59424.404624,0.000000,-7105.977043,2681.334243
59424.404934,3034.844362,-7402.059420,5209.449386
59424.405243,5847.626942,-7105.977043,7277.907231
59424.405553,3330.926739,-4071.132681,3370.820191
59424.405863,2960.823768,-6587.832884,3677.258390
59424.406172,3478.967927,-9178.553681,4213.525239
59424.406482,-74.020594,-9622.677246,-1915.238745
59424.406791,-4441.235652,-12509.480420,-2757.943793
59424.407101,-3627.009116,-14804.118840,-3447.429741
59424.407411,-5477.523971,-15322.262999,-3753.867940
59424.407720,-2960.823768,-12361.439231,-1991.848295
59424.408030,-814.226536,-9400.615463,-536.266849
59424.408340,-2368.659014,-5403.503377,0.000000
59424.408649,-74.020594,-8290.306550,1149.143247
59424.408959,1110.308913,-7402.059420,2374.896044
59424.409268,4737.318029,-7179.997637,6128.763984
59424.409578,7031.956449,-4441.235652,4519.963438
59424.409888,5329.482782,-4959.379811,5515.887586
59424.410197,4145.153275,-5995.668130,3983.696590
59424.410507,3552.988522,-7698.141797,2451.505594
59424.410816,518.144159,-10288.862594,-153.219100
59424.411126,-3330.926739,-13619.789333,-3294.210641
59424.411436,-4219.173869,-14211.954086,-4366.744339
59424.411745,-6513.812290,-14952.160028,-3677.258390
59424.412055,-2220.617826,-12509.480420,-1532.190996
59424.412364,-666.185348,-8882.471304,-1915.238745
59424.412674,-296.082377,-8512.368333,612.876398
59424.412984,-2146.597232,-6217.729913,-1685.410096
59424.413293,1110.308913,-8882.471304,2374.896044
59424.413603,3478.967927,-7179.997637,4903.011187
59424.413913,5033.400406,-4959.379811,6052.154434
59424.414222,5551.544565,-3923.091493,4903.011187
59424.414532,5921.647536,-5995.668130,6128.763984
59424.414841,4663.297435,-7550.100608,3600.648841
59424.415151,-2072.576638,-9770.718434,-1149.143247
59424.415461,-7105.977043,-11917.315666,-2451.505594
59424.415770,-4811.338623,-18357.107362,-2834.553343
59424.416080,-3627.009116,-16580.613101,-2528.115143
59424.416389,-4441.235652,-12509.480420,-2757.943793
59424.416699,-4811.338623,-9326.594869,-1991.848295
59424.417009,-3256.906145,-7179.997637,-919.314598
59424.417318,-1110.308913,-8216.285956,1225.752797
59424.417628,74.020594,-5033.400406,2528.115143
59424.417937,2368.659014,-4219.173869,6128.763984
59424.418247,4737.318029,-4737.318029,8963.317327
59424.418557,4071.132681,-1036.288319,4213.525239
59424.418866,5329.482782,-4811.338623,5975.544884
59424.419176,1998.556043,-5403.503377,2451.505594
59424.419486,-3330.926739,-10066.800811,-1302.362347
59424.419795,-5847.626942,-14359.995275,-4060.306139
59424.420105,-6587.832884,-16580.613101,-4366.744339
59424.420414,-5699.585753,-15470.304188,-4060.306139
59424.420724,-3923.091493,-14804.118840,-1455.581446
59424.421034,-5403.503377,-9992.780217,-2757.943793
59424.421343,-4515.256246,-9400.615463,-1685.410096
59424.421653,-518.144159,-9104.533087,2068.457845
59424.421962,2072.576638,-7772.162391,6052.154434
59424.422272,3552.988522,-1258.350101,7354.516781
59424.422582,5921.647536,-2220.617826,8580.269578
59424.422891,8216.285956,0.000000,6665.030833
59424.423201,4737.318029,-1258.350101,4903.011187
59424.423510,4663.297435,-7698.141797,3907.087040
59424.423820,-1776.494261,-12435.459826,459.657299
59424.424130,-6735.874072,-14508.036463,-5439.278036
59424.424439,-7105.977043,-16802.674883,-6435.202183
59424.424749,-6957.935855,-16580.613101,-5669.106685
59424.425059,-5699.585753,-14359.995275,-4213.525239
59424.425368,-6365.771101,-10140.821405,-4903.011187
59424.425678,-2960.823768,-9548.656652,-4290.134789
59424.425987,1184.329507,-10140.821405,3677.258390
59424.426297,4663.297435,-5625.565159,4826.401637
59424.426607,4737.318029,-1850.514855,7354.516781
59424.426916,5921.647536,-2442.679609,9346.365076
59424.427226,8216.285956,-518.144159,6894.859482
59424.427535,7179.997637,-2516.700203,5822.325785
59424.427845,2664.741391,-6809.894666,2528.115143
59424.428155,-3182.885551,-10288.862594,-2681.334243
59424.428464,-7328.038826,-15174.221811,-7354.516781
59424.428774,-7105.977043,-16358.551318,-7354.516781
59424.429083,-3627.009116,-18949.272115,-3140.991542
59424.429393,-5995.668130,-13471.748144,-5592.497135
59424.429703,-6513.812290,-10881.027347,-4596.572988
59424.430012,-3997.112087,-9844.739029,-1072.533697
59424.430322,1110.308913,-9770.718434,2834.553343
59424.430632,3775.050304,-4737.318029,5132.839837
59424.430941,5033.400406,-2442.679609,7277.907231
59424.431251,7031.956449,-1258.350101,7277.907231
59424.431560,8808.450710,0.000000,6052.154434
59424.431870,7254.018232,-2590.720797,4903.011187
59424.432180,4959.379811,-9474.636058,4213.525239
59424.432489,-4219.173869,-11547.212695,-2528.115143
59424.432799,-7105.977043,-14878.139434,-6128.763984
59424.433108,-8290.306550,-16654.633695,-5898.935335
59424.433418,-6587.832884,-16580.613101,-6052.154434
59424.433728,-6587.832884,-14434.015869,-4903.011187
59424.434037,-7031.956449,-12287.418637,-3983.696590
59424.434347,-2960.823768,-9844.739029,-1838.629195
59424.434656,2294.638420,-10658.965565,3600.648841
59424.434966,3923.091493,-2368.659014,6052.154434
59424.435276,4737.318029,-74.020594,9806.022374
59424.435585,8216.285956,0.000000,9422.974625
59424.435895,7105.977043,2294.638420,7354.516781
59424.436205,5921.647536,-1258.350101,6741.640382
59424.436514,1628.453072,-8512.368333,2374.896044
59424.436824,-4589.276840,-12879.583391,-2911.162892
59424.437133,-6365.771101,-17394.839637,-5592.497135
59424.437443,-5995.668130,-18283.086767,-5286.058936
59424.437753,-4811.338623,-16580.613101,-4979.620737
59424.438062,-6587.832884,-13915.871710,-5592.497135
59424.438372,-8290.306550,-10140.821405,-6128.763984
59424.438681,-1998.556043,-13249.686362,-766.095498
59424.438991,1036.288319,-11843.295072,3600.648841
59424.439301,2294.638420,-5033.400406,4903.011187
59424.439610,5033.400406,-2738.761985,8427.050478
59424.439920,7920.203579,296.082377,9039.926876
59424.440229,10214.842000,1554.432478,8733.488677
59424.440539,7550.100608,-3552.988522,7890.783629
59424.440849,2738.761985,-9474.636058,3600.648841
59424.441158,-3775.050304,-11029.068536,-4979.620737
59424.441468,-6809.894666,-16950.716072,-4903.011187
59424.441778,-6291.750507,-17764.942608,-6205.373534
59424.442087,-7105.977043,-11917.315666,-7967.393179
59424.442397,-5107.421000,-14211.954086,-6128.763984
59424.442706,-5699.585753,-11917.315666,-5056.230287
59424.443016,-3182.885551,-12435.459826,-1915.238745
59424.443326,666.185348,-9252.574275,3294.210641
59424.443635,3478.967927,-5107.421000,6665.030833
59424.443945,5921.647536,-4219.173869,10725.336972
59424.444254,9400.615463,-2368.659014,11568.042020
59424.444564,9474.636058,2886.803174,7660.954980
59424.444874,7698.141797,-3627.009116,7967.393179
59424.445183,2886.803174,-9474.636058,2374.896044
59424.445493,-2442.679609,-13619.789333,-4366.744339
59424.445802,-6513.812290,-15914.427753,-5822.325785
59424.446112,-7328.038826,-16876.695478,-5975.544884
59424.446422,-7698.141797,-14952.160028,-7201.297681
59424.446731,-7179.997637,-16062.468941,-4979.620737
59424.447041,-8290.306550,-14285.974681,-3983.696590
59424.447351,-1850.514855,-12731.542202,-536.266849
59424.447660,-74.020594,-8586.388927,1762.019645
59424.447970,2368.659014,-3034.844362,5515.887586
59424.448279,6883.915261,-3108.864956,9269.755526
59424.448589,10288.862594,-1480.411884,9729.412825
59424.448899,9548.656652,740.205942,9346.365076
59424.449208,6661.853478,-3923.091493,7814.174080
59424.449518,2072.576638,-8216.285956,2604.724693
59424.449827,-2590.720797,-11029.068536,-2451.505594
59424.450137,-7105.977043,-13693.809927,-4290.134789
59424.450447,-6513.812290,-17542.880825,-3677.258390
59424.450756,-7179.997637,-16284.530724,-6818.249932
59424.451066,-9474.636058,-16062.468941,-7354.516781
59424.451375,-6957.935855,-14952.160028,-5439.278036
59424.451685,-3701.029710,-11843.295072,-1302.362347
59424.451995,-1480.411884,-10066.800811,1762.019645
59424.452304,3182.885551,-4811.338623,5975.544884
59424.452614,7328.038826,-1406.391290,9806.022374
59424.452924,10436.903782,148.041188,11031.775171
59424.453233,9474.636058,4071.132681,10112.460574
59424.453543,2368.659014,-1258.350101,4903.011187
59424.453852,2072.576638,-8290.306550,2911.162892
59424.454162,-3627.009116,-11251.130318,-3140.991542
59424.454472,-7105.977043,-15174.221811,-5975.544884
59424.454781,-7994.224174,-17172.777854,-5592.497135
59424.455091,-9252.574275,-14359.995275,-7890.783629
59424.455400,-8068.244768,-14656.077652,-7737.564530
59424.455710,-5033.400406,-12953.603985,-5056.230287
59424.456020,-1924.535449,-12213.398043,-2451.505594
59424.456329,592.164754,-7179.997637,2911.162892
59424.456639,2072.576638,-2442.679609,4903.011187
59424.456948,7105.977043,-3034.844362,11031.775171
59424.457258,11177.109724,592.164754,11568.042020
59424.457568,7846.182985,1554.432478,9806.022374
59424.457877,4737.318029,-4663.297435,7201.297681
59424.458187,222.061783,-7550.100608,995.924147
59424.458497,-3478.967927,-10510.924376,-3294.210641
59424.458806,-5921.647536,-14285.974681,-5669.106685
59424.459116,-7105.977043,-14285.974681,-8810.098227
59424.459425,-9252.574275,-15988.448347,-9806.022374
59424.459735,-11399.171507,-16654.633695,-9193.145976
59424.460045,-5329.482782,-16654.633695,-3983.696590
59424.460354,-3627.009116,-13619.789333,-2528.115143
59424.460664,0.000000,-8364.327145,2987.772442
59424.460973,5033.400406,-5995.668130,8580.269578
59424.461283,10288.862594,-1628.453072,10955.165621
59424.461593,11325.150913,74.020594,12334.137518
59424.461902,9992.780217,962.267725,9959.241474
59424.462212,5255.462188,-2516.700203,6052.154434
59424.462521,1702.473667,-6809.894666,842.705048
59424.462831,-4367.215058,-8364.327145,-4903.011187
59424.463141,-5921.647536,-14878.139434,-4903.011187
59424.463450,-7179.997637,-15692.365970,-8350.440928
59424.463760,-8290.306550,-16654.633695,-7048.078582
59424.464070,-7994.224174,-17246.798449,-7354.516781
59424.464379,-5255.462188,-17912.983796,-4749.792088
59424.464689,-3775.050304,-14359.995275,-1762.019645
59424.464998,1184.329507,-11251.130318,3447.429741
59424.465308,4515.256246,-7105.977043,9422.974625
59424.465618,11177.109724,-2368.659014,12180.918418
59424.465927,9400.615463,1184.329507,10955.165621
59424.466237,7105.977043,1702.473667,9806.022374
59424.466546,4663.297435,-4737.318029,8503.660028
59424.466856,-148.041188,-6069.688724,919.314598
59424.467166,-4737.318029,-7179.997637,-4903.011187
59424.467475,-7994.224174,-14582.057057,-5898.935335
59424.467785,-9326.594869,-15248.242405,-8044.002729
59424.468094,-9844.739029,-17542.880825,-8656.879127
59424.468404,-8216.285956,-18949.272115,-6511.811733
59424.468714,-5107.421000,-17468.860231,-3753.867940
59424.469023,-1258.350101,-14211.954086,-689.485948
59424.469333,0.000000,-9548.656652,2451.505594
59424.469643,6809.894666,-6587.832884,9729.412825
59424.469952,9400.615463,-2368.659014,11338.213370
59424.470262,8142.265362,2738.761985,9806.022374
59424.470571,7402.059420,-666.185348,9193.145976
59424.470881,2812.782580,-4663.297435,4903.011187
59424.471191,0.000000,-6661.853478,536.266849
59424.471500,-3034.844362,-12435.459826,-1302.362347
59424.471810,-5625.565159,-16284.530724,-3677.258390
59424.472119,-5995.668130,-17764.942608,-7431.126331
59424.472429,-10510.924376,-16062.468941,-9806.022374
59424.472739,-7698.141797,-19023.292709,-4903.011187
59424.473048,-5699.585753,-17172.777854,-4519.963438
59424.473358,-3034.844362,-11251.130318,-1302.362347
59424.473667,1184.329507,-8068.244768,4290.134789
59424.473977,6809.894666,-3108.864956,9346.365076
59424.474287,10066.800811,0.000000,12563.966167
59424.474596,11251.130318,2590.720797,11644.651570
59424.474906,5329.482782,-370.102971,7584.345430
59424.475216,3627.009116,-3330.926739,4366.744339
59424.475525,0.000000,-5107.421000,-1838.629195
59424.475835,-1258.350101,-9474.636058,-1915.238745
59424.476144,-5699.585753,-13249.686362,-8044.002729
59424.476454,-7476.080014,-15988.448347,-8350.440928
59424.476764,-8734.430116,-19023.292709,-8886.707777
59424.477073,-7105.977043,-18949.272115,-6128.763984
59424.477383,-5699.585753,-15544.324782,-4290.134789
59424.477692,-1776.494261,-10140.821405,0.000000
59424.478002,2368.659014,-5403.503377,3064.381992
59424.478312,7105.977043,-2738.761985,10112.460574
59424.478621,12953.603985,0.000000,12180.918418
59424.478931,9474.636058,2886.803174,9806.022374
59424.479240,7031.956449,1258.350101,7124.688131
59424.479550,4663.297435,-4737.318029,4826.401637
59424.479860,1554.432478,-6883.915261,689.485948
59424.480169,-2220.617826,-10584.944971,-3524.039291
59424.480479,-6735.874072,-13915.871710,-6511.811733
59424.480789,-9474.636058,-16358.551318,-9806.022374
59424.481098,-8290.306550,-19097.313304,-7584.345430
59424.481408,-9474.636058,-19319.375086,-7354.516781
59424.481717,-4811.338623,-17764.942608,-3753.867940
59424.482027,-3923.091493,-11547.212695,-2528.115143
59424.482337,1480.411884,-7698.141797,4826.401637
59424.482646,9400.615463,-4441.235652,10342.289223
59424.482956,10288.862594,592.164754,12180.918418
59424.483265,8660.409521,3330.926739,9806.022374
59424.483575,5551.544565,-518.144159,7124.688131
59424.483885,2368.659014,-1554.432478,3294.210641
59424.484194,0.000000,-3627.009116,-689.485948
59424.484504,-3552.988522,-11917.315666,0.000000
59424.484813,-5403.503377,-14211.954086,-6205.373534
59424.485123,-11177.109724,-16062.468941,-11644.651570
59424.485433,-8438.347739,-21317.931130,-7124.688131
59424.485742,-5329.482782,-18505.148550,-5362.668486
59424.486052,-5995.668130,-14804.118840,-3753.867940
59424.486362,-2220.617826,-9622.677246,-1302.362347
59424.486671,2664.741391,-6957.935855,4826.401637
59424.486981,6439.791695,-148.041188,9729.412825
59424.487290,9400.615463,2368.659014,10801.946522
59424.487600,4737.318029,2294.638420,9806.022374
59424.487910,7328.038826,0.000000,7814.174080
59424.488219,3182.885551,-2664.741391,3294.210641
59424.488529,1924.535449,-7624.121203,3447.429741
59424.488838,-3552.988522,-11029.068536,-2145.067394
59424.489148,-7179.997637,-15248.242405,-5898.935335
59424.489458,-8586.388927,-17838.963202,-8120.612279
59424.489767,-9992.780217,-19319.375086,-8427.050478
59424.490077,-8956.491898,-17172.777854,-6205.373534
59424.490386,-7179.997637,-15988.448347,-3753.867940
59424.490696,-3034.844362,-7994.224174,-2528.115143
59424.491006,1184.329507,-5403.503377,5209.449386
59424.491315,11769.274478,-4145.153275,12180.918418
59424.491625,10510.924376,962.267725,11797.870669
59424.491935,6513.812290,2294.638420,7967.393179
59424.492245,5551.544565,1036.288319,4596.572988
59424.492554,3256.906145,-5403.503377,3830.477490
59424.492864,2590.720797,-5699.585753,306.438199
59424.493174,-1850.514855,-13027.624579,-1608.800546
59424.493484,-5699.585753,-11917.315666,-6128.763984
59424.493794,-5995.668130,-16580.613101,-8656.879127
59424.494103,-10362.883188,-16654.633695,-9116.536426
59424.494413,-5921.647536,-19023.292709,-2757.943793
59424.494723,-5921.647536,-12213.398043,-4290.134789
59424.495033,-2072.576638,-8660.409521,-919.314598
59424.495342,3478.967927,-8290.306550,4826.401637
59424.495652,8734.430116,-1628.453072,8580.269578
59424.495962,7994.224174,-1776.494261,10878.556072
59424.496272,6143.709319,1184.329507,7890.783629
59424.496582,5847.626942,-2368.659014,5898.935335
59424.496891,5255.462188,-4441.235652,4519.963438
59424.497201,2368.659014,-7476.080014,4903.011187
59424.497511,-74.020594,-11251.130318,-689.485948
59424.497821,-6735.874072,-12065.356855,-5975.544884
59424.498131,-8290.306550,-16062.468941,-7354.516781
59424.498440,-9474.636058,-18949.272115,-8044.002729
59424.498750,-9548.656652,-19985.560434,-6052.154434
59424.499060,-5773.606348,-12139.377449,-5669.106685
59424.499370,-3478.967927,-12731.542202,-76.609550
59424.499679,6439.791695,-4589.276840,6052.154434
59424.499989,9400.615463,-3552.988522,9116.536426
59424.500299,7105.977043,-74.020594,9806.022374
59424.500609,8808.450710,0.000000,9729.412825
59424.500919,4589.276840,-2368.659014,6741.640382
59424.501228,2368.659014,-2442.679609,2451.505594
59424.501538,1480.411884,-7328.038826,2145.067394
59424.501848,-1850.514855,-9548.656652,-2145.067394
59424.502158,-5551.544565,-13619.789333,-6205.373534
59424.502468,-7772.162391,-17690.922014,-6205.373534
59424.502777,-6883.915261,-18357.107362,-5592.497135
59424.503087,-4811.338623,-20725.766376,-3753.867940
59424.503397,-7476.080014,-13101.645173,-6588.421283
59424.503707,-2960.823768,-10140.821405,0.000000
59424.504016,4441.235652,-8882.471304,3677.258390
59424.504326,6143.709319,-3108.864956,5745.716235
59424.504636,5995.668130,-2590.720797,8963.317327
59424.504946,5329.482782,-2442.679609,7584.345430
59424.505256,5699.585753,-3256.906145,7890.783629
59424.505565,6735.874072,-6883.915261,8120.612279
59424.505875,3552.988522,-10066.800811,4903.011187
59424.506185,-74.020594,-13027.624579,-76.609550
59424.506495,-4737.318029,-10140.821405,-5822.325785
59424.506805,-5995.668130,-18357.107362,-4979.620737
59424.507114,-9548.656652,-17246.798449,-8733.488677
59424.507424,-7772.162391,-18801.230927,-6511.811733
59424.507734,-6513.812290,-14434.015869,-4826.401637
59424.508044,-2072.576638,-10732.986159,-1225.752797
59424.508353,3108.864956,-9992.780217,5286.058936
59424.508663,5921.647536,-3627.009116,7967.393179
59424.508973,5033.400406,-5995.668130,9806.022374
59424.509283,6217.729913,-6069.688724,10572.117872
59424.509593,5551.544565,-1628.453072,6511.811733
59424.509902,2960.823768,-3627.009116,6128.763984
59424.510212,2664.741391,-5033.400406,2221.676944
59424.510522,-666.185348,-10066.800811,-689.485948
59424.510832,-5403.503377,-11843.295072,-5745.716235
59424.511142,-8512.368333,-15914.427753,-7584.345430
59424.511451,-10510.924376,-17542.880825,-8427.050478
59424.511761,-8882.471304,-16654.633695,-7354.516781
59424.512071,-5921.647536,-13101.645173,-6128.763984
59424.512381,-1776.494261,-10436.903782,612.876398
59424.512691,4071.132681,-10658.965565,4826.401637
59424.513000,3849.070898,-3034.844362,3677.258390
59424.513310,5477.523971,-7994.224174,9729.412825
59424.513620,7624.121203,-4737.318029,9729.412825
59424.513930,5551.544565,-1628.453072,7277.907231
59424.514239,1332.370696,-2886.803174,4519.963438
59424.514549,1554.432478,-4293.194464,1378.971896
59424.514859,-2368.659014,-7772.162391,-3524.039291
59424.515169,-7105.977043,-10140.821405,-7431.126331
59424.515479,-11251.130318,-14285.974681,-9193.145976
59424.515788,-8660.409521,-18653.189738,-7277.907231
59424.516098,-7179.997637,-16284.530724,-7431.126331
59424.516408,-5033.400406,-13027.624579,-3447.429741
59424.516718,888.247130,-11103.089130,1532.190996
59424.517028,3478.967927,-7920.203579,4519.963438
59424.517337,5107.421000,-4441.235652,6818.249932
59424.517647,5847.626942,-4219.173869,8503.660028
59424.517957,4219.173869,-1258.350101,6665.030833
59424.518267,4219.173869,0.000000,8044.002729
59424.518576,2368.659014,-74.020594,4903.011187
59424.518886,4071.132681,-5921.647536,4136.915689
59424.519196,-1480.411884,-3701.029710,-4673.182538
59424.519506,-3552.988522,-11251.130318,-4979.620737
59424.519816,-6217.729913,-16654.633695,-5669.106685
59424.520125,-8660.409521,-16580.613101,-8044.002729
59424.520435,-6957.935855,-17542.880825,-6281.983084
59424.520745,-4145.153275,-15840.407159,-2987.772442
59424.521055,518.144159,-10066.800811,536.266849
59424.521365,3182.885551,-12139.377449,5898.935335
59424.521674,2886.803174,-5477.523971,5898.935335
59424.521984,3552.988522,-3627.009116,7354.516781
59424.522294,7031.956449,-7105.977043,11568.042020
59424.522604,7031.956449,0.000000,8503.660028
59424.522913,2368.659014,-2442.679609,5515.887586
59424.523223,2294.638420,-4515.256246,2374.896044
59424.523533,148.041188,-6587.832884,-2604.724693
59424.523843,-4071.132681,-11547.212695,-4673.182538
59424.524153,-6587.832884,-14211.954086,-7431.126331
59424.524462,-9548.656652,-18949.272115,-7431.126331
59424.524772,-8364.327145,-17246.798449,-7201.297681
59424.525082,-3256.906145,-15470.304188,-2451.505594
59424.525392,2294.638420,-15988.448347,3294.210641
59424.525702,1998.556043,-10584.944971,3983.696590
59424.526011,1184.329507,-5995.668130,5515.887586
59424.526321,5329.482782,-3923.091493,7967.393179
59424.526631,5847.626942,1554.432478,7890.783629
59424.526941,6513.812290,-2664.741391,7814.174080
59424.527250,4663.297435,-3849.070898,4826.401637
59424.527560,296.082377,-5699.585753,2451.505594
59424.527870,-74.020594,-6513.812290,-2681.334243
59424.528180,-4145.153275,-11325.150913,-4826.401637
59424.528490,-7179.997637,-16580.613101,-7431.126331
59424.528799,-11251.130318,-16654.633695,-8580.269578
59424.529109,-8290.306550,-16654.633695,-6741.640382
59424.529419,-3182.885551,-15470.304188,-2451.505594
59424.529729,-962.267725,-11251.130318,766.095498
59424.530039,1628.453072,-10362.883188,3907.087040
59424.530348,4367.215058,-8882.471304,6511.811733
59424.530658,4737.318029,-4219.173869,7431.126331
59424.530968,8808.450710,-2960.823768,9729.412825
59424.531278,5255.462188,2886.803174,6588.421283
59424.531587,2368.659014,-3034.844362,6128.763984
59424.531897,592.164754,-1924.535449,0.000000
59424.532207,-2294.638420,-5995.668130,-2834.553343
59424.532517,-4959.379811,-11621.233289,-4903.011187
59424.532827,-8882.471304,-15840.407159,-7354.516781
59424.533136,-9030.512492,-18209.066173,-7507.735880
59424.533446,-4663.297435,-18579.169144,-4290.134789
59424.533756,-3701.029710,-15766.386565,-1685.410096
59424.534066,1998.556043,-12435.459826,2374.896044
59424.534376,518.144159,-8290.306550,2374.896044
59424.534685,0.000000,-7179.997637,6128.763984
59424.534995,3552.988522,-4811.338623,6741.640382
59424.535305,5847.626942,-1184.329507,8503.660028
59424.535615,4885.359217,222.061783,6435.202183
59424.535924,2368.659014,-2294.638420,3753.867940
59424.536234,2072.576638,-4737.318029,2374.896044
59424.536544,0.000000,-7772.162391,-1838.629195
59424.536854,-4515.256246,-11695.253884,-4673.182538
59424.537164,-8882.471304,-17912.983796,-6741.640382
59424.537473,-8956.491898,-18949.272115,-7124.688131
59424.537783,-9474.636058,-16654.633695,-6128.763984
59424.538093,-2960.823768,-13101.645173,-2451.505594
59424.538403,-74.020594,-11843.295072,1762.019645
59424.538713,1036.288319,-7698.141797,3217.601092
59424.539022,3330.926739,-4441.235652,5898.935335
59424.539332,4589.276840,-3552.988522,8273.831378
59424.539642,5329.482782,2294.638420,6741.640382
59424.539952,3108.864956,3330.926739,4903.011187
59424.540261,4145.153275,-2738.761985,5515.887586
59424.540571,4071.132681,-2960.823768,995.924147
59424.540881,0.000000,-7179.997637,0.000000
59424.541191,-2738.761985,-13619.789333,-4060.306139
59424.541501,-7179.997637,-18949.272115,-6205.373534
59424.541810,-7994.224174,-18949.272115,-6665.030833
59424.542120,-5625.565159,-17912.983796,-4060.306139
59424.542430,-1406.391290,-13693.809927,-1072.533697
59424.542740,0.000000,-8364.327145,0.000000
59424.543050,1702.473667,-7994.224174,2374.896044
59424.543359,1184.329507,-4811.338623,3677.258390
59424.543669,6439.791695,-4737.318029,8503.660028
59424.543979,2886.803174,-74.020594,6128.763984
59424.544289,5847.626942,-2368.659014,6665.030833
59424.544598,4885.359217,-4737.318029,4826.401637
59424.544908,3552.988522,-5921.647536,2911.162892
59424.545218,370.102971,-8882.471304,-995.924147
59424.545528,-4885.359217,-13915.871710,-3600.648841
59424.545838,-8364.327145,-15618.345376,-6511.811733
59424.546147,-8068.244768,-17172.777854,-6435.202183
59424.546457,-6587.832884,-14508.036463,-5132.839837
59424.546767,-2072.576638,-12361.439231,-1225.752797
59424.547077,-74.020594,-9474.636058,-76.609550
59424.547387,1110.308913,-9474.636058,3600.648841
59424.547696,2960.823768,-6883.915261,5362.668486
59424.548006,6291.750507,-2368.659014,6511.811733
59424.548316,4737.318029,-518.144159,6971.469032
59424.548626,4515.256246,0.000000,5745.716235
59424.548935,2294.638420,-2368.659014,2604.724693
59424.549245,2812.782580,-5403.503377,2451.505594
59424.549555,518.144159,-5921.647536,-995.924147
59424.549865,-5181.441594,-13693.809927,-1225.752797
59424.550175,-4811.338623,-14211.954086,-6511.811733
59424.550484,-6957.935855,-16950.716072,-4519.963438
59424.550794,-4145.153275,-13101.645173,-2145.067394
59424.551104,-2072.576638,-12139.377449,-76.609550
59424.551414,-814.226536,-9178.553681,0.000000
59424.551724,-518.144159,-11399.171507,2298.286494
59424.552033,1702.473667,-9474.636058,4136.915689
59424.552343,4293.194464,-4811.338623,4903.011187
59424.552653,2886.803174,-4145.153275,5745.716235
59424.552963,2368.659014,-2738.761985,6128.763984
59424.553272,4663.297435,-4737.318029,3294.210641
59424.553582,2368.659014,-5403.503377,3677.258390
59424.553892,-2368.659014,-9548.656652,-1225.752797
59424.554202,-5181.441594,-13101.645173,-3753.867940
59424.554512,-7179.997637,-14804.118840,-5592.497135
59424.554821,-6439.791695,-15396.283594,-5439.278036
59424.555131,-2442.679609,-15692.365970,-1608.800546
59424.555441,-1036.288319,-10955.047942,0.000000
59424.555751,2294.638420,-10658.965565,2221.676944
59424.556061,518.144159,-6587.832884,229.828649
59424.556370,3552.988522,-7179.997637,6741.640382
59424.556680,1776.494261,-5403.503377,7354.516781
59424.556990,2442.679609,-1924.535449,4749.792088
59424.557300,2072.576638,-3923.091493,4290.134789
59424.557609,2738.761985,-4293.194464,3140.991542
59424.557919,2220.617826,-6365.771101,1608.800546
59424.558229,-1258.350101,-9844.739029,-1455.581446
59424.558539,-5847.626942,-12361.439231,-4903.011187
59424.558849,-4811.338623,-15396.283594,-4979.620737
59424.559158,-4811.338623,-11917.315666,-5592.497135
59424.559468,-2368.659014,-11917.315666,0.000000
59424.559778,0.000000,-7772.162391,0.000000
59424.560088,1110.308913,-7994.224174,536.266849
59424.560398,1184.329507,-8364.327145,2451.505594
59424.560707,2220.617826,-7179.997637,4060.306139
59424.561017,3034.844362,-3627.009116,4290.134789
59424.561327,1184.329507,-2516.700203,5515.887586
59424.561637,1110.308913,-296.082377,1762.019645
59424.561946,3256.906145,-5625.565159,3677.258390
59424.562256,2146.597232,-2960.823768,-689.485948
59424.562566,-4737.318029,-8364.327145,0.000000
59424.562876,-6069.688724,-9992.780217,-6052.154434
59424.563186,-5403.503377,-14063.912898,-4979.620737
59424.563495,-3552.988522,-13989.892304,-2451.505594
59424.563805,-1480.411884,-11695.253884,-1072.533697
59424.564115,-222.061783,-10214.842000,76.609550
59424.564425,-1776.494261,-9548.656652,612.876398
59424.564735,-2368.659014,-8364.327145,612.876398
59424.565044,3330.926739,-8586.388927,4826.401637
59424.565354,1258.350101,-6587.832884,2451.505594
59424.565664,3923.091493,-7698.141797,6665.030833
59424.565974,2294.638420,-4145.153275,2221.676944
59424.566283,4663.297435,-4737.318029,3600.648841
59424.566593,296.082377,-6513.812290,306.438199
59424.566903,-3923.091493,-9474.636058,-2221.676944
59424.567213,-4737.318029,-11695.253884,-4290.134789
59424.567523,-5625.565159,-11621.233289,-3753.867940
59424.567832,-2146.597232,-11843.295072,-1608.800546
59424.568142,-2368.659014,-10140.821405,-1225.752797
59424.568452,1924.535449,-12509.480420,3370.820191
59424.568762,2294.638420,-11843.295072,1762.019645
59424.569072,-74.020594,-10362.883188,1149.143247
59424.569381,1406.391290,-10288.862594,4290.134789
59424.569691,1406.391290,-5403.503377,3524.039291
59424.570001,592.164754,-5995.668130,3983.696590
59424.570311,3256.906145,-3997.112087,3064.381992
59424.570620,3478.967927,-3701.029710,4366.744339
59424.570930,1110.308913,-5329.482782,1149.143247
59424.571240,-2960.823768,-7772.162391,-1838.629195
59424.571550,-1850.514855,-11843.295072,-1302.362347
59424.571860,-4737.318029,-8660.409521,-4596.572988
59424.572169,-1258.350101,-14211.954086,-689.485948
59424.572479,-1184.329507,-12065.356855,-306.438199
59424.572789,-296.082377,-12287.418637,-153.219100
59424.573099,-222.061783,-9104.533087,-306.438199
59424.573409,-1406.391290,-9844.739029,1532.190996
59424.573718,-74.020594,-5329.482782,2374.896044
59424.574028,888.247130,-5847.626942,3064.381992
59424.574338,2294.638420,-4145.153275,3140.991542
59424.574648,3552.988522,-3034.844362,6128.763984
59424.574957,5847.626942,-4737.318029,4826.401637
59424.575267,3182.885551,-8290.306550,2987.772442
59424.575577,-2368.659014,-9844.739029,-1225.752797
59424.575887,-2442.679609,-11547.212695,-2374.896044
59424.576197,-2368.659014,-12361.439231,-1838.629195
59424.576506,-1924.535449,-12287.418637,-1225.752797
59424.576816,-666.185348,-11843.295072,0.000000
59424.577126,0.000000,-11029.068536,0.000000
59424.577436,-1258.350101,-9178.553681,-76.609550
59424.577746,-2368.659014,-7179.997637,1225.752797
59424.578055,-74.020594,-8290.306550,2374.896044
59424.578365,-444.123565,-7994.224174,4749.792088
59424.578675,0.000000,-4811.338623,3064.381992
59424.578985,3330.926739,-3849.070898,4060.306139
59424.579294,2442.679609,-3775.050304,2681.334243
59424.579604,-1184.329507,-7105.977043,0.000000
59424.579914,-1776.494261,-9474.636058,-2451.505594
59424.580224,-2368.659014,-10732.986159,-2221.676944
59424.580534,-1332.370696,-11843.295072,-1455.581446
59424.580843,-3256.906145,-10140.821405,0.000000
59424.581153,-74.020594,-13619.789333,-76.609550
59424.581463,-1184.329507,-12213.398043,0.000000
59424.581773,-2368.659014,-13693.809927,0.000000
59424.582083,-2516.700203,-12731.542202,842.705048
59424.582392,-2442.679609,-10584.944971,1225.752797
59424.582702,-1332.370696,-8364.327145,2528.115143
59424.583012,2664.741391,-5255.462188,3064.381992
59424.583322,4145.153275,-3108.864956,5209.449386
59424.583631,3478.967927,-2960.823768,3294.210641
59424.583941,-2960.823768,-5403.503377,0.000000
59424.584251,-74.020594,-9474.636058,-76.609550
59424.584561,-2368.659014,-10140.821405,0.000000
59424.584871,-1702.473667,-11399.171507,-689.485948
59424.585180,-1998.556043,-12361.439231,-1072.533697
59424.585490,-814.226536,-12361.439231,-689.485948
59424.585800,0.000000,-15174.221811,766.095498
59424.586110,-1110.308913,-13693.809927,1149.143247
59424.586420,-2220.617826,-10732.986159,1225.752797
59424.586729,-814.226536,-9178.553681,2374.896044
59424.587039,-2442.679609,-3034.844362,0.000000
59424.587349,1776.494261,-4811.338623,3983.696590
59424.587659,2368.659014,-370.102971,3677.258390
59424.587968,2812.782580,-4071.132681,2681.334243
59424.588278,-1480.411884,-7920.203579,153.219100
59424.588588,-1998.556043,-10807.006753,-995.924147
59424.588898,-1258.350101,-12065.356855,-306.438199
59424.589208,-296.082377,-11029.068536,-995.924147
59424.589517,-2368.659014,-11917.315666,0.000000
59424.589827,-74.020594,-12213.398043,1225.752797
59424.590137,-74.020594,-11843.295072,-689.485948
59424.590447,-2072.576638,-10732.986159,0.000000
59424.590757,-1776.494261,-8068.244768,612.876398
59424.591066,-74.020594,-9178.553681,1915.238745
59424.591376,814.226536,-6513.812290,2604.724693
59424.591686,3108.864956,-5255.462188,3370.820191
59424.591996,3923.091493,-3182.885551,2987.772442
59424.592305,1332.370696,-5625.565159,1149.143247
59424.592615,-3552.988522,-7179.997637,-2145.067394
59424.592925,-2368.659014,-9992.780217,-612.876398
59424.593235,-74.020594,-11843.295072,-1302.362347
59424.593544,-2368.659014,-10732.986159,0.000000
59424.593854,-962.267725,-10510.924376,-1225.752797
59424.594164,-148.041188,-11769.274478,689.485948
59424.594474,-1184.329507,-11547.212695,76.609550
59424.594783,-1702.473667,-10510.924376,766.095498
59424.595093,-1406.391290,-7624.121203,-76.609550
59424.595403,-2368.659014,-6587.832884,1072.533697
59424.595713,-814.226536,-4959.379811,842.705048
59424.596022,2294.638420,-5181.441594,2221.676944
59424.596332,1480.411884,-4811.338623,3677.258390
59424.596642,-74.020594,-7105.977043,-76.609550
59424.596952,-1554.432478,-8808.450710,-2221.676944
59424.597261,-1480.411884,-10881.027347,-383.047749
59424.597571,-592.164754,-11473.192101,0.000000
59424.597881,-666.185348,-11103.089130,229.828649
59424.598191,-666.185348,-11769.274478,536.266849
59424.598500,-74.020594,-12435.459826,1762.019645
59424.598810,-592.164754,-11695.253884,689.485948
59424.599120,-2146.597232,-7994.224174,-1302.362347
59424.599430,-2368.659014,-8364.327145,1838.629195
59424.599739,-666.185348,-9474.636058,2374.896044
59424.600049,-74.020594,-8882.471304,1762.019645
59424.600359,592.164754,-5107.421000,2451.505594
59424.600669,962.267725,-4737.318029,2145.067394
59424.600979,-1850.514855,-7550.100608,536.266849
59424.601288,-2072.576638,-8956.491898,76.609550
59424.601598,-74.020594,-11177.109724,1762.019645
59424.601908,296.082377,-9992.780217,1378.971896
59424.602218,370.102971,-10066.800811,-76.609550
59424.602527,0.000000,-8364.327145,0.000000
59424.602837,888.247130,-11473.192101,1378.971896
59424.603147,-74.020594,-13619.789333,1762.019645
59424.603457,-2368.659014,-10584.944971,0.000000
59424.603766,-1776.494261,-9548.656652,306.438199
59424.604076,-2294.638420,-9326.594869,612.876398
59424.604386,-814.226536,-7846.182985,1302.362347
59424.604696,592.164754,-5699.585753,2451.505594
59424.605005,1110.308913,-6809.894666,2068.457845
59424.605315,-1850.514855,-6365.771101,-1455.581446
59424.605625,0.000000,-9548.656652,2451.505594
59424.605935,3478.967927,-10658.965565,3140.991542
59424.606244,3404.947333,-10362.883188,4826.401637
59424.606554,1776.494261,-7920.203579,2145.067394
59424.606864,1924.535449,-8438.347739,1378.971896
59424.607174,222.061783,-9622.677246,76.609550
59424.607483,-1998.556043,-11473.192101,-689.485948
59424.607793,-3552.988522,-10140.821405,0.000000
59424.608103,-2072.576638,-10732.986159,-1149.143247
59424.608413,-666.185348,-10658.965565,-76.609550
59424.608722,0.000000,-7179.997637,0.000000
59424.609032,2886.803174,-8290.306550,2834.553343
59424.609342,0.000000,-7179.997637,2757.943793
59424.609652,-74.020594,-8216.285956,766.095498
59424.609961,296.082377,-8734.430116,1225.752797
59424.610271,1628.453072,-8364.327145,1838.629195
59424.610581,1480.411884,-8734.430116,1991.848295
59424.610891,0.000000,-7179.997637,0.000000
59424.611201,2368.659014,-9252.574275,1302.362347
59424.611510,1998.556043,-10658.965565,-76.609550
59424.611820,-4145.153275,-9548.656652,0.000000
59424.612130,-888.247130,-12731.542202,-76.609550
59424.612440,-3552.988522,-10732.986159,0.000000
59424.612749,-2146.597232,-10584.944971,-153.219100
59424.613059,-888.247130,-8660.409521,383.047749
59424.613369,148.041188,-7476.080014,536.266849
59424.613679,-814.226536,-7772.162391,536.266849
59424.613988,-1776.494261,-6883.915261,-1455.581446
59424.614298,0.000000,-7772.162391,2451.505594
59424.614608,2294.638420,-7105.977043,1149.143247
59424.614918,1776.494261,-8660.409521,3677.258390
59424.615227,814.226536,-6883.915261,842.705048
59424.615537,0.000000,-5995.668130,1225.752797
59424.615847,-74.020594,-10436.903782,1072.533697
59424.616157,-2516.700203,-11325.150913,-766.095498
59424.616466,-3034.844362,-11991.336260,-1378.971896
59424.616776,-3330.926739,-12361.439231,-766.095498
59424.617086,-1850.514855,-11251.130318,-1302.362347
59424.617396,-2368.659014,-7772.162391,0.000000
59424.617705,888.247130,-9548.656652,4519.963438
59424.618015,-1258.350101,-6291.750507,-1915.238745
59424.618325,0.000000,-8068.244768,2757.943793
59424.618635,0.000000,-6069.688724,2145.067394
59424.618944,1258.350101,-7328.038826,2987.772442
59424.619254,1554.432478,-7179.997637,3064.381992
59424.619564,2664.741391,-6587.832884,2757.943793
59424.619874,2220.617826,-7179.997637,2145.067394
59424.620183,-74.020594,-9474.636058,-76.609550
59424.620493,-3849.070898,-9622.677246,-2451.505594
59424.620803,-4145.153275,-11917.315666,0.000000
59424.621113,-666.185348,-14211.954086,-76.609550
59424.621423,-2442.679609,-11251.130318,-1608.800546
59424.621732,-1924.535449,-9030.512492,-2451.505594
59424.622042,-1702.473667,-8956.491898,76.609550
59424.622352,-1332.370696,-9104.533087,766.095498
59424.622662,222.061783,-8142.265362,2221.676944
59424.622971,2072.576638,-6143.709319,3907.087040
59424.623281,3478.967927,-7105.977043,6052.154434
59424.623591,3182.885551,-5921.647536,3600.648841
59424.623901,2368.659014,-3627.009116,2451.505594
59424.624210,5847.626942,-8882.471304,3600.648841
59424.624520,-1776.494261,-8660.409521,0.000000
59424.624830,-1850.514855,-12435.459826,-3370.820191
59424.625140,-3552.988522,-13915.871710,-2757.943793
59424.625449,-3701.029710,-14582.057057,-2374.896044
59424.625759,-2664.741391,-12287.418637,-1608.800546
59424.626069,-1924.535449,-10140.821405,-76.609550
59424.626379,-296.082377,-11177.109724,2068.457845
59424.626688,-370.102971,-9474.636058,1762.019645
59424.626998,0.000000,-4811.338623,612.876398
59424.627308,4663.297435,-7105.977043,6052.154434
59424.627618,2886.803174,-4441.235652,3600.648841
59424.627927,4367.215058,-4737.318029,3294.210641
59424.628237,4145.153275,-4515.256246,2757.943793
59424.628547,2368.659014,-7328.038826,1838.629195
59424.628857,-1406.391290,-10955.047942,-536.266849
59424.629166,-3330.926739,-13915.871710,-1608.800546
59424.629476,-3552.988522,-14878.139434,-2298.286494
59424.629786,-2738.761985,-15618.345376,-919.314598
59424.630096,-1258.350101,-14211.954086,-1915.238745
59424.630406,-5329.482782,-8364.327145,-3064.381992
59424.630715,-2368.659014,-9844.739029,0.000000
59424.631025,-74.020594,-9474.636058,2374.896044
59424.631335,1406.391290,-6217.729913,3600.648841
59424.631645,3552.988522,-3478.967927,4903.011187
59424.631954,3404.947333,-3552.988522,4979.620737
59424.632264,4663.297435,-3404.947333,4903.011187
59424.632574,4737.318029,-3627.009116,3677.258390
59424.632884,2738.761985,-8290.306550,2451.505594
59424.633193,-1258.350101,-11843.295072,-1302.362347
59424.633503,-6809.894666,-12509.480420,-4749.792088
59424.633813,-4441.235652,-15618.345376,-3370.820191
59424.634123,-3256.906145,-16432.571912,-1302.362347
59424.634432,-3627.009116,-12583.501014,-1915.238745
59424.634742,-4293.194464,-10288.862594,-1915.238745
59424.635052,-2664.741391,-9770.718434,-536.266849
59424.635362,-888.247130,-9326.594869,1225.752797
59424.635671,0.000000,-3034.844362,2451.505594
59424.635981,3552.988522,-4219.173869,6435.202183
59424.636291,4663.297435,-3256.906145,4826.401637
59424.636601,5329.482782,-3330.926739,6128.763984
59424.636910,6439.791695,-5329.482782,4826.401637
59424.637220,1776.494261,-9178.553681,4596.572988
59424.637530,-2146.597232,-10955.047942,-842.705048
59424.637840,-4145.153275,-14582.057057,-2451.505594
59424.638149,-4515.256246,-14952.160028,-3370.820191
59424.638459,-4663.297435,-14285.974681,-4749.792088
59424.638769,-6661.853478,-10732.986159,-4903.011187
59424.639079,-5921.647536,-10140.821405,-4903.011187
59424.639388,-1776.494261,-11695.253884,766.095498
59424.639698,-666.185348,-8734.430116,1149.143247
59424.640008,1776.494261,-4811.338623,4366.744339
59424.640318,3552.988522,-3627.009116,6741.640382
59424.640628,4663.297435,-3256.906145,6052.154434
59424.640937,6439.791695,-3034.844362,6588.421283
59424.641247,4959.379811,-5255.462188,4596.572988
59424.641557,1406.391290,-7179.997637,1302.362347
59424.641867,-3034.844362,-10732.986159,-2987.772442
59424.642176,-5033.400406,-13101.645173,-6128.763984
59424.642486,-3256.906145,-17098.757260,-1532.190996
59424.642796,-3627.009116,-15100.201217,-3447.429741
59424.643106,-5329.482782,-11029.068536,-2298.286494
59424.643415,-6365.771101,-10732.986159,-3064.381992
59424.643725,-2516.700203,-10362.883188,-1302.362347
59424.644035,-444.123565,-9178.553681,1762.019645
59424.644345,2368.659014,-5477.523971,3907.087040
59424.644654,3182.885551,-3552.988522,6052.154434
59424.644964,5847.626942,-2368.659014,4519.963438
59424.645274,5625.565159,-1258.350101,2451.505594
59424.645584,6217.729913,-6291.750507,6435.202183
59424.645893,2294.638420,-8882.471304,1455.581446
59424.646203,-3552.988522,-11917.315666,-1225.752797
59424.646513,-4737.318029,-12509.480420,-3677.258390
59424.646823,-4737.318029,-16284.530724,-3217.601092
59424.647132,-3923.091493,-13841.851115,-3064.381992
59424.647442,-4589.276840,-11843.295072,-3753.867940
59424.647752,-4811.338623,-11843.295072,-2528.115143
59424.648062,-2442.679609,-11251.130318,-1302.362347
59424.648371,-666.185348,-8882.471304,-76.609550
59424.648681,0.000000,-4811.338623,3064.381992
59424.648991,5847.626942,-4737.318029,6358.592633
59424.649301,5551.544565,-1850.514855,4903.011187
59424.649610,6587.832884,-370.102971,4903.011187
59424.649920,5329.482782,-4959.379811,5056.230287
59424.650230,-1184.329507,-8956.491898,1149.143247
59424.650540,-3404.947333,-14063.912898,-1378.971896
59424.650850,-2442.679609,-15100.201217,-1302.362347
59424.651159,-2442.679609,-18949.272115,-76.609550
59424.651469,-3034.844362,-13619.789333,-3140.991542
59424.651779,-7698.141797,-10140.821405,-5975.544884
59424.652089,-3552.988522,-9844.739029,-2298.286494
59424.652398,-3627.009116,-11251.130318,-2451.505594
59424.652708,-148.041188,-7402.059420,536.266849
59424.653018,2220.617826,-5995.668130,3983.696590
59424.653328,4145.153275,-4145.153275,6358.592633
59424.653637,6217.729913,-2368.659014,6741.640382
59424.653947,7476.080014,-4071.132681,9193.145976
59424.654257,5477.523971,-6809.894666,7890.783629
59424.654567,2294.638420,-10658.965565,3600.648841
59424.654876,-4737.318029,-9548.656652,-3370.820191
59424.655186,-3997.112087,-15100.201217,-2451.505594
59424.655496,-4219.173869,-14285.974681,-5286.058936
59424.655806,-4219.173869,-12435.459826,-4366.744339
59424.656115,-5995.668130,-11473.192101,-4903.011187
59424.656425,-4589.276840,-11473.192101,-3677.258390
59424.656735,-3034.844362,-11473.192101,-1149.143247
59424.657045,296.082377,-9548.656652,2757.943793
59424.657354,2368.659014,-7772.162391,6128.763984
59424.657664,7031.956449,-7105.977043,9116.536426
59424.657974,6883.915261,-148.041188,6205.373534
59424.658284,9178.553681,-2294.638420,8886.707777
59424.658593,5847.626942,-4737.318029,4826.401637
59424.658903,2886.803174,-8882.471304,2374.896044
59424.659213,-2664.741391,-12287.418637,-766.095498
59424.659523,-3923.091493,-13841.851115,-2987.772442
59424.659832,-5847.626942,-15100.201217,-4443.353888
59424.660142,-5921.647536,-11029.068536,-7354.516781
59424.660452,-7105.977043,-12509.480420,-4903.011187
59424.660762,-5329.482782,-13693.809927,-2145.067394
59424.661072,-3034.844362,-13027.624579,-2528.115143
59424.661381,-2072.576638,-8364.327145,1225.752797
59424.661691,2516.700203,-7105.977043,4826.401637
59424.662001,6439.791695,-4737.318029,8503.660028
59424.662311,7476.080014,-1702.473667,8120.612279
59424.662620,6883.915261,-962.267725,7048.078582
59424.662930,4145.153275,-5477.523971,5592.497135
59424.663240,0.000000,-6587.832884,0.000000
59424.663550,-4737.318029,-9548.656652,-2451.505594
59424.663859,-4441.235652,-13101.645173,-1838.629195
59424.664169,-3034.844362,-15988.448347,-3753.867940
59424.664479,-6661.853478,-11991.336260,-6358.592633
59424.664789,-6661.853478,-15100.201217,-4366.744339
59424.665098,-4515.256246,-15026.180623,-2298.286494
59424.665408,-4293.194464,-12731.542202,-1302.362347
59424.665718,-370.102971,-8956.491898,1762.019645
59424.666028,2146.597232,-5699.585753,4903.011187
59424.666337,3552.988522,-1850.514855,5515.887586
59424.666647,4885.359217,2294.638420,6435.202183
59424.666957,5921.647536,-74.020594,7354.516781
59424.667267,5847.626942,-7698.141797,7277.907231
59424.667576,-2220.617826,-7179.997637,459.657299
59424.667886,-1406.391290,-13027.624579,-76.609550
59424.668196,-4441.235652,-13397.727550,-3064.381992
59424.668506,-4811.338623,-14137.933492,-5286.058936
59424.668815,-4811.338623,-14137.933492,-5822.325785
59424.669125,-5329.482782,-15026.180623,-4596.572988
59424.669435,-3627.009116,-13619.789333,-3753.867940
59424.669745,-4811.338623,-10807.006753,-2528.115143
59424.670054,-2294.638420,-7179.997637,0.000000
59424.670364,1480.411884,-5403.503377,5515.887586
59424.670674,7031.956449,-3552.988522,8197.221829
59424.670984,8882.471304,-962.267725,11031.775171
59424.671294,6513.812290,-74.020594,7354.516781
59424.671603,3404.947333,-5921.647536,5439.278036
59424.671913,222.061783,-7994.224174,1762.019645
59424.672223,-2368.659014,-10362.883188,-2145.067394
59424.672533,-3923.091493,-13619.789333,-3753.867940
59424.672842,-4811.338623,-13027.624579,-4979.620737
59424.673152,-4811.338623,-14211.954086,-7431.126331
59424.673462,-7105.977043,-14285.974681,-4903.011187
59424.673772,-3330.926739,-15988.448347,-2681.334243
59424.674081,-3552.988522,-12213.398043,-1225.752797
59424.674391,0.000000,-8364.327145,1225.752797
59424.674701,3627.009116,-7328.038826,6741.640382
59424.675011,8068.244768,-2220.617826,8656.879127
59424.675320,9178.553681,-1036.288319,9576.193725
59424.675630,8808.450710,-2368.659014,8503.660028
59424.675940,4663.297435,-7105.977043,6665.030833
59424.676250,-1258.350101,-5625.565159,-995.924147
59424.676559,-740.205942,-11325.150913,-1072.533697
59424.676869,-3923.091493,-12731.542202,-4979.620737
59424.677179,-6513.812290,-11917.315666,-7354.516781
59424.677489,-7179.997637,-14582.057057,-6128.763984
59424.677798,-6217.729913,-15766.386565,-5286.058936
59424.678108,-5181.441594,-14582.057057,-3064.381992
59424.678418,-3627.009116,-11473.192101,-1455.581446
59424.678728,1110.308913,-11251.130318,4826.401637
59424.679037,5847.626942,-7105.977043,7814.174080
59424.679347,9400.615463,0.000000,7890.783629
59424.679657,5921.647536,1702.473667,7354.516781
59424.679967,7031.956449,-2368.659014,7890.783629
59424.680276,0.000000,-4811.338623,612.876398
59424.680586,-74.020594,-7402.059420,229.828649
59424.680896,-2886.803174,-10510.924376,-1915.238745
59424.681206,-4737.318029,-12065.356855,-4596.572988
59424.681516,-5403.503377,-14063.912898,-5898.935335
59424.681825,-5329.482782,-16210.510130,-4290.134789
59424.682135,-4293.194464,-18801.230927,-3370.820191
59424.682445,-2442.679609,-17764.942608,-689.485948
59424.682755,-3034.844362,-11251.130318,-1915.238745
59424.683064,0.000000,-8364.327145,1225.752797
59424.683374,2738.761985,-4145.153275,4519.963438
59424.683684,8808.450710,-1480.411884,8503.660028
59424.683994,7772.162391,814.226536,8273.831378
59424.684303,5551.544565,-1554.432478,6205.373534
59424.684613,1702.473667,-6661.853478,3830.477490
59424.684923,0.000000,-7179.997637,2451.505594
59424.685233,-1184.329507,-11917.315666,0.000000
59424.685542,-1850.514855,-15988.448347,-2528.115143
59424.685852,-6291.750507,-13693.809927,-7431.126331
59424.686162,-7994.224174,-17246.798449,-7354.516781
59424.686472,-5107.421000,-17764.942608,-4979.620737
59424.686781,-5995.668130,-16580.613101,-2528.115143
59424.687091,-4219.173869,-10584.944971,-1608.800546
59424.687401,666.185348,-8660.409521,3217.601092
59424.687711,5551.544565,-3849.070898,7431.126331
59424.688020,6217.729913,-74.020594,7967.393179
59424.688330,7105.977043,3478.967927,6435.202183
59424.688640,6513.812290,-2738.761985,7967.393179
59424.688950,2886.803174,-7105.977043,3600.648841
59424.689259,0.000000,-7179.997637,612.876398
59424.689569,-74.020594,-11843.295072,-1915.238745
59424.689879,-5181.441594,-14211.954086,-4290.134789
59424.690189,-5477.523971,-15396.283594,-6818.249932
59424.690499,-5699.585753,-19393.395680,-5362.668486
59424.690808,-5625.565159,-17542.880825,-3983.696590
59424.691118,-7105.977043,-12509.480420,-4290.134789
59424.691428,-4737.318029,-7179.997637,-3294.210641
59424.691738,1184.329507,-8364.327145,5515.887586
59424.692047,8216.285956,-4737.318029,8503.660028
59424.692357,7624.121203,2294.638420,6128.763984
59424.692667,9400.615463,0.000000,9729.412825
59424.692978,5551.544565,-1480.411884,5745.716235
59424.693287,2146.597232,-6217.729913,3217.601092
59424.693597,1850.514855,-7031.956449,1378.971896
59424.693907,-2368.659014,-9548.656652,-1149.143247
59424.694216,-7105.977043,-11325.150913,-6741.640382
59424.694526,-8882.471304,-12879.583391,-8656.879127
59424.694836,-9474.636058,-17246.798449,-7354.516781
59424.695145,-5403.503377,-18949.272115,-4060.306139
59424.695455,-7179.997637,-11917.315666,-6818.249932
59424.695764,-4441.235652,-8364.327145,-2298.286494
59424.696074,2664.741391,-8734.430116,4979.620737
59424.696384,8216.285956,-3552.988522,6665.030833
59424.696693,8290.306550,-74.020594,8733.488677
59424.697003,6661.853478,-74.020594,7048.078582
59424.697313,3552.988522,-1850.514855,3064.381992
59424.697622,592.164754,-4811.338623,2451.505594
59424.697932,0.000000,-5995.668130,1225.752797
59424.698242,-74.020594,-13027.624579,-76.609550
59424.698551,-4219.173869,-14211.954086,-4060.306139
59424.698861,-4737.318029,-16062.468941,-4290.134789
59424.699171,-5995.668130,-20133.601622,-4366.744339
59424.699480,-9252.574275,-15766.386565,-5898.935335
59424.699790,-7772.162391,-12139.377449,-4290.134789
59424.700100,-2220.617826,-8068.244768,-842.705048
59424.700409,1998.556043,-5921.647536,2987.772442
59424.700719,4663.297435,-296.082377,5439.278036
59424.701029,4737.318029,2294.638420,6128.763984
59424.701338,7031.956449,-2368.659014,7277.907231
59424.701648,1184.329507,-2442.679609,2757.943793
59424.701957,2294.638420,-10140.821405,5898.935335
59424.702267,0.000000,-7179.997637,0.000000
59424.702577,-1258.350101,-11843.295072,-1608.800546
59424.702886,-4441.235652,-13989.892304,-3830.477490
59424.703196,-4811.338623,-15618.345376,-5132.839837
59424.703506,-4811.338623,-17468.860231,-4979.620737
59424.703815,-5995.668130,-14211.954086,-4979.620737
59424.704125,-4811.338623,-10066.800811,-4366.744339
59424.704435,-3552.988522,-7179.997637,0.000000
59424.704744,3701.029710,-6735.874072,6741.640382
59424.705054,6809.894666,-2590.720797,8427.050478
59424.705364,4737.318029,-74.020594,6128.763984
59424.705673,3849.070898,-1850.514855,6052.154434
59424.705983,1850.514855,-4737.318029,5286.058936
59424.706293,1332.370696,-6513.812290,2911.162892
59424.706602,1998.556043,-10658.965565,2374.896044
59424.706912,-1258.350101,-14211.954086,-383.047749
59424.707222,-4811.338623,-11547.212695,-6818.249932
59424.707531,-7698.141797,-16654.633695,-4903.011187
59424.707841,-4811.338623,-18357.107362,-3753.867940
59424.708151,-6587.832884,-14434.015869,-5439.278036
59424.708460,-3404.947333,-10584.944971,-2298.286494
59424.708770,296.082377,-8808.450710,1762.019645
59424.709079,5107.421000,-6143.709319,5362.668486
59424.709389,7698.141797,-2368.659014,8120.612279
59424.709699,8808.450710,-3552.988522,9729.412825
59424.710008,5847.626942,-3552.988522,8503.660028
59424.710318,518.144159,-2738.761985,1915.238745
59424.710628,1184.329507,-7920.203579,3677.258390
59424.710937,-74.020594,-9178.553681,-76.609550
59424.711247,-4737.318029,-9548.656652,-3677.258390
59424.711557,-4737.318029,-11473.192101,-5669.106685
59424.711866,-4885.359217,-15026.180623,-5822.325785
59424.712176,-5773.606348,-16580.613101,-5898.935335
59424.712486,-6661.853478,-14952.160028,-5056.230287
59424.712795,-3256.906145,-14137.933492,-76.609550
59424.713105,3478.967927,-11843.295072,2987.772442
59424.713415,7031.956449,-8290.306550,6665.030833
59424.713724,5329.482782,-962.267725,5515.887586
59424.714034,6365.771101,-3478.967927,9729.412825
59424.714344,2812.782580,-1258.350101,3677.258390
59424.714653,2590.720797,-5181.441594,3600.648841
59424.714963,1332.370696,-7105.977043,2604.724693
59424.715273,592.164754,-8956.491898,919.314598
59424.715582,-2146.597232,-12139.377449,-2221.676944
59424.715892,-2368.659014,-12509.480420,-3447.429741
59424.716201,-3701.029710,-16580.613101,-4903.011187
59424.716511,-5107.421000,-18357.107362,-4060.306139
59424.716821,-5995.668130,-13619.789333,-5592.497135
59424.717130,-4737.318029,-11325.150913,-2451.505594
59424.717440,-370.102971,-8438.347739,229.828649
59424.717750,4663.297435,-8882.471304,6052.154434
59424.718059,3552.988522,-1258.350101,5209.449386
59424.718369,5625.565159,-3330.926739,7507.735880
59424.718679,3701.029710,-3256.906145,6511.811733
59424.718988,3552.988522,-3034.844362,6128.763984
59424.719298,2368.659014,-5995.668130,2451.505594
59424.719608,2960.823768,-9918.759623,3370.820191
59424.719917,-2442.679609,-10362.883188,-1915.238745
59424.720227,-4145.153275,-11029.068536,-6128.763984
59424.720537,-3923.091493,-14211.954086,-5286.058936
59424.720846,-7179.997637,-16580.613101,-4979.620737
59424.721156,-7031.956449,-13989.892304,-5898.935335
59424.721466,-5403.503377,-12361.439231,-3294.210641
59424.721775,-74.020594,-10288.862594,995.924147
59424.722085,0.000000,-7179.997637,3064.381992
59424.722394,2368.659014,-2442.679609,3677.258390
59424.722704,3552.988522,-4811.338623,8580.269578
59424.723014,4663.297435,-4145.153275,6665.030833
59424.723323,3552.988522,-1850.514855,4903.011187
59424.723633,4367.215058,-4737.318029,4826.401637
59424.723943,1998.556043,-8290.306550,3294.210641
59424.724252,-518.144159,-9844.739029,-766.095498
59424.724562,-3330.926739,-11843.295072,-3830.477490
59424.724872,-6143.709319,-14582.057057,-6281.983084
59424.725181,-11547.212695,-14285.974681,-9039.926876
59424.725491,-9474.636058,-13693.809927,-7890.783629
59424.725801,-7105.977043,-11917.315666,-3677.258390
59424.726110,-74.020594,-11843.295072,2068.457845
59424.726420,1332.370696,-7179.997637,2451.505594
59424.726730,6883.915261,-7105.977043,8503.660028
59424.727039,5033.400406,-4811.338623,8273.831378
59424.727349,4589.276840,-3849.070898,7737.564530
59424.727659,4737.318029,-1258.350101,6435.202183
59424.727968,2368.659014,-3478.967927,3524.039291
59424.728278,-370.102971,-4959.379811,536.266849
59424.728588,-2812.782580,-8290.306550,-2528.115143
59424.728897,-7105.977043,-9844.739029,-6741.640382
59424.729207,-5551.544565,-15766.386565,-6052.154434
59424.729516,-8364.327145,-15396.283594,-8044.002729
59424.729826,-6513.812290,-18357.107362,-4136.915689
59424.730136,-3849.070898,-13101.645173,-3064.381992
59424.730445,518.144159,-11621.233289,1762.019645
59424.730755,3182.885551,-7328.038826,4596.572988
59424.731065,4663.297435,-5255.462188,6281.983084
59424.731374,5847.626942,-4441.235652,8503.660028
59424.731684,5847.626942,-4737.318029,9116.536426
59424.731994,2590.720797,-74.020594,4903.011187
59424.732303,3108.864956,-4959.379811,4596.572988
59424.732613,2146.597232,-5329.482782,-76.609550
59424.732923,0.000000,-8364.327145,-919.314598
59424.733232,-4737.318029,-11029.068536,-6128.763984
59424.733542,-7254.018232,-14804.118840,-7584.345430
59424.733852,-8512.368333,-17690.922014,-7584.345430
59424.734161,-6587.832884,-18357.107362,-4903.011187
59424.734471,-666.185348,-15396.283594,-689.485948
59424.734781,3478.967927,-14211.954086,3600.648841
59424.735090,4367.215058,-7105.977043,4213.525239
59424.735400,4737.318029,-3923.091493,6281.983084
59424.735709,7550.100608,-7105.977043,9729.412825
59424.736019,5329.482782,-666.185348,7967.393179
59424.736329,5329.482782,-74.020594,6128.763984
59424.736638,3108.864956,-3627.009116,3677.258390
59424.736948,1184.329507,-5551.544565,612.876398
59424.737258,-1702.473667,-8882.471304,-1762.019645
59424.737567,-3627.009116,-14211.954086,-5132.839837
59424.737877,-4811.338623,-18949.272115,-4979.620737
59424.738187,-10140.821405,-16432.571912,-9269.755526
59424.738496,-7105.977043,-17246.798449,-4903.011187
59424.738806,-74.020594,-16580.613101,-76.609550
59424.739116,0.000000,-8364.327145,2451.505594
59424.739425,2590.720797,-7402.059420,4366.744339
59424.739735,3849.070898,-4145.153275,6741.640382
59424.740045,6439.791695,-3849.070898,8656.879127
59424.740354,6143.709319,-1924.535449,8733.488677
59424.740664,5847.626942,-1850.514855,7354.516781
59424.740974,2368.659014,-4219.173869,4903.011187
59424.741283,3182.885551,-8290.306550,1762.019645
59424.741593,-2960.823768,-7772.162391,-3677.258390
59424.741903,-3034.844362,-15914.427753,-2221.676944
59424.742212,-9844.739029,-14285.974681,-9422.974625
59424.742522,-8364.327145,-17468.860231,-6818.249932
59424.742831,-6661.853478,-18579.169144,-3983.696590
59424.743141,-3182.885551,-14656.077652,-1838.629195
59424.743451,-296.082377,-10362.883188,1302.362347
59424.743760,1776.494261,-7772.162391,4903.011187
59424.744070,1184.329507,-2442.679609,4903.011187
59424.744380,7920.203579,-5329.482782,10648.727422
59424.744689,6439.791695,148.041188,7277.907231
59424.744999,2960.823768,-74.020594,7967.393179
59424.745309,1110.308913,-3552.988522,1762.019645
59424.745618,3478.967927,-5847.626942,2068.457845
59424.745928,-666.185348,-9400.615463,-1685.410096
59424.746238,-5181.441594,-12805.562797,-4826.401637
59424.746547,-9326.594869,-16284.530724,-7048.078582
59424.746857,-11251.130318,-16654.633695,-7967.393179
59424.747167,-8290.306550,-14878.139434,-6741.640382
59424.747476,-4145.153275,-12509.480420,-1838.629195
59424.747786,-74.020594,-9474.636058,2068.457845
59424.748096,0.000000,-4811.338623,612.876398
59424.748405,4663.297435,-6513.812290,4826.401637
59424.748715,6143.709319,-5625.565159,7890.783629
59424.749024,4663.297435,-1628.453072,6358.592633
59424.749334,2590.720797,-2664.741391,5132.839837
59424.749644,2664.741391,-3701.029710,3447.429741
59424.749953,888.247130,-3923.091493,0.000000
59424.750263,-666.185348,-7846.182985,-2221.676944
59424.750573,-5625.565159,-11917.315666,-4903.011187
59424.750882,-6291.750507,-18801.230927,-4366.744339
59424.751192,-8660.409521,-15026.180623,-6665.030833
59424.751502,-2442.679609,-18357.107362,-689.485948
59424.751811,0.000000,-11843.295072,153.219100
59424.752121,518.144159,-8956.491898,1378.971896
59424.752431,148.041188,-7550.100608,2681.334243
59424.752740,2442.679609,-6291.750507,4596.572988
59424.753050,3478.967927,-3552.988522,4826.401637
59424.753360,4663.297435,-2368.659014,5439.278036
59424.753669,592.164754,-1258.350101,2451.505594
59424.753979,3404.947333,-5699.585753,4826.401637
59424.754289,4071.132681,-5329.482782,1149.143247
59424.754598,2590.720797,-10658.965565,1149.143247
59424.754908,-4441.235652,-12805.562797,-3830.477490
59424.755218,-7476.080014,-16580.613101,-5669.106685
59424.755527,-6735.874072,-17394.839637,-4903.011187
59424.755837,-3627.009116,-15396.283594,-2374.896044
59424.756146,-74.020594,-11251.130318,-76.609550
59424.756456,3478.967927,-8882.471304,-76.609550
59424.756766,0.000000,-5403.503377,2451.505594
59424.757075,4663.297435,-7105.977043,6052.154434
59424.757385,592.164754,-2442.679609,3677.258390
59424.757695,4293.194464,-5107.421000,7967.393179
59424.758004,444.123565,-2738.761985,2604.724693
59424.758314,1924.535449,-6217.729913,3064.381992
59424.758624,2590.720797,-7105.977043,1455.581446
59424.758933,518.144159,-9474.636058,-1378.971896
59424.759243,-2442.679609,-14211.954086,-2681.334243
59424.759553,-4811.338623,-18357.107362,-3140.991542
59424.759862,-5107.421000,-16284.530724,-4979.620737
59424.760172,-4737.318029,-14878.139434,-2451.505594
59424.760482,-74.020594,-13027.624579,-76.609550
59424.760791,0.000000,-8364.327145,2145.067394
59424.761101,444.123565,-6587.832884,2145.067394
59424.761411,2368.659014,-6143.709319,4443.353888
59424.761720,2368.659014,-4663.297435,5592.497135
59424.762030,2738.761985,-3330.926739,4826.401637
59424.762339,3182.885551,-5921.647536,4290.134789
59424.762649,4071.132681,-8290.306550,4826.401637
59424.762959,1998.556043,-7105.977043,842.705048
59424.763268,-2368.659014,-9548.656652,0.000000
59424.763578,-2442.679609,-15396.283594,-2528.115143
59424.763888,-8290.306550,-13693.809927,-5822.325785
59424.764197,-6143.709319,-15100.201217,-4979.620737
59424.764507,-3256.906145,-14211.954086,-1915.238745
59424.764817,-1184.329507,-10362.883188,-229.828649
59424.765126,0.000000,-8290.306550,995.924147
59424.765436,592.164754,-8956.491898,3983.696590
59424.765746,2368.659014,-7179.997637,5592.497135
59424.766055,4663.297435,-6513.812290,6052.154434
59424.766365,1184.329507,-2442.679609,4903.011187
59424.766675,4663.297435,-7105.977043,4826.401637
59424.766984,592.164754,-2442.679609,1838.629195
59424.767294,2294.638420,-7550.100608,1991.848295
59424.767604,-2220.617826,-10362.883188,-1685.410096
59424.767913,-5403.503377,-13397.727550,-4596.572988
59424.768223,-6809.894666,-14878.139434,-5209.449386
59424.768533,-5921.647536,-13101.645173,-3983.696590
59424.768842,-3552.988522,-11917.315666,0.000000
59424.769152,2886.803174,-11843.295072,1762.019645
59424.769461,0.000000,-7476.080014,0.000000
59424.769771,3478.967927,-11843.295072,4826.401637
59424.770081,0.000000,-6069.688724,2451.505594
59424.770390,2590.720797,-5625.565159,4826.401637
59424.770700,2368.659014,-4145.153275,3907.087040
59424.771010,2738.761985,-4441.235652,3217.601092
59424.771319,3330.926739,-4959.379811,3524.039291
59424.771629,0.000000,-5995.668130,919.314598
59424.771939,-4737.318029,-9548.656652,-3064.381992
59424.772248,-4811.338623,-15100.201217,-2374.896044
59424.772558,-4811.338623,-15396.283594,-3753.867940
59424.772868,-7105.977043,-11917.315666,-4290.134789
59424.773177,-1258.350101,-11103.089130,-1762.019645
59424.773487,814.226536,-9400.615463,919.314598
59424.773797,962.267725,-9844.739029,1838.629195
59424.774106,740.205942,-9104.533087,2604.724693
59424.774416,1332.370696,-7772.162391,4060.306139
59424.774726,962.267725,-4737.318029,4213.525239
59424.775035,814.226536,-2738.761985,2451.505594
59424.775345,3552.988522,-4515.256246,4903.011187
59424.775654,4071.132681,-6513.812290,3600.648841
59424.775964,0.000000,-5403.503377,0.000000
59424.776274,-2442.679609,-11843.295072,-1915.238745
59424.776583,-6217.729913,-13693.809927,-3983.696590
59424.776893,-4885.359217,-14211.954086,-3600.648841
59424.777203,-3108.864956,-13619.789333,-2298.286494
59424.777512,-888.247130,-10362.883188,-689.485948
59424.777822,518.144159,-9178.553681,-76.609550
59424.778132,1110.308913,-9474.636058,842.705048
59424.778441,0.000000,-7772.162391,1838.629195
59424.778751,2294.638420,-9474.636058,6665.030833
59424.779061,0.000000,-3627.009116,2068.457845
59424.779370,2886.803174,-5921.647536,4826.401637
59424.779680,2368.659014,-4367.215058,3064.381992
59424.779990,2368.659014,-6143.709319,3064.381992
59424.780299,814.226536,-7698.141797,459.657299
59424.780609,-3182.885551,-11399.171507,-2221.676944
59424.780919,-3627.009116,-13915.871710,-2528.115143
59424.781228,-2442.679609,-14211.954086,-2528.115143
59424.781538,-2960.823768,-10881.027347,-2451.505594
59424.781848,0.000000,-9548.656652,0.000000
59424.782157,1110.308913,-10066.800811,-76.609550
59424.782467,2220.617826,-11547.212695,2987.772442
59424.782776,0.000000,-9844.739029,2451.505594
59424.783086,370.102971,-7402.059420,3064.381992
59424.783396,444.123565,-6661.853478,3983.696590
59424.783705,1998.556043,-4737.318029,3600.648841
59424.784015,5255.462188,-6143.709319,5056.230287
59424.784325,4663.297435,-7105.977043,2987.772442
59424.784634,-1776.494261,-7179.997637,0.000000
59424.784944,-2220.617826,-13397.727550,919.314598
59424.785254,-2442.679609,-13027.624579,-2834.553343
59424.785563,-3404.947333,-13989.892304,-306.438199
59424.785873,-1184.329507,-10732.986159,-1838.629195
59424.786183,0.000000,-10436.903782,383.047749
59424.786492,740.205942,-9622.677246,689.485948
59424.786802,-370.102971,-10362.883188,1302.362347
59424.787112,-962.267725,-10362.883188,2757.943793
59424.787421,-74.020594,-9474.636058,3600.648841
59424.787731,-1702.473667,-5403.503377,1532.190996
59424.788041,3627.009116,-8142.265362,6052.154434
59424.788350,1998.556043,-2516.700203,1762.019645
59424.788660,2368.659014,-4811.338623,3064.381992
59424.788970,-74.020594,-8290.306550,-229.828649
59424.789279,-2664.741391,-10510.924376,-1608.800546
59424.789589,-2516.700203,-11695.253884,-2298.286494
59424.789898,-2072.576638,-12509.480420,-1532.190996
59424.790208,-1776.494261,-10732.986159,-2451.505594
59424.790518,740.205942,-12509.480420,1608.800546
59424.790827,-74.020594,-11547.212695,-76.609550
59424.791137,-4737.318029,-9548.656652,0.000000
59424.791447,-666.185348,-12731.542202,2374.896044
59424.791756,-2960.823768,-8068.244768,1225.752797
59424.792066,296.082377,-6957.935855,3140.991542
59424.792376,3108.864956,-3997.112087,3753.867940
59424.792685,4367.215058,-3330.926739,4060.306139
59424.792995,2368.659014,-4515.256246,2145.067394
59424.793305,-3256.906145,-5995.668130,0.000000
59424.793614,-4737.318029,-10732.986159,-1225.752797
59424.793924,-666.185348,-11843.295072,-689.485948
59424.794234,-4441.235652,-10140.821405,-3370.820191
59424.794543,-1184.329507,-11621.233289,306.438199
59424.794853,-666.185348,-10732.986159,0.000000
59424.795163,592.164754,-11991.336260,612.876398
59424.795472,-1924.535449,-11769.274478,229.828649
59424.795782,-3552.988522,-10732.986159,536.266849
59424.796092,-2812.782580,-8068.244768,689.485948
59424.796402,-1184.329507,-4959.379811,1149.143247
59424.796711,2368.659014,-3627.009116,3677.258390
59424.797021,3849.070898,-2442.679609,3677.258390
59424.797331,4663.297435,-7105.977043,3600.648841
59424.797641,-4145.153275,-7772.162391,0.000000
59424.797950,-3849.070898,-9548.656652,-2451.505594
59424.798260,-2442.679609,-11843.295072,-2528.115143
59424.798570,-4145.153275,-10140.821405,-1838.629195
59424.798879,-1036.288319,-11325.150913,-459.657299
59424.799189,666.185348,-11991.336260,995.924147
59424.799499,518.144159,-12731.542202,2068.457845
59424.799809,-1554.432478,-10955.047942,383.047749
59424.800118,-1776.494261,-9696.697840,1225.752797
59424.800428,-74.020594,-9474.636058,2374.896044
59424.800738,0.000000,-4811.338623,1225.752797
59424.801048,5551.544565,-3849.070898,2987.772442
59424.801357,3997.112087,-3182.885551,3524.039291
59424.801667,1406.391290,-5551.544565,1378.971896
59424.801977,-2294.638420,-9030.512492,-612.876398
59424.802287,-2590.720797,-10584.944971,-383.047749
59424.802596,-1258.350101,-13027.624579,-76.609550
59424.802906,-1554.432478,-11399.171507,-1608.800546
59424.803216,-2368.659014,-10140.821405,-3677.258390
59424.803526,2294.638420,-14211.954086,2374.896044
59424.803835,-370.102971,-11251.130318,-76.609550
59424.804145,-74.020594,-11251.130318,-76.609550
59424.804455,-1702.473667,-8956.491898,689.485948
59424.804765,-518.144159,-7476.080014,1302.362347
59424.805074,1702.473667,-6513.812290,2911.162892
59424.805384,4589.276840,-4737.318029,4749.792088
59424.805694,4663.297435,-4737.318029,4673.182538
59424.806003,1702.473667,-7105.977043,1149.143247
59424.806313,-3034.844362,-7179.997637,-3677.258390
59424.806623,-1184.329507,-11917.315666,1532.190996
59424.806933,-74.020594,-12435.459826,-76.609550
59424.807242,-74.020594,-11251.130318,-76.609550
59424.807552,-1110.308913,-11325.150913,0.000000
59424.807862,-296.082377,-11325.150913,919.314598
59424.808172,-1184.329507,-11769.274478,459.657299
59424.808481,-2294.638420,-10955.047942,0.000000
59424.808791,-1776.494261,-9548.656652,1225.752797
59424.809101,-74.020594,-9178.553681,2374.896044
59424.809411,1998.556043,-4293.194464,536.266849
59424.809720,4737.318029,-5995.668130,5209.449386
59424.810030,2294.638420,-4737.318029,2068.457845
59424.810340,-1480.411884,-7698.141797,2374.896044
59424.810650,-2886.803174,-9548.656652,-1149.143247
59424.810959,-1998.556043,-10955.047942,-766.095498
59424.811269,-1554.432478,-11399.171507,0.000000
59424.811579,-296.082377,-10140.821405,0.000000
59424.811889,0.000000,-9844.739029,612.876398
59424.812198,1776.494261,-12583.501014,2068.457845
59424.812508,-1258.350101,-11251.130318,-76.609550
59424.812818,-4737.318029,-9548.656652,0.000000
59424.813128,-1258.350101,-10658.965565,-76.609550
59424.813437,-2294.638420,-9474.636058,2374.896044
59424.813747,370.102971,-6957.935855,2068.457845
59424.814057,1998.556043,-4885.359217,2681.334243
59424.814366,1184.329507,-5329.482782,1762.019645
59424.814676,-1332.370696,-7179.997637,0.000000
59424.814986,-3256.906145,-7772.162391,0.000000
59424.815296,-592.164754,-10584.944971,1838.629195
59424.815605,-74.020594,-13027.624579,-76.609550
59424.815915,-2368.659014,-8364.327145,0.000000
59424.816225,1776.494261,-11251.130318,2528.115143
59424.816535,148.041188,-11325.150913,1225.752797
59424.816844,-666.185348,-11251.130318,-76.609550
59424.817154,-2146.597232,-10732.986159,-383.047749
59424.817464,-2812.782580,-10362.883188,-383.047749
59424.817774,-1998.556043,-8364.327145,-689.485948
59424.818083,-2072.576638,-5403.503377,0.000000
59424.818393,1184.329507,-5995.668130,2451.505594
59424.818703,2294.638420,-8290.306550,2374.896044
59424.819013,-2368.659014,-7179.997637,612.876398
59424.819322,-74.020594,-10362.883188,2374.896044
59424.819632,0.000000,-8364.327145,2451.505594
59424.819942,1406.391290,-8956.491898,2221.676944
59424.820252,1554.432478,-8216.285956,1455.581446
59424.820561,888.247130,-8882.471304,536.266849
59424.820871,-592.164754,-10288.862594,-383.047749
59424.821181,-3256.906145,-10362.883188,-3447.429741
59424.821490,-4737.318029,-11029.068536,-2451.505594
59424.821800,-2368.659014,-12213.398043,612.876398
59424.822110,-74.020594,-11251.130318,-76.609550
59424.822420,0.000000,-7179.997637,2451.505594
59424.822729,1776.494261,-4811.338623,2451.505594
59424.823039,1702.473667,-6513.812290,2221.676944
59424.823349,0.000000,-7772.162391,1302.362347
59424.823659,74.020594,-8438.347739,1532.190996
59424.823968,740.205942,-9178.553681,2374.896044
59424.824278,1702.473667,-8290.306550,-76.609550
59424.824588,1184.329507,-7179.997637,1225.752797
59424.824898,4071.132681,-11843.295072,4826.401637
59424.825207,-74.020594,-9178.553681,-689.485948
59424.825517,-2368.659014,-10732.986159,0.000000
59424.825827,-4441.235652,-10140.821405,-2451.505594
59424.826137,-2664.741391,-11917.315666,-1225.752797
59424.826446,-2072.576638,-11473.192101,-306.438199
59424.826756,-370.102971,-8438.347739,153.219100
59424.827066,222.061783,-8882.471304,2374.896044
59424.827376,-74.020594,-8290.306550,2374.896044
59424.827685,-740.205942,-6587.832884,919.314598
59424.827995,1184.329507,-8660.409521,5669.106685
59424.828305,1702.473667,-5625.565159,2068.457845
59424.828614,1332.370696,-6587.832884,2451.505594
59424.828924,1110.308913,-6291.750507,689.485948
59424.829234,1776.494261,-7846.182985,1225.752797
59424.829544,148.041188,-9992.780217,153.219100
59424.829853,-2442.679609,-12065.356855,-1455.581446
59424.830163,-2738.761985,-13841.851115,-995.924147
59424.830473,-1554.432478,-15396.283594,-76.609550
59424.830783,-666.185348,-12435.459826,-689.485948
59424.831092,-4737.318029,-7179.997637,0.000000
59424.831402,-74.020594,-9474.636058,-76.609550
59424.831712,-2664.741391,-6587.832884,0.000000
59424.832022,1702.473667,-7698.141797,2374.896044
59424.832331,1554.432478,-6291.750507,3983.696590
59424.832641,1850.514855,-5699.585753,4366.744339
59424.832951,2886.803174,-6291.750507,3600.648841
59424.833261,4145.153275,-6143.709319,4903.011187
59424.833570,3330.926739,-8290.306550,4519.963438
59424.833880,-74.020594,-10362.883188,-76.609550
59424.834190,-7105.977043,-9548.656652,-4903.011187
59424.834500,-2442.679609,-15396.283594,-1608.800546
59424.834809,-5107.421000,-12139.377449,-5132.839837
59424.835119,-1850.514855,-13027.624579,-1302.362347
59424.835429,-3256.906145,-10214.842000,-1072.533697
59424.835738,-2368.659014,-8660.409521,-536.266849
59424.836048,-1110.308913,-8586.388927,995.924147
59424.836358,0.000000,-5403.503377,2757.943793
59424.836668,2368.659014,-5403.503377,6741.640382
59424.836977,4663.297435,-5921.647536,7277.907231
59424.837287,4663.297435,-3552.988522,3294.210641
59424.837597,2960.823768,-4811.338623,3677.258390
59424.837907,4071.132681,-7105.977043,2374.896044
59424.838216,-74.020594,-11843.295072,-76.609550
59424.838526,-4885.359217,-13323.706956,-3753.867940
59424.838836,-5477.523971,-16136.489536,-4290.134789
59424.839146,-4959.379811,-15692.365970,-3447.429741
59424.839455,-5921.647536,-13101.645173,-4290.134789
59424.839765,-2368.659014,-8364.327145,0.000000
59424.840075,-1184.329507,-10140.821405,919.314598
59424.840385,-74.020594,-8290.306550,1762.019645
59424.840694,0.000000,-5995.668130,4290.134789
59424.841004,4663.297435,-4737.318029,7277.907231
59424.841314,4589.276840,-4071.132681,6741.640382
59424.841624,5329.482782,-4145.153275,5132.839837
59424.841933,5033.400406,-4071.132681,4290.134789
59424.842243,1702.473667,-8512.368333,2451.505594
59424.842553,-2368.659014,-8364.327145,-2911.162892
59424.842862,-7105.977043,-11917.315666,-4903.011187
59424.843172,-5921.647536,-15470.304188,-4903.011187
59424.843482,-2442.679609,-18653.189738,-689.485948
59424.843792,-4219.173869,-12139.377449,-3447.429741
59424.844101,-3256.906145,-10362.883188,-689.485948
59424.844411,-3552.988522,-10140.821405,0.000000
59424.844721,-370.102971,-8068.244768,1072.533697
59424.845031,2368.659014,-5995.668130,4596.572988
59424.845340,4293.194464,-3775.050304,5515.887586
59424.845650,3478.967927,-2960.823768,4519.963438
59424.845960,3330.926739,-666.185348,2451.505594
59424.846270,5033.400406,-3627.009116,2451.505594
59424.846579,5847.626942,-10658.965565,4826.401637
59424.846889,-3923.091493,-9548.656652,-2834.553343
59424.847199,-2738.761985,-16432.571912,-76.609550
59424.847509,-4737.318029,-15470.304188,-4136.915689
59424.847818,-2960.823768,-16358.551318,-2145.067394
59424.848128,-3775.050304,-13323.706956,-2068.457845
59424.848438,-3404.947333,-9770.718434,-2374.896044
59424.848748,-1258.350101,-9474.636058,-76.609550
59424.849057,-370.102971,-6809.894666,995.924147
59424.849367,1480.411884,-3627.009116,1225.752797
59424.849677,6735.874072,-5921.647536,7277.907231
59424.849987,2442.679609,-1110.308913,3677.258390
59424.850296,5921.647536,-3034.844362,6128.763984
59424.850606,3701.029710,-4811.338623,3064.381992
59424.850916,2072.576638,-8660.409521,1838.629195
59424.851225,-3330.926739,-11917.315666,-2451.505594
59424.851535,-5847.626942,-15988.448347,-3983.696590
59424.851845,-3034.844362,-18357.107362,-2528.115143
59424.852155,-2442.679609,-16580.613101,-3140.991542
59424.852464,-4367.215058,-12435.459826,-3753.867940
59424.852774,-7105.977043,-9548.656652,-3064.381992
59424.853084,-74.020594,-9474.636058,-76.609550
59424.853394,0.000000,-5995.668130,2451.505594
59424.853703,2368.659014,-3034.844362,4519.963438
59424.854013,4145.153275,-2516.700203,6052.154434
59424.854323,3923.091493,-2072.576638,5132.839837
59424.854633,5329.482782,-2220.617826,5132.839837
59424.854942,5847.626942,-7698.141797,6971.469032
59424.855252,2294.638420,-11251.130318,2374.896044
59424.855562,-4811.338623,-11843.295072,-4979.620737
59424.855872,-7105.977043,-15470.304188,-3677.258390
59424.856181,-2442.679609,-17764.942608,-3140.991542
59424.856491,-4737.318029,-13397.727550,-6128.763984
59424.856801,-3627.009116,-11991.336260,-2834.553343
59424.857111,-4737.318029,-9548.656652,-3370.820191
59424.857420,-2368.659014,-9696.697840,-153.219100
59424.857730,1110.308913,-8512.368333,3217.601092
59424.858040,4441.235652,-5551.544565,6435.202183
59424.858349,5255.462188,-4737.318029,7277.907231
59424.858659,4663.297435,-2368.659014,4826.401637
59424.858969,2368.659014,-666.185348,4903.011187
59424.859279,5847.626942,-7105.977043,4826.401637
59424.859588,-2738.761985,-6883.915261,-1762.019645
59424.859898,-3627.009116,-13915.871710,-2528.115143
59424.860208,-5181.441594,-14952.160028,-3830.477490
59424.860518,-3997.112087,-16284.530724,-2757.943793
59424.860827,-2664.741391,-14508.036463,-2834.553343
59424.861137,-4737.318029,-11325.150913,-2451.505594
59424.861447,-2368.659014,-11029.068536,-1225.752797
59424.861757,-74.020594,-11251.130318,-76.609550
59424.862066,0.000000,-5403.503377,1532.190996
59424.862376,5255.462188,-5921.647536,6358.592633
59424.862686,2886.803174,-148.041188,4519.963438
59424.862996,5847.626942,-3256.906145,7277.907231
59424.863305,6069.688724,-3034.844362,6052.154434
59424.863615,3701.029710,-6217.729913,4519.963438
59424.863925,-518.144159,-11103.089130,1915.238745
59424.864235,-4737.318029,-10732.986159,-3064.381992
59424.864544,-4737.318029,-14878.139434,-3677.258390
59424.864854,-4145.153275,-15470.304188,-2451.505594
59424.865164,-1258.350101,-15988.448347,-2528.115143
59424.865473,-4737.318029,-11399.171507,-4443.353888
59424.865783,-2442.679609,-11843.295072,-2528.115143
59424.866093,-1258.350101,-11843.295072,919.314598
59424.866403,518.144159,-8068.244768,2834.553343
59424.866712,2664.741391,-4737.318029,4749.792088
59424.867022,3627.009116,-3478.967927,6052.154434
59424.867332,2960.823768,-74.020594,4903.011187
59424.867642,4737.318029,-1258.350101,5515.887586
59424.867951,2960.823768,-4811.338623,4903.011187
59424.868261,2294.638420,-11843.295072,3294.210641
59424.868571,-4367.215058,-10436.903782,-3294.210641
59424.868881,-3775.050304,-15988.448347,-1378.971896
59424.869190,-4145.153275,-15026.180623,-3524.039291
59424.869500,-3775.050304,-13915.871710,-4136.915689
59424.869810,-3775.050304,-13693.809927,-3677.258390
59424.870120,-4737.318029,-12435.459826,-3600.648841
59424.870429,-3627.009116,-9178.553681,-3370.820191
59424.870739,-2368.659014,-6291.750507,612.876398
59424.871049,1184.329507,-4811.338623,5515.887586
59424.871359,6439.791695,-4737.318029,6665.030833
59424.871668,4737.318029,-1258.350101,7354.516781
59424.871978,9400.615463,-4737.318029,9729.412825
59424.872288,2516.700203,-5403.503377,4290.134789
59424.872597,-148.041188,-9844.739029,1838.629195
59424.872907,-3330.926739,-11991.336260,-1608.800546
59424.873217,-3997.112087,-14211.954086,-3217.601092
59424.873527,-3627.009116,-14804.118840,-3753.867940
59424.873836,-5107.421000,-11547.212695,-5745.716235
59424.874146,-8882.471304,-11917.315666,-4903.011187
59424.874456,-2442.679609,-14211.954086,-1608.800546
59424.874766,-3034.844362,-10658.965565,-1915.238745
59424.875075,0.000000,-9548.656652,4903.011187
59424.875385,0.000000,-4959.379811,3830.477490
59424.875695,4515.256246,-2664.741391,6818.249932
59424.876005,7772.162391,-444.123565,8120.612279
59424.876314,7031.956449,-1406.391290,7277.907231
59424.876624,4663.297435,-7105.977043,4826.401637
59424.876934,-1258.350101,-9474.636058,-76.609550
59424.877244,-5995.668130,-10140.821405,-4903.011187
59424.877553,-5921.647536,-14285.974681,-3370.820191
59424.877863,-2442.679609,-15100.201217,-3140.991542
59424.878173,-5921.647536,-11917.315666,-5515.887586
59424.878483,-5921.647536,-13101.645173,-5286.058936
59424.878792,-5551.544565,-13397.727550,-2987.772442
59424.879102,-2442.679609,-11251.130318,-229.828649
59424.879412,222.061783,-8808.450710,2681.334243
59424.879721,4663.297435,-6809.894666,7277.907231
59424.880031,7031.956449,-4737.318029,9729.412825
59424.880341,8216.285956,0.000000,7277.907231
59424.880651,7105.977043,-1258.350101,8580.269578
59424.880960,3478.967927,-6809.894666,4213.525239
59424.881270,-3552.988522,-6587.832884,612.876398
59424.881580,-2590.720797,-10066.800811,-3294.210641
59424.881890,-4737.318029,-13397.727550,-4596.572988
59424.882199,-5255.462188,-13989.892304,-5362.668486
59424.882509,-5699.585753,-14582.057057,-6281.983084
59424.882819,-4737.318029,-17246.798449,-3753.867940
59424.883129,-2442.679609,-15396.283594,-1915.238745
59424.883438,-666.185348,-11843.295072,-689.485948
59424.883748,0.000000,-8364.327145,3677.258390
59424.884058,4663.297435,-4737.318029,5439.278036
59424.884368,4737.318029,-74.020594,5515.887586
59424.884677,9104.533087,0.000000,8963.317327
59424.884987,6365.771101,-1110.308913,6435.202183
59424.885297,2368.659014,-6809.894666,4060.306139
59424.885607,-444.123565,-9474.636058,612.876398
59424.885916,-3552.988522,-11473.192101,-1225.752797
59424.886226,-2960.823768,-13249.686362,-2145.067394
59424.886536,-1258.350101,-14211.954086,-3753.867940
59424.886845,-6661.853478,-13693.809927,-7124.688131
59424.887155,-6513.812290,-17246.798449,-4596.572988
59424.887465,-4811.338623,-15396.283594,-5592.497135
59424.887775,-3034.844362,-12435.459826,-1608.800546
59424.888084,-814.226536,-7994.224174,1608.800546
59424.888394,3701.029710,-4959.379811,5669.106685
59424.888704,7105.977043,-2516.700203,8120.612279
59424.889014,5921.647536,-74.020594,8580.269578
59424.889323,5921.647536,-1258.350101,5515.887586
59424.889633,5255.462188,-8882.471304,7277.907231
59424.889943,0.000000,-5329.482782,229.828649
59424.890253,-1776.494261,-8956.491898,-3677.258390
59424.890562,-1850.514855,-11843.295072,-2528.115143
59424.890872,-2146.597232,-12731.542202,-4519.963438
59424.891182,-5329.482782,-16728.654289,-4979.620737
59424.891492,-7328.038826,-16062.468941,-6741.640382
59424.891801,-7105.977043,-16136.489536,-3983.696590
59424.892111,-4737.318029,-9548.656652,-2451.505594
59424.892421,0.000000,-7179.997637,0.000000
59424.892731,6735.874072,-9474.636058,9652.803275
59424.893040,5921.647536,-74.020594,6894.859482
59424.893350,8290.306550,-1998.556043,9729.412825
59424.893660,6439.791695,-3552.988522,6665.030833
59424.893970,1184.329507,-7031.956449,3677.258390
59424.894279,-814.226536,-7031.956449,612.876398
59424.894589,-1702.473667,-9770.718434,-1225.752797
59424.894899,-3330.926739,-11251.130318,-3524.039291
59424.895208,-5995.668130,-11325.150913,-6818.249932
59424.895518,-8586.388927,-14285.974681,-7737.564530
59424.895828,-7105.977043,-16654.633695,-4290.134789
59424.896137,-4811.338623,-16580.613101,-3140.991542
59424.896447,-4441.235652,-10436.903782,-1225.752797
59424.896757,3478.967927,-11843.295072,4826.401637
59424.897066,4145.153275,-4367.215058,7507.735880
59424.897376,8956.491898,-1258.350101,9346.365076
59424.897686,8216.285956,0.000000,7277.907231
59424.897996,4737.318029,-2442.679609,6205.373534
59424.898305,1702.473667,-5921.647536,2068.457845
59424.898615,-740.205942,-6513.812290,-1608.800546
59424.898925,-3552.988522,-10732.986159,0.000000
59424.899234,-2442.679609,-14211.954086,-2834.553343
59424.899544,-5107.421000,-12509.480420,-7737.564530
59424.899854,-7105.977043,-19319.375086,-4290.134789
59424.900163,-8290.306550,-16654.633695,-6128.763984
59424.900473,-7476.080014,-15396.283594,-3600.648841
59424.900783,-2516.700203,-9696.697840,-1072.533697
59424.901092,1258.350101,-7476.080014,3677.258390
59424.901402,8216.285956,-3552.988522,8503.660028
59424.901712,10288.862594,0.000000,10955.165621
59424.902022,4737.318029,3182.885551,6281.983084
59424.902331,5107.421000,-4367.215058,6971.469032
59424.902641,-444.123565,-5403.503377,0.000000
59424.902951,0.000000,-8364.327145,1225.752797
59424.903260,-2220.617826,-10140.821405,-3217.601092
59424.903570,-3775.050304,-12287.418637,-4673.182538
59424.903880,-4811.338623,-15544.324782,-7354.516781
59424.904189,-6883.915261,-17838.963202,-7507.735880
59424.904499,-4811.338623,-18949.272115,-4060.306139
59424.904809,-4811.338623,-18949.272115,-689.485948
59424.905119,-2442.679609,-9030.512492,-1608.800546
59424.905428,1480.411884,-7476.080014,5515.887586
59424.905738,9400.615463,-4737.318029,11874.480219
59424.906048,9474.636058,2294.638420,9806.022374
59424.906357,7031.956449,1480.411884,7584.345430
59424.906667,2960.823768,-4219.173869,5975.544884
59424.906977,518.144159,-7550.100608,2911.162892
59424.907286,0.000000,-9844.739029,153.219100
59424.907596,-1258.350101,-13323.706956,-766.095498
59424.907906,-2442.679609,-15026.180623,-2221.676944
59424.908215,-4811.338623,-16580.613101,-6511.811733
59424.908525,-8882.471304,-17838.963202,-7354.516781
59424.908835,-4811.338623,-21317.931130,-2528.115143
59424.909145,-7994.224174,-12509.480420,-4903.011187
59424.909454,-814.226536,-9844.739029,536.266849
59424.909764,3627.009116,-7179.997637,6435.202183
59424.910074,8882.471304,-1036.288319,9806.022374
59424.910383,9844.739029,1924.535449,9806.022374
59424.910693,6217.729913,-74.020594,8580.269578
59424.911003,2960.823768,-3627.009116,7354.516781
59424.911312,2294.638420,-8290.306550,3600.648841
59424.911622,-2368.659014,-7328.038826,-1378.971896
59424.911932,-2960.823768,-11917.315666,-1225.752797
59424.912241,-5699.585753,-13323.706956,-6971.469032
59424.912551,-5107.421000,-16284.530724,-7431.126331
59424.912861,-8068.244768,-19245.354492,-6358.592633
59424.913171,-6957.935855,-17024.736666,-4596.572988
59424.913480,-4441.235652,-12213.398043,-3370.820191
59424.913790,-2368.659014,-7772.162391,0.000000
59424.914100,1184.329507,-4811.338623,4903.011187
59424.914409,9400.615463,-3552.988522,9729.412825
59424.914719,6661.853478,2294.638420,7660.954980
59424.915029,6735.874072,-4145.153275,9729.412825
59424.915338,2294.638420,-3552.988522,3600.648841
59424.915648,1554.432478,-7254.018232,3217.601092
59424.915958,1110.308913,-10066.800811,306.438199
59424.916268,-2072.576638,-11325.150913,-1915.238745
59424.916577,-4145.153275,-13693.809927,-4290.134789
59424.916887,-8290.306550,-14285.974681,-7354.516781
59424.917197,-9474.636058,-14285.974681,-8580.269578
59424.917506,-5625.565159,-16136.489536,-3753.867940
59424.917816,-5403.503377,-12435.459826,-3447.429741
59424.918126,-2368.659014,-8364.327145,2451.505594
59424.918435,4663.297435,-8882.471304,4826.401637
59424.918745,7328.038826,-3182.885551,9116.536426
59424.919055,6365.771101,0.000000,7890.783629
59424.919364,3627.009116,-1406.391290,6128.763984
59424.919674,1702.473667,-4959.379811,4213.525239
59424.919984,0.000000,-6069.688724,1149.143247
59424.920294,-666.185348,-6587.832884,-1762.019645
59424.920603,-3552.988522,-10732.986159,-2451.505594
59424.920913,-2442.679609,-15100.201217,-3907.087040
59424.921223,-8882.471304,-15470.304188,-7967.393179
59424.921532,-4811.338623,-20725.766376,-2528.115143
59424.921842,-5699.585753,-14285.974681,-3983.696590
59424.922152,-2960.823768,-9918.759623,-2528.115143
59424.922461,-962.267725,-8734.430116,689.485948
59424.922771,4441.235652,-6661.853478,5745.716235
59424.923081,7031.956449,-4145.153275,7277.907231
59424.923390,5847.626942,-2220.617826,6052.154434
59424.923700,592.164754,-2442.679609,5515.887586
59424.924010,2294.638420,-5921.647536,4826.401637
59424.924320,-2812.782580,-4811.338623,0.000000
59424.924629,3552.988522,-9178.553681,2681.334243
59424.924939,-1184.329507,-9548.656652,-2681.334243
59424.925249,-3330.926739,-12657.521608,-4826.401637
59424.925558,-5773.606348,-16728.654289,-5975.544884
59424.925868,-6661.853478,-17468.860231,-4749.792088
59424.926178,-4811.338623,-15396.283594,-2528.115143
59424.926487,-666.185348,-11843.295072,-2528.115143
59424.926797,0.000000,-6883.915261,76.609550
59424.927107,4737.318029,-5995.668130,8580.269578
59424.927417,7624.121203,-1184.329507,6665.030833
59424.927726,4737.318029,-3923.091493,9193.145976
59424.928036,2664.741391,-3404.947333,6052.154434
59424.928346,2368.659014,-5699.585753,4290.134789
59424.928655,1924.535449,-7254.018232,3370.820191
59424.928965,-74.020594,-8068.244768,536.266849
59424.929275,-74.020594,-11251.130318,-1225.752797
59424.929584,-74.020594,-15396.283594,-2834.553343
59424.929894,-5403.503377,-14211.954086,-7124.688131
59424.930204,-7994.224174,-15470.304188,-6128.763984
59424.930513,-4811.338623,-16580.613101,-3753.867940
59424.930823,-4737.318029,-10140.821405,-2145.067394
59424.931133,1406.391290,-10066.800811,1915.238745
59424.931443,4219.173869,-7031.956449,5745.716235
59424.931752,5107.421000,-3923.091493,7048.078582
59424.932062,3775.050304,-3404.947333,6128.763984
59424.932372,3552.988522,-5551.544565,6128.763984
59424.932681,6439.791695,-8290.306550,7277.907231
59424.932991,2146.597232,-4885.359217,2374.896044
59424.933301,1184.329507,-7772.162391,2451.505594
59424.933610,-74.020594,-11251.130318,-1302.362347
59424.933920,-4737.318029,-10140.821405,-4903.011187
59424.934230,-5699.585753,-15100.201217,-6205.373534
59424.934539,-9030.512492,-15396.283594,-7277.907231
59424.934849,-6587.832884,-14656.077652,-5515.887586
59424.935159,-3256.906145,-12361.439231,-2834.553343
59424.935469,0.000000,-9548.656652,1378.971896
59424.935778,2368.659014,-7772.162391,6128.763984
59424.936088,5699.585753,-6513.812290,7277.907231
59424.936398,2368.659014,-3034.844362,4903.011187
59424.936707,6439.791695,-7105.977043,8197.221829
59424.937017,2072.576638,-666.185348,4596.572988
59424.937327,3182.885551,-5329.482782,4519.963438
59424.937636,2294.638420,-5625.565159,1838.629195
59424.937946,-370.102971,-8068.244768,-1608.800546
59424.938256,-3404.947333,-11621.233289,-4060.306139
59424.938566,-8290.306550,-13101.645173,-7048.078582
59424.938875,-11251.130318,-14285.974681,-7354.516781
59424.939185,-5699.585753,-17172.777854,-3753.867940
59424.939495,-3330.926739,-11843.295072,-4979.620737
59424.939804,592.164754,-10732.986159,2451.505594
59424.940114,2294.638420,-8290.306550,3677.258390
59424.940424,2442.679609,-5403.503377,6281.983084
59424.940733,2368.659014,-5107.421000,6435.202183
59424.941043,3256.906145,-4589.276840,6818.249932
59424.941353,4367.215058,-2442.679609,6818.249932
59424.941662,1776.494261,-2220.617826,4060.306139
59424.941972,0.000000,-2442.679609,306.438199
59424.942282,444.123565,-8660.409521,-153.219100
59424.942592,-3627.009116,-11251.130318,-5592.497135
59424.942901,-9474.636058,-14285.974681,-7354.516781
59424.943211,-7179.997637,-16210.510130,-8350.440928
59424.943521,-7105.977043,-17542.880825,-4903.011187
59424.943830,-814.226536,-13101.645173,-1991.848295
59424.944140,1332.370696,-10955.047942,1838.629195
59424.944450,3034.844362,-8734.430116,6052.154434
59424.944759,2146.597232,-6365.771101,5439.278036
59424.945069,1998.556043,-3108.864956,4979.620737
59424.945379,3552.988522,-3923.091493,7660.954980
59424.945688,5847.626942,-2368.659014,6665.030833
59424.945998,592.164754,-2442.679609,3064.381992
59424.946308,4071.132681,-6439.791695,1149.143247
59424.946618,-1110.308913,-6883.915261,-2528.115143
59424.946927,-4515.256246,-11843.295072,-4979.620737
59424.947237,-7846.182985,-14656.077652,-7354.516781
59424.947547,-8216.285956,-15618.345376,-6818.249932
59424.947856,-5403.503377,-18209.066173,-4979.620737
59424.948166,-1850.514855,-13471.748144,-3140.991542
59424.948476,0.000000,-11325.150913,1225.752797
59424.948785,4663.297435,-11843.295072,7277.907231
59424.949095,2294.638420,-5921.647536,4826.401637
59424.949405,5255.462188,-3923.091493,7890.783629
59424.949715,5181.441594,-2738.761985,7737.564530
59424.950024,5329.482782,-296.082377,6358.592633
59424.950334,3552.988522,-2516.700203,3524.039291
59424.950644,2368.659014,-5995.668130,1225.752797
59424.950953,2294.638420,-8142.265362,-1302.362347
59424.951263,-2442.679609,-13619.789333,-4979.620737
59424.951573,-10362.883188,-13397.727550,-9116.536426
59424.951882,-8290.306550,-17246.798449,-4903.011187
59424.952192,-4811.338623,-18357.107362,-4979.620737
59424.952502,-1184.329507,-14211.954086,-76.609550
59424.952811,814.226536,-11399.171507,1302.362347
59424.953121,1110.308913,-8882.471304,3907.087040
59424.953431,3256.906145,-6069.688724,5975.544884
59424.953741,5033.400406,-3478.967927,6128.763984
59424.954050,7772.162391,-2812.782580,9806.022374
59424.954360,7031.956449,-2368.659014,7890.783629
59424.954670,1998.556043,-1998.556043,2374.896044
59424.954979,3552.988522,-9104.533087,4749.792088
59424.955289,-74.020594,-8290.306550,-2528.115143
59424.955599,-5921.647536,-13989.892304,-4366.744339
59424.955908,-8808.450710,-16062.468941,-7431.126331
59424.956218,-9104.533087,-18209.066173,-7201.297681
59424.956528,-5625.565159,-18579.169144,-4213.525239
59424.956838,-962.267725,-13101.645173,-1838.629195
59424.957147,1184.329507,-10732.986159,2451.505594
59424.957457,2960.823768,-9104.533087,6741.640382
59424.957767,4367.215058,-4737.318029,6665.030833
59424.958076,5329.482782,-4219.173869,11031.775171
59424.958386,6439.791695,-1776.494261,8197.221829
59424.958696,2368.659014,-666.185348,6128.763984
59424.959005,1850.514855,-4145.153275,3140.991542
59424.959315,1036.288319,-7105.977043,842.705048
59424.959625,-1628.453072,-8882.471304,-2834.553343
59424.959934,-6661.853478,-13323.706956,-6511.811733
59424.960244,-11843.295072,-15544.324782,-9499.584175
59424.960554,-8882.471304,-18431.127956,-6128.763984
59424.960864,-3627.009116,-18653.189738,-2834.553343
59424.961173,-3552.988522,-10140.821405,0.000000
59424.961483,1776.494261,-11325.150913,5898.935335
59424.961793,1776.494261,-6587.832884,4903.011187
59424.962102,3849.070898,-5107.421000,6894.859482
59424.962412,4959.379811,-3108.864956,7890.783629
59424.962722,4959.379811,-1184.329507,7890.783629
59424.963031,3182.885551,0.000000,6052.154434
59424.963341,1184.329507,-2442.679609,2221.676944
59424.963651,592.164754,-5403.503377,0.000000
59424.963960,-296.082377,-11103.089130,-76.609550
59424.964270,-8068.244768,-12509.480420,-8197.221829
59424.964580,-10658.965565,-16950.716072,-7354.516781
59424.964890,-9474.636058,-17838.963202,-7354.516781
59424.965199,-3701.029710,-16654.633695,-3600.648841
59424.965509,-148.041188,-12953.603985,-536.266849
59424.965819,1036.288319,-9400.615463,2451.505594
59424.966128,2516.700203,-8290.306550,4826.401637
59424.966438,2738.761985,-3627.009116,4826.401637
59424.966748,3552.988522,-1554.432478,6894.859482
59424.967057,4737.318029,-962.267725,8503.660028
59424.967367,592.164754,1702.473667,1838.629195
59424.967677,2960.823768,-5995.668130,3677.258390
59424.967987,2146.597232,-4811.338623,-536.266849
59424.968296,-2220.617826,-10732.986159,-3064.381992
59424.968606,-7254.018232,-15026.180623,-6665.030833
59424.968916,-8956.491898,-16580.613101,-8044.002729
59424.969225,-6291.750507,-20503.704593,-4366.744339
59424.969535,-1554.432478,-15396.283594,-2528.115143
59424.969845,-962.267725,-11547.212695,0.000000
59424.970154,1480.411884,-9548.656652,4290.134789
59424.970464,3478.967927,-6513.812290,3600.648841
59424.970774,1184.329507,-3627.009116,4903.011187
59424.971083,4663.297435,-2812.782580,7277.907231
59424.971393,4737.318029,-148.041188,6052.154434
59424.971703,3849.070898,-2368.659014,4979.620737
59424.972013,3108.864956,-5625.565159,3753.867940
59424.972322,2664.741391,-8068.244768,2451.505594
59424.972632,-1258.350101,-12731.542202,-2528.115143
59424.972942,-6587.832884,-15396.283594,-6818.249932
59424.973251,-10658.965565,-14285.974681,-9806.022374
59424.973561,-5921.647536,-18431.127956,-3830.477490
59424.973871,-1258.350101,-14730.098246,-4060.306139
59424.974180,2294.638420,-11251.130318,-76.609550
59424.974490,1036.288319,-8438.347739,2451.505594
59424.974800,1628.453072,-8290.306550,4596.572988
59424.975109,3256.906145,-5403.503377,5898.935335
59424.975419,3552.988522,-3034.844362,8580.269578
59424.975729,4663.297435,-4589.276840,8120.612279
59424.976039,2886.803174,-3552.988522,3600.648841
59424.976348,592.164754,-5107.421000,2451.505594
59424.976658,4663.297435,-9474.636058,2374.896044
59424.976968,-4145.153275,-7476.080014,-4443.353888
59424.977277,-4811.338623,-14804.118840,-4979.620737
59424.977587,-7772.162391,-14508.036463,-6358.592633
59424.977897,-4589.276840,-15026.180623,-3753.867940
59424.978206,-1258.350101,-13397.727550,-1072.533697
59424.978516,0.000000,-8660.409521,0.000000
59424.978826,1776.494261,-9548.656652,3064.381992
59424.979136,2294.638420,-9474.636058,4366.744339
59424.979445,962.267725,-5699.585753,2451.505594
59424.979755,4663.297435,-7920.203579,8503.660028
59424.980065,1480.411884,-2960.823768,3600.648841
59424.980374,4367.215058,-5625.565159,4596.572988
59424.980684,3034.844362,-6217.729913,2987.772442
59424.980994,1924.535449,-6661.853478,229.828649
59424.981303,-3330.926739,-11547.212695,-2987.772442
59424.981613,-7994.224174,-11917.315666,-7354.516781
59424.981923,-8290.306550,-13101.645173,-6128.763984
59424.982232,-3256.906145,-16580.613101,-2298.286494
59424.982542,-1258.350101,-11251.130318,-3753.867940
59424.982852,1036.288319,-12731.542202,2374.896044
59424.983162,-74.020594,-9474.636058,1762.019645
59424.983471,0.000000,-8364.327145,3677.258390
59424.983781,1036.288319,-7031.956449,4673.182538
59424.984091,1036.288319,-5107.421000,5056.230287
59424.984400,1998.556043,-4737.318029,4596.572988
59424.984710,3478.967927,-2664.741391,2681.334243
59424.985020,1184.329507,-3034.844362,1532.190996
59424.985329,1184.329507,-6291.750507,1225.752797
59424.985639,-2442.679609,-11843.295072,-2528.115143
59424.985949,-8882.471304,-10732.986159,-6128.763984
59424.986258,-3627.009116,-16358.551318,-1762.019645
59424.986568,-3256.906145,-13249.686362,-2451.505594
59424.986878,592.164754,-12435.459826,-229.828649
59424.987188,-666.185348,-10658.965565,536.266849
59424.987497,-2146.597232,-9548.656652,306.438199
59424.987807,-1850.514855,-10658.965565,2374.896044
59424.988117,-4071.132681,-7254.018232,1762.019645
59424.988426,-4145.153275,-7179.997637,3677.258390
59424.988736,-1258.350101,-9474.636058,4826.401637
59424.989046,-3552.988522,-2442.679609,1838.629195
59424.989355,2072.576638,-5995.668130,6894.859482
59424.989665,-2960.823768,-3627.009116,766.095498
59424.989975,-5921.647536,-9844.739029,612.876398
59424.990285,-8586.388927,-12287.418637,-3064.381992
59424.990594,-7402.059420,-13027.624579,-3753.867940
59424.990904,-6883.915261,-14211.954086,-1302.362347
59424.991214,-6291.750507,-10658.965565,-2528.115143
59424.991523,-5625.565159,-8660.409521,0.000000
59424.991833,1184.329507,-9844.739029,5362.668486
59424.992143,-3034.844362,-8290.306550,2068.457845
59424.992452,-7105.977043,-8364.327145,4903.011187
59424.992762,-5403.503377,-7254.018232,2451.505594
59424.993072,-3404.947333,-6809.894666,3753.867940
59424.993381,-5329.482782,-6513.812290,2451.505594
59424.993691,-9252.574275,-7402.059420,536.266849
59424.994001,-5403.503377,-9178.553681,2374.896044
59424.994311,-74.020594,-7105.977043,-76.609550
59424.994620,-1776.494261,-5847.626942,689.485948
59424.994930,-7105.977043,-8364.327145,1225.752797
59424.995240,-7179.997637,-14211.954086,-1302.362347
59424.995549,-9474.636058,-10140.821405,-4903.011187
59424.995859,-4441.235652,-11251.130318,-76.609550
59424.996169,-5995.668130,-10214.842000,-306.438199
59424.996478,-7254.018232,-9252.574275,0.000000
59424.996788,-4293.194464,-8364.327145,842.705048
59424.997098,1924.535449,-8660.409521,6281.983084
59424.997408,5847.626942,-6809.894666,7890.783629
59424.997718,4071.132681,-3552.988522,4519.963438
59424.998027,-296.082377,-8660.409521,3677.258390
59424.998337,-4811.338623,-10658.965565,-2528.115143
59424.998647,-8068.244768,-11029.068536,-4903.011187
59424.998957,-7105.977043,-10732.986159,-2451.505594
59424.999266,-4811.338623,-11843.295072,-2528.115143
59424.999576,-9474.636058,-10732.986159,-3677.258390
59424.999886,-4811.338623,-15396.283594,2068.457845
59425.000196,-1850.514855,-13027.624579,3600.648841
59425.000506,-2220.617826,-5107.421000,2451.505594
59425.000815,1776.494261,-3627.009116,6128.763984
59425.001125,4663.297435,-1332.370696,5132.839837
59425.001435,7105.977043,-3034.844362,7354.516781
59425.001745,2886.803174,-5921.647536,1762.019645
59425.002054,-3627.009116,-10658.965565,-1915.238745
59425.002364,-6957.935855,-14508.036463,-4290.134789
59425.002674,-6291.750507,-14434.015869,-4366.744339
59425.002984,-5625.565159,-11251.130318,-3677.258390
59425.003294,-5181.441594,-11177.109724,-995.924147
59425.003603,-3627.009116,-13027.624579,-689.485948
59425.003913,-4219.173869,-13915.871710,-689.485948
59425.004223,-4737.318029,-11917.315666,1225.752797
59425.004533,-74.020594,-11251.130318,4826.401637
59425.004842,0.000000,-1258.350101,3677.258390
59425.005152,4663.297435,814.226536,7201.297681
59425.005462,6513.812290,1924.535449,7354.516781
59425.005772,5403.503377,962.267725,5669.106685
59425.006082,1776.494261,-4589.276840,1838.629195
59425.006391,-2664.741391,-14211.954086,-995.924147
59425.006701,-9548.656652,-18949.272115,-5898.935335
59425.007011,-14878.139434,-21762.054695,-8656.879127
59425.007321,-18949.272115,-17246.798449,-9806.022374
59425.007630,-11843.295072,-17246.798449,-4290.134789
59425.007940,-7179.997637,-11399.171507,-1225.752797
59425.008250,-148.041188,-9696.697840,6588.421283
59425.008560,2294.638420,-4589.276840,7584.345430
59425.008870,5773.606348,74.020594,9346.365076
59425.009179,7328.038826,0.000000,10342.289223
59425.009489,4071.132681,-74.020594,7354.516781
59425.009799,0.000000,-370.102971,3064.381992
59425.010109,-3552.988522,-8956.491898,2911.162892
59425.010418,-9548.656652,-10066.800811,-5592.497135
59425.010728,-15396.283594,-19023.292709,-4903.011187
59425.011038,-14285.974681,-20725.766376,-7431.126331
59425.011348,-15396.283594,-16062.468941,-7354.516781
59425.011658,-12953.603985,-17098.757260,-2757.943793
59425.011967,-7402.059420,-9474.636058,306.438199
59425.012277,1628.453072,-4219.173869,4290.134789
59425.012587,4663.297435,-888.247130,8197.221829
59425.012897,5329.482782,4663.297435,7048.078582
59425.013206,6513.812290,1110.308913,8886.707777
59425.013516,6439.791695,-3552.988522,7277.907231
59425.013826,0.000000,-4811.338623,2451.505594
59425.014136,-1258.350101,-12879.583391,1608.800546
59425.014446,-9474.636058,-11325.150913,-8580.269578
59425.014755,-14285.974681,-16950.716072,-8963.317327
59425.015065,-13027.624579,-19911.539840,-7660.954980
59425.015375,-9178.553681,-20725.766376,-5515.887586
59425.015685,-7772.162391,-18949.272115,-1608.800546
59425.015994,-2442.679609,-7402.059420,229.828649
59425.016304,1776.494261,-4811.338623,6128.763984
59425.016614,7476.080014,-3552.988522,9729.412825
59425.016924,4737.318029,4663.297435,8580.269578
59425.017234,6735.874072,2590.720797,11031.775171
59425.017543,2516.700203,2146.597232,5669.106685
59425.017853,222.061783,-4071.132681,3753.867940
59425.018163,-3552.988522,-7920.203579,0.000000
59425.018473,-6069.688724,-12361.439231,-2757.943793
59425.018782,-8364.327145,-18949.272115,-2834.553343
59425.019092,-7772.162391,-18949.272115,-5592.497135
59425.019402,-9474.636058,-17838.963202,-5439.278036
59425.019712,-5921.647536,-17246.798449,0.000000
59425.020022,-74.020594,-14211.954086,2987.772442
59425.020331,3552.988522,-7179.997637,4903.011187
59425.020641,9400.615463,-5773.606348,10648.727422
59425.020951,11547.212695,-296.082377,11951.089769
59425.021261,11103.089130,-370.102971,12410.747068
59425.021570,8364.327145,-1036.288319,9959.241474
59425.021880,5699.585753,-6587.832884,9729.412825
59425.022190,1702.473667,-11843.295072,4826.401637
59425.022500,-4811.338623,-11547.212695,-1608.800546
59425.022810,-11251.130318,-14878.139434,-2451.505594
59425.023119,-5403.503377,-18949.272115,-689.485948
59425.023429,-6513.812290,-17542.880825,-3064.381992
59425.023739,-3627.009116,-18653.189738,1455.581446
59425.024049,-2368.659014,-11251.130318,3983.696590
59425.024358,2072.576638,-5995.668130,7048.078582
59425.024668,4959.379811,-5847.626942,10189.070123
59425.024978,7698.141797,-74.020594,12257.527968
59425.025288,8808.450710,-1480.411884,13942.938064
59425.025598,6439.791695,0.000000,9116.536426
59425.025907,0.000000,-74.020594,4903.011187
59425.026217,1776.494261,-11547.212695,9729.412825
59425.026527,-74.020594,-14211.954086,4826.401637
59425.026837,-4219.173869,-17764.942608,4213.525239
59425.027146,-7328.038826,-19393.395680,2374.896044
59425.027456,-8512.368333,-22872.363608,2834.553343
59425.027766,-9844.739029,-21317.931130,4213.525239
59425.028076,-7105.977043,-13101.645173,4903.011187
59425.028386,1184.329507,-7179.997637,9806.022374
59425.028695,7031.956449,-2960.823768,14019.547613
59425.029005,5255.462188,2220.617826,11568.042020
59425.029315,4737.318029,-2442.679609,14709.033562
59425.029625,4663.297435,-6513.812290,12180.918418
59425.029934,-74.020594,-7550.100608,10725.336972
59425.030244,-3701.029710,-9474.636058,5439.278036
59425.030554,-6291.750507,-12509.480420,4060.306139
59425.030864,-4367.215058,-13841.851115,2757.943793
59425.031174,-4737.318029,-13101.645173,1225.752797
59425.031483,-4737.318029,-15470.304188,3064.381992
59425.031793,-5773.606348,-18357.107362,3677.258390
59425.032103,-2442.679609,-17764.942608,4213.525239
59425.032413,0.000000,-7179.997637,4903.011187
59425.032722,4663.297435,-8290.306550,10955.165621
59425.033032,4737.318029,-666.185348,9499.584175
59425.033342,3775.050304,-296.082377,8350.440928
59425.033652,4737.318029,0.000000,6894.859482
59425.033962,3627.009116,-1998.556043,5362.668486
59425.034271,74.020594,-4811.338623,1455.581446
59425.034581,-2960.823768,-11029.068536,612.876398
59425.034891,-4737.318029,-16654.633695,0.000000
59425.035201,-5995.668130,-22502.260637,-1302.362347
59425.035510,-11547.212695,-19023.292709,-4826.401637
59425.035820,-6365.771101,-18875.251521,-919.314598
59425.036130,-2368.659014,-12805.562797,0.000000
59425.036440,1850.514855,-9474.636058,3447.429741
59425.036750,4663.297435,-6809.894666,5439.278036
59425.037059,7328.038826,-4219.173869,6741.640382
59425.037369,10584.944971,-2960.823768,4826.401637
59425.037679,5255.462188,-2886.803174,4673.182538
59425.037989,2368.659014,-6587.832884,4903.011187
59425.038298,-74.020594,-11843.295072,1762.019645
59425.038608,-2368.659014,-11917.315666,0.000000
59425.038918,-740.205942,-14359.995275,-76.609550
59425.039228,-6513.812290,-12065.356855,-3370.820191
59425.039537,-4811.338623,-12879.583391,-3064.381992
59425.039847,-2812.782580,-13249.686362,-2604.724693
59425.040157,-592.164754,-11917.315666,-1378.971896
59425.040467,2294.638420,-13619.789333,-76.609550
59425.040777,1110.308913,-11103.089130,1455.581446
59425.041086,1776.494261,-6587.832884,0.000000
59425.041396,7402.059420,-7105.977043,6052.154434
59425.041706,3404.947333,-444.123565,2911.162892
59425.042016,2368.659014,-1258.350101,4903.011187
59425.042325,2294.638420,-5995.668130,3677.258390
59425.042635,2442.679609,-8142.265362,1838.629195
59425.042945,-1184.329507,-14804.118840,-306.438199
59425.043255,-5921.647536,-20947.828159,76.609550
59425.043565,-3330.926739,-21910.095883,-76.609550
59425.043874,-2738.761985,-16284.530724,-689.485948
59425.044184,-4219.173869,-9622.677246,-2221.676944
59425.044494,0.000000,-6587.832884,2451.505594
59425.044804,4663.297435,-4737.318029,4519.963438
59425.045113,0.000000,-3034.844362,3677.258390
59425.045423,-370.102971,-7994.224174,4826.401637
59425.045733,-592.164754,-10807.006753,5515.887586
59425.046043,-592.164754,-11251.130318,6971.469032
59425.046353,-1258.350101,-7402.059420,4903.011187
59425.046662,-1480.411884,-7698.141797,5515.887586
59425.046972,-74.020594,-7994.224174,5439.278036
59425.047282,1998.556043,-6513.812290,3600.648841
59425.047592,-3552.988522,-9548.656652,3677.258390
59425.047901,-2590.720797,-12731.542202,2987.772442
59425.048211,-6143.709319,-11917.315666,0.000000
59425.048521,-666.185348,-11843.295072,3907.087040
59425.048831,0.000000,-7179.997637,3217.601092
59425.049141,444.123565,-5847.626942,4060.306139
59425.049450,740.205942,-5403.503377,4366.744339
59425.049760,0.000000,-8956.491898,6741.640382
59425.050070,-74.020594,-10362.883188,4519.963438
59425.050380,-2442.679609,-14211.954086,4826.401637
59425.050689,-5847.626942,-7179.997637,0.000000
59425.050999,-2368.659014,-10214.842000,3217.601092
59425.051309,-666.185348,-7994.224174,1149.143247
59425.051619,-74.020594,-7105.977043,2374.896044
59425.051929,222.061783,-6143.709319,2145.067394
59425.052238,962.267725,-7476.080014,1915.238745
59425.052548,1258.350101,-7920.203579,2298.286494
59425.052858,0.000000,-7179.997637,1225.752797
59425.053168,888.247130,-9252.574275,1838.629195
59425.053477,2294.638420,-13619.789333,3294.210641
59425.053787,-3552.988522,-9548.656652,-2451.505594
59425.054097,-2220.617826,-13915.871710,-766.095498
59425.054407,-666.185348,-14211.954086,-2528.115143
59425.054717,-888.247130,-11177.109724,-76.609550
59425.055026,-148.041188,-10362.883188,-919.314598
59425.055336,-222.061783,-9400.615463,-306.438199
59425.055646,296.082377,-8364.327145,229.828649
59425.055956,0.000000,-4811.338623,0.000000
59425.056265,296.082377,-6291.750507,0.000000
59425.056575,2886.803174,-7698.141797,1762.019645
59425.056885,0.000000,-3627.009116,-3064.381992
59425.057195,4071.132681,-8216.285956,-76.609550
