#time,accel_x,accel_y,accel_z
59555.636011,-2368.659014,-7772.162391,0.000000
59555.636321,962.267725,-10214.842000,2374.896044
59555.636631,-3552.988522,-5995.668130,0.000000
59555.636941,1702.473667,-11695.253884,2298.286494
59555.637251,-1628.453072,-8364.327145,383.047749
59555.637560,-148.041188,-9178.553681,1149.143247
59555.637870,-370.102971,-9104.533087,1149.143247
59555.638180,-666.185348,-8808.450710,383.047749
59555.638490,-74.020594,-9474.636058,1762.019645
59555.638799,814.226536,-10510.924376,2374.896044
59555.639109,-1702.473667,-7328.038826,0.000000
59555.639419,0.000000,-9548.656652,3370.820191
59555.639729,-1258.350101,-7698.141797,-689.485948
59555.640039,0.000000,-9548.656652,2451.505594
59555.640348,-888.247130,-8364.327145,306.438199
59555.640658,-222.061783,-9178.553681,689.485948
59555.640968,-296.082377,-9104.533087,842.705048
59555.641278,-222.061783,-9178.553681,766.095498
59555.641587,1110.308913,-10658.965565,1532.190996
59555.641897,888.247130,-10584.944971,2451.505594
59555.642207,-74.020594,-8734.430116,-76.609550
59555.642517,-1776.494261,-8364.327145,0.000000
59555.642826,-74.020594,-9474.636058,-76.609550
59555.643136,-2368.659014,-7179.997637,612.876398
59555.643446,-1036.288319,-8438.347739,153.219100
59555.643756,-296.082377,-9104.533087,612.876398
59555.644066,-444.123565,-9104.533087,383.047749
59555.644375,-444.123565,-8882.471304,919.314598
59555.644685,592.164754,-10436.903782,1455.581446
59555.644995,0.000000,-8956.491898,919.314598
59555.645305,-74.020594,-9474.636058,1149.143247
59555.645614,-1776.494261,-7772.162391,0.000000
59555.645924,-74.020594,-11843.295072,2374.896044
59555.646234,-2368.659014,-7179.997637,0.000000
59555.646544,-74.020594,-9178.553681,536.266849
59555.646854,-592.164754,-8882.471304,842.705048
59555.647163,-518.144159,-9326.594869,919.314598
59555.647473,-148.041188,-9252.574275,1072.533697
59555.647783,0.000000,-8364.327145,1225.752797
59555.648093,0.000000,-8660.409521,612.876398
59555.648402,-74.020594,-10658.965565,2068.457845
59555.648712,-1480.411884,-7772.162391,0.000000
59555.649022,2294.638420,-11843.295072,3294.210641
59555.649332,-2072.576638,-6587.832884,0.000000
59555.649642,-74.020594,-9474.636058,1455.581446
59555.649951,-296.082377,-9104.533087,995.924147
59555.650261,0.000000,-8956.491898,919.314598
59555.650571,-148.041188,-8956.491898,919.314598
59555.650881,0.000000,-7772.162391,153.219100
59555.651190,-2368.659014,-7772.162391,0.000000
59555.651500,296.082377,-10214.842000,2145.067394
59555.651810,-666.185348,-8438.347739,0.000000
59555.652120,2294.638420,-11547.212695,2374.896044
59555.652430,-666.185348,-7994.224174,-995.924147
59555.652739,0.000000,-9178.553681,1225.752797
59555.653049,-296.082377,-8956.491898,919.314598
59555.653359,-296.082377,-8882.471304,536.266849
59555.653669,-592.164754,-8956.491898,1072.533697
59555.653978,-2294.638420,-8364.327145,383.047749
59555.654288,-2072.576638,-7179.997637,0.000000
59555.654598,0.000000,-8956.491898,1532.190996
59555.654908,-74.020594,-8364.327145,-1455.581446
59555.655218,592.164754,-10140.821405,2451.505594
59555.655527,-74.020594,-9474.636058,-383.047749
59555.655837,-592.164754,-8956.491898,1225.752797
59555.656147,-74.020594,-9104.533087,842.705048
59555.656457,-370.102971,-8956.491898,766.095498
59555.656766,296.082377,-8734.430116,1072.533697
59555.657076,222.061783,-8290.306550,1762.019645
59555.657386,1110.308913,-8290.306550,842.705048
59555.657696,592.164754,-8364.327145,1838.629195
59555.658006,2294.638420,-9474.636058,-76.609550
59555.658315,592.164754,-8364.327145,1225.752797
59555.658625,4663.297435,-9474.636058,-76.609550
59555.658935,1776.494261,-8364.327145,612.876398
59555.659245,2960.823768,-9400.615463,1225.752797
59555.659554,3034.844362,-9326.594869,1149.143247
59555.659864,2516.700203,-9548.656652,689.485948
59555.660174,4071.132681,-10362.883188,2068.457845
59555.660484,4071.132681,-10066.800811,-76.609550
59555.660794,2368.659014,-7846.182985,0.000000
59555.661103,5329.482782,-11251.130318,3600.648841
59555.661413,2368.659014,-6587.832884,0.000000
59555.661723,7031.956449,-9474.636058,2987.772442
59555.662033,5329.482782,-8068.244768,1225.752797
59555.662342,5773.606348,-8808.450710,1685.410096
59555.662652,5181.441594,-8586.388927,459.657299
59555.662962,5403.503377,-8512.368333,153.219100
59555.663272,7031.956449,-9474.636058,1149.143247
59555.663581,7624.121203,-10066.800811,1149.143247
59555.663891,4737.318029,-8068.244768,-995.924147
59555.664201,7698.141797,-12509.480420,2757.943793
59555.664511,4663.297435,-11251.130318,-1302.362347
59555.664821,4145.153275,-13767.830521,2298.286494
59555.665130,2590.720797,-12657.521608,-76.609550
59555.665440,2072.576638,-11547.212695,459.657299
59555.665750,2294.638420,-9548.656652,766.095498
59555.666060,3182.885551,-7476.080014,1302.362347
59555.666369,4737.318029,-6291.750507,2451.505594
59555.666679,5921.647536,-4737.318029,2604.724693
59555.666989,7031.956449,-4441.235652,2374.896044
59555.667299,8290.306550,-4811.338623,4903.011187
59555.667609,10584.944971,-7994.224174,2987.772442
59555.667918,4737.318029,-10732.986159,3064.381992
59555.668228,4663.297435,-15396.283594,-306.438199
59555.668538,-1554.432478,-17246.798449,-1915.238745
59555.668848,-3552.988522,-18653.189738,-2757.943793
59555.669157,-3775.050304,-15914.427753,-2681.334243
59555.669467,-4145.153275,-10140.821405,-3677.258390
59555.669777,-3182.885551,-8956.491898,0.000000
59555.670087,2368.659014,-6587.832884,4519.963438
59555.670397,2294.638420,-5329.482782,3294.210641
59555.670706,5625.565159,-5403.503377,6435.202183
59555.671016,1480.411884,-4811.338623,4903.011187
59555.671326,2294.638420,-4737.318029,4213.525239
59555.671636,2442.679609,-4367.215058,3830.477490
59555.671945,4071.132681,-4071.132681,2911.162892
59555.672255,3182.885551,-5921.647536,1072.533697
59555.672565,0.000000,-9548.656652,-2145.067394
59555.672875,-4737.318029,-15470.304188,-3370.820191
59555.673185,-5033.400406,-21614.013506,-2451.505594
59555.673494,-4811.338623,-21317.931130,-3753.867940
59555.673804,-7994.224174,-12509.480420,-4903.011187
59555.674114,-3552.988522,-7179.997637,-3064.381992
59555.674424,2294.638420,-5921.647536,2068.457845
59555.674733,3627.009116,-5107.421000,4366.744339
59555.675043,5551.544565,-5181.441594,5515.887586
59555.675353,6735.874072,-4959.379811,6358.592633
59555.675663,8290.306550,-1998.556043,5439.278036
59555.675973,8290.306550,-1850.514855,5056.230287
59555.676282,8586.388927,-5551.544565,7890.783629
59555.676592,1702.473667,-7994.224174,0.000000
59555.676902,-2368.659014,-14285.974681,-1838.629195
59555.677212,-2812.782580,-15766.386565,-4903.011187
59555.677521,-3108.864956,-17690.922014,-5056.230287
59555.677831,-5477.523971,-16062.468941,-5362.668486
59555.678141,-5477.523971,-14804.118840,-4443.353888
59555.678451,-2072.576638,-10140.821405,-1915.238745
59555.678761,4367.215058,-5921.647536,2374.896044
59555.679070,9992.780217,296.082377,4213.525239
59555.679380,13027.624579,-74.020594,7354.516781
59555.679690,14137.933492,-4145.153275,8503.660028
59555.680000,9474.636058,-4219.173869,4903.011187
59555.680309,7179.997637,-6957.935855,1838.629195
59555.680619,2516.700203,-7994.224174,0.000000
59555.680929,-740.205942,-12435.459826,-3677.258390
59555.681239,-1998.556043,-16802.674883,-2834.553343
59555.681549,-814.226536,-18061.024985,-2528.115143
59555.681858,3478.967927,-16580.613101,-689.485948
59555.682168,4663.297435,-14211.954086,-76.609550
59555.682478,592.164754,-13027.624579,-1302.362347
59555.682788,0.000000,-13101.645173,1838.629195
59555.683097,8216.285956,-9474.636058,3600.648841
59555.683407,8216.285956,-4737.318029,4060.306139
59555.683717,5255.462188,-4663.297435,3064.381992
59555.684027,4441.235652,-6143.709319,2145.067394
59555.684336,6513.812290,-8364.327145,2451.505594
59555.684646,5921.647536,-9548.656652,4826.401637
59555.684956,2294.638420,-13619.789333,2987.772442
59555.685266,-666.185348,-14211.954086,-2528.115143
59555.685576,-4737.318029,-11917.315666,-7201.297681
59555.685885,-2368.659014,-14285.974681,-1225.752797
59555.686195,-370.102971,-12435.459826,-689.485948
59555.686505,3478.967927,-9992.780217,1608.800546
59555.686815,7846.182985,-5107.421000,3064.381992
59555.687124,7920.203579,-5625.565159,3907.087040
59555.687434,4663.297435,-6291.750507,4136.915689
59555.687744,3034.844362,-5551.544565,2757.943793
59555.688054,4441.235652,-7846.182985,2681.334243
59555.688364,3478.967927,-9178.553681,1072.533697
59555.688673,518.144159,-9548.656652,-2374.896044
59555.688983,1184.329507,-12509.480420,1838.629195
59555.689293,-666.185348,-13027.624579,-1915.238745
59555.689603,-1554.432478,-14508.036463,-1302.362347
59555.689912,-2590.720797,-12213.398043,-1072.533697
59555.690222,-518.144159,-8808.450710,689.485948
59555.690532,2738.761985,-7105.977043,1532.190996
59555.690842,4959.379811,-7772.162391,4290.134789
59555.691152,6513.812290,-6291.750507,5822.325785
59555.691461,5329.482782,-6291.750507,4596.572988
59555.691771,4663.297435,-9474.636058,3600.648841
59555.692081,0.000000,-4811.338623,0.000000
59555.692391,4515.256246,-11177.109724,3600.648841
59555.692700,2146.597232,-11843.295072,2987.772442
59555.693010,-1998.556043,-10510.924376,-919.314598
59555.693320,-2220.617826,-11325.150913,-2451.505594
59555.693630,-1332.370696,-11473.192101,-2068.457845
59555.693940,74.020594,-10510.924376,0.000000
59555.694249,2368.659014,-7179.997637,1225.752797
59555.694559,4737.318029,-7920.203579,2757.943793
59555.694869,8216.285956,-9474.636058,5745.716235
59555.695179,3627.009116,-5995.668130,1149.143247
59555.695488,4737.318029,-9548.656652,3753.867940
59555.695798,5181.441594,-9474.636058,3447.429741
59555.696108,4293.194464,-9178.553681,919.314598
59555.696418,1850.514855,-11325.150913,766.095498
59555.696728,-666.185348,-10510.924376,-383.047749
59555.697037,-666.185348,-9548.656652,-3294.210641
59555.697347,0.000000,-8660.409521,0.000000
59555.697657,2368.659014,-5995.668130,0.000000
59555.697967,5329.482782,-10732.986159,4596.572988
59555.698276,4071.132681,-5033.400406,-383.047749
59555.698586,2960.823768,-7476.080014,1149.143247
59555.698896,4737.318029,-11325.150913,2451.505594
59555.699206,6735.874072,-9104.533087,1455.581446
59555.699516,4811.338623,-9474.636058,995.924147
59555.699825,3108.864956,-10658.965565,229.828649
59555.700135,1628.453072,-10732.986159,-689.485948
59555.700445,1554.432478,-9548.656652,-1838.629195
59555.700755,1184.329507,-9548.656652,0.000000
59555.701064,3478.967927,-11843.295072,2987.772442
59555.701374,0.000000,-7179.997637,-2298.286494
59555.701684,2368.659014,-8808.450710,2987.772442
59555.701994,4589.276840,-7179.997637,2451.505594
59555.702303,5995.668130,-6735.874072,3600.648841
59555.702613,4071.132681,-7254.018232,2068.457845
59555.702923,2294.638420,-7476.080014,-153.219100
59555.703233,296.082377,-10658.965565,-76.609550
59555.703543,4071.132681,-9030.512492,-383.047749
59555.703852,2664.741391,-8660.409521,76.609550
59555.704162,4071.132681,-13915.871710,3294.210641
59555.704472,2294.638420,-12435.459826,-689.485948
59555.704782,0.000000,-10732.986159,-919.314598
59555.705091,2368.659014,-7476.080014,536.266849
59555.705401,0.000000,-9548.656652,1225.752797
59555.705711,1702.473667,-7994.224174,-229.828649
59555.706021,888.247130,-10510.924376,842.705048
59555.706330,6365.771101,-4589.276840,2374.896044
59555.706640,4293.194464,-6587.832884,995.924147
59555.706950,2664.741391,-3923.091493,1838.629195
59555.707260,4663.297435,-11843.295072,4519.963438
59555.707569,4071.132681,-8586.388927,842.705048
59555.707879,1184.329507,-9548.656652,2757.943793
59555.708189,-1184.329507,-9844.739029,1225.752797
59555.708499,-666.185348,-10658.965565,-995.924147
59555.708808,-518.144159,-11843.295072,-612.876398
59555.709118,1998.556043,-8364.327145,-612.876398
59555.709428,1702.473667,-9474.636058,2374.896044
59555.709738,3775.050304,-5329.482782,-76.609550
59555.710047,1480.411884,-8364.327145,766.095498
59555.710357,6439.791695,-10066.800811,4826.401637
59555.710667,-370.102971,-8882.471304,0.000000
59555.710977,0.000000,-7476.080014,1225.752797
59555.711286,0.000000,-7920.203579,0.000000
59555.711596,2368.659014,-8734.430116,383.047749
59555.711906,2146.597232,-9770.718434,1608.800546
59555.712216,4367.215058,-10140.821405,2681.334243
59555.712525,7031.956449,-10658.965565,4826.401637
59555.712835,7031.956449,-8882.471304,2374.896044
59555.713145,1258.350101,-7920.203579,0.000000
59555.713455,0.000000,-8364.327145,0.000000
59555.713764,-74.020594,-9474.636058,-689.485948
59555.714074,-2368.659014,-8068.244768,-3677.258390
59555.714384,-2368.659014,-8068.244768,-3370.820191
59555.714694,-592.164754,-11325.150913,-459.657299
59555.715003,2072.576638,-9918.759623,536.266849
59555.715313,2072.576638,-10214.842000,1608.800546
59555.715623,518.144159,-11251.130318,2374.896044
59555.715933,-74.020594,-9474.636058,3600.648841
59555.716242,1702.473667,-7105.977043,1455.581446
59555.716552,0.000000,-7179.997637,2451.505594
59555.716862,2886.803174,-7698.141797,2068.457845
59555.717172,1776.494261,-6587.832884,1225.752797
59555.717482,1702.473667,-7994.224174,842.705048
59555.717791,-2294.638420,-8216.285956,-612.876398
59555.718101,-5477.523971,-10066.800811,-2145.067394
59555.718411,-5329.482782,-9474.636058,-2604.724693
59555.718721,-3034.844362,-11399.171507,-76.609550
59555.719030,-1406.391290,-13619.789333,-76.609550
59555.719340,-370.102971,-11251.130318,995.924147
59555.719650,0.000000,-7179.997637,0.000000
59555.719960,1998.556043,-11251.130318,4826.401637
59555.720269,-2738.761985,-7179.997637,0.000000
59555.720579,-1554.432478,-7698.141797,1455.581446
59555.720889,-1036.288319,-5847.626942,1838.629195
59555.721199,-1776.494261,-7402.059420,2221.676944
59555.721508,-2738.761985,-8068.244768,842.705048
59555.721818,-2664.741391,-9696.697840,1532.190996
59555.722128,-1554.432478,-10658.965565,2145.067394
59555.722438,-3034.844362,-9474.636058,-689.485948
59555.722747,-7179.997637,-8364.327145,-3294.210641
59555.723057,-4737.318029,-9548.656652,0.000000
59555.723367,-1258.350101,-10510.924376,-1302.362347
59555.723677,-74.020594,-9474.636058,1149.143247
59555.723986,0.000000,-9992.780217,2451.505594
59555.724296,2960.823768,-8290.306550,3753.867940
59555.724606,2368.659014,-8438.347739,3370.820191
59555.724916,-1184.329507,-7772.162391,2757.943793
59555.725225,-740.205942,-9992.780217,3064.381992
59555.725535,-74.020594,-7698.141797,2374.896044
59555.725845,-3108.864956,-4811.338623,-2145.067394
59555.726155,0.000000,-10140.821405,1838.629195
59555.726464,-74.020594,-9474.636058,-689.485948
59555.726774,2294.638420,-11547.212695,-76.609550
59555.727084,-1184.329507,-9622.677246,-1455.581446
59555.727394,-3034.844362,-12361.439231,-1302.362347
59555.727703,-962.267725,-9696.697840,-536.266849
59555.728013,0.000000,-8364.327145,1225.752797
59555.728323,4737.318029,-8364.327145,4903.011187
59555.728633,6439.791695,-9474.636058,6052.154434
59555.728942,4071.132681,-4811.338623,1455.581446
59555.729252,4737.318029,-7772.162391,3677.258390
59555.729562,2294.638420,-8290.306550,-76.609550
59555.729872,-74.020594,-9474.636058,-76.609550
59555.730182,-2368.659014,-8586.388927,-2221.676944
59555.730491,-1776.494261,-10140.821405,-2145.067394
59555.730801,0.000000,-11621.233289,-1072.533697
59555.731111,592.164754,-9548.656652,0.000000
59555.731421,1480.411884,-10140.821405,1225.752797
59555.731730,1924.535449,-9918.759623,2451.505594
59555.732040,-1850.514855,-9474.636058,-76.609550
59555.732350,1184.329507,-9844.739029,2757.943793
59555.732660,5847.626942,-6513.812290,4826.401637
59555.732969,5551.544565,-8808.450710,6358.592633
59555.733279,3997.112087,-5403.503377,2298.286494
59555.733589,0.000000,-8660.409521,919.314598
59555.733899,-370.102971,-7476.080014,-1302.362347
59555.734208,-7550.100608,-10140.821405,-4290.134789
59555.734518,-9474.636058,-8364.327145,-4903.011187
59555.734828,-5033.400406,-11769.274478,-3064.381992
59555.735138,-74.020594,-11843.295072,-1302.362347
59555.735447,-2368.659014,-10732.986159,0.000000
59555.735757,3478.967927,-11843.295072,4826.401637
59555.736067,3404.947333,-9178.553681,3064.381992
59555.736377,1480.411884,-9770.718434,3140.991542
59555.736686,-74.020594,-8216.285956,2681.334243
59555.736996,0.000000,-8586.388927,3294.210641
59555.737306,962.267725,-3701.029710,1762.019645
59555.737616,-2368.659014,-4811.338623,0.000000
59555.737925,-1184.329507,-7476.080014,1225.752797
59555.738235,-74.020594,-11843.295072,2374.896044
59555.738545,-4737.318029,-7328.038826,-2911.162892
59555.738855,-6365.771101,-13397.727550,-689.485948
59555.739164,-6809.894666,-11029.068536,-1225.752797
59555.739474,-2886.803174,-11325.150913,-1072.533697
59555.739784,-296.082377,-9104.533087,1149.143247
59555.740094,888.247130,-8660.409521,2604.724693
59555.740403,3775.050304,-6809.894666,2374.896044
59555.740713,666.185348,-4071.132681,995.924147
59555.741023,-2368.659014,-7179.997637,612.876398
59555.741333,-74.020594,-11843.295072,2374.896044
59555.741642,-4737.318029,-7179.997637,0.000000
59555.741952,2294.638420,-10658.965565,3600.648841
59555.742262,-1776.494261,-7772.162391,0.000000
59555.742572,1258.350101,-8216.285956,1149.143247
59555.742881,2442.679609,-8882.471304,1838.629195
59555.743191,1258.350101,-9252.574275,995.924147
59555.743501,-666.185348,-12731.542202,-76.609550
59555.743811,-4811.338623,-10066.800811,-2528.115143
59555.744121,-3849.070898,-8364.327145,-3524.039291
59555.744430,1184.329507,-11029.068536,3064.381992
59555.744740,1702.473667,-7698.141797,1762.019645
59555.745050,4737.318029,-7772.162391,5515.887586
59555.745360,1776.494261,-4811.338623,1225.752797
59555.745669,-74.020594,-9548.656652,1608.800546
59555.745979,-2738.761985,-9474.636058,-612.876398
59555.746289,-3256.906145,-9178.553681,-612.876398
59555.746599,-1258.350101,-9474.636058,-1302.362347
59555.746908,-74.020594,-9474.636058,-1302.362347
59555.747218,1184.329507,-8364.327145,-1762.019645
59555.747528,4737.318029,-10140.821405,3064.381992
59555.747838,2886.803174,-10066.800811,1149.143247
59555.748147,-2368.659014,-9548.656652,0.000000
59555.748457,-3256.906145,-9548.656652,0.000000
59555.748767,0.000000,-9178.553681,1072.533697
59555.749077,0.000000,-8438.347739,1532.190996
59555.749386,-74.020594,-8216.285956,1455.581446
59555.749696,4071.132681,-9474.636058,3600.648841
59555.750006,6439.791695,-7105.977043,2374.896044
59555.750316,0.000000,-5773.606348,-689.485948
59555.750625,-3552.988522,-8364.327145,0.000000
59555.750935,-1850.514855,-11251.130318,-383.047749
59555.751245,-4737.318029,-7179.997637,-3064.381992
59555.751555,-3108.864956,-10436.903782,-1072.533697
59555.751864,592.164754,-9696.697840,0.000000
59555.752174,2516.700203,-9696.697840,1149.143247
59555.752484,2886.803174,-8808.450710,1685.410096
59555.752794,2146.597232,-11843.295072,3907.087040
59555.753103,2294.638420,-10658.965565,2374.896044
59555.753413,-74.020594,-6291.750507,-2757.943793
59555.753723,-592.164754,-10732.986159,2451.505594
59555.754033,-74.020594,-8290.306550,-76.609550
59555.754342,0.000000,-5995.668130,0.000000
59555.754652,4071.132681,-7105.977043,1149.143247
59555.754962,-592.164754,-9104.533087,306.438199
59555.755272,-3330.926739,-11029.068536,-689.485948
59555.755581,-3034.844362,-11621.233289,-1072.533697
59555.755891,-1184.329507,-12213.398043,2604.724693
59555.756201,-74.020594,-11843.295072,2374.896044
59555.756511,-74.020594,-9474.636058,-76.609550
59555.756821,592.164754,-6587.832884,2451.505594
59555.757130,3478.967927,-9474.636058,3600.648841
59555.757440,-2886.803174,-5403.503377,0.000000
59555.757750,-1850.514855,-7698.141797,-76.609550
59555.758060,-3552.988522,-7846.182985,0.000000
59555.758369,-4441.235652,-7550.100608,-766.095498
59555.758679,-3627.009116,-11251.130318,766.095498
59555.758989,2368.659014,-6883.915261,2757.943793
59555.759299,3034.844362,-11399.171507,3907.087040
59555.759608,-74.020594,-11251.130318,-76.609550
59555.759918,-5551.544565,-8438.347739,-2145.067394
59555.760228,-2368.659014,-10510.924376,766.095498
59555.760538,-1554.432478,-8882.471304,-76.609550
59555.760847,-370.102971,-11251.130318,2068.457845
59555.761157,962.267725,-8438.347739,1302.362347
59555.761467,3108.864956,-7698.141797,3370.820191
59555.761777,3182.885551,-6883.915261,2528.115143
59555.762086,-1776.494261,-6587.832884,2451.505594
59555.762396,-1776.494261,-7328.038826,1225.752797
59555.762706,-666.185348,-11843.295072,-76.609550
59555.763016,-4663.297435,-7179.997637,-1838.629195
59555.763325,-2072.576638,-11325.150913,1225.752797
59555.763635,3478.967927,-8882.471304,-76.609550
59555.763945,4367.215058,-9474.636058,2374.896044
59555.764255,1924.535449,-8808.450710,1838.629195
59555.764564,-740.205942,-9400.615463,612.876398
59555.764874,-1110.308913,-8956.491898,0.000000
59555.765184,-4145.153275,-7772.162391,0.000000
59555.765494,-2960.823768,-10732.986159,0.000000
59555.765803,-74.020594,-11843.295072,-76.609550
59555.766113,0.000000,-5995.668130,-1225.752797
59555.766423,3552.988522,-7179.997637,1838.629195
59555.766733,2886.803174,-9474.636058,-76.609550
59555.767042,814.226536,-9474.636058,1608.800546
59555.767352,-1554.432478,-10288.862594,-689.485948
59555.767662,-2220.617826,-11473.192101,0.000000
59555.767972,-1036.288319,-11177.109724,689.485948
59555.768281,0.000000,-7476.080014,0.000000
59555.768591,592.164754,-7772.162391,612.876398
59555.768901,2886.803174,-11843.295072,4826.401637
59555.769211,-2146.597232,-5995.668130,-1762.019645
59555.769520,-1184.329507,-9252.574275,842.705048
59555.769830,-666.185348,-9474.636058,-76.609550
59555.770140,-1924.535449,-10584.944971,0.000000
59555.770450,-740.205942,-9696.697840,536.266849
59555.770760,1480.411884,-8216.285956,766.095498
59555.771069,1628.453072,-7328.038826,1455.581446
59555.771379,0.000000,-6587.832884,-2145.067394
59555.771689,-3552.988522,-7772.162391,0.000000
59555.771999,-2368.659014,-9548.656652,612.876398
59555.772308,-74.020594,-13619.789333,2374.896044
59555.772618,-2368.659014,-9548.656652,0.000000
59555.772928,3256.906145,-11547.212695,4213.525239
59555.773238,2368.659014,-8068.244768,2451.505594
59555.773547,518.144159,-6883.915261,1225.752797
59555.773857,-1924.535449,-7994.224174,76.609550
59555.774167,-1924.535449,-8512.368333,383.047749
59555.774477,-3034.844362,-7624.121203,-1915.238745
59555.774786,-4737.318029,-7476.080014,0.000000
59555.775096,0.000000,-8364.327145,1225.752797
59555.775406,3478.967927,-9474.636058,2374.896044
59555.775716,0.000000,-8364.327145,1225.752797
59555.776025,1702.473667,-9474.636058,3600.648841
59555.776335,-2368.659014,-10140.821405,919.314598
59555.776645,-666.185348,-9178.553681,766.095498
59555.776955,-2072.576638,-10140.821405,1072.533697
59555.777264,-1406.391290,-9474.636058,1072.533697
59555.777574,-74.020594,-7698.141797,1149.143247
59555.777884,222.061783,-5181.441594,76.609550
59555.778194,0.000000,-5995.668130,0.000000
59555.778503,-74.020594,-10584.944971,2374.896044
59555.778813,-2294.638420,-7402.059420,-1685.410096
59555.779123,-1776.494261,-11917.315666,3064.381992
59555.779433,-2368.659014,-10140.821405,0.000000
59555.779742,370.102971,-11177.109724,1072.533697
59555.780052,2294.638420,-8068.244768,995.924147
59555.780362,1702.473667,-9400.615463,1762.019645
59555.780672,2294.638420,-9474.636058,-76.609550
59555.780981,-666.185348,-9474.636058,-689.485948
59555.781291,-4145.153275,-6587.832884,-2451.505594
59555.781601,-444.123565,-12731.542202,1685.410096
59555.781911,-1554.432478,-8660.409521,0.000000
59555.782220,1184.329507,-7179.997637,3064.381992
59555.782530,0.000000,-6883.915261,306.438199
59555.782840,370.102971,-8364.327145,459.657299
59555.783150,-592.164754,-8956.491898,459.657299
59555.783460,-370.102971,-9992.780217,153.219100
59555.783769,-74.020594,-11843.295072,-76.609550
59555.784079,-1258.350101,-11251.130318,-76.609550
59555.784389,-2146.597232,-9178.553681,-1915.238745
59555.784699,1924.535449,-9548.656652,1915.238745
59555.785008,370.102971,-7698.141797,536.266849
59555.785318,0.000000,-7179.997637,2451.505594
59555.785628,0.000000,-6291.750507,306.438199
59555.785938,0.000000,-8068.244768,1149.143247
59555.786247,-1332.370696,-9474.636058,995.924147
59555.786557,-370.102971,-8586.388927,995.924147
59555.786867,4071.132681,-10658.965565,3600.648841
59555.787177,4071.132681,-9474.636058,2374.896044
59555.787486,-3552.988522,-7179.997637,0.000000
59555.787796,814.226536,-10658.965565,2145.067394
59555.788106,-74.020594,-8882.471304,-76.609550
59555.788416,-3552.988522,-7179.997637,0.000000
59555.788725,-2146.597232,-10436.903782,383.047749
59555.789035,-296.082377,-9622.677246,612.876398
59555.789345,1406.391290,-8734.430116,1455.581446
59555.789655,962.267725,-8438.347739,2374.896044
59555.789964,1332.370696,-9474.636058,2374.896044
59555.790274,1702.473667,-9474.636058,3217.601092
59555.790584,-74.020594,-8290.306550,-76.609550
59555.790894,-3256.906145,-9548.656652,1225.752797
59555.791203,-1258.350101,-10510.924376,1149.143247
59555.791513,-2368.659014,-6291.750507,0.000000
59555.791823,1110.308913,-9030.512492,1149.143247
59555.792133,-1628.453072,-9548.656652,995.924147
59555.792442,-1480.411884,-9548.656652,919.314598
59555.792752,-1110.308913,-8734.430116,0.000000
59555.793062,-1184.329507,-10436.903782,1532.190996
59555.793372,-740.205942,-11917.315666,2451.505594
59555.793681,-74.020594,-10658.965565,-76.609550
59555.793991,0.000000,-5995.668130,0.000000
59555.794301,-74.020594,-8882.471304,1762.019645
59555.794611,-2960.823768,-6587.832884,0.000000
59555.794920,-74.020594,-8364.327145,842.705048
59555.795230,-1702.473667,-8734.430116,306.438199
59555.795540,-2960.823768,-9622.677246,0.000000
59555.795850,-1776.494261,-10362.883188,383.047749
59555.796159,0.000000,-8364.327145,2757.943793
59555.796469,1184.329507,-9844.739029,2451.505594
59555.796779,3478.967927,-11843.295072,3294.210641
59555.797089,0.000000,-6291.750507,0.000000
59555.797399,1480.411884,-8068.244768,2374.896044
59555.797708,-74.020594,-7698.141797,-689.485948
59555.798018,-74.020594,-10362.883188,1149.143247
59555.798328,222.061783,-9992.780217,76.609550
59555.798638,740.205942,-9918.759623,612.876398
59555.798947,-888.247130,-9992.780217,459.657299
59555.799257,-3256.906145,-8364.327145,0.000000
59555.799567,-74.020594,-9252.574275,1532.190996
59555.799877,-1184.329507,-7179.997637,0.000000
59555.800186,518.144159,-10140.821405,3600.648841
59555.800496,-2368.659014,-6587.832884,0.000000
59555.800806,4293.194464,-8808.450710,3907.087040
59555.801116,1776.494261,-8068.244768,1991.848295
59555.801425,-296.082377,-10214.842000,1072.533697
59555.801735,-1406.391290,-6069.688724,-842.705048
59555.802044,-3701.029710,-10436.903782,-459.657299
59555.802354,0.000000,-8068.244768,-1915.238745
59555.802664,-1702.473667,-8068.244768,-2221.676944
59555.802973,0.000000,-9844.739029,1225.752797
59555.803283,-74.020594,-9474.636058,-76.609550
59555.803592,-2368.659014,-9548.656652,612.876398
59555.803902,3478.967927,-9474.636058,2374.896044
59555.804212,-592.164754,-10362.883188,2451.505594
59555.804521,370.102971,-6735.874072,76.609550
59555.804831,-1554.432478,-11103.089130,2068.457845
59555.805140,1554.432478,-7624.121203,919.314598
59555.805450,370.102971,-8216.285956,1762.019645
59555.805760,-1776.494261,-8068.244768,1072.533697
59555.806069,-3256.906145,-9548.656652,-689.485948
59555.806379,-3182.885551,-7179.997637,0.000000
59555.806688,592.164754,-8956.491898,1378.971896
59555.806998,-74.020594,-10658.965565,-76.609550
59555.807307,-2590.720797,-7920.203579,-2221.676944
59555.807617,0.000000,-10732.986159,1072.533697
59555.807927,148.041188,-9252.574275,1532.190996
59555.808236,-2146.597232,-8364.327145,1225.752797
59555.808546,0.000000,-7179.997637,3064.381992
59555.808855,3552.988522,-8068.244768,4136.915689
59555.809165,1998.556043,-8882.471304,2374.896044
59555.809475,-3552.988522,-5995.668130,0.000000
59555.809784,-74.020594,-11547.212695,-76.609550
59555.810094,-2146.597232,-7476.080014,-2451.505594
59555.810403,-666.185348,-11843.295072,-76.609550
59555.810713,-3404.947333,-9622.677246,-383.047749
59555.811023,-1702.473667,-9400.615463,0.000000
59555.811332,1406.391290,-7624.121203,995.924147
59555.811642,2072.576638,-9844.739029,4213.525239
59555.811951,2294.638420,-11843.295072,4826.401637
59555.812261,-74.020594,-8882.471304,-76.609550
59555.812571,-2368.659014,-7476.080014,1225.752797
59555.812880,-2442.679609,-10658.965565,-76.609550
59555.813190,-3552.988522,-5995.668130,0.000000
59555.813499,3478.967927,-7105.977043,1762.019645
59555.813809,1998.556043,-7105.977043,1762.019645
59555.814119,-370.102971,-8734.430116,536.266849
59555.814428,-1332.370696,-10881.027347,-76.609550
59555.814738,0.000000,-10732.986159,1225.752797
59555.815047,-666.185348,-13619.789333,1455.581446
59555.815357,-1554.432478,-13027.624579,-76.609550
59555.815667,-3552.988522,-7179.997637,-1838.629195
59555.815976,3256.906145,-8882.471304,2298.286494
59555.816286,1702.473667,-5921.647536,1149.143247
59555.816595,1110.308913,-9474.636058,2374.896044
59555.816905,0.000000,-8512.368333,306.438199
59555.817215,-888.247130,-9844.739029,1149.143247
59555.817524,-1480.411884,-9474.636058,689.485948
59555.817834,-2368.659014,-8364.327145,612.876398
59555.818143,1184.329507,-8364.327145,2451.505594
59555.818453,2294.638420,-9474.636058,2374.896044
59555.818763,-2960.823768,-7179.997637,0.000000
59555.819072,1184.329507,-11325.150913,2451.505594
59555.819382,-74.020594,-8290.306550,-76.609550
59555.819691,-1554.432478,-11769.274478,-76.609550
59555.820001,-4441.235652,-10584.944971,-689.485948
59555.820311,-1776.494261,-7772.162391,0.000000
59555.820620,962.267725,-7105.977043,995.924147
59555.820930,0.000000,-6587.832884,1225.752797
59555.821239,1184.329507,-8364.327145,2451.505594
59555.821549,3478.967927,-12731.542202,4826.401637
59555.821859,-74.020594,-7402.059420,229.828649
59555.822168,-1184.329507,-9548.656652,1838.629195
59555.822478,-666.185348,-9474.636058,-76.609550
59555.822787,1110.308913,-9474.636058,1302.362347
59555.823097,592.164754,-9178.553681,536.266849
59555.823407,222.061783,-10288.862594,1532.190996
59555.823716,1702.473667,-9770.718434,1302.362347
59555.824026,0.000000,-6587.832884,0.000000
59555.824335,-4145.153275,-9548.656652,0.000000
59555.824645,-2368.659014,-10436.903782,2451.505594
59555.824955,-1258.350101,-8586.388927,-76.609550
59555.825264,1776.494261,-8364.327145,2451.505594
59555.825574,2294.638420,-9474.636058,2374.896044
59555.825883,592.164754,-10436.903782,2145.067394
59555.826193,518.144159,-8142.265362,459.657299
59555.826503,-2812.782580,-11695.253884,0.000000
59555.826812,-1776.494261,-10881.027347,612.876398
59555.827122,-3034.844362,-6143.709319,-2451.505594
59555.827431,-3552.988522,-6587.832884,0.000000
59555.827741,0.000000,-7179.997637,1225.752797
59555.828051,-74.020594,-9474.636058,-76.609550
59555.828360,0.000000,-7772.162391,612.876398
59555.828670,-74.020594,-11843.295072,3600.648841
59555.828979,-1776.494261,-8512.368333,612.876398
59555.829289,-1480.411884,-9474.636058,1455.581446
59555.829599,1924.535449,-6365.771101,1608.800546
59555.829908,1850.514855,-7624.121203,1072.533697
59555.830218,-370.102971,-6809.894666,-995.924147
59555.830527,-3256.906145,-8512.368333,-2451.505594
59555.830837,0.000000,-11325.150913,1225.752797
59555.831147,-74.020594,-12731.542202,-76.609550
59555.831456,-4145.153275,-9548.656652,-1838.629195
59555.831766,-74.020594,-11843.295072,2374.896044
59555.832075,888.247130,-7772.162391,153.219100
59555.832385,1924.535449,-8808.450710,2374.896044
59555.832695,222.061783,-9770.718434,2298.286494
59555.833004,888.247130,-8956.491898,2145.067394
59555.833314,1702.473667,-8882.471304,1762.019645
59555.833623,-1998.556043,-7550.100608,842.705048
59555.833933,-4737.318029,-5403.503377,0.000000
59555.834243,0.000000,-7328.038826,2451.505594
59555.834552,1702.473667,-7994.224174,1149.143247
59555.834862,592.164754,-8364.327145,2145.067394
59555.835171,-1184.329507,-9844.739029,0.000000
59555.835481,-962.267725,-10066.800811,-153.219100
59555.835791,-3108.864956,-10140.821405,-1838.629195
59555.836100,-3627.009116,-11473.192101,-2145.067394
59555.836410,-74.020594,-11843.295072,-689.485948
59555.836719,1110.308913,-7994.224174,-76.609550
59555.837029,0.000000,-5995.668130,0.000000
59555.837339,3182.885551,-11399.171507,3600.648841
59555.837648,2294.638420,-8142.265362,1762.019645
59555.837958,2368.659014,-8364.327145,4903.011187
59555.838267,0.000000,-8068.244768,1378.971896
59555.838577,-1850.514855,-9178.553681,995.924147
59555.838886,-296.082377,-8438.347739,766.095498
59555.839196,962.267725,-8882.471304,1302.362347
59555.839506,2294.638420,-9474.636058,2374.896044
59555.839815,-74.020594,-11251.130318,-76.609550
59555.840125,-74.020594,-9474.636058,-689.485948
59555.840434,-3552.988522,-9548.656652,0.000000
59555.840744,-1924.535449,-11547.212695,2374.896044
59555.841054,-4145.153275,-7179.997637,459.657299
59555.841363,-1998.556043,-5921.647536,-612.876398
59555.841673,-1332.370696,-8364.327145,0.000000
59555.841982,-370.102971,-8512.368333,1149.143247
59555.842292,1110.308913,-8956.491898,1532.190996
59555.842602,3182.885551,-10658.965565,3294.210641
59555.842911,-74.020594,-10658.965565,2374.896044
59555.843221,-3627.009116,-7105.977043,-1762.019645
59555.843530,-148.041188,-9844.739029,1378.971896
59555.843840,-740.205942,-8364.327145,0.000000
59555.844150,0.000000,-9548.656652,1225.752797
59555.844459,0.000000,-9622.677246,842.705048
59555.844769,1332.370696,-9918.759623,2221.676944
59555.845078,2072.576638,-7698.141797,2451.505594
59555.845388,0.000000,-8660.409521,2298.286494
59555.845698,-74.020594,-9474.636058,2374.896044
59555.846007,-74.020594,-9474.636058,2374.896044
59555.846317,-74.020594,-8290.306550,-689.485948
59555.846626,-2368.659014,-9548.656652,0.000000
59555.846936,-74.020594,-10658.965565,-76.609550
59555.847246,-4145.153275,-7179.997637,-3064.381992
59555.847555,-2442.679609,-10362.883188,-689.485948
59555.847865,-2072.576638,-9104.533087,0.000000
59555.848174,222.061783,-8882.471304,1225.752797
59555.848484,1850.514855,-8290.306550,1762.019645
59555.848794,2368.659014,-10732.986159,5056.230287
59555.849103,4071.132681,-10658.965565,4903.011187
59555.849413,4663.297435,-8290.306550,1149.143247
59555.849722,0.000000,-8364.327145,1225.752797
59555.850032,-3034.844362,-8882.471304,-689.485948
59555.850342,-3404.947333,-6587.832884,-2451.505594
59555.850651,-666.185348,-9178.553681,-76.609550
59555.850961,-1554.432478,-9992.780217,76.609550
59555.851270,-148.041188,-10288.862594,919.314598
59555.851580,1850.514855,-9622.677246,1532.190996
59555.851890,0.000000,-8364.327145,2451.505594
59555.852199,-1332.370696,-9844.739029,0.000000
59555.852509,-74.020594,-11843.295072,-76.609550
59555.852818,-3552.988522,-7179.997637,0.000000
59555.853128,518.144159,-9474.636058,2374.896044
59555.853438,-666.185348,-7994.224174,-689.485948
59555.853747,2294.638420,-9178.553681,2681.334243
59555.854057,2368.659014,-6735.874072,766.095498
59555.854366,-814.226536,-8068.244768,842.705048
59555.854676,-2960.823768,-9326.594869,459.657299
59555.854986,-2960.823768,-8364.327145,0.000000
59555.855295,0.000000,-9548.656652,0.000000
59555.855605,962.267725,-11843.295072,2374.896044
59555.855914,-74.020594,-9474.636058,229.828649
59555.856224,1776.494261,-8660.409521,2451.505594
59555.856534,4663.297435,-7698.141797,1762.019645
59555.856843,-74.020594,-10066.800811,1991.848295
59555.857153,-2738.761985,-9178.553681,459.657299
59555.857462,-1850.514855,-8956.491898,-383.047749
59555.857772,-2146.597232,-9474.636058,-383.047749
59555.858082,-4737.318029,-7476.080014,0.000000
59555.858391,0.000000,-8364.327145,0.000000
59555.858701,5847.626942,-9474.636058,4060.306139
59555.859010,518.144159,-7031.956449,536.266849
59555.859320,-1480.411884,-10658.965565,2374.896044
59555.859630,-1258.350101,-11251.130318,-76.609550
59555.859939,-148.041188,-8364.327145,689.485948
59555.860249,-2960.823768,-11695.253884,1149.143247
59555.860558,1924.535449,-8512.368333,2221.676944
59555.860868,3552.988522,-7772.162391,2451.505594
59555.861178,1184.329507,-5403.503377,0.000000
59555.861487,-4145.153275,-5995.668130,-2451.505594
59555.861797,-4145.153275,-12213.398043,1225.752797
59555.862106,-1850.514855,-9178.553681,-2528.115143
59555.862416,-3552.988522,-10140.821405,919.314598
59555.862726,-74.020594,-10658.965565,-76.609550
59555.863035,0.000000,-10140.821405,2451.505594
59555.863345,5033.400406,-7179.997637,1685.410096
59555.863654,2368.659014,-9696.697840,2757.943793
59555.863964,-888.247130,-7994.224174,2068.457845
59555.864274,-1480.411884,-8068.244768,0.000000
59555.864583,0.000000,-6883.915261,536.266849
59555.864893,0.000000,-8364.327145,1532.190996
59555.865202,1702.473667,-9474.636058,1762.019645
59555.865512,1184.329507,-7476.080014,0.000000
59555.865822,4367.215058,-11251.130318,3600.648841
59555.866131,-2960.823768,-9548.656652,-1225.752797
59555.866441,-5255.462188,-11621.233289,-1302.362347
59555.866750,-3701.029710,-9474.636058,-842.705048
59555.867060,-888.247130,-9622.677246,536.266849
59555.867370,1110.308913,-7105.977043,842.705048
59555.867679,1998.556043,-6809.894666,1149.143247
59555.867989,2368.659014,-5995.668130,2451.505594
59555.868298,4071.132681,-9474.636058,2374.896044
59555.868608,-2072.576638,-8364.327145,1225.752797
59555.868917,-74.020594,-12731.542202,-76.609550
59555.869227,-2368.659014,-9548.656652,-919.314598
59555.869537,-1924.535449,-11251.130318,229.828649
59555.869846,-148.041188,-10140.821405,612.876398
59555.870156,2072.576638,-8734.430116,1455.581446
59555.870465,2294.638420,-7994.224174,-76.609550
59555.870775,-1258.350101,-9474.636058,-76.609550
59555.871085,-4441.235652,-6587.832884,0.000000
59555.871394,962.267725,-9474.636058,2911.162892
59555.871704,148.041188,-7624.121203,0.000000
59555.872013,1184.329507,-9992.780217,3677.258390
59555.872323,0.000000,-7328.038826,153.219100
59555.872633,1924.535449,-7846.182985,1225.752797
59555.872942,888.247130,-8956.491898,1302.362347
59555.873252,-1480.411884,-9104.533087,153.219100
59555.873561,-1258.350101,-10658.965565,-76.609550
59555.873871,-2442.679609,-11843.295072,-76.609550
59555.874181,-5773.606348,-8364.327145,-2451.505594
59555.874490,-296.082377,-11621.233289,2145.067394
59555.874800,2294.638420,-7698.141797,-76.609550
59555.875109,1184.329507,-7179.997637,3064.381992
59555.875419,0.000000,-7920.203579,2145.067394
59555.875729,-518.144159,-8586.388927,1685.410096
59555.876038,-814.226536,-9104.533087,1072.533697
59555.876348,-1554.432478,-9474.636058,1072.533697
59555.876657,-74.020594,-11251.130318,2374.896044
59555.876967,3478.967927,-11547.212695,3600.648841
59555.877277,-74.020594,-7105.977043,229.828649
59555.877586,0.000000,-9548.656652,1225.752797
59555.877896,-1258.350101,-9474.636058,-76.609550
59555.878205,-4737.318029,-7772.162391,0.000000
59555.878515,-2960.823768,-9400.615463,-536.266849
59555.878825,-1628.453072,-8734.430116,842.705048
59555.879134,740.205942,-8660.409521,1378.971896
59555.879444,2590.720797,-8586.388927,1915.238745
59555.879753,4663.297435,-10658.965565,3983.696590
59555.880063,3182.885551,-11843.295072,4519.963438
59555.880373,-1554.432478,-7698.141797,-689.485948
59555.880682,-1184.329507,-9548.656652,1532.190996
59555.880992,-666.185348,-9474.636058,-76.609550
59555.881301,-4145.153275,-7179.997637,0.000000
59555.881611,222.061783,-9474.636058,842.705048
59555.881921,1332.370696,-9030.512492,1149.143247
59555.882230,370.102971,-8586.388927,306.438199
59555.882540,-1924.535449,-9030.512492,0.000000
59555.882849,-740.205942,-10140.821405,612.876398
59555.883159,592.164754,-10140.821405,2451.505594
59555.883469,-74.020594,-8882.471304,-76.609550
59555.883778,0.000000,-8364.327145,612.876398
59555.884088,3478.967927,-11843.295072,3600.648841
59555.884397,0.000000,-5995.668130,612.876398
59555.884707,-74.020594,-8586.388927,1455.581446
59555.885017,-3478.967927,-9770.718434,-536.266849
59555.885326,-740.205942,-10732.986159,919.314598
59555.885636,1036.288319,-8364.327145,995.924147
59555.885945,-1628.453072,-10732.986159,1225.752797
59555.886255,-1184.329507,-8364.327145,1225.752797
59555.886565,-666.185348,-9474.636058,-995.924147
59555.886874,0.000000,-7772.162391,0.000000
59555.887184,-1258.350101,-11251.130318,-76.609550
59555.887493,-3849.070898,-6069.688724,-1838.629195
59555.887803,-74.020594,-9474.636058,1149.143247
59555.888113,-740.205942,-8068.244768,612.876398
59555.888422,-814.226536,-9474.636058,919.314598
59555.888732,148.041188,-7772.162391,1762.019645
59555.889041,1184.329507,-7476.080014,1225.752797
59555.889351,0.000000,-7179.997637,306.438199
59555.889661,592.164754,-10807.006753,2145.067394
59555.889970,-1258.350101,-10658.965565,-76.609550
59555.890280,-592.164754,-10732.986159,2451.505594
59555.890589,-74.020594,-9474.636058,-1302.362347
59555.890899,1406.391290,-10066.800811,1608.800546
59555.891209,1628.453072,-7624.121203,1915.238745
59555.891518,1480.411884,-8364.327145,2145.067394
59555.891828,74.020594,-8660.409521,1608.800546
59555.892137,-2368.659014,-7179.997637,0.000000
59555.892447,-4737.318029,-7179.997637,0.000000
59555.892757,-1258.350101,-10658.965565,2145.067394
59555.893066,-1258.350101,-7772.162391,-383.047749
59555.893376,3478.967927,-10658.965565,4213.525239
59555.893685,2294.638420,-8882.471304,-383.047749
59555.893995,-1776.494261,-9844.739029,306.438199
59555.894305,-1776.494261,-9474.636058,-229.828649
59555.894614,-814.226536,-9326.594869,-153.219100
59555.894924,-814.226536,-9696.697840,459.657299
59555.895233,-2368.659014,-8068.244768,0.000000
59555.895543,0.000000,-5995.668130,0.000000
59555.895853,4737.318029,-8956.491898,4290.134789
59555.896162,1406.391290,-7031.956449,1455.581446
59555.896472,-74.020594,-9844.739029,3677.258390
59555.896781,-74.020594,-10658.965565,-76.609550
59555.897091,-3256.906145,-10807.006753,306.438199
59555.897401,-3108.864956,-11177.109724,0.000000
59555.897710,-222.061783,-9992.780217,842.705048
59555.898020,2812.782580,-8512.368333,2298.286494
59555.898329,222.061783,-5995.668130,76.609550
59555.898639,-3034.844362,-5403.503377,-1762.019645
59555.898949,-888.247130,-10140.821405,1532.190996
59555.899258,-1258.350101,-8734.430116,-995.924147
59555.899568,-74.020594,-11917.315666,2298.286494
59555.899877,-74.020594,-11251.130318,-76.609550
59555.900187,-888.247130,-9548.656652,0.000000
59555.900496,1258.350101,-8734.430116,536.266849
59555.900806,0.000000,-9474.636058,612.876398
59555.901116,-1480.411884,-9622.677246,536.266849
59555.901425,-1258.350101,-8290.306550,-689.485948
59555.901735,-74.020594,-9474.636058,-76.609550
59555.902044,-2960.823768,-8364.327145,0.000000
59555.902354,1702.473667,-10510.924376,3600.648841
59555.902664,4071.132681,-7105.977043,-76.609550
59555.902973,2220.617826,-8290.306550,2374.896044
59555.903283,-1480.411884,-8956.491898,919.314598
59555.903592,0.000000,-8216.285956,766.095498
59555.903902,148.041188,-8882.471304,689.485948
59555.904211,-814.226536,-9474.636058,536.266849
59555.904521,-1850.514855,-11547.212695,-76.609550
59555.904830,-74.020594,-10658.965565,-76.609550
59555.905140,0.000000,-9548.656652,0.000000
59555.905449,-74.020594,-10658.965565,1762.019645
59555.905759,-4145.153275,-5995.668130,0.000000
59555.906068,2368.659014,-10362.883188,4136.915689
59555.906378,2294.638420,-9474.636058,2374.896044
59555.906687,1110.308913,-9474.636058,2681.334243
59555.906997,370.102971,-7550.100608,1302.362347
59555.907306,1258.350101,-7920.203579,1225.752797
59555.907616,1998.556043,-9178.553681,1762.019645
59555.907925,-74.020594,-11843.295072,-76.609550
59555.908235,-3552.988522,-7772.162391,-1532.190996
59555.908544,1036.288319,-10658.965565,1149.143247
59555.908854,-3256.906145,-7179.997637,0.000000
59555.909164,-1184.329507,-10584.944971,3370.820191
59555.909473,444.123565,-9844.739029,842.705048
59555.909783,888.247130,-8438.347739,995.924147
59555.910092,148.041188,-8808.450710,1455.581446
59555.910402,222.061783,-8882.471304,995.924147
59555.910711,3404.947333,-9474.636058,2451.505594
59555.911021,3478.967927,-10658.965565,3294.210641
59555.911330,-2146.597232,-7994.224174,-383.047749
59555.911640,-2960.823768,-10732.986159,2068.457845
59555.911949,-1258.350101,-9474.636058,-1302.362347
59555.912259,-3552.988522,-9548.656652,153.219100
59555.912568,-1850.514855,-9030.512492,-76.609550
59555.912878,-1258.350101,-8586.388927,689.485948
59555.913187,444.123565,-7920.203579,1302.362347
59555.913497,0.000000,-8586.388927,995.924147
59555.913806,222.061783,-10584.944971,1991.848295
59555.914116,2072.576638,-10140.821405,3753.867940
59555.914425,0.000000,-8438.347739,536.266849
59555.914735,-592.164754,-8290.306550,1762.019645
59555.915044,-2442.679609,-9474.636058,-689.485948
59555.915354,740.205942,-7179.997637,919.314598
59555.915663,3182.885551,-8290.306550,2374.896044
59555.915973,-444.123565,-10288.862594,1532.190996
59555.916282,-1480.411884,-9400.615463,229.828649
59555.916592,-592.164754,-10584.944971,1149.143247
59555.916901,1184.329507,-8660.409521,1225.752797
59555.917211,-2368.659014,-9548.656652,1225.752797
59555.917520,-74.020594,-7698.141797,-76.609550
59555.917830,-1776.494261,-8364.327145,0.000000
59555.918139,3478.967927,-9474.636058,-76.609550
59555.918449,-2368.659014,-8660.409521,0.000000
59555.918758,-1702.473667,-8808.450710,766.095498
59555.919068,-962.267725,-9844.739029,306.438199
59555.919377,-1480.411884,-9252.574275,1225.752797
59555.919687,-1628.453072,-7772.162391,229.828649
59555.919996,0.000000,-7772.162391,306.438199
59555.920306,0.000000,-7179.997637,0.000000
59555.920615,-74.020594,-12435.459826,2374.896044
59555.920925,-370.102971,-8956.491898,0.000000
59555.921234,1776.494261,-10436.903782,3064.381992
59555.921544,666.185348,-7920.203579,0.000000
59555.921853,-666.185348,-9844.739029,1149.143247
59555.922163,-1554.432478,-9030.512492,229.828649
59555.922472,-518.144159,-8956.491898,383.047749
59555.922782,-222.061783,-9400.615463,612.876398
59555.923091,0.000000,-7772.162391,0.000000
59555.923401,0.000000,-8364.327145,0.000000
59555.923710,1702.473667,-11843.295072,2374.896044
59555.924020,-1406.391290,-7476.080014,0.000000
59555.924329,-74.020594,-9474.636058,1762.019645
59555.924639,-370.102971,-7105.977043,-1225.752797
59555.924948,0.000000,-9252.574275,612.876398
59555.925258,-296.082377,-9622.677246,1225.752797
59555.925567,1406.391290,-9548.656652,1685.410096
59555.925877,2368.659014,-8216.285956,2374.896044
59555.926186,0.000000,-7179.997637,0.000000
59555.926496,-3552.988522,-6587.832884,0.000000
59555.926805,-74.020594,-10140.821405,1532.190996
59555.927115,74.020594,-8586.388927,0.000000
59555.927424,-74.020594,-11843.295072,-76.609550
59555.927734,-666.185348,-9474.636058,-1762.019645
59555.928043,0.000000,-9104.533087,766.095498
59555.928353,518.144159,-8586.388927,1455.581446
59555.928662,-592.164754,-8438.347739,1608.800546
59555.928972,-666.185348,-7476.080014,1762.019645
59555.929281,0.000000,-6957.935855,842.705048
59555.929591,0.000000,-7179.997637,0.000000
59555.929900,444.123565,-10362.883188,2451.505594
59555.930210,-740.205942,-9326.594869,-2451.505594
59555.930520,1184.329507,-11621.233289,2374.896044
59555.930829,-1258.350101,-9474.636058,-689.485948
59555.931139,-2368.659014,-9548.656652,0.000000
59555.931448,0.000000,-8586.388927,76.609550
59555.931758,1184.329507,-8734.430116,1225.752797
59555.932067,222.061783,-9326.594869,2987.772442
59555.932377,-1332.370696,-9474.636058,-76.609550
59555.932686,-666.185348,-7698.141797,-689.485948
59555.932996,0.000000,-9548.656652,1225.752797
59555.933305,1110.308913,-7698.141797,-76.609550
59555.933615,0.000000,-7772.162391,1225.752797
59555.933924,2294.638420,-8290.306550,-76.609550
59555.934234,-1184.329507,-8956.491898,153.219100
59555.934543,-1184.329507,-9696.697840,306.438199
59555.934853,-1406.391290,-10288.862594,-383.047749
59555.935162,-1850.514855,-9844.739029,-76.609550
59555.935472,-2442.679609,-10658.965565,-76.609550
59555.935781,-2442.679609,-9474.636058,-383.047749
59555.936091,0.000000,-7179.997637,1225.752797
59555.936400,3478.967927,-7105.977043,2374.896044
59555.936710,0.000000,-5403.503377,1225.752797
59555.937019,2294.638420,-9474.636058,2987.772442
59555.937329,592.164754,-9252.574275,1532.190996
59555.937638,-148.041188,-10584.944971,1455.581446
59555.937948,-1702.473667,-9548.656652,383.047749
59555.938257,-1036.288319,-8438.347739,0.000000
59555.938567,2294.638420,-10288.862594,1762.019645
59555.938876,2294.638420,-9474.636058,-76.609550
59555.939186,-1776.494261,-7772.162391,153.219100
59555.939495,-74.020594,-11843.295072,2987.772442
59555.939805,-4737.318029,-7476.080014,0.000000
59555.940114,-1480.411884,-10214.842000,1762.019645
59555.940424,-2220.617826,-8956.491898,306.438199
59555.940733,-1628.453072,-6883.915261,536.266849
59555.941043,592.164754,-8290.306550,1302.362347
59555.941352,2960.823768,-5477.523971,1225.752797
59555.941662,3478.967927,-11029.068536,4213.525239
59555.941971,3478.967927,-11251.130318,2374.896044
59555.942281,-2294.638420,-9104.533087,-689.485948
59555.942590,-962.267725,-13027.624579,2374.896044
59555.942900,-2146.597232,-8808.450710,-1302.362347
59555.943209,-1184.329507,-9474.636058,1762.019645
59555.943519,-148.041188,-8734.430116,-76.609550
59555.943828,0.000000,-8364.327145,1072.533697
59555.944138,1036.288319,-9696.697840,1378.971896
59555.944447,-518.144159,-9548.656652,0.000000
59555.944757,-1332.370696,-9400.615463,612.876398
59555.945066,-592.164754,-10881.027347,1608.800546
59555.945376,-74.020594,-6069.688724,76.609550
59555.945685,1776.494261,-7772.162391,3677.258390
59555.945995,2886.803174,-8290.306550,1762.019645
59555.946304,0.000000,-10140.821405,919.314598
59555.946614,-370.102971,-12139.377449,-76.609550
59555.946923,-1702.473667,-11843.295072,229.828649
59555.947233,-1924.535449,-11251.130318,766.095498
59555.947542,148.041188,-7476.080014,-689.485948
59555.947852,1480.411884,-7179.997637,0.000000
59555.948161,3849.070898,-8882.471304,3370.820191
59555.948471,370.102971,-7105.977043,689.485948
59555.948780,0.000000,-7179.997637,1225.752797
59555.949090,-74.020594,-11843.295072,2374.896044
59555.949399,-1184.329507,-9548.656652,1225.752797
59555.949709,-814.226536,-10066.800811,1225.752797
59555.950018,0.000000,-7772.162391,842.705048
59555.950328,666.185348,-7254.018232,1225.752797
59555.950637,222.061783,-7402.059420,-76.609550
59555.950947,-1776.494261,-8660.409521,0.000000
59555.951256,-1184.329507,-10140.821405,1225.752797
59555.951566,-74.020594,-12435.459826,1149.143247
59555.951875,-4737.318029,-7179.997637,0.000000
59555.952185,-74.020594,-9474.636058,2374.896044
59555.952495,592.164754,-5995.668130,1225.752797
59555.952804,1554.432478,-6883.915261,1762.019645
59555.953114,-518.144159,-8290.306550,1072.533697
59555.953423,74.020594,-9104.533087,919.314598
59555.953733,-444.123565,-9474.636058,1149.143247
59555.954042,-3552.988522,-9548.656652,-1072.533697
59555.954352,-4737.318029,-9548.656652,0.000000
59555.954661,-74.020594,-9474.636058,-76.609550
59555.954971,0.000000,-7179.997637,0.000000
59555.955280,3182.885551,-10658.965565,4213.525239
59555.955590,592.164754,-9548.656652,612.876398
59555.955899,740.205942,-9474.636058,1072.533697
59555.956209,-1406.391290,-10436.903782,612.876398
59555.956518,-3034.844362,-9696.697840,536.266849
59555.956828,-1998.556043,-9178.553681,-76.609550
59555.957137,0.000000,-5699.585753,-76.609550
59555.957447,0.000000,-6291.750507,612.876398
59555.957756,2294.638420,-10362.883188,2374.896044
59555.958066,0.000000,-7772.162391,1225.752797
59555.958375,-74.020594,-10658.965565,1608.800546
59555.958685,-3552.988522,-9548.656652,-1532.190996
59555.958994,-2072.576638,-11029.068536,612.876398
59555.959304,-1332.370696,-8660.409521,0.000000
59555.959613,-2220.617826,-8512.368333,0.000000
59555.959923,-74.020594,-8882.471304,2374.896044
59555.960232,2294.638420,-7105.977043,2374.896044
59555.960542,1480.411884,-5995.668130,1225.752797
59555.960851,0.000000,-8068.244768,2451.505594
59555.961161,-2442.679609,-8290.306550,-689.485948
59555.961470,0.000000,-8364.327145,0.000000
59555.961780,0.000000,-7994.224174,-536.266849
59555.962089,-1332.370696,-8216.285956,-919.314598
59555.962399,-1702.473667,-10362.883188,-766.095498
59555.962708,2220.617826,-10732.986159,842.705048
59555.963018,3478.967927,-11621.233289,3600.648841
59555.963327,-74.020594,-10658.965565,2987.772442
59555.963637,-1406.391290,-7846.182985,0.000000
59555.963946,1480.411884,-8068.244768,2604.724693
59555.964256,0.000000,-5995.668130,612.876398
59555.964565,2886.803174,-9474.636058,1991.848295
59555.964875,-74.020594,-7698.141797,536.266849
59555.965184,740.205942,-8364.327145,536.266849
59555.965494,-814.226536,-9844.739029,459.657299
59555.965803,-3627.009116,-10807.006753,-383.047749
59555.966113,-2072.576638,-10288.862594,612.876398
59555.966422,-74.020594,-11251.130318,-76.609550
59555.966732,-74.020594,-10066.800811,-76.609550
59555.967041,-1480.411884,-8364.327145,0.000000
59555.967351,2368.659014,-10732.986159,3677.258390
59555.967660,3478.967927,-8290.306550,1149.143247
59555.967970,-370.102971,-8290.306550,1149.143247
59555.968279,-2738.761985,-8216.285956,383.047749
59555.968589,-296.082377,-7698.141797,1072.533697
59555.968898,370.102971,-8216.285956,995.924147
59555.969208,0.000000,-8364.327145,1838.629195
59555.969517,1110.308913,-11695.253884,2374.896044
59555.969827,-74.020594,-9474.636058,-76.609550
59555.970136,-3997.112087,-9548.656652,-3064.381992
59555.970446,-3849.070898,-12213.398043,1072.533697
59555.970755,-2738.761985,-8512.368333,-1302.362347
59555.971065,2294.638420,-8734.430116,1762.019645
59555.971374,1258.350101,-8216.285956,1915.238745
59555.971684,814.226536,-8290.306550,1915.238745
59555.971993,1776.494261,-7698.141797,1838.629195
59555.972303,592.164754,-7179.997637,612.876398
59555.972612,-74.020594,-10436.903782,1838.629195
59555.972922,-1258.350101,-9474.636058,-76.609550
59555.973231,-2368.659014,-9548.656652,0.000000
59555.973541,3478.967927,-10658.965565,-76.609550
59555.973850,-1554.432478,-7698.141797,-383.047749
59555.974160,1110.308913,-10658.965565,1915.238745
59555.974470,1036.288319,-9326.594869,995.924147
59555.974779,1776.494261,-9918.759623,2145.067394
59555.975089,148.041188,-9622.677246,2451.505594
59555.975398,-1776.494261,-6291.750507,0.000000
59555.975708,0.000000,-7179.997637,1225.752797
59555.976017,-74.020594,-9474.636058,1838.629195
59555.976327,-592.164754,-7772.162391,0.000000
59555.976636,4663.297435,-10658.965565,2987.772442
59555.976946,0.000000,-8290.306550,-383.047749
59555.977255,-1036.288319,-11325.150913,995.924147
59555.977565,-2220.617826,-10288.862594,-612.876398
59555.977874,-2072.576638,-9992.780217,0.000000
59555.978184,-1332.370696,-9104.533087,153.219100
59555.978493,-1776.494261,-8364.327145,0.000000
59555.978803,0.000000,-7179.997637,1225.752797
59555.979112,2812.782580,-9252.574275,3217.601092
59555.979422,-74.020594,-7476.080014,-1072.533697
59555.979731,-74.020594,-10658.965565,2374.896044
59555.980041,-1554.432478,-8290.306550,-76.609550
59555.980350,-888.247130,-9548.656652,1225.752797
59555.980660,-1258.350101,-9844.739029,842.705048
59555.980969,-444.123565,-10362.883188,383.047749
59555.981279,592.164754,-9844.739029,1149.143247
59555.981588,-444.123565,-8438.347739,-383.047749
59555.981898,-4737.318029,-8364.327145,0.000000
59555.982207,-1776.494261,-8956.491898,1225.752797
59555.982517,1702.473667,-7105.977043,-76.609550
59555.982826,1184.329507,-9252.574275,3370.820191
59555.983136,2294.638420,-9474.636058,3600.648841
59555.983445,592.164754,-8364.327145,2451.505594
59555.983755,2442.679609,-7994.224174,1455.581446
59555.984064,-518.144159,-9474.636058,612.876398
59555.984374,-2294.638420,-9474.636058,0.000000
59555.984683,-1998.556043,-8512.368333,-689.485948
59555.984993,-2960.823768,-7772.162391,-1532.190996
59555.985302,0.000000,-8364.327145,306.438199
59555.985612,1998.556043,-13915.871710,3600.648841
59555.985921,0.000000,-5403.503377,0.000000
59555.986231,2368.659014,-10732.986159,3677.258390
59555.986540,0.000000,-7179.997637,306.438199
59555.986850,-1036.288319,-8956.491898,995.924147
59555.987159,-370.102971,-8290.306550,459.657299
59555.987469,-962.267725,-9252.574275,383.047749
59555.987778,-74.020594,-9474.636058,-76.609550
59555.988088,1110.308913,-7846.182985,229.828649
59555.988397,0.000000,-7772.162391,306.438199
59555.988707,-74.020594,-11843.295072,-76.609550
59555.989016,-4737.318029,-8364.327145,0.000000
59555.989326,-74.020594,-11695.253884,1838.629195
59555.989635,-1480.411884,-9548.656652,0.000000
59555.989945,-370.102971,-9844.739029,1455.581446
59555.990254,-74.020594,-9326.594869,1378.971896
59555.990564,1850.514855,-7105.977043,1608.800546
59555.990873,3182.885551,-8882.471304,3600.648841
59555.991183,-370.102971,-7105.977043,-76.609550
59555.991492,-4145.153275,-7179.997637,0.000000
59555.991802,-666.185348,-11843.295072,-76.609550
59555.992111,-4737.318029,-8364.327145,0.000000
59555.992421,-1480.411884,-11177.109724,0.000000
59555.992730,-1184.329507,-9548.656652,0.000000
59555.993040,2072.576638,-7920.203579,1225.752797
59555.993349,1702.473667,-8512.368333,2221.676944
59555.993659,222.061783,-9252.574275,2145.067394
59555.993968,1110.308913,-10658.965565,4213.525239
59555.994278,-74.020594,-10658.965565,2068.457845
59555.994587,-2664.741391,-7772.162391,306.438199
59555.994897,-148.041188,-10807.006753,3983.696590
59555.995206,0.000000,-5847.626942,229.828649
59555.995516,0.000000,-7179.997637,0.000000
59555.995825,-370.102971,-7698.141797,995.924147
59555.996135,-740.205942,-7772.162391,612.876398
59555.996445,-1554.432478,-8882.471304,-383.047749
59555.996754,-2812.782580,-10362.883188,-612.876398
59555.997064,-2442.679609,-12139.377449,1149.143247
59555.997373,-74.020594,-11843.295072,-76.609550
59555.997683,1406.391290,-8142.265362,383.047749
59555.997992,2812.782580,-9400.615463,4290.134789
59555.998302,-74.020594,-7105.977043,-76.609550
59555.998611,0.000000,-5995.668130,0.000000
59555.998921,-74.020594,-9474.636058,536.266849
59555.999230,-2294.638420,-10214.842000,612.876398
59555.999540,-1480.411884,-11029.068536,919.314598
59555.999849,2590.720797,-8512.368333,1762.019645
59556.000159,3552.988522,-7772.162391,3677.258390
59556.000468,2294.638420,-9474.636058,3524.039291
59556.000778,-74.020594,-8882.471304,-76.609550
59556.001087,-3552.988522,-7179.997637,0.000000
59556.001397,-74.020594,-13619.789333,-76.609550
59556.001706,-5921.647536,-8364.327145,-2374.896044
59556.002016,-74.020594,-10658.965565,-76.609550
59556.002325,-444.123565,-7772.162391,76.609550
59556.002635,-666.185348,-7476.080014,612.876398
59556.002944,-962.267725,-7550.100608,536.266849
59556.003254,0.000000,-7179.997637,612.876398
59556.003564,592.164754,-10658.965565,2221.676944
59556.003873,-1258.350101,-11843.295072,1149.143247
59556.004183,-4737.318029,-9548.656652,0.000000
59556.004492,-74.020594,-10658.965565,1762.019645
59556.004802,-1850.514855,-6809.894666,-995.924147
59556.005112,-1258.350101,-8882.471304,1762.019645
59556.005421,-2516.700203,-8882.471304,536.266849
59556.005731,-3404.947333,-10140.821405,995.924147
59556.006040,-5107.421000,-10658.965565,536.266849
59556.006350,-7105.977043,-9548.656652,0.000000
59556.006660,-1628.453072,-10288.862594,3524.039291
59556.006969,-74.020594,-7994.224174,2987.772442
59556.007279,-2738.761985,-4219.173869,0.000000
59556.007588,-2442.679609,-9474.636058,3524.039291
59556.007898,-1850.514855,-9474.636058,-76.609550
59556.008208,-3627.009116,-9474.636058,842.705048
59556.008517,-8364.327145,-11917.315666,-995.924147
59556.008827,-8364.327145,-10584.944971,-1685.410096
59556.009137,-5329.482782,-10584.944971,536.266849
59556.009446,-4737.318029,-6587.832884,0.000000
59556.009756,-6513.812290,-8364.327145,1838.629195
59556.010065,-4441.235652,-9252.574275,2451.505594
59556.010375,-4811.338623,-8882.471304,1762.019645
59556.010685,-4737.318029,-7772.162391,2451.505594
59556.010994,-2442.679609,-11843.295072,4826.401637
59556.011304,-6513.812290,-8512.368333,1991.848295
59556.011613,-5033.400406,-7328.038826,766.095498
59556.011923,-1776.494261,-7105.977043,842.705048
59556.012233,-2294.638420,-7254.018232,2298.286494
59556.012542,-4219.173869,-6661.853478,0.000000
59556.012852,-8882.471304,-10140.821405,0.000000
59556.013161,-6513.812290,-11473.192101,0.000000
59556.013471,-5403.503377,-14211.954086,-689.485948
59556.013781,-10658.965565,-10732.986159,-2451.505594
59556.014090,-6587.832884,-12731.542202,-76.609550
59556.014400,-5329.482782,-10436.903782,1532.190996
59556.014709,2294.638420,-5847.626942,4213.525239
59556.015019,1480.411884,-6513.812290,6741.640382
59556.015329,1110.308913,-2960.823768,4443.353888
59556.015638,-1850.514855,-6217.729913,536.266849
59556.015948,-2368.659014,-6587.832884,612.876398
59556.016257,-3256.906145,-9548.656652,0.000000
59556.016567,-2442.679609,-13027.624579,-76.609550
59556.016877,-9178.553681,-9696.697840,-5209.449386
59556.017186,-6217.729913,-15618.345376,-612.876398
59556.017496,-2960.823768,-11029.068536,-1225.752797
59556.017806,-1184.329507,-10955.047942,1762.019645
59556.018115,-296.082377,-7105.977043,1762.019645
59556.018425,-1554.432478,-8216.285956,1378.971896
59556.018734,-74.020594,-8290.306550,2374.896044
59556.019044,518.144159,-7920.203579,2757.943793
59556.019354,1184.329507,-5699.585753,4903.011187
59556.019663,-74.020594,-8882.471304,-76.609550
59556.019973,-4737.318029,-7179.997637,0.000000
59556.020282,-2368.659014,-11769.274478,2145.067394
59556.020592,-2960.823768,-10140.821405,306.438199
59556.020902,-666.185348,-8808.450710,536.266849
59556.021211,-1480.411884,-9622.677246,153.219100
59556.021521,-2294.638420,-10140.821405,-306.438199
59556.021830,-1258.350101,-9474.636058,-689.485948
59556.022140,-2738.761985,-10658.965565,-383.047749
59556.022450,-2220.617826,-7179.997637,0.000000
59556.022759,-74.020594,-10658.965565,-76.609550
59556.023069,-6513.812290,-7772.162391,0.000000
59556.023378,-4737.318029,-9844.739029,2451.505594
59556.023688,-6217.729913,-8956.491898,0.000000
59556.023998,-3404.947333,-8216.285956,1608.800546
59556.024307,-1628.453072,-6883.915261,2374.896044
59556.024617,-1184.329507,-6809.894666,2681.334243
59556.024927,-74.020594,-9474.636058,3600.648841
59556.025236,-2442.679609,-9178.553681,-76.609550
59556.025546,-5921.647536,-9548.656652,-3064.381992
59556.025855,-3849.070898,-11029.068536,1225.752797
59556.026165,-2442.679609,-9474.636058,-1302.362347
59556.026475,-7105.977043,-9548.656652,0.000000
59556.026784,-7402.059420,-9548.656652,-1915.238745
59556.027094,-7179.997637,-11029.068536,-1225.752797
59556.027403,-6291.750507,-11621.233289,1149.143247
59556.027713,-3627.009116,-8216.285956,2528.115143
59556.028023,1406.391290,-9178.553681,6052.154434
59556.028332,1702.473667,-7105.977043,4826.401637
59556.028642,-1332.370696,-3775.050304,919.314598
59556.028951,-1776.494261,-10584.944971,3983.696590
59556.029261,-6587.832884,-9030.512492,-689.485948
59556.029571,-9474.636058,-5995.668130,0.000000
59556.029880,-6883.915261,-9474.636058,-2528.115143
59556.030190,-4737.318029,-10140.821405,-612.876398
59556.030499,-4441.235652,-9030.512492,0.000000
59556.030809,-6513.812290,-10658.965565,-842.705048
59556.031119,-6587.832884,-12435.459826,-76.609550
59556.031428,-5107.421000,-11843.295072,1762.019645
59556.031738,-4811.338623,-9178.553681,2374.896044
59556.032047,-4737.318029,-5995.668130,3064.381992
59556.032357,-74.020594,-7105.977043,4826.401637
59556.032667,592.164754,-2442.679609,2451.505594
59556.032976,2886.803174,-4737.318029,2987.772442
59556.033286,-3552.988522,-8142.265362,459.657299
59556.033596,-5995.668130,-10881.027347,-2374.896044
59556.033905,-5995.668130,-11473.192101,-3907.087040
59556.034215,-6957.935855,-13693.809927,-2451.505594
59556.034524,-5403.503377,-13915.871710,-1915.238745
59556.034834,-3034.844362,-11251.130318,-1608.800546
59556.035144,0.000000,-8364.327145,306.438199
59556.035453,-74.020594,-11843.295072,2987.772442
59556.035763,-5403.503377,-8364.327145,0.000000
59556.036072,-814.226536,-9474.636058,3907.087040
59556.036382,1258.350101,-6587.832884,4136.915689
59556.036692,296.082377,-6365.771101,4290.134789
59556.037001,-2960.823768,-6439.791695,3140.991542
59556.037311,-2960.823768,-5995.668130,3064.381992
59556.037620,2960.823768,-6883.915261,2451.505594
59556.037930,2294.638420,-9474.636058,2374.896044
59556.038240,-4811.338623,-7254.018232,-2604.724693
59556.038549,-8290.306550,-11917.315666,-3370.820191
59556.038859,-5995.668130,-13027.624579,-6818.249932
59556.039168,-4219.173869,-15692.365970,-3140.991542
59556.039478,-4071.132681,-12583.501014,-1532.190996
59556.039788,-4737.318029,-12213.398043,76.609550
59556.040097,-2960.823768,-8956.491898,536.266849
59556.040407,0.000000,-5995.668130,3677.258390
59556.040717,5033.400406,-4811.338623,8580.269578
59556.041026,7031.956449,-4737.318029,8503.660028
59556.041336,-2368.659014,-4811.338623,3064.381992
59556.041645,-3627.009116,-10658.965565,-76.609550
59556.041955,-6291.750507,-11843.295072,-1915.238745
59556.042265,-5773.606348,-11251.130318,-1302.362347
59556.042574,-7624.121203,-9770.718434,-3600.648841
59556.042884,-9770.718434,-10214.842000,-4136.915689
59556.043193,-8586.388927,-12139.377449,-2604.724693
59556.043503,-8290.306550,-10732.986159,0.000000
59556.043813,-4737.318029,-7920.203579,1838.629195
59556.044122,-74.020594,-9474.636058,6052.154434
59556.044432,0.000000,-1258.350101,3064.381992
59556.044741,5255.462188,-5329.482782,6665.030833
59556.045051,2294.638420,-8290.306550,4826.401637
59556.045361,-4293.194464,-10140.821405,919.314598
59556.045670,-8956.491898,-13767.830521,-2528.115143
59556.045980,-8586.388927,-13249.686362,-2757.943793
59556.046289,-7698.141797,-11399.171507,-2221.676944
59556.046599,-9252.574275,-6291.750507,-2451.505594
59556.046909,-9178.553681,-8660.409521,-2451.505594
59556.047218,-5921.647536,-12213.398043,2451.505594
59556.047528,-2442.679609,-11843.295072,2987.772442
59556.047837,-4737.318029,-5995.668130,3677.258390
59556.048147,3478.967927,-5921.647536,8503.660028
59556.048457,2368.659014,-1258.350101,6435.202183
59556.048766,4663.297435,-888.247130,5745.716235
59556.049076,2812.782580,-3256.906145,3294.210641
59556.049386,-814.226536,-7550.100608,229.828649
59556.049695,-6735.874072,-10362.883188,-5975.544884
59556.050005,-12435.459826,-17838.963202,-7354.516781
59556.050314,-18949.272115,-19615.457463,-9193.145976
59556.050624,-13101.645173,-21317.931130,-6205.373534
59556.050934,-11029.068536,-14656.077652,-4826.401637
59556.051243,-3108.864956,-10510.924376,1532.190996
59556.051553,-1036.288319,-4293.194464,4903.011187
59556.051862,4959.379811,-1702.473667,9422.974625
59556.052172,9844.739029,1924.535449,10035.851024
59556.052482,9696.697840,1036.288319,10572.117872
59556.052791,7031.956449,0.000000,7277.907231
59556.053101,1332.370696,-4367.215058,3217.601092
59556.053410,-5921.647536,-9548.656652,0.000000
59556.053720,-7179.997637,-17764.942608,-3907.087040
59556.054030,-16876.695478,-19023.292709,-9806.022374
59556.054339,-18653.189738,-20207.622217,-10725.336972
59556.054649,-13693.809927,-19837.519246,-7124.688131
59556.054958,-8882.471304,-15544.324782,-3524.039291
59556.055268,-2368.659014,-9844.739029,1991.848295
59556.055578,3404.947333,-4145.153275,6435.202183
59556.055887,8438.347739,-1702.473667,10648.727422
59556.056197,10436.903782,1036.288319,12180.918418
59556.056507,9400.615463,296.082377,7277.907231
59556.056816,4737.318029,-2442.679609,6128.763984
59556.057126,1406.391290,-5921.647536,2221.676944
59556.057435,-3034.844362,-9770.718434,-2528.115143
59556.057745,-8882.471304,-13249.686362,-5745.716235
59556.058055,-12805.562797,-19097.313304,-8044.002729
59556.058364,-13397.727550,-20799.786970,-8273.831378
59556.058674,-11325.150913,-20725.766376,-6128.763984
59556.058983,-7476.080014,-15026.180623,-3677.258390
59556.059293,-2812.782580,-9548.656652,0.000000
59556.059603,1184.329507,-7179.997637,7967.393179
59556.059912,5847.626942,-1776.494261,9729.412825
59556.060222,5329.482782,1702.473667,11031.775171
59556.060531,4737.318029,1998.556043,9806.022374
59556.060841,2886.803174,296.082377,7201.297681
59556.061151,-888.247130,-4737.318029,4366.744339
59556.061460,-3552.988522,-9326.594869,766.095498
59556.061770,-7698.141797,-12657.521608,-2681.334243
59556.062079,-10140.821405,-18357.107362,-3907.087040
59556.062389,-8364.327145,-18949.272115,-3140.991542
59556.062699,-9548.656652,-16432.571912,-4979.620737
59556.063008,-5921.647536,-12213.398043,0.000000
59556.063318,-370.102971,-11547.212695,3600.648841
59556.063627,3478.967927,-4515.256246,4979.620737
59556.063937,7698.141797,-1924.535449,9806.022374
59556.064247,9622.677246,666.185348,12410.747068
59556.064556,8882.471304,3108.864956,10418.898773
59556.064866,7254.018232,-74.020594,10955.165621
59556.065176,2368.659014,-2590.720797,6741.640382
59556.065485,-4737.318029,-7179.997637,1225.752797
59556.065795,-4811.338623,-12435.459826,-76.609550
59556.066104,-8956.491898,-15026.180623,-3447.429741
59556.066414,-9474.636058,-16654.633695,-2451.505594
59556.066724,-4737.318029,-21317.931130,2374.896044
59556.067033,-2590.720797,-16802.674883,2987.772442
59556.067343,814.226536,-12065.356855,7660.954980
59556.067652,3404.947333,-7550.100608,8810.098227
59556.067962,6439.791695,-2442.679609,8273.831378
59556.068272,7624.121203,-2368.659014,12180.918418
59556.068581,9400.615463,2368.659014,9729.412825
59556.068891,3552.988522,2886.803174,9806.022374
59556.069200,5699.585753,-1184.329507,10342.289223
59556.069510,0.000000,-2442.679609,4903.011187
59556.069820,-2368.659014,-8364.327145,3064.381992
59556.070129,-3108.864956,-13545.768739,2298.286494
59556.070439,-5921.647536,-18431.127956,2298.286494
59556.070748,-8882.471304,-18949.272115,1532.190996
59556.071058,-9252.574275,-18949.272115,3600.648841
59556.071368,-5625.565159,-10140.821405,3753.867940
59556.071677,1184.329507,-2442.679609,9806.022374
59556.071987,8808.450710,0.000000,14325.985813
59556.072297,7772.162391,1110.308913,15321.909960
59556.072606,9400.615463,-4737.318029,15858.176809
59556.072916,5847.626942,-4737.318029,12180.918418
59556.073225,-444.123565,-7772.162391,8580.269578
59556.073535,-3997.112087,-9326.594869,4596.572988
59556.073845,-6069.688724,-10955.047942,2604.724693
59556.074154,-6217.729913,-10140.821405,0.000000
59556.074464,-3034.844362,-15988.448347,2987.772442
59556.074773,-3627.009116,-15100.201217,1762.019645
59556.075083,-8290.306550,-16654.633695,612.876398
59556.075393,-5995.668130,-21317.931130,4826.401637
59556.075702,-2738.761985,-9548.656652,3830.477490
59556.076012,0.000000,-4811.338623,7354.516781
59556.076321,4589.276840,-444.123565,10572.117872
59556.076631,5255.462188,1480.411884,9116.536426
59556.076941,4959.379811,814.226536,7814.174080
59556.077250,4663.297435,-4145.153275,7277.907231
59556.077560,0.000000,-3330.926739,1225.752797
59556.077869,-1184.329507,-11917.315666,3064.381992
59556.078179,-2442.679609,-15396.283594,-76.609550
59556.078489,-10140.821405,-15470.304188,-5515.887586
59556.078798,-13027.624579,-19023.292709,-4903.011187
59556.079108,-6587.832884,-18949.272115,-2834.553343
59556.079417,-4219.173869,-14137.933492,-766.095498
59556.079727,-444.123565,-9844.739029,2298.286494
59556.080037,3404.947333,-4071.132681,3753.867940
59556.080346,5329.482782,-1850.514855,6128.763984
59556.080656,9400.615463,0.000000,6358.592633
59556.080966,5847.626942,-4737.318029,4826.401637
59556.081275,1776.494261,-8068.244768,5822.325785
59556.081585,-74.020594,-9474.636058,-76.609550
59556.081894,-2368.659014,-12509.480420,306.438199
59556.082204,-2368.659014,-9844.739029,-3064.381992
59556.082514,-4959.379811,-12065.356855,-3524.039291
59556.082823,-5181.441594,-12583.501014,-3370.820191
59556.083133,-2664.741391,-13323.706956,-3524.039291
59556.083442,-74.020594,-12731.542202,-2528.115143
59556.083752,-1776.494261,-11917.315666,0.000000
59556.084062,1184.329507,-12657.521608,2911.162892
59556.084371,3478.967927,-5477.523971,1149.143247
59556.084681,5033.400406,-4219.173869,6128.763984
59556.084990,4663.297435,5699.585753,1532.190996
59556.085300,3775.050304,296.082377,3907.087040
59556.085610,2442.679609,-2738.761985,2834.553343
59556.085919,2664.741391,-6069.688724,1838.629195
59556.086229,296.082377,-9918.759623,76.609550
59556.086538,-3552.988522,-15470.304188,0.000000
59556.086848,-5403.503377,-17764.942608,-1302.362347
59556.087158,-4663.297435,-12361.439231,-3140.991542
59556.087467,-1776.494261,-13101.645173,2451.505594
59556.087777,-74.020594,-8882.471304,1762.019645
59556.088087,3404.947333,-5625.565159,4826.401637
59556.088396,3552.988522,-6587.832884,5515.887586
59556.088706,1110.308913,-7698.141797,5745.716235
59556.089015,-1480.411884,-9326.594869,5439.278036
59556.089325,-1184.329507,-12361.439231,6818.249932
59556.089635,-1258.350101,-6291.750507,3983.696590
59556.089944,-2368.659014,-7476.080014,5515.887586
59556.090254,1110.308913,-7920.203579,6665.030833
59556.090563,-666.185348,-4811.338623,2528.115143
59556.090873,-1184.329507,-8956.491898,4903.011187
59556.091183,-3552.988522,-9548.656652,1225.752797
59556.091492,-4219.173869,-13027.624579,3140.991542
59556.091802,-1258.350101,-10584.944971,4826.401637
59556.092111,1110.308913,-7920.203579,6205.373534
59556.092421,-296.082377,-7624.121203,6665.030833
59556.092731,-74.020594,-11251.130318,9729.412825
59556.093040,0.000000,-9104.533087,7507.735880
59556.093350,444.123565,-9918.759623,7431.126331
59556.093659,-2590.720797,-10362.883188,7354.516781
59556.093969,-3404.947333,-8512.368333,5362.668486
59556.094279,-2368.659014,-7179.997637,5209.449386
59556.094588,-1332.370696,-8364.327145,5056.230287
59556.094898,-74.020594,-8290.306550,6052.154434
59556.095207,-2368.659014,-6291.750507,3140.991542
59556.095517,1776.494261,-8956.491898,7277.907231
59556.095827,3034.844362,-9474.636058,8810.098227
59556.096136,-296.082377,-7550.100608,4213.525239
59556.096446,-2220.617826,-11917.315666,5132.839837
59556.096756,-1850.514855,-12657.521608,5439.278036
59556.097065,-888.247130,-11251.130318,4443.353888
59556.097375,-3552.988522,-9548.656652,5515.887586
59556.097684,-2368.659014,-6883.915261,6435.202183
59556.097994,-666.185348,-6217.729913,5132.839837
59556.098304,0.000000,-3627.009116,5515.887586
59556.098613,1110.308913,-7550.100608,6588.421283
59556.098923,1480.411884,-7476.080014,6128.763984
59556.099232,2368.659014,-3775.050304,3983.696590
59556.099542,1110.308913,-7179.997637,4366.744339
59556.099852,74.020594,-6069.688724,2911.162892
59556.100161,-1110.308913,-9252.574275,2681.334243
59556.100471,-1554.432478,-9548.656652,1225.752797
59556.100780,-1184.329507,-11917.315666,2451.505594
59556.101090,-74.020594,-14211.954086,4213.525239
59556.101400,-2738.761985,-11399.171507,2681.334243
59556.101709,-2072.576638,-7624.121203,3677.258390
59556.102019,592.164754,-7179.997637,4903.011187
59556.102329,1110.308913,-5329.482782,4213.525239
59556.102638,-444.123565,-6513.812290,3370.820191
59556.102948,1332.370696,-6439.791695,2374.896044
59556.103257,0.000000,-9696.697840,3524.039291
59556.103567,-74.020594,-9030.512492,1302.362347
59556.103877,-1776.494261,-7179.997637,0.000000
59556.104186,-74.020594,-11843.295072,2374.896044
59556.104496,-2368.659014,-6587.832884,0.000000
59556.104805,666.185348,-10214.842000,3830.477490
59556.105115,1036.288319,-9474.636058,4903.011187
59556.105425,-74.020594,-11991.336260,3753.867940
59556.105734,148.041188,-12953.603985,3983.696590
59556.106044,0.000000,-11695.253884,4290.134789
59556.106354,2294.638420,-9178.553681,5286.058936
59556.106663,1258.350101,-3923.091493,2528.115143
59556.106973,0.000000,-3923.091493,1225.752797
59556.107282,2738.761985,-7031.956449,5209.449386
59556.107592,-962.267725,-9622.677246,2298.286494
59556.107902,148.041188,-9548.656652,4826.401637
59556.108211,-4145.153275,-13101.645173,2068.457845
59556.108521,-1406.391290,-7994.224174,1455.581446
59556.108831,-1184.329507,-7402.059420,1608.800546
59556.109140,0.000000,-6587.832884,3064.381992
59556.109450,-666.185348,-9030.512492,2451.505594
59556.109759,-1850.514855,-12139.377449,1762.019645
59556.110069,-1406.391290,-11621.233289,0.000000
59556.110379,-296.082377,-12213.398043,5439.278036
59556.110688,-666.185348,-5773.606348,1762.019645
59556.110998,-2368.659014,-5107.421000,2757.943793
59556.111308,0.000000,-3627.009116,2451.505594
59556.111617,-74.020594,-8290.306550,2068.457845
59556.111927,-1332.370696,-8734.430116,1225.752797
59556.112236,-2738.761985,-11399.171507,1149.143247
59556.112546,-1554.432478,-10362.883188,536.266849
59556.112856,-74.020594,-9474.636058,1149.143247
59556.113165,0.000000,-9548.656652,306.438199
59556.113475,592.164754,-10881.027347,4290.134789
59556.113785,2294.638420,-10510.924376,2374.896044
59556.114094,0.000000,-8364.327145,2451.505594
59556.114404,-1776.494261,-7179.997637,2757.943793
59556.114713,-74.020594,-11547.212695,4519.963438
59556.115023,-370.102971,-10362.883188,3830.477490
59556.115333,0.000000,-7920.203579,3524.039291
59556.115642,222.061783,-8068.244768,5056.230287
59556.115952,3478.967927,-6513.812290,4826.401637
59556.116261,1776.494261,-2738.761985,2681.334243
59556.116571,1184.329507,-5403.503377,5515.887586
59556.116881,-74.020594,-7105.977043,2374.896044
59556.117190,-2368.659014,-10140.821405,2451.505594
59556.117500,-1702.473667,-10140.821405,2681.334243
59556.117810,-1036.288319,-11399.171507,2604.724693
59556.118119,-1554.432478,-10140.821405,2145.067394
59556.118429,444.123565,-8438.347739,3370.820191
59556.118738,2220.617826,-8364.327145,4596.572988
59556.119048,2886.803174,-8882.471304,4213.525239
59556.119358,-1554.432478,-8364.327145,306.438199
59556.119667,0.000000,-9844.739029,5209.449386
59556.119977,1702.473667,-7994.224174,3600.648841
59556.120287,0.000000,-5403.503377,2451.505594
59556.120596,-2072.576638,-3627.009116,612.876398
59556.120906,-74.020594,-7105.977043,1149.143247
59556.121215,-74.020594,-9474.636058,1149.143247
59556.121525,-2738.761985,-12509.480420,536.266849
59556.121835,-4515.256246,-13323.706956,-1149.143247
59556.122144,-1850.514855,-14211.954086,-76.609550
59556.122454,-2442.679609,-9178.553681,-1302.362347
59556.122764,-4737.318029,-5403.503377,-2451.505594
59556.123073,-74.020594,-7994.224174,-76.609550
59556.123383,-888.247130,-7772.162391,-919.314598
59556.123692,0.000000,-9548.656652,0.000000
59556.124002,-296.082377,-12361.439231,995.924147
59556.124312,-962.267725,-9844.739029,-229.828649
59556.124621,74.020594,-7846.182985,-229.828649
59556.124931,2368.659014,-5995.668130,306.438199
59556.125241,4071.132681,-8882.471304,1762.019645
59556.125550,1998.556043,-8290.306550,-689.485948
59556.125860,0.000000,-9548.656652,0.000000
59556.126169,-74.020594,-14211.954086,-1302.362347
59556.126479,-2812.782580,-12213.398043,-2911.162892
59556.126789,-2516.700203,-9326.594869,-4596.572988
59556.127098,-1184.329507,-8660.409521,-1762.019645
59556.127408,518.144159,-7105.977043,-1915.238745
59556.127717,1110.308913,-6439.791695,-1608.800546
59556.128027,2220.617826,-6587.832884,-1302.362347
59556.128337,888.247130,-8882.471304,-689.485948
59556.128646,-1258.350101,-10658.965565,-2528.115143
59556.128956,-4145.153275,-9548.656652,-4903.011187
59556.129266,-1036.288319,-12657.521608,-2145.067394
59556.129575,-1258.350101,-11251.130318,-3140.991542
59556.129885,1554.432478,-8882.471304,-3370.820191
59556.130194,2368.659014,-8660.409521,-1072.533697
59556.130504,2738.761985,-7476.080014,-842.705048
59556.130814,-296.082377,-9104.533087,-1838.629195
59556.131123,-1480.411884,-9918.759623,-689.485948
59556.131433,296.082377,-12065.356855,766.095498
59556.131743,2886.803174,-12435.459826,2374.896044
59556.132052,-74.020594,-7698.141797,-1302.362347
59556.132362,0.000000,-5995.668130,0.000000
59556.132671,2886.803174,-7402.059420,842.705048
59556.132981,1702.473667,-8290.306550,-995.924147
59556.133291,-1480.411884,-9548.656652,0.000000
59556.133600,-2072.576638,-11029.068536,0.000000
59556.133910,-1480.411884,-10362.883188,0.000000
59556.134220,-1332.370696,-10436.903782,1532.190996
59556.134529,-2368.659014,-8956.491898,1838.629195
59556.134839,0.000000,-9548.656652,2451.505594
59556.135148,3478.967927,-11251.130318,3600.648841
59556.135458,-1702.473667,-9548.656652,1838.629195
59556.135768,-2072.576638,-7772.162391,2451.505594
59556.136077,1628.453072,-7105.977043,3600.648841
59556.136387,370.102971,-5995.668130,3524.039291
59556.136696,296.082377,-6291.750507,3294.210641
59556.137006,148.041188,-8364.327145,2987.772442
59556.137316,0.000000,-10584.944971,4290.134789
59556.137625,-2368.659014,-10140.821405,3677.258390
59556.137935,-3849.070898,-11917.315666,4903.011187
59556.138245,-1258.350101,-11843.295072,2987.772442
59556.138554,-4145.153275,-5403.503377,612.876398
59556.138864,-2072.576638,-6439.791695,2604.724693
59556.139173,-74.020594,-6809.894666,3600.648841
59556.139483,222.061783,-7402.059420,2374.896044
59556.139793,0.000000,-10214.842000,3677.258390
59556.140102,-962.267725,-11325.150913,3217.601092
59556.140412,-3034.844362,-10436.903782,1225.752797
59556.140722,-4145.153275,-7179.997637,2451.505594
59556.141031,0.000000,-5107.421000,3677.258390
59556.141341,3478.967927,-8290.306550,4213.525239
59556.141650,2368.659014,-7179.997637,4290.134789
59556.141960,4663.297435,-10658.965565,4826.401637
59556.142270,1776.494261,-13619.789333,6052.154434
59556.142579,-592.164754,-12065.356855,3294.210641
59556.142889,-1776.494261,-10140.821405,2604.724693
59556.143199,-1184.329507,-7920.203579,2145.067394
59556.143508,-296.082377,-5107.421000,1225.752797
59556.143818,-2072.576638,-4811.338623,1838.629195
59556.144127,0.000000,-4811.338623,1225.752797
59556.144437,3478.967927,-10658.965565,3600.648841
59556.144747,-2516.700203,-9992.780217,689.485948
59556.145056,-3552.988522,-11177.109724,1532.190996
59556.145366,-2960.823768,-10807.006753,1455.581446
59556.145676,-1702.473667,-7698.141797,536.266849
59556.145985,-740.205942,-6587.832884,919.314598
59556.146295,1036.288319,-6513.812290,995.924147
59556.146604,2220.617826,-7179.997637,0.000000
59556.146914,0.000000,-8142.265362,-1838.629195
59556.147224,-4737.318029,-9548.656652,0.000000
59556.147533,-2368.659014,-12213.398043,612.876398
59556.147843,-370.102971,-10658.965565,-76.609550
59556.148152,-1480.411884,-7179.997637,-383.047749
59556.148462,0.000000,-5403.503377,0.000000
59556.148772,2590.720797,-6291.750507,-76.609550
59556.149081,2294.638420,-8808.450710,153.219100
59556.149391,-518.144159,-12805.562797,-995.924147
59556.149701,-2516.700203,-14285.974681,-1915.238745
59556.150010,-1850.514855,-12731.542202,-3140.991542
59556.150320,-2442.679609,-7698.141797,-3140.991542
59556.150629,0.000000,-5995.668130,0.000000
59556.150939,3478.967927,-5921.647536,-76.609550
59556.151249,2664.741391,-7772.162391,995.924147
59556.151558,1332.370696,-10140.821405,0.000000
59556.151868,-1110.308913,-13323.706956,-306.438199
59556.152178,-2738.761985,-12287.418637,-1991.848295
59556.152487,-2664.741391,-10214.842000,-1991.848295
59556.152797,-740.205942,-7994.224174,-1302.362347
59556.153106,2294.638420,-8290.306550,-612.876398
59556.153416,1998.556043,-5033.400406,0.000000
59556.153726,3849.070898,-8364.327145,2145.067394
59556.154035,1702.473667,-10955.047942,1149.143247
59556.154345,-1554.432478,-10140.821405,383.047749
59556.154655,-2072.576638,-10732.986159,0.000000
59556.154964,-962.267725,-10362.883188,229.828649
59556.155274,-740.205942,-8290.306550,153.219100
59556.155583,1406.391290,-6883.915261,766.095498
59556.155893,2146.597232,-7105.977043,-76.609550
59556.156203,1702.473667,-8882.471304,-306.438199
59556.156512,-1258.350101,-10658.965565,-1302.362347
59556.156822,-4737.318029,-9548.656652,-2451.505594
59556.157132,-2664.741391,-11621.233289,1991.848295
59556.157441,-2442.679609,-10658.965565,-153.219100
59556.157751,-2368.659014,-5995.668130,0.000000
59556.158060,888.247130,-7179.997637,766.095498
59556.158370,1776.494261,-7698.141797,612.876398
59556.158680,-518.144159,-10436.903782,995.924147
59556.158989,-1332.370696,-13027.624579,1608.800546
59556.159299,-74.020594,-11843.295072,2374.896044
59556.159608,-74.020594,-10658.965565,-76.609550
59556.159918,-2368.659014,-5403.503377,0.000000
59556.160228,2960.823768,-7328.038826,4213.525239
59556.160537,2516.700203,-6513.812290,1838.629195
59556.160847,0.000000,-7179.997637,919.314598
59556.161157,-888.247130,-11547.212695,1838.629195
59556.161466,-1850.514855,-12065.356855,1991.848295
59556.161776,-1776.494261,-9770.718434,1378.971896
59556.162085,-814.226536,-10066.800811,2374.896044
59556.162395,1036.288319,-8290.306550,4213.525239
59556.162705,3478.967927,-6513.812290,2374.896044
59556.163014,0.000000,-6587.832884,2451.505594
59556.163324,-74.020594,-10658.965565,2987.772442
59556.163634,-2812.782580,-9548.656652,0.000000
59556.163943,-2590.720797,-10214.842000,536.266849
59556.164253,-1850.514855,-8216.285956,1532.190996
59556.164562,-1110.308913,-6587.832884,995.924147
59556.164872,1184.329507,-6217.729913,1915.238745
59556.165182,4367.215058,-7624.121203,4443.353888
59556.165491,2664.741391,-8364.327145,2681.334243
59556.165801,2294.638420,-11843.295072,2374.896044
59556.166111,-2960.823768,-9548.656652,0.000000
59556.166420,-148.041188,-12065.356855,3600.648841
59556.166730,-370.102971,-10807.006753,0.000000
59556.167039,-74.020594,-8290.306550,536.266849
59556.167349,1184.329507,-8142.265362,1685.410096
59556.167659,2368.659014,-8882.471304,2221.676944
59556.167968,222.061783,-9104.533087,1149.143247
59556.168278,-1184.329507,-9844.739029,1838.629195
59556.168587,-2368.659014,-9104.533087,995.924147
59556.168897,-1776.494261,-9548.656652,1532.190996
59556.169207,-74.020594,-9474.636058,1149.143247
59556.169516,0.000000,-7476.080014,612.876398
59556.169826,1702.473667,-8438.347739,842.705048
59556.170136,-74.020594,-11251.130318,2068.457845
59556.170445,-1850.514855,-9548.656652,229.828649
59556.170755,-1850.514855,-9844.739029,536.266849
59556.171064,-1258.350101,-8438.347739,842.705048
59556.171374,-1776.494261,-7179.997637,612.876398
59556.171684,-1776.494261,-6587.832884,153.219100
59556.171993,0.000000,-8956.491898,3064.381992
59556.172303,1110.308913,-9474.636058,1149.143247
59556.172613,-1776.494261,-9548.656652,1838.629195
59556.172922,-74.020594,-8882.471304,-76.609550
59556.173232,-74.020594,-8882.471304,-76.609550
59556.173541,-2442.679609,-7920.203579,0.000000
59556.173851,-2072.576638,-7994.224174,229.828649
59556.174161,0.000000,-9178.553681,766.095498
59556.174470,0.000000,-7772.162391,0.000000
59556.174780,-2072.576638,-7772.162391,0.000000
59556.175090,-2368.659014,-9548.656652,612.876398
59556.175399,-74.020594,-10658.965565,1149.143247
59556.175709,-1554.432478,-7179.997637,-2451.505594
59556.176018,-1406.391290,-9474.636058,1149.143247
59556.176328,2294.638420,-11103.089130,2068.457845
59556.176638,2442.679609,-9474.636058,1455.581446
59556.176947,1776.494261,-8808.450710,1455.581446
59556.177257,-296.082377,-8660.409521,306.438199
59556.177567,-2072.576638,-6587.832884,-919.314598
59556.177876,0.000000,-6587.832884,-383.047749
59556.178186,0.000000,-9548.656652,0.000000
59556.178495,1998.556043,-11251.130318,1149.143247
59556.178805,0.000000,-8068.244768,0.000000
59556.179115,2812.782580,-10658.965565,1762.019645
59556.179424,1184.329507,-9770.718434,1072.533697
59556.179734,-962.267725,-9770.718434,-689.485948
59556.180043,-296.082377,-9178.553681,-995.924147
59556.180353,-814.226536,-9326.594869,-459.657299
59556.180663,-2960.823768,-8660.409521,-995.924147
59556.180972,-2886.803174,-8882.471304,-383.047749
59556.181282,-2368.659014,-6587.832884,0.000000
59556.181592,2294.638420,-10362.883188,1149.143247
59556.181901,74.020594,-8660.409521,0.000000
59556.182211,-74.020594,-9474.636058,-76.609550
59556.182520,1702.473667,-10658.965565,-76.609550
59556.182830,-74.020594,-10066.800811,-76.609550
59556.183140,-1406.391290,-10510.924376,-612.876398
59556.183449,-592.164754,-10881.027347,-76.609550
59556.183759,-1628.453072,-9696.697840,-842.705048
59556.184069,-2368.659014,-7179.997637,-1302.362347
59556.184378,-1776.494261,-9548.656652,1225.752797
59556.184688,-74.020594,-7994.224174,-76.609550
59556.184997,-2368.659014,-4811.338623,-3447.429741
59556.185307,-1184.329507,-9474.636058,-76.609550
59556.185617,-592.164754,-11473.192101,1838.629195
59556.185926,518.144159,-10658.965565,995.924147
59556.186236,222.061783,-9696.697840,1608.800546
59556.186546,-148.041188,-8512.368333,1149.143247
59556.186855,-1258.350101,-5403.503377,536.266849
59556.187165,-1110.308913,-5329.482782,-689.485948
59556.187474,0.000000,-7179.997637,0.000000
59556.187784,-74.020594,-10658.965565,1455.581446
59556.188094,-740.205942,-9326.594869,-689.485948
59556.188403,1110.308913,-11843.295072,3294.210641
59556.188713,1184.329507,-10436.903782,3064.381992
59556.189023,1406.391290,-9178.553681,2987.772442
59556.189332,1406.391290,-7994.224174,2221.676944
59556.189642,1036.288319,-7698.141797,2604.724693
59556.189951,-370.102971,-8290.306550,1762.019645
59556.190261,-74.020594,-10658.965565,2374.896044
59556.190571,0.000000,-7772.162391,612.876398
59556.190880,1628.453072,-11547.212695,4136.915689
59556.191190,-1258.350101,-9474.636058,-76.609550
59556.191499,-1184.329507,-9548.656652,3064.381992
59556.191809,-2072.576638,-7179.997637,1225.752797
59556.192119,-1258.350101,-7994.224174,1302.362347
59556.192428,-2442.679609,-8438.347739,842.705048
59556.192738,-1332.370696,-9548.656652,1378.971896
59556.193048,-74.020594,-11251.130318,2221.676944
59556.193357,-74.020594,-13027.624579,4213.525239
59556.193667,-74.020594,-9474.636058,1762.019645
59556.193976,0.000000,-7179.997637,1225.752797
59556.194286,1998.556043,-9474.636058,4213.525239
59556.194596,-1036.288319,-6735.874072,2451.505594
59556.194905,-1776.494261,-6587.832884,612.876398
59556.195215,1036.288319,-9400.615463,2451.505594
59556.195525,592.164754,-9844.739029,1991.848295
59556.195834,-592.164754,-10955.047942,1302.362347
59556.196144,-74.020594,-11843.295072,2068.457845
59556.196453,-74.020594,-11843.295072,3600.648841
59556.196763,-2442.679609,-6291.750507,-842.705048
59556.197073,-1184.329507,-7328.038826,919.314598
59556.197382,-74.020594,-9474.636058,-76.609550
59556.197692,0.000000,-7179.997637,1225.752797
59556.198002,-2368.659014,-8068.244768,0.000000
59556.198311,-1332.370696,-8956.491898,229.828649
59556.198621,-666.185348,-7698.141797,76.609550
59556.198930,-222.061783,-7254.018232,459.657299
59556.199240,-74.020594,-8882.471304,-76.609550
59556.199550,1628.453072,-9548.656652,306.438199
59556.199859,2294.638420,-11843.295072,-76.609550
59556.200169,0.000000,-9844.739029,0.000000
59556.200479,2294.638420,-14137.933492,3140.991542
59556.200788,0.000000,-7179.997637,0.000000
59556.201098,370.102971,-5995.668130,-995.924147
59556.201407,740.205942,-8068.244768,306.438199
59556.201717,370.102971,-8808.450710,153.219100
59556.202027,814.226536,-10214.842000,153.219100
59556.202336,1924.535449,-11843.295072,766.095498
59556.202646,592.164754,-10732.986159,1225.752797
59556.202955,-74.020594,-9474.636058,-383.047749
59556.203265,0.000000,-7476.080014,0.000000
59556.203575,-74.020594,-8290.306550,-76.609550
59556.203884,-3552.988522,-7179.997637,-3064.381992
59556.204194,-74.020594,-9326.594869,-383.047749
59556.204503,0.000000,-9622.677246,0.000000
59556.204813,-592.164754,-10436.903782,76.609550
59556.205122,-1184.329507,-9770.718434,-383.047749
59556.205432,0.000000,-8364.327145,0.000000
59556.205742,0.000000,-8364.327145,0.000000
59556.206051,-74.020594,-11843.295072,-76.609550
59556.206361,-2960.823768,-8364.327145,0.000000
59556.206670,-74.020594,-13619.789333,2374.896044
59556.206980,-2442.679609,-7698.141797,-2221.676944
59556.207289,-2812.782580,-7476.080014,0.000000
59556.207599,-2220.617826,-7179.997637,306.438199
59556.207908,0.000000,-7550.100608,1378.971896
59556.208218,-222.061783,-7402.059420,995.924147
59556.208528,-74.020594,-9474.636058,2681.334243
59556.208837,740.205942,-9474.636058,2451.505594
59556.209147,2294.638420,-9474.636058,-76.609550
59556.209456,-3404.947333,-7772.162391,0.000000
59556.209766,-444.123565,-10288.862594,2298.286494
59556.210075,-740.205942,-7179.997637,0.000000
59556.210385,-370.102971,-7105.977043,229.828649
59556.210694,-888.247130,-8660.409521,1225.752797
59556.211004,148.041188,-8734.430116,1225.752797
59556.211314,1628.453072,-8956.491898,1762.019645
59556.211623,2516.700203,-9548.656652,2757.943793
59556.211933,0.000000,-10214.842000,306.438199
59556.212242,2886.803174,-11547.212695,3600.648841
59556.212552,0.000000,-7476.080014,306.438199
59556.212861,2294.638420,-9918.759623,2987.772442
59556.213171,-148.041188,-7476.080014,0.000000
59556.213480,-74.020594,-8290.306550,536.266849
59556.213790,0.000000,-9548.656652,153.219100
59556.214100,-740.205942,-10732.986159,919.314598
59556.214409,-1702.473667,-11103.089130,76.609550
59556.214719,0.000000,-8660.409521,0.000000
59556.215028,0.000000,-8364.327145,0.000000
59556.215338,1406.391290,-10955.047942,2374.896044
59556.215647,-1776.494261,-8068.244768,-842.705048
59556.215957,666.185348,-11621.233289,3830.477490
59556.216266,-148.041188,-9992.780217,-76.609550
59556.216576,-74.020594,-11251.130318,1149.143247
59556.216886,-1850.514855,-7402.059420,76.609550
59556.217195,370.102971,-5403.503377,306.438199
59556.217505,-370.102971,-7846.182985,842.705048
59556.217814,-2072.576638,-9548.656652,0.000000
59556.218124,-2072.576638,-9548.656652,0.000000
59556.218433,-1184.329507,-13101.645173,2451.505594
59556.218743,-1554.432478,-11251.130318,-76.609550
59556.219052,-2664.741391,-7179.997637,612.876398
59556.219362,592.164754,-5921.647536,2068.457845
59556.219671,3478.967927,-5921.647536,2374.896044
59556.219981,-370.102971,-7476.080014,1455.581446
59556.220291,74.020594,-9696.697840,2068.457845
59556.220600,444.123565,-10288.862594,1532.190996
59556.220910,-2368.659014,-9548.656652,0.000000
59556.221219,-1702.473667,-10658.965565,0.000000
59556.221529,-1184.329507,-7772.162391,1225.752797
59556.221838,1702.473667,-7698.141797,1149.143247
59556.222148,0.000000,-4811.338623,0.000000
59556.222457,2294.638420,-10658.965565,2451.505594
59556.222767,0.000000,-8660.409521,612.876398
59556.223077,814.226536,-11621.233289,1685.410096
59556.223386,-888.247130,-12583.501014,1762.019645
59556.223696,-962.267725,-10658.965565,1149.143247
59556.224005,1332.370696,-8882.471304,2374.896044
59556.224315,3478.967927,-7105.977043,3600.648841
59556.224624,1702.473667,-7105.977043,-76.609550
59556.224934,0.000000,-7179.997637,0.000000
59556.225243,1702.473667,-11843.295072,1762.019645
59556.225553,-2072.576638,-11251.130318,0.000000
59556.225863,-4441.235652,-9548.656652,-1838.629195
59556.226172,-1332.370696,-9622.677246,306.438199
59556.226482,666.185348,-8142.265362,1302.362347
59556.226791,740.205942,-7179.997637,842.705048
59556.227101,814.226536,-9474.636058,2374.896044
59556.227410,2072.576638,-10658.965565,4136.915689
59556.227720,2294.638420,-10362.883188,-76.609550
59556.228029,-3552.988522,-10140.821405,612.876398
59556.228339,-814.226536,-10510.924376,2068.457845
59556.228649,-1110.308913,-7031.956449,0.000000
59556.228958,-814.226536,-6957.935855,-536.266849
59556.229268,-888.247130,-8068.244768,306.438199
59556.229577,-666.185348,-8734.430116,0.000000
59556.229887,-888.247130,-9918.759623,-612.876398
59556.230196,-222.061783,-12361.439231,1378.971896
59556.230506,-2072.576638,-11843.295072,1225.752797
59556.230815,-74.020594,-11843.295072,-76.609550
59556.231125,-2368.659014,-4811.338623,0.000000
59556.231435,1110.308913,-8586.388927,1149.143247
59556.231744,0.000000,-7179.997637,-2068.457845
59556.232054,1110.308913,-8290.306550,-76.609550
59556.232363,-518.144159,-9548.656652,0.000000
59556.232673,-1850.514855,-10436.903782,0.000000
59556.232982,-1850.514855,-8586.388927,-689.485948
59556.233292,-888.247130,-7772.162391,306.438199
59556.233601,-1184.329507,-6587.832884,0.000000
59556.233911,1628.453072,-9252.574275,766.095498
59556.234221,1702.473667,-9178.553681,-76.609550
59556.234530,0.000000,-10436.903782,0.000000
59556.234840,-74.020594,-12509.480420,-229.828649
59556.235149,-74.020594,-13027.624579,1149.143247
59556.235459,444.123565,-8956.491898,766.095498
59556.235768,1554.432478,-5181.441594,689.485948
59556.236078,1110.308913,-3997.112087,0.000000
59556.236387,592.164754,-4811.338623,0.000000
59556.236697,1184.329507,-9548.656652,0.000000
59556.237006,1480.411884,-14434.015869,2757.943793
59556.237316,-1850.514855,-15396.283594,-76.609550
59556.237626,-4441.235652,-12065.356855,0.000000
59556.237935,-370.102971,-9622.677246,842.705048
59556.238245,2294.638420,-7105.977043,1762.019645
59556.238554,814.226536,-4811.338623,1072.533697
59556.238864,2368.659014,-5847.626942,1608.800546
59556.239173,2368.659014,-9770.718434,2068.457845
59556.239483,0.000000,-11325.150913,1225.752797
59556.239792,-3552.988522,-11917.315666,0.000000
59556.240102,-3552.988522,-10732.986159,1225.752797
59556.240412,-74.020594,-9474.636058,1149.143247
59556.240721,-2368.659014,-6587.832884,1149.143247
59556.241031,-370.102971,-7105.977043,-76.609550
59556.241340,1110.308913,-9178.553681,1762.019645
59556.241650,-518.144159,-9918.759623,612.876398
59556.241959,-2442.679609,-11769.274478,1149.143247
59556.242269,-2960.823768,-12139.377449,1455.581446
59556.242578,-3256.906145,-7772.162391,919.314598
59556.242888,0.000000,-5699.585753,1762.019645
59556.243198,0.000000,-4811.338623,2451.505594
59556.243507,3478.967927,-6513.812290,3600.648841
59556.243817,0.000000,-5403.503377,1378.971896
59556.244126,-74.020594,-10658.965565,2987.772442
59556.244436,-2442.679609,-13175.665768,1608.800546
59556.244745,-2738.761985,-12287.418637,459.657299
59556.245055,-2590.720797,-10362.883188,383.047749
59556.245364,-1480.411884,-9252.574275,919.314598
59556.245674,-1628.453072,-5995.668130,536.266849
59556.245984,2294.638420,-5699.585753,2068.457845
59556.246293,296.082377,-3034.844362,612.876398
59556.246603,962.267725,-8438.347739,3064.381992
59556.246912,-666.185348,-10658.965565,-76.609550
59556.247222,-1554.432478,-11103.089130,1762.019645
59556.247531,-1036.288319,-10140.821405,1838.629195
59556.247841,370.102971,-8586.388927,1225.752797
59556.248150,2368.659014,-5699.585753,689.485948
59556.248460,1776.494261,-8216.285956,459.657299
59556.248770,-74.020594,-9770.718434,-383.047749
59556.249079,-2442.679609,-13619.789333,-76.609550
59556.249389,-1554.432478,-11843.295072,-1608.800546
59556.249698,-2368.659014,-9548.656652,0.000000
59556.250008,-74.020594,-11843.295072,2911.162892
59556.250317,2294.638420,-9474.636058,2374.896044
59556.250627,1776.494261,-6587.832884,1532.190996
59556.250936,2368.659014,-8142.265362,1685.410096
59556.251246,-666.185348,-9770.718434,842.705048
59556.251556,-1554.432478,-8882.471304,-229.828649
59556.251865,-74.020594,-9474.636058,-76.609550
59556.252175,-518.144159,-9696.697840,0.000000
59556.252484,-74.020594,-10658.965565,-76.609550
59556.252794,-2368.659014,-10732.986159,0.000000
59556.253103,1702.473667,-11843.295072,-76.609550
59556.253413,-296.082377,-9548.656652,1225.752797
59556.253722,-2960.823768,-7179.997637,0.000000
59556.254032,-518.144159,-7402.059420,383.047749
59556.254341,-222.061783,-7476.080014,842.705048
59556.254651,-592.164754,-9548.656652,1302.362347
59556.254961,-74.020594,-9474.636058,1149.143247
59556.255270,2294.638420,-10658.965565,3294.210641
59556.255580,-74.020594,-8216.285956,0.000000
59556.255889,-2368.659014,-8956.491898,1225.752797
59556.256199,-666.185348,-7994.224174,-76.609550
59556.256508,0.000000,-6587.832884,612.876398
59556.256818,0.000000,-7179.997637,0.000000
59556.257127,-592.164754,-9992.780217,1072.533697
59556.257437,-296.082377,-10510.924376,229.828649
59556.257747,0.000000,-10510.924376,306.438199
59556.258056,-74.020594,-12435.459826,1455.581446
59556.258366,-74.020594,-10807.006753,2987.772442
59556.258675,-74.020594,-7105.977043,-76.609550
59556.258985,0.000000,-5995.668130,612.876398
59556.259294,1702.473667,-11251.130318,4213.525239
59556.259604,0.000000,-6587.832884,612.876398
59556.259913,370.102971,-8364.327145,612.876398
59556.260223,518.144159,-10732.986159,1532.190996
59556.260533,-1702.473667,-10955.047942,383.047749
59556.260842,-1924.535449,-10584.944971,0.000000
59556.261152,-74.020594,-10066.800811,1378.971896
59556.261461,-1998.556043,-7031.956449,-689.485948
59556.261771,-370.102971,-8882.471304,-76.609550
59556.262080,0.000000,-8364.327145,0.000000
59556.262390,2960.823768,-13101.645173,4213.525239
59556.262699,-2368.659014,-10140.821405,0.000000
59556.263009,-2146.597232,-9548.656652,229.828649
59556.263319,-1332.370696,-7476.080014,689.485948
59556.263628,-666.185348,-7105.977043,1378.971896
59556.263938,0.000000,-6883.915261,1072.533697
59556.264247,1480.411884,-7476.080014,1838.629195
59556.264557,1184.329507,-9548.656652,2451.505594
59556.264866,2294.638420,-13027.624579,2374.896044
59556.265176,-3330.926739,-11547.212695,-995.924147
59556.265485,-4737.318029,-9548.656652,0.000000
59556.265795,-3404.947333,-7772.162391,-2451.505594
59556.266105,-666.185348,-8882.471304,-76.609550
59556.266414,-666.185348,-7179.997637,459.657299
59556.266724,1776.494261,-6365.771101,1608.800546
59556.267033,2294.638420,-6735.874072,1915.238745
59556.267343,0.000000,-7772.162391,1225.752797
59556.267652,-1036.288319,-10510.924376,1302.362347
59556.267962,-888.247130,-10436.903782,1838.629195
59556.268271,-74.020594,-9178.553681,-76.609550
59556.268581,-2368.659014,-6587.832884,1225.752797
59556.268891,814.226536,-5033.400406,383.047749
59556.269200,4663.297435,-8290.306550,2374.896044
59556.269510,2294.638420,-8660.409521,1685.410096
59556.269819,-814.226536,-11695.253884,612.876398
59556.270129,-814.226536,-12361.439231,1378.971896
59556.270438,0.000000,-9548.656652,0.000000
59556.270748,-666.185348,-8290.306550,1072.533697
59556.271057,0.000000,-7476.080014,1532.190996
59556.271367,2294.638420,-5921.647536,536.266849
59556.271676,2368.659014,-8364.327145,3677.258390
59556.271986,-74.020594,-10658.965565,-76.609550
59556.272296,-1258.350101,-13027.624579,1455.581446
59556.272605,-1702.473667,-11399.171507,612.876398
59556.272915,-1258.350101,-10140.821405,612.876398
59556.273224,-2294.638420,-9178.553681,153.219100
59556.273534,-2220.617826,-7772.162391,0.000000
59556.273843,3478.967927,-7698.141797,1149.143247
59556.274153,1184.329507,-7179.997637,1225.752797
59556.274462,-74.020594,-10955.047942,1762.019645
59556.274772,-4145.153275,-9548.656652,0.000000
59556.275082,-74.020594,-12435.459826,-76.609550
59556.275391,-1554.432478,-11695.253884,766.095498
59556.275701,-2442.679609,-9252.574275,76.609550
59556.276010,0.000000,-7772.162391,1072.533697
59556.276320,2368.659014,-7105.977043,1532.190996
59556.276629,-740.205942,-7402.059420,536.266849
59556.276939,-1554.432478,-9178.553681,-76.609550
59556.277248,-3552.988522,-8364.327145,0.000000
59556.277558,-592.164754,-10658.965565,2374.896044
59556.277868,-2442.679609,-7698.141797,-689.485948
59556.278177,-74.020594,-8290.306550,1762.019645
59556.278487,2072.576638,-7920.203579,1991.848295
59556.278796,1554.432478,-8512.368333,1455.581446
59556.279106,-740.205942,-10140.821405,1072.533697
59556.279415,-1776.494261,-10140.821405,153.219100
59556.279725,-1554.432478,-9104.533087,-76.609550
59556.280034,-666.185348,-7105.977043,-229.828649
59556.280344,-2368.659014,-4811.338623,0.000000
59556.280654,2886.803174,-7105.977043,1762.019645
59556.280963,0.000000,-5995.668130,0.000000
59556.281273,1998.556043,-13619.789333,3447.429741
59556.281582,-1184.329507,-11325.150913,612.876398
59556.281892,-1554.432478,-10658.965565,-76.609550
59556.282201,-1480.411884,-7698.141797,0.000000
59556.282511,-1036.288319,-6883.915261,0.000000
59556.282820,814.226536,-7698.141797,-76.609550
59556.283130,1850.514855,-8734.430116,612.876398
59556.283440,0.000000,-10288.862594,-842.705048
59556.283749,-1628.453072,-12065.356855,1225.752797
59556.284059,-74.020594,-11843.295072,-76.609550
59556.284368,1036.288319,-10955.047942,2757.943793
59556.284678,0.000000,-7179.997637,306.438199
59556.284987,74.020594,-6143.709319,76.609550
59556.285297,1850.514855,-7402.059420,842.705048
59556.285606,2590.720797,-8512.368333,1455.581446
59556.285916,2146.597232,-12435.459826,1149.143247
59556.286226,-888.247130,-12731.542202,919.314598
59556.286535,-1258.350101,-13027.624579,-76.609550
59556.286845,-3256.906145,-11029.068536,612.876398
59556.287154,-74.020594,-10658.965565,-76.609550
59556.287464,-592.164754,-5403.503377,1532.190996
59556.287773,0.000000,-4219.173869,153.219100
59556.288083,962.267725,-7105.977043,1225.752797
59556.288392,-814.226536,-10362.883188,536.266849
59556.288702,-2294.638420,-12583.501014,1302.362347
59556.289011,-1850.514855,-13471.748144,2451.505594
59556.289321,-518.144159,-11695.253884,2987.772442
59556.289631,-666.185348,-5921.647536,1149.143247
59556.289940,0.000000,-4811.338623,2451.505594
59556.290250,4663.297435,-7105.977043,2987.772442
59556.290559,0.000000,-7179.997637,1225.752797
59556.290869,-1776.494261,-9548.656652,612.876398
59556.291178,-1480.411884,-11177.109724,1225.752797
59556.291488,-2220.617826,-11325.150913,995.924147
59556.291797,-1850.514855,-9548.656652,1072.533697
59556.292107,888.247130,-7772.162391,1838.629195
59556.292417,2664.741391,-8068.244768,3830.477490
59556.292726,2294.638420,-7105.977043,1149.143247
59556.293036,0.000000,-7476.080014,0.000000
59556.293345,0.000000,-9844.739029,1838.629195
59556.293655,-2368.659014,-9548.656652,1225.752797
59556.293964,-2146.597232,-10214.842000,383.047749
59556.294274,-1332.370696,-9474.636058,995.924147
59556.294583,444.123565,-8290.306550,842.705048
59556.294893,1776.494261,-6809.894666,1532.190996
59556.295203,740.205942,-7476.080014,1302.362347
59556.295512,0.000000,-9548.656652,1378.971896
59556.295822,-74.020594,-11251.130318,-76.609550
59556.296131,-3330.926739,-10732.986159,0.000000
59556.296441,-592.164754,-12509.480420,2604.724693
59556.296750,-2368.659014,-6291.750507,0.000000
59556.297060,1406.391290,-6809.894666,689.485948
59556.297369,814.226536,-6291.750507,919.314598
59556.297679,222.061783,-8734.430116,766.095498
59556.297989,148.041188,-10436.903782,1072.533697
59556.298298,-1776.494261,-10732.986159,612.876398
59556.298608,-4145.153275,-11917.315666,0.000000
59556.298917,-1258.350101,-11103.089130,1378.971896
59556.299227,222.061783,-6587.832884,-2451.505594
59556.299536,592.164754,-7179.997637,2451.505594
59556.299846,-2294.638420,-5551.544565,-1838.629195
59556.300155,-74.020594,-9178.553681,536.266849
59556.300465,-666.185348,-9992.780217,689.485948
59556.300775,-1258.350101,-10436.903782,689.485948
59556.301084,-2368.659014,-9178.553681,459.657299
59556.301394,-1776.494261,-6661.853478,459.657299
59556.301703,962.267725,-6365.771101,76.609550
59556.302013,296.082377,-8068.244768,1532.190996
59556.302322,-74.020594,-8290.306550,-1302.362347
59556.302632,0.000000,-9548.656652,0.000000
59556.302941,-1258.350101,-9178.553681,-2528.115143
59556.303251,-1406.391290,-11547.212695,-76.609550
59556.303561,-1554.432478,-9770.718434,76.609550
59556.303870,1184.329507,-9622.677246,1455.581446
59556.304180,2294.638420,-7920.203579,1991.848295
59556.304489,0.000000,-7254.018232,1149.143247
59556.304799,1406.391290,-7105.977043,995.924147
59556.305108,296.082377,-7179.997637,1225.752797
59556.305418,2146.597232,-10658.965565,2374.896044
59556.305727,-3552.988522,-8364.327145,0.000000
59556.306037,-666.185348,-11251.130318,536.266849
59556.306346,1110.308913,-12287.418637,2221.676944
59556.306656,-296.082377,-10066.800811,1532.190996
59556.306966,74.020594,-7846.182985,612.876398
59556.307275,592.164754,-6587.832884,919.314598
59556.307585,0.000000,-7254.018232,1149.143247
59556.307894,-74.020594,-9770.718434,1149.143247
59556.308204,-2368.659014,-9548.656652,612.876398
59556.308513,0.000000,-9548.656652,1225.752797
59556.308823,-74.020594,-11251.130318,1149.143247
59556.309132,-666.185348,-9400.615463,1149.143247
59556.309442,-74.020594,-5921.647536,-1302.362347
59556.309752,0.000000,-5995.668130,0.000000
59556.310061,-518.144159,-8808.450710,919.314598
59556.310371,-1480.411884,-9252.574275,0.000000
59556.310680,-2960.823768,-11769.274478,842.705048
59556.310990,-666.185348,-11695.253884,842.705048
59556.311299,-3256.906145,-10140.821405,0.000000
59556.311609,-74.020594,-9474.636058,-76.609550
59556.311918,1184.329507,-6883.915261,2451.505594
59556.312228,1110.308913,-5921.647536,-76.609550
59556.312537,-74.020594,-8142.265362,1762.019645
59556.312847,-1332.370696,-8216.285956,612.876398
59556.313157,-888.247130,-10584.944971,995.924147
59556.313466,-666.185348,-10066.800811,995.924147
59556.313776,-2220.617826,-9474.636058,1762.019645
59556.314085,-74.020594,-9474.636058,1608.800546
59556.314395,0.000000,-7179.997637,612.876398
59556.314704,-74.020594,-8882.471304,-76.609550
59556.315014,-2368.659014,-4811.338623,0.000000
59556.315323,1702.473667,-8290.306550,-76.609550
59556.315633,2294.638420,-9178.553681,1762.019645
59556.315943,444.123565,-10140.821405,1685.410096
59556.316252,0.000000,-10584.944971,1378.971896
59556.316562,666.185348,-8586.388927,306.438199
59556.316871,222.061783,-8512.368333,1455.581446
59556.317181,-518.144159,-8956.491898,1149.143247
59556.317490,-2072.576638,-7772.162391,0.000000
59556.317800,1480.411884,-11917.315666,3983.696590
59556.318109,-74.020594,-9474.636058,-76.609550
59556.318419,1702.473667,-11251.130318,1762.019645
59556.318728,0.000000,-10214.842000,1532.190996
59556.319038,370.102971,-8438.347739,459.657299
59556.319348,-2072.576638,-9548.656652,0.000000
59556.319657,-1702.473667,-8586.388927,76.609550
59556.319967,1110.308913,-8586.388927,536.266849
59556.320276,814.226536,-8734.430116,1378.971896
59556.320586,-1776.494261,-8956.491898,0.000000
59556.320895,-74.020594,-13027.624579,3600.648841
59556.321205,-1258.350101,-8660.409521,-842.705048
59556.321514,1110.308913,-11251.130318,2374.896044
59556.321824,-1776.494261,-9252.574275,1225.752797
59556.322134,-370.102971,-9696.697840,1915.238745
59556.322443,1110.308913,-8660.409521,2068.457845
59556.322753,-148.041188,-8290.306550,1378.971896
59556.323062,-666.185348,-9400.615463,2068.457845
59556.323372,0.000000,-8438.347739,1455.581446
59556.323681,-74.020594,-7402.059420,842.705048
59556.323991,-2368.659014,-9548.656652,2451.505594
59556.324300,-666.185348,-10658.965565,-76.609550
59556.324610,592.164754,-11547.212695,2987.772442
59556.324919,0.000000,-8364.327145,919.314598
59556.325229,-1406.391290,-8512.368333,995.924147
59556.325539,-1036.288319,-8660.409521,536.266849
59556.325848,1036.288319,-7772.162391,1532.190996
59556.326158,1702.473667,-8364.327145,1838.629195
59556.326467,0.000000,-9548.656652,1532.190996
59556.326777,-74.020594,-10658.965565,1149.143247
59556.327086,0.000000,-9548.656652,0.000000
59556.327396,2294.638420,-11251.130318,2374.896044
59556.327705,-296.082377,-9400.615463,1991.848295
59556.328015,0.000000,-6587.832884,0.000000
59556.328324,1480.411884,-7550.100608,766.095498
59556.328634,-370.102971,-9770.718434,612.876398
59556.328944,-2146.597232,-10214.842000,76.609550
59556.329253,222.061783,-10955.047942,0.000000
59556.329563,296.082377,-10140.821405,995.924147
59556.329872,-74.020594,-10066.800811,1455.581446
59556.330182,-3552.988522,-5995.668130,0.000000
59556.330491,3478.967927,-9474.636058,2987.772442
59556.330801,0.000000,-8364.327145,3064.381992
59556.331110,-1332.370696,-9622.677246,229.828649
59556.331420,-1110.308913,-10066.800811,536.266849
59556.331730,222.061783,-9030.512492,536.266849
59556.332039,-370.102971,-9696.697840,536.266849
59556.332349,-1480.411884,-9548.656652,0.000000
59556.332658,-592.164754,-9548.656652,1072.533697
59556.332968,1110.308913,-9474.636058,842.705048
59556.333277,0.000000,-8364.327145,1225.752797
59556.333587,-74.020594,-9474.636058,-76.609550
59556.333896,-3552.988522,-8364.327145,612.876398
59556.334206,-1850.514855,-9400.615463,0.000000
59556.334515,-1776.494261,-10140.821405,612.876398
59556.334825,-1406.391290,-8956.491898,612.876398
59556.335135,-592.164754,-6217.729913,229.828649
59556.335444,0.000000,-6587.832884,229.828649
59556.335754,0.000000,-8364.327145,1532.190996
59556.336063,-74.020594,-9474.636058,-76.609550
59556.336373,-2368.659014,-8364.327145,0.000000
59556.336682,-74.020594,-11547.212695,1762.019645
59556.336992,-3256.906145,-7179.997637,0.000000
59556.337301,518.144159,-6217.729913,-76.609550
59556.337611,814.226536,-7105.977043,306.438199
59556.337921,444.123565,-8586.388927,1149.143247
59556.338230,222.061783,-10140.821405,1225.752797
59556.338540,1554.432478,-9770.718434,2068.457845
59556.338849,1406.391290,-9696.697840,1991.848295
59556.339159,1110.308913,-10288.862594,2374.896044
59556.339468,-2368.659014,-5403.503377,0.000000
59556.339778,2368.659014,-9474.636058,2911.162892
59556.340087,-1406.391290,-6587.832884,306.438199
59556.340397,-370.102971,-9474.636058,536.266849
59556.340706,-74.020594,-9548.656652,766.095498
59556.341016,518.144159,-10658.965565,1608.800546
59556.341326,-370.102971,-10881.027347,1532.190996
59556.341635,-1184.329507,-9770.718434,1149.143247
59556.341945,296.082377,-9104.533087,536.266849
59556.342254,1480.411884,-8364.327145,2374.896044
59556.342564,-3552.988522,-5107.421000,0.000000
59556.342873,1702.473667,-9474.636058,2374.896044
59556.343183,-666.185348,-7402.059420,-1072.533697
59556.343492,-74.020594,-11843.295072,1608.800546
59556.343802,-2294.638420,-12435.459826,1072.533697
59556.344112,-1628.453072,-11621.233289,1302.362347
59556.344421,-888.247130,-8734.430116,1072.533697
59556.344731,-74.020594,-8882.471304,2374.896044
59556.345040,-74.020594,-6957.935855,1455.581446
59556.345350,0.000000,-5699.585753,2451.505594
59556.345659,-74.020594,-7698.141797,-76.609550
59556.345969,-3552.988522,-9548.656652,612.876398
59556.346278,-2442.679609,-11843.295072,229.828649
59556.346588,-1554.432478,-11177.109724,1072.533697
59556.346897,-1850.514855,-8882.471304,76.609550
59556.347207,-1776.494261,-8586.388927,995.924147
59556.347517,-148.041188,-7994.224174,1532.190996
59556.347826,2146.597232,-9474.636058,2987.772442
59556.348136,-666.185348,-6809.894666,383.047749
59556.348445,-2664.741391,-8660.409521,0.000000
59556.348755,2294.638420,-9474.636058,2374.896044
59556.349064,0.000000,-5995.668130,0.000000
59556.349374,-74.020594,-9178.553681,1149.143247
59556.349683,-592.164754,-9104.533087,919.314598
59556.349993,1258.350101,-10288.862594,1378.971896
59556.350303,1776.494261,-9252.574275,1608.800546
59556.350612,-148.041188,-7846.182985,612.876398
59556.350922,-74.020594,-9474.636058,2374.896044
59556.351231,1110.308913,-8808.450710,-383.047749
59556.351541,0.000000,-8364.327145,-3370.820191
59556.351850,-74.020594,-13915.871710,2068.457845
59556.352160,-2146.597232,-9548.656652,-1455.581446
59556.352469,3182.885551,-11251.130318,-76.609550
59556.352779,0.000000,-8956.491898,612.876398
59556.353088,-1406.391290,-8142.265362,153.219100
59556.353398,-666.185348,-7105.977043,0.000000
59556.353708,592.164754,-7402.059420,306.438199
59556.354017,1554.432478,-8216.285956,1762.019645
59556.354327,-74.020594,-9474.636058,-76.609550
59556.354636,0.000000,-9844.739029,0.000000
59556.354946,3478.967927,-13619.789333,2374.896044
59556.355255,-3404.947333,-10436.903782,-1685.410096
59556.355565,-74.020594,-12435.459826,1762.019645
59556.355874,-1184.329507,-7179.997637,0.000000
59556.356184,74.020594,-6587.832884,306.438199
59556.356494,-888.247130,-7402.059420,153.219100
59556.356803,-370.102971,-7994.224174,536.266849
59556.357113,1332.370696,-10732.986159,2451.505594
59556.357422,444.123565,-12065.356855,2374.896044
59556.357732,-1258.350101,-10214.842000,-76.609550
59556.358041,-592.164754,-10140.821405,3064.381992
59556.358351,-666.185348,-5921.647536,-76.609550
59556.358660,-74.020594,-6809.894666,2068.457845
59556.358970,-1554.432478,-6513.812290,0.000000
59556.359279,814.226536,-7994.224174,919.314598
59556.359589,888.247130,-10584.944971,1991.848295
59556.359899,-1332.370696,-13249.686362,2298.286494
59556.360208,-2368.659014,-11325.150913,1225.752797
59556.360518,-740.205942,-9548.656652,1838.629195
59556.360827,-74.020594,-4885.359217,0.000000
59556.361137,0.000000,-4811.338623,2451.505594
59556.361446,2294.638420,-6217.729913,2374.896044
59556.361756,3552.988522,-8068.244768,3983.696590
59556.362065,222.061783,-9548.656652,842.705048
59556.362375,-2590.720797,-12657.521608,459.657299
59556.362684,-2072.576638,-12213.398043,766.095498
59556.362994,-740.205942,-9474.636058,689.485948
59556.363304,-2072.576638,-7179.997637,0.000000
59556.363613,592.164754,-7105.977043,1532.190996
59556.363923,2294.638420,-7698.141797,-76.609550
59556.364232,0.000000,-7179.997637,1225.752797
59556.364542,-74.020594,-12287.418637,2298.286494
59556.364851,-3552.988522,-13101.645173,2451.505594
59556.365161,-1406.391290,-11547.212695,536.266849
59556.365470,-518.144159,-7994.224174,689.485948
59556.365780,148.041188,-5921.647536,1149.143247
59556.366090,1332.370696,-4885.359217,1608.800546
59556.366399,1776.494261,-5551.544565,0.000000
59556.366709,1184.329507,-11029.068536,1838.629195
59556.367018,-1258.350101,-16580.613101,-76.609550
59556.367328,-5625.565159,-10140.821405,-2451.505594
59556.367637,-740.205942,-10732.986159,689.485948
59556.367947,-2368.659014,-6735.874072,306.438199
59556.368256,-222.061783,-7105.977043,536.266849
59556.368566,1332.370696,-7846.182985,689.485948
59556.368875,1776.494261,-9030.512492,995.924147
59556.369185,-740.205942,-10436.903782,536.266849
59556.369495,-3478.967927,-8956.491898,-2145.067394
59556.369804,-2368.659014,-8956.491898,0.000000
59556.370114,-74.020594,-11251.130318,2374.896044
59556.370423,-4145.153275,-3923.091493,-2451.505594
59556.370733,-74.020594,-8068.244768,766.095498
59556.371042,592.164754,-5995.668130,612.876398
59556.371352,1776.494261,-9474.636058,1149.143247
59556.371661,-1184.329507,-11695.253884,383.047749
59556.371971,-1480.411884,-11695.253884,76.609550
59556.372281,-814.226536,-9548.656652,153.219100
59556.372590,-74.020594,-7698.141797,76.609550
59556.372900,0.000000,-5995.668130,306.438199
59556.373209,3478.967927,-9474.636058,3600.648841
59556.373519,1628.453072,-5403.503377,0.000000
59556.373828,1184.329507,-11399.171507,2528.115143
59556.374138,-2664.741391,-10732.986159,766.095498
59556.374447,-814.226536,-11843.295072,1072.533697
59556.374757,-1036.288319,-9400.615463,689.485948
59556.375066,-888.247130,-7476.080014,612.876398
59556.375376,518.144159,-6365.771101,766.095498
59556.375686,4071.132681,-7105.977043,1149.143247
59556.375995,1776.494261,-8808.450710,1378.971896
59556.376305,592.164754,-12509.480420,3677.258390
59556.376614,-74.020594,-13027.624579,-76.609550
59556.376924,-2368.659014,-10140.821405,612.876398
59556.377233,-2738.761985,-8734.430116,306.438199
59556.377543,-1480.411884,-8956.491898,1072.533697
59556.377852,518.144159,-6513.812290,766.095498
59556.378162,1924.535449,-6883.915261,1608.800546
59556.378472,0.000000,-8512.368333,1838.629195
59556.378781,-666.185348,-11843.295072,2374.896044
59556.379091,-1850.514855,-11695.253884,536.266849
59556.379400,-4737.318029,-9548.656652,0.000000
59556.379710,-74.020594,-10658.965565,-76.609550
59556.380019,-2294.638420,-5995.668130,0.000000
59556.380329,1036.288319,-4145.153275,0.000000
59556.380638,296.082377,-6735.874072,689.485948
59556.380948,-1628.453072,-9992.780217,306.438199
59556.381257,-2146.597232,-12435.459826,76.609550
59556.381567,-1702.473667,-12879.583391,1455.581446
59556.381877,-222.061783,-13027.624579,3600.648841
59556.382186,-74.020594,-6217.729913,536.266849
59556.382496,592.164754,-4219.173869,3064.381992
59556.382805,2590.720797,-2072.576638,229.828649
59556.383115,592.164754,-7772.162391,1378.971896
59556.383424,-74.020594,-12435.459826,-229.828649
59556.383734,-1480.411884,-12805.562797,0.000000
59556.384043,-962.267725,-11843.295072,689.485948
