#time,accel_x,accel_y,accel_z
59435.045310,-222.061783,-9400.615463,842.705048
59435.045619,-148.041188,-9178.553681,995.924147
59435.045929,1998.556043,-10658.965565,2374.896044
59435.046239,-74.020594,-9474.636058,536.266849
59435.046548,-1480.411884,-7179.997637,0.000000
59435.046858,1776.494261,-11547.212695,2987.772442
59435.047168,-1554.432478,-7476.080014,0.000000
59435.047477,0.000000,-7476.080014,612.876398
59435.047787,-222.061783,-8068.244768,0.000000
59435.048096,-592.164754,-8956.491898,612.876398
59435.048406,-592.164754,-9104.533087,842.705048
59435.048716,-222.061783,-9104.533087,689.485948
59435.049025,962.267725,-11547.212695,3600.648841
59435.049335,-74.020594,-10658.965565,1762.019645
59435.049645,-74.020594,-8882.471304,-689.485948
59435.049954,0.000000,-9548.656652,1838.629195
59435.050264,-222.061783,-8734.430116,229.828649
59435.050574,-3552.988522,-5995.668130,0.000000
59435.050883,-74.020594,-9178.553681,842.705048
59435.051193,-518.144159,-9104.533087,919.314598
59435.051503,-148.041188,-9252.574275,1072.533697
59435.051812,-370.102971,-9104.533087,612.876398
59435.052122,0.000000,-10214.842000,2451.505594
59435.052431,1036.288319,-10066.800811,1991.848295
59435.052741,-74.020594,-10658.965565,-76.609550
59435.053051,-3552.988522,-7179.997637,0.000000
59435.053360,1406.391290,-10510.924376,2374.896044
59435.053670,-1258.350101,-6957.935855,-1608.800546
59435.053980,-74.020594,-10066.800811,1762.019645
59435.054289,-296.082377,-8956.491898,536.266849
59435.054599,-444.123565,-8956.491898,842.705048
59435.054909,-444.123565,-8956.491898,919.314598
59435.055218,0.000000,-7772.162391,1225.752797
59435.055528,-592.164754,-9548.656652,1838.629195
59435.055838,-74.020594,-11251.130318,2374.896044
59435.056147,-2960.823768,-6587.832884,0.000000
59435.056457,1110.308913,-10362.883188,2221.676944
59435.056766,-74.020594,-8882.471304,-383.047749
59435.057076,592.164754,-9696.697840,1302.362347
59435.057386,-74.020594,-9252.574275,995.924147
59435.057695,-222.061783,-9030.512492,842.705048
59435.058005,-296.082377,-9030.512492,689.485948
59435.058315,-2368.659014,-7179.997637,0.000000
59435.058624,0.000000,-8364.327145,612.876398
59435.058934,1036.288319,-10732.986159,3447.429741
59435.059244,-370.102971,-8290.306550,-76.609550
59435.059553,0.000000,-9548.656652,1378.971896
59435.059863,2294.638420,-11251.130318,-76.609550
59435.060173,-592.164754,-9252.574275,1225.752797
59435.060482,-74.020594,-9400.615463,1455.581446
59435.060792,-370.102971,-8882.471304,919.314598
59435.061102,-148.041188,-9030.512492,612.876398
59435.061411,-2146.597232,-7179.997637,0.000000
59435.061721,-1776.494261,-7772.162391,0.000000
59435.062030,296.082377,-10732.986159,3370.820191
59435.062340,-370.102971,-8290.306550,-229.828649
59435.062650,0.000000,-8956.491898,766.095498
59435.062959,1998.556043,-11547.212695,2987.772442
59435.063269,0.000000,-8660.409521,612.876398
59435.063579,-74.020594,-9326.594869,766.095498
59435.063888,-518.144159,-8882.471304,766.095498
59435.064198,-444.123565,-8882.471304,842.705048
59435.064508,-74.020594,-8660.409521,-689.485948
59435.064817,-1332.370696,-8512.368333,536.266849
59435.065127,-1184.329507,-9548.656652,2451.505594
59435.065437,-74.020594,-8882.471304,-76.609550
59435.065746,0.000000,-8956.491898,1225.752797
59435.066056,-1110.308913,-7179.997637,229.828649
59435.066365,-74.020594,-9104.533087,536.266849
59435.066675,-444.123565,-8734.430116,612.876398
59435.066985,-444.123565,-9326.594869,459.657299
59435.067294,-296.082377,-9104.533087,766.095498
59435.067604,0.000000,-9918.759623,2298.286494
59435.067914,1110.308913,-9474.636058,2374.896044
59435.068223,-666.185348,-6957.935855,0.000000
59435.068533,296.082377,-8660.409521,1838.629195
59435.068843,1998.556043,-8882.471304,842.705048
59435.069152,2368.659014,-8956.491898,1838.629195
59435.069462,0.000000,-7179.997637,0.000000
59435.069772,3478.967927,-10362.883188,2298.286494
59435.070081,2294.638420,-9178.553681,689.485948
59435.070391,2072.576638,-9474.636058,536.266849
59435.070700,4663.297435,-10658.965565,2374.896044
59435.071010,3478.967927,-9474.636058,2374.896044
59435.071320,1110.308913,-7179.997637,-1225.752797
59435.071629,3849.070898,-10288.862594,2145.067394
59435.071939,3478.967927,-8586.388927,459.657299
59435.072249,5255.462188,-9030.512492,1991.848295
59435.072558,4737.318029,-8364.327145,1685.410096
59435.072868,5329.482782,-8216.285956,1838.629195
59435.073178,5329.482782,-8438.347739,1532.190996
59435.073487,5699.585753,-8290.306550,1532.190996
59435.073797,4737.318029,-7179.997637,0.000000
59435.074107,4737.318029,-7772.162391,0.000000
59435.074416,8216.285956,-11251.130318,-76.609550
59435.074726,4145.153275,-7476.080014,-1838.629195
59435.075035,7031.956449,-10955.047942,1149.143247
59435.075345,4219.173869,-9548.656652,0.000000
59435.075655,4663.297435,-11843.295072,-383.047749
59435.075964,3034.844362,-12435.459826,-459.657299
59435.076274,2590.720797,-12731.542202,76.609550
59435.076584,2294.638420,-11695.253884,766.095498
59435.076893,4071.132681,-10510.924376,2068.457845
59435.077203,5699.585753,-9474.636058,4826.401637
59435.077513,3478.967927,-3923.091493,536.266849
59435.077822,6809.894666,-5033.400406,3370.820191
59435.078132,7328.038826,-1776.494261,536.266849
59435.078442,9400.615463,-4515.256246,1302.362347
59435.078751,9030.512492,-6365.771101,2451.505594
59435.079061,6735.874072,-10066.800811,995.924147
59435.079370,2442.679609,-13841.851115,-842.705048
59435.079680,-1332.370696,-17542.880825,-1302.362347
59435.079990,-4145.153275,-16876.695478,-4290.134789
59435.080299,-5921.647536,-12731.542202,-4903.011187
59435.080609,-3256.906145,-11917.315666,-1225.752797
59435.080919,-666.185348,-7994.224174,-76.609550
59435.081228,0.000000,-3627.009116,2451.505594
59435.081538,5033.400406,-6439.791695,6588.421283
59435.081848,5699.585753,-3775.050304,5439.278036
59435.082157,3182.885551,-3849.070898,5132.839837
59435.082467,2072.576638,-3849.070898,3677.258390
59435.082777,2664.741391,-3627.009116,2145.067394
59435.083086,4367.215058,-4737.318029,3524.039291
59435.083396,4441.235652,-8734.430116,1762.019645
59435.083706,-74.020594,-11843.295072,-2528.115143
59435.084015,-4441.235652,-16062.468941,-3677.258390
59435.084325,-3627.009116,-22502.260637,-3447.429741
59435.084634,-6809.894666,-16358.551318,-4979.620737
59435.084944,-4663.297435,-12657.521608,-3064.381992
59435.085254,-666.185348,-8068.244768,-459.657299
59435.085563,2294.638420,-4737.318029,2374.896044
59435.085873,4663.297435,-5921.647536,6971.469032
59435.086183,4441.235652,-2442.679609,4826.401637
59435.086492,4737.318029,-2442.679609,4903.011187
59435.086802,9548.656652,-4737.318029,7814.174080
59435.087112,8216.285956,-2442.679609,2987.772442
59435.087421,5329.482782,-6883.915261,4903.011187
59435.087731,2294.638420,-11695.253884,1685.410096
59435.088041,-2220.617826,-14804.118840,-2834.553343
59435.088350,-3552.988522,-16580.613101,-4596.572988
59435.088660,-2738.761985,-16876.695478,-4060.306139
59435.088969,-4737.318029,-13101.645173,-5898.935335
59435.089279,-2664.741391,-12805.562797,-3064.381992
59435.089589,-74.020594,-10658.965565,-383.047749
59435.089898,3849.070898,-4811.338623,1838.629195
59435.090208,12361.439231,-2368.659014,4826.401637
59435.090518,10658.965565,-74.020594,7354.516781
59435.090827,11399.171507,-3701.029710,6588.421283
59435.091137,8290.306550,-6439.791695,4443.353888
59435.091447,7624.121203,-9770.718434,2374.896044
59435.091756,3108.864956,-10362.883188,0.000000
59435.092066,-148.041188,-14211.954086,-1915.238745
59435.092376,-3923.091493,-14508.036463,-5286.058936
59435.092685,-2294.638420,-12213.398043,-5822.325785
59435.092995,3849.070898,-13989.892304,0.000000
59435.093304,5847.626942,-9474.636058,-689.485948
59435.093614,1480.411884,-9548.656652,-76.609550
59435.093924,5107.421000,-8290.306550,1991.848295
59435.094233,7328.038826,-6217.729913,3370.820191
59435.094543,7994.224174,-2146.597232,3524.039291
59435.094853,5107.421000,-4367.215058,1991.848295
59435.095162,2368.659014,-3034.844362,0.000000
59435.095472,7402.059420,-8068.244768,2145.067394
59435.095782,7624.121203,-11843.295072,3600.648841
59435.096091,888.247130,-10362.883188,-1608.800546
59435.096401,-2368.659014,-14285.974681,-1838.629195
59435.096711,-1776.494261,-13249.686362,-2451.505594
59435.097020,-2294.638420,-11029.068536,-2757.943793
59435.097330,0.000000,-13619.789333,1072.533697
59435.097639,3997.112087,-7994.224174,1991.848295
59435.097949,6809.894666,-7105.977043,2834.553343
59435.098259,9400.615463,-8290.306550,5745.716235
59435.098568,4071.132681,-6513.812290,2834.553343
59435.098878,0.000000,-6587.832884,1225.752797
59435.099188,2294.638420,-9474.636058,-76.609550
59435.099497,-2146.597232,-7402.059420,-2451.505594
59435.099807,1110.308913,-10214.842000,-689.485948
59435.100117,962.267725,-12435.459826,-76.609550
59435.100426,-814.226536,-11991.336260,-1302.362347
59435.100736,-2368.659014,-13841.851115,-1991.848295
59435.101046,-2368.659014,-13101.645173,-766.095498
59435.101355,-3552.988522,-9548.656652,0.000000
59435.101665,2368.659014,-8512.368333,2757.943793
59435.101974,4663.297435,-8290.306550,4826.401637
59435.102284,592.164754,-4811.338623,2451.505594
59435.102594,3478.967927,-9474.636058,4519.963438
59435.102903,-2368.659014,-7772.162391,1838.629195
59435.103213,-2812.782580,-8068.244768,919.314598
59435.103523,-1924.535449,-9548.656652,1532.190996
59435.103832,-2960.823768,-9844.739029,1378.971896
59435.104142,-4885.359217,-10214.842000,306.438199
59435.104452,-4811.338623,-11843.295072,-76.609550
59435.104761,-7105.977043,-10436.903782,-1991.848295
59435.105071,-5477.523971,-10288.862594,-689.485948
59435.105381,-3404.947333,-8586.388927,689.485948
59435.105690,-444.123565,-7179.997637,1608.800546
59435.106000,1184.329507,-5995.668130,3064.381992
59435.106309,2146.597232,-7179.997637,4290.134789
59435.106619,-74.020594,-7105.977043,-76.609550
59435.106929,-3552.988522,-10807.006753,1225.752797
59435.107238,-2738.761985,-10658.965565,-383.047749
59435.107548,-962.267725,-11473.192101,1149.143247
59435.107858,-3478.967927,-9252.574275,306.438199
59435.108167,-4737.318029,-8956.491898,0.000000
59435.108477,-5107.421000,-9770.718434,-689.485948
59435.108787,-2664.741391,-9844.739029,383.047749
59435.109096,-2368.659014,-5995.668130,1225.752797
59435.109406,-1184.329507,-5107.421000,2451.505594
59435.109716,4663.297435,-6513.812290,3600.648841
59435.110025,1480.411884,-4811.338623,2451.505594
59435.110335,4737.318029,-7772.162391,3370.820191
59435.110645,1480.411884,-10658.965565,2987.772442
59435.110954,-2664.741391,-11399.171507,-1685.410096
59435.111264,-2516.700203,-12213.398043,-2145.067394
59435.111573,-666.185348,-13027.624579,-689.485948
59435.111883,-666.185348,-12065.356855,-842.705048
59435.112193,-4589.276840,-9548.656652,-2451.505594
59435.112502,-3404.947333,-10288.862594,0.000000
59435.112812,-74.020594,-9474.636058,-76.609550
59435.113122,0.000000,-6587.832884,1378.971896
59435.113431,4145.153275,-5403.503377,4136.915689
59435.113741,5921.647536,-5403.503377,5362.668486
59435.114051,7402.059420,-4293.194464,4673.182538
59435.114360,6661.853478,-6069.688724,3677.258390
59435.114670,2664.741391,-8364.327145,1225.752797
59435.114980,-1480.411884,-11843.295072,-1608.800546
59435.115289,-3330.926739,-12509.480420,-4903.011187
59435.115599,-666.185348,-16580.613101,-1302.362347
59435.115908,-3552.988522,-11917.315666,-3677.258390
59435.116218,-3552.988522,-11917.315666,-1838.629195
59435.116528,-74.020594,-13619.789333,-76.609550
59435.116837,-444.123565,-10066.800811,-76.609550
59435.117147,1628.453072,-7846.182985,2681.334243
59435.117457,3775.050304,-4441.235652,3600.648841
59435.117766,2960.823768,-2442.679609,3677.258390
59435.118076,7402.059420,-3330.926739,5132.839837
59435.118386,7031.956449,-4145.153275,3600.648841
59435.118695,1184.329507,-6587.832884,919.314598
59435.119005,1110.308913,-10066.800811,-76.609550
59435.119315,-3034.844362,-14582.057057,-1378.971896
59435.119624,-2442.679609,-14137.933492,-3294.210641
59435.119934,-5921.647536,-15766.386565,-919.314598
59435.120244,-4811.338623,-14211.954086,-1915.238745
59435.120553,-8068.244768,-10584.944971,-3830.477490
59435.120863,-4737.318029,-9548.656652,0.000000
59435.121172,-74.020594,-8882.471304,2374.896044
59435.121482,2294.638420,-4737.318029,6052.154434
59435.121792,3552.988522,-2442.679609,4903.011187
59435.122101,5403.503377,-3627.009116,6588.421283
59435.122411,6809.894666,-2812.782580,5132.839837
59435.122721,4145.153275,-6069.688724,3677.258390
59435.123030,-1850.514855,-8586.388927,-1608.800546
59435.123340,-5181.441594,-14285.974681,-1991.848295
59435.123650,-4589.276840,-15396.283594,-2987.772442
59435.123959,-4737.318029,-15026.180623,-2604.724693
59435.124269,-7772.162391,-14508.036463,-2528.115143
59435.124579,-8438.347739,-13915.871710,-1302.362347
59435.124888,-5255.462188,-10955.047942,-1762.019645
59435.125198,-4737.318029,-4811.338623,0.000000
59435.125508,3182.885551,-6513.812290,6665.030833
59435.125817,2886.803174,-222.061783,4290.134789
59435.126127,7031.956449,-888.247130,4826.401637
59435.126436,6365.771101,-1850.514855,6128.763984
59435.126746,4959.379811,-5403.503377,6665.030833
59435.127056,-2442.679609,-7698.141797,-842.705048
59435.127365,-4737.318029,-13397.727550,-1838.629195
59435.127675,-5329.482782,-15174.221811,-4290.134789
59435.127985,-4811.338623,-17764.942608,-4979.620737
59435.128294,-8438.347739,-15396.283594,-5209.449386
59435.128604,-9474.636058,-14878.139434,-4443.353888
59435.128914,-4219.173869,-11695.253884,-3294.210641
59435.129223,0.000000,-10510.924376,3217.601092
59435.129533,2072.576638,-4737.318029,3907.087040
59435.129843,4737.318029,-2368.659014,7048.078582
59435.130152,9326.594869,-814.226536,8044.002729
59435.130462,10658.965565,-1258.350101,8427.050478
59435.130772,6217.729913,-444.123565,4903.011187
59435.131081,1406.391290,-6883.915261,1838.629195
59435.131391,-74.020594,-14211.954086,-689.485948
59435.131700,-4737.318029,-14285.974681,-5975.544884
59435.132010,-5329.482782,-16654.633695,-5515.887586
59435.132320,-9474.636058,-17838.963202,-5515.887586
59435.132629,-9252.574275,-16284.530724,-6511.811733
59435.132939,-4293.194464,-13693.809927,-3753.867940
59435.133249,-518.144159,-10066.800811,0.000000
59435.133558,2368.659014,-6069.688724,4060.306139
59435.133868,6143.709319,-1702.473667,4979.620737
59435.134178,10584.944971,1110.308913,6511.811733
59435.134487,13767.830521,-1554.432478,11951.089769
59435.134797,9992.780217,0.000000,7277.907231
59435.135107,2368.659014,-3923.091493,3064.381992
59435.135416,-1184.329507,-10732.986159,76.609550
59435.135726,-2442.679609,-14063.912898,-3600.648841
59435.136036,-5921.647536,-16654.633695,-6588.421283
59435.136345,-10881.027347,-18283.086767,-7431.126331
59435.136655,-11251.130318,-17690.922014,-7048.078582
59435.136964,-7179.997637,-16580.613101,-4366.744339
59435.137274,-2960.823768,-10140.821405,-3677.258390
59435.137584,2368.659014,-9400.615463,5515.887586
59435.137893,5255.462188,-2368.659014,5439.278036
59435.138203,8290.306550,-74.020594,8580.269578
59435.138513,11325.150913,1702.473667,10112.460574
59435.138822,9696.697840,148.041188,8044.002729
59435.139132,3182.885551,-3478.967927,3600.648841
59435.139442,-962.267725,-10214.842000,153.219100
59435.139751,-2812.782580,-13249.686362,-3064.381992
59435.140061,-5403.503377,-18357.107362,-5592.497135
59435.140371,-10436.903782,-15692.365970,-9882.631924
59435.140680,-13027.624579,-21539.992912,-6128.763984
59435.140990,-8364.327145,-18949.272115,-5592.497135
59435.141300,-6217.729913,-13101.645173,-2451.505594
59435.141609,-3552.988522,-8068.244768,2451.505594
59435.141919,5107.421000,-2368.659014,6741.640382
59435.142228,8956.491898,-444.123565,10648.727422
59435.142538,12583.501014,3849.070898,11184.994271
59435.142848,9918.759623,1924.535449,10035.851024
59435.143157,4663.297435,-2368.659014,6052.154434
59435.143467,-1406.391290,-8586.388927,-76.609550
59435.143777,-4737.318029,-13101.645173,-2451.505594
59435.144086,-6587.832884,-18949.272115,-5286.058936
59435.144396,-13027.624579,-17987.004391,-9193.145976
59435.144706,-13397.727550,-17987.004391,-11031.775171
59435.145015,-9474.636058,-18283.086767,-5975.544884
59435.145325,-4367.215058,-14211.954086,-2451.505594
59435.145635,-1332.370696,-9030.512492,2068.457845
59435.145944,3923.091493,-3923.091493,5592.497135
59435.146254,10807.006753,-1776.494261,12180.918418
59435.146564,13545.768739,0.000000,13406.671215
59435.146873,7698.141797,4071.132681,8273.831378
59435.147183,6217.729913,-1258.350101,6435.202183
59435.147492,1406.391290,-8586.388927,2374.896044
59435.147802,-74.020594,-11843.295072,-2221.676944
59435.148112,-5181.441594,-15766.386565,-4903.011187
59435.148421,-10881.027347,-19023.292709,-8273.831378
59435.148731,-13397.727550,-18579.169144,-10189.070123
59435.149041,-11695.253884,-19319.375086,-6818.249932
59435.149350,-6217.729913,-16358.551318,-2298.286494
59435.149660,-74.020594,-12139.377449,2987.772442
59435.149970,4071.132681,-4737.318029,4213.525239
59435.150279,9474.636058,-74.020594,9806.022374
59435.150589,16432.571912,888.247130,13406.671215
59435.150899,14730.098246,1184.329507,9729.412825
59435.151208,6957.935855,518.144159,5592.497135
59435.151518,1998.556043,-6365.771101,2451.505594
59435.151827,-518.144159,-11399.171507,-536.266849
59435.152137,-3182.885551,-15026.180623,-3370.820191
59435.152447,-9178.553681,-16654.633695,-7354.516781
59435.152756,-10732.986159,-20725.766376,-8656.879127
59435.153066,-13693.809927,-19615.457463,-9806.022374
59435.153376,-7698.141797,-16062.468941,-4596.572988
59435.153685,-1850.514855,-11843.295072,-76.609550
59435.153995,3034.844362,-4737.318029,4213.525239
59435.154305,8438.347739,-296.082377,7354.516781
59435.154614,14656.077652,1406.391290,12870.404366
59435.154924,14063.912898,2590.720797,12334.137518
59435.155234,8068.244768,888.247130,7354.516781
59435.155543,1184.329507,-2442.679609,1838.629195
59435.155853,296.082377,-9548.656652,612.876398
59435.156163,-74.020594,-15988.448347,-1302.362347
59435.156472,-9252.574275,-17542.880825,-8503.660028
59435.156782,-13027.624579,-19171.333898,-10418.898773
59435.157091,-13915.871710,-21317.931130,-8656.879127
59435.157401,-11695.253884,-16358.551318,-8350.440928
59435.157711,-6735.874072,-11621.233289,-3294.210641
59435.158020,888.247130,-5329.482782,2834.553343
59435.158330,7920.203579,-2368.659014,7354.516781
59435.158640,13027.624579,4663.297435,12870.404366
59435.158949,13027.624579,4663.297435,14709.033562
59435.159259,11177.109724,1184.329507,9729.412825
59435.159569,1850.514855,-370.102971,1915.238745
59435.159878,-592.164754,-7846.182985,919.314598
59435.160188,-3404.947333,-14211.954086,-995.924147
59435.160498,-9548.656652,-17172.777854,-7431.126331
59435.160807,-14211.954086,-21539.992912,-10495.508323
59435.161117,-13471.748144,-21391.951724,-11568.042020
59435.161427,-11621.233289,-16654.633695,-9806.022374
59435.161736,-9474.636058,-11473.192101,-5515.887586
59435.162046,-2368.659014,-2442.679609,0.000000
59435.162355,7402.059420,-5995.668130,11031.775171
59435.162665,15322.262999,0.000000,14632.424012
59435.162975,13175.665768,4663.297435,14785.643111
59435.163284,7105.977043,2294.638420,9193.145976
59435.163594,3478.967927,888.247130,4366.744339
59435.163904,222.061783,-3849.070898,1378.971896
59435.164213,0.000000,-9030.512492,-1532.190996
59435.164523,-7698.141797,-15470.304188,-5592.497135
59435.164833,-12805.562797,-18949.272115,-9882.631924
59435.165142,-15988.448347,-16950.716072,-14709.033562
59435.165452,-12287.418637,-22280.198854,-6511.811733
59435.165762,-10140.821405,-14211.954086,-6205.373534
59435.166071,-4515.256246,-10436.903782,1455.581446
59435.166381,7402.059420,-5403.503377,7660.954980
59435.166691,15322.262999,74.020594,13713.109414
59435.167000,14878.139434,1776.494261,13866.328514
59435.167310,11843.295072,2146.597232,11338.213370
59435.167619,6291.750507,296.082377,6052.154434
59435.167929,3478.967927,-4737.318029,2987.772442
59435.168239,1998.556043,-7698.141797,-1302.362347
59435.168548,-7105.977043,-12509.480420,-4903.011187
59435.168858,-12509.480420,-18949.272115,-9882.631924
59435.169168,-14211.954086,-22576.281231,-11644.651570
59435.169477,-14211.954086,-21688.034101,-8580.269578
59435.169787,-9696.697840,-17912.983796,-5515.887586
59435.170097,-3701.029710,-10955.047942,-1072.533697
59435.170406,5625.565159,-6883.915261,4979.620737
59435.170716,13471.748144,-4145.153275,13406.671215
59435.171026,16506.592507,-1628.453072,17083.929605
59435.171335,15322.262999,0.000000,13100.233016
59435.171645,5847.626942,-740.205942,4213.525239
59435.171955,592.164754,-4219.173869,1225.752797
59435.172264,-74.020594,-8290.306550,0.000000
59435.172574,-5921.647536,-11917.315666,-4903.011187
59435.172883,-10362.883188,-15248.242405,-10112.460574
59435.173193,-12361.439231,-18579.169144,-11414.822920
59435.173503,-12805.562797,-18357.107362,-10035.851024
59435.173812,-8364.327145,-18653.189738,-3140.991542
59435.174122,-1702.473667,-13619.789333,995.924147
59435.174432,7031.956449,-9474.636058,6971.469032
59435.174741,11769.274478,-2590.720797,10955.165621
59435.175051,14211.954086,1110.308913,14709.033562
59435.175361,12657.521608,888.247130,11644.651570
59435.175670,6143.709319,1480.411884,5132.839837
59435.175980,2368.659014,-2590.720797,1225.752797
59435.176290,-1406.391290,-7920.203579,306.438199
59435.176599,-4071.132681,-12139.377449,-2834.553343
59435.176909,-8438.347739,-17912.983796,-7967.393179
59435.177219,-13027.624579,-19319.375086,-12257.527968
59435.177528,-9548.656652,-20725.766376,-10189.070123
59435.177838,-10955.047942,-16654.633695,-6741.640382
59435.178147,-3256.906145,-12509.480420,0.000000
59435.178457,4367.215058,-7772.162391,3140.991542
59435.178767,11769.274478,-4737.318029,11568.042020
59435.179076,13619.789333,666.185348,12487.356617
59435.179386,11547.212695,2146.597232,12257.527968
59435.179696,7624.121203,296.082377,6511.811733
59435.180005,3552.988522,-666.185348,3064.381992
59435.180315,0.000000,-4219.173869,1608.800546
59435.180625,-2368.659014,-9548.656652,-1838.629195
59435.180934,-10732.986159,-14804.118840,-8350.440928
59435.181244,-14804.118840,-17838.963202,-11644.651570
59435.181554,-12509.480420,-16876.695478,-12334.137518
59435.181863,-10732.986159,-18949.272115,-7431.126331
59435.182173,-5699.585753,-9474.636058,-5056.230287
59435.182483,740.205942,-8808.450710,2451.505594
59435.182792,11177.109724,-5033.400406,10112.460574
59435.183102,11843.295072,1702.473667,12257.527968
59435.183411,10066.800811,2368.659014,13713.109414
59435.183721,7105.977043,3478.967927,6741.640382
59435.184031,6291.750507,-2960.823768,6665.030833
59435.184340,1998.556043,-666.185348,0.000000
59435.184650,-2294.638420,-9474.636058,-689.485948
59435.184960,-7179.997637,-15396.283594,-4979.620737
59435.185269,-11325.150913,-17468.860231,-12257.527968
59435.185579,-14063.912898,-18949.272115,-12334.137518
59435.185889,-14063.912898,-21021.848753,-7584.345430
59435.186198,-10510.924376,-14878.139434,-5592.497135
59435.186508,0.000000,-8512.368333,-76.609550
59435.186818,7698.141797,-5403.503377,9806.022374
59435.187127,12953.603985,-2368.659014,14632.424012
59435.187437,9622.677246,1702.473667,8580.269578
59435.187747,10362.883188,0.000000,10648.727422
59435.188056,7105.977043,-1850.514855,6741.640382
59435.188366,4293.194464,-4737.318029,3983.696590
59435.188675,-1406.391290,-6883.915261,-1225.752797
59435.188985,-7994.224174,-13989.892304,-4826.401637
59435.189295,-9844.739029,-18653.189738,-9959.241474
59435.189604,-11917.315666,-20133.601622,-12334.137518
59435.189914,-16580.613101,-19023.292709,-9806.022374
59435.190224,-8882.471304,-16358.551318,-5822.325785
59435.190533,-74.020594,-11843.295072,-76.609550
59435.190843,8660.409521,-7772.162391,8733.488677
59435.191153,11843.295072,-2738.761985,13483.280765
59435.191462,10881.027347,-1998.556043,13330.061665
59435.191772,11769.274478,2886.803174,9806.022374
59435.192082,8660.409521,0.000000,6741.640382
59435.192391,5847.626942,-2368.659014,4749.792088
59435.192701,2294.638420,-9474.636058,2374.896044
59435.193011,-7179.997637,-9622.677246,-6205.373534
59435.193320,-11843.295072,-17246.798449,-10418.898773
59435.193630,-11917.315666,-23686.590144,-11108.384721
59435.193939,-15692.365970,-21688.034101,-9039.926876
59435.194249,-11547.212695,-17838.963202,-7048.078582
59435.194559,-962.267725,-11621.233289,-1608.800546
59435.194868,7105.977043,-8808.450710,6665.030833
59435.195178,11547.212695,-6365.771101,12410.747068
59435.195488,12361.439231,-3552.988522,14019.547613
59435.195797,13545.768739,0.000000,12563.966167
59435.196107,9400.615463,0.000000,6052.154434
59435.196417,3552.988522,-74.020594,3064.381992
59435.196726,1850.514855,-6513.812290,-76.609550
59435.197036,-5921.647536,-9548.656652,-2451.505594
59435.197346,-10066.800811,-16210.510130,-8120.612279
59435.197655,-11399.171507,-19689.478057,-12104.308868
59435.197965,-14582.057057,-20133.601622,-10648.727422
59435.198275,-12361.439231,-16802.674883,-7354.516781
59435.198584,-1258.350101,-9474.636058,-1685.410096
59435.198894,5847.626942,-6883.915261,4903.011187
59435.199203,11769.274478,-3552.988522,9729.412825
59435.199513,8660.409521,-888.247130,10342.289223
59435.199823,7105.977043,3478.967927,9806.022374
59435.200132,10066.800811,4071.132681,6435.202183
59435.200442,8512.368333,1184.329507,6665.030833
59435.200752,2960.823768,-1258.350101,3064.381992
59435.201061,-1480.411884,-8586.388927,842.705048
59435.201371,-6735.874072,-13619.789333,-7277.907231
59435.201681,-13619.789333,-16950.716072,-11644.651570
59435.201990,-15988.448347,-20355.663405,-11031.775171
59435.202300,-11917.315666,-18949.272115,-8044.002729
59435.202610,-4367.215058,-12435.459826,-4979.620737
59435.202919,0.000000,-7179.997637,306.438199
59435.203229,5921.647536,-6291.750507,6128.763984
59435.203538,8512.368333,-3404.947333,9422.974625
59435.203848,9474.636058,-666.185348,9806.022374
59435.204158,10955.047942,-1406.391290,10265.679673
59435.204467,8216.285956,1924.535449,4903.011187
59435.204777,3256.906145,-3923.091493,5209.449386
59435.205087,3478.967927,-8068.244768,2451.505594
59435.205396,-3627.009116,-14211.954086,-4979.620737
59435.205706,-13619.789333,-14878.139434,-10725.336972
59435.206016,-16580.613101,-20651.745782,-10418.898773
59435.206325,-16284.530724,-16062.468941,-11031.775171
59435.206635,-9400.615463,-11621.233289,-6971.469032
59435.206945,296.082377,-7254.018232,-2451.505594
59435.207254,4885.359217,-6735.874072,3983.696590
59435.207564,5921.647536,-6587.832884,9652.803275
59435.207874,9400.615463,-4219.173869,11184.994271
59435.208183,9474.636058,-296.082377,12180.918418
59435.208493,11769.274478,1480.411884,8503.660028
59435.208802,4737.318029,-74.020594,4903.011187
59435.209112,4367.215058,-8882.471304,5822.325785
59435.209422,-3034.844362,-10658.965565,-3140.991542
59435.209731,-7772.162391,-16580.613101,-7431.126331
59435.210041,-14434.015869,-17098.757260,-12027.699319
59435.210351,-16284.530724,-19837.519246,-10342.289223
59435.210660,-10807.006753,-16580.613101,-6511.811733
59435.210970,-3256.906145,-11917.315666,-3064.381992
59435.211280,1184.329507,-9548.656652,2451.505594
59435.211589,7698.141797,-6291.750507,9806.022374
59435.211899,9400.615463,-4145.153275,10342.289223
59435.212209,12435.459826,-666.185348,12870.404366
59435.212518,14137.933492,2368.659014,9729.412825
59435.212828,8808.450710,-2368.659014,9116.536426
59435.213138,814.226536,-2960.823768,-842.705048
59435.213448,-3923.091493,-9918.759623,-2145.067394
59435.213758,-6883.915261,-14804.118840,-7277.907231
59435.214068,-16580.613101,-16654.633695,-11951.089769
59435.214378,-16580.613101,-14285.974681,-12640.575717
59435.214687,-13027.624579,-14285.974681,-7354.516781
59435.214997,-1184.329507,-13693.809927,-1991.848295
59435.215307,2294.638420,-11843.295072,3600.648841
59435.215617,4885.359217,-8882.471304,7890.783629
59435.215927,10658.965565,-5847.626942,12104.308868
59435.216237,12657.521608,-74.020594,12487.356617
59435.216547,14434.015869,1480.411884,11644.651570
59435.216857,7402.059420,0.000000,7048.078582
59435.217166,444.123565,-3034.844362,3294.210641
59435.217476,-1850.514855,-8290.306550,-1302.362347
59435.217786,-9474.636058,-11325.150913,-7354.516781
59435.218096,-15396.283594,-16654.633695,-12104.308868
59435.218406,-14285.974681,-18949.272115,-10495.508323
59435.218716,-10732.986159,-18209.066173,-8656.879127
59435.219026,-2960.823768,-14434.015869,-2451.505594
59435.219335,-666.185348,-13249.686362,1608.800546
59435.219645,3997.112087,-6439.791695,5745.716235
59435.219955,8438.347739,-3034.844362,9116.536426
59435.220265,12361.439231,-2368.659014,13406.671215
59435.220575,15914.427753,1184.329507,14019.547613
59435.220885,8512.368333,3108.864956,6358.592633
59435.221195,1184.329507,-1850.514855,3983.696590
59435.221504,-74.020594,-7105.977043,-1302.362347
59435.221814,-5625.565159,-12657.521608,-5515.887586
59435.222124,-15396.283594,-17246.798449,-11644.651570
59435.222434,-16284.530724,-20059.581028,-11951.089769
59435.222744,-12879.583391,-19467.416275,-10035.851024
59435.223054,-4145.153275,-15174.221811,-3370.820191
59435.223364,-74.020594,-16580.613101,1762.019645
59435.223673,6439.791695,-9474.636058,8503.660028
59435.223983,6735.874072,-4515.256246,7890.783629
59435.224293,10955.047942,-3034.844362,14096.157163
59435.224603,16506.592507,0.000000,17083.929605
59435.224913,9474.636058,4663.297435,8580.269578
59435.225223,0.000000,-370.102971,1838.629195
59435.225533,-2072.576638,-2294.638420,-2374.896044
59435.225842,-5107.421000,-11843.295072,-4826.401637
59435.226152,-14804.118840,-16210.510130,-10418.898773
59435.226462,-14878.139434,-17912.983796,-14325.985813
59435.226772,-13767.830521,-20799.786970,-9959.241474
59435.227082,-5995.668130,-18949.272115,-4979.620737
59435.227392,-4219.173869,-17172.777854,842.705048
59435.227702,296.082377,-9548.656652,3677.258390
59435.228011,5921.647536,-4219.173869,7354.516781
59435.228321,11177.109724,-2590.720797,13713.109414
59435.228631,16136.489536,3108.864956,13176.842566
59435.228941,12509.480420,3182.885551,9652.803275
59435.229251,3849.070898,518.144159,5822.325785
59435.229561,2072.576638,-3627.009116,919.314598
59435.229871,-5625.565159,-10140.821405,-4290.134789
59435.230181,-11917.315666,-14804.118840,-11108.384721
59435.230490,-19837.519246,-14878.139434,-14709.033562
59435.230800,-17764.942608,-19023.292709,-11644.651570
59435.231110,-8808.450710,-13693.809927,-8580.269578
59435.231420,-4219.173869,-16580.613101,-2528.115143
59435.231730,1184.329507,-7920.203579,2298.286494
59435.232040,7698.141797,-8882.471304,9422.974625
59435.232350,12879.583391,-5625.565159,15092.081311
59435.232659,16580.613101,1702.473667,13483.280765
59435.232969,10658.965565,3478.967927,11644.651570
59435.233279,7402.059420,814.226536,7660.954980
59435.233589,2294.638420,-4145.153275,3600.648841
59435.233899,-4737.318029,-5403.503377,-4903.011187
59435.234209,-9844.739029,-10955.047942,-11414.822920
59435.234519,-15470.304188,-18653.189738,-13866.328514
59435.234828,-15618.345376,-19023.292709,-13866.328514
59435.235138,-11029.068536,-21762.054695,-8120.612279
59435.235448,-3627.009116,-19837.519246,-2757.943793
59435.235758,-2072.576638,-14285.974681,0.000000
59435.236068,3256.906145,-9548.656652,7354.516781
59435.236378,13027.624579,-5995.668130,15321.909960
59435.236688,18283.086767,-1480.411884,16777.491406
59435.236997,12657.521608,7031.956449,11031.775171
59435.237307,9400.615463,1776.494261,7890.783629
59435.237617,3775.050304,0.000000,3370.820191
59435.237927,-2738.761985,-6217.729913,-3217.601092
59435.238237,-11251.130318,-12287.418637,-8733.488677
59435.238547,-17172.777854,-16950.716072,-15934.786358
59435.238857,-18801.230927,-22280.198854,-12487.356617
59435.239166,-12509.480420,-17764.942608,-10495.508323
59435.239476,-5921.647536,-16654.633695,-4903.011187
59435.239786,0.000000,-13101.645173,1225.752797
59435.240096,9400.615463,-10658.965565,7277.907231
59435.240406,11769.274478,-9474.636058,14632.424012
59435.240716,16580.613101,-3034.844362,17620.196454
59435.241026,15174.221811,2442.679609,14632.424012
59435.241335,7476.080014,2368.659014,8503.660028
59435.241645,3775.050304,1850.514855,2757.943793
59435.241955,-962.267725,-5921.647536,-153.219100
59435.242265,-3923.091493,-11843.295072,-5898.935335
59435.242575,-16580.613101,-13101.645173,-14709.033562
59435.242885,-14878.139434,-18949.272115,-10495.508323
59435.243195,-11917.315666,-18949.272115,-10495.508323
59435.243505,-6291.750507,-21910.095883,-2221.676944
59435.243814,-2368.659014,-14878.139434,306.438199
59435.244124,2812.782580,-10732.986159,3907.087040
59435.244434,8956.491898,-7550.100608,10725.336972
59435.244744,12805.562797,-4219.173869,14172.766713
59435.245054,13545.768739,592.164754,13866.328514
59435.245364,12361.439231,1184.329507,10342.289223
59435.245674,5847.626942,2812.782580,4673.182538
59435.245983,-2368.659014,-4811.338623,0.000000
59435.246293,-3627.009116,-13027.624579,-689.485948
59435.246603,-12583.501014,-15766.386565,-10495.508323
59435.246913,-16432.571912,-17838.963202,-13789.718964
59435.247223,-13989.892304,-23390.507767,-10189.070123
59435.247533,-10066.800811,-20799.786970,-5209.449386
59435.247843,-4885.359217,-21910.095883,-459.657299
59435.248152,2146.597232,-16432.571912,4979.620737
59435.248462,9474.636058,-8734.430116,9806.022374
59435.248772,13545.768739,-6809.894666,14019.547613
59435.249082,12509.480420,2886.803174,9806.022374
59435.249392,10658.965565,-74.020594,10418.898773
59435.249702,2960.823768,2294.638420,4903.011187
59435.250012,-2368.659014,-2442.679609,1149.143247
59435.250321,-4145.153275,-5995.668130,-3677.258390
59435.250631,-12213.398043,-14211.954086,-7967.393179
59435.250941,-12509.480420,-14804.118840,-13330.061665
59435.251251,-12657.521608,-19023.292709,-10955.165621
59435.251561,-11621.233289,-20651.745782,-5592.497135
59435.251871,-4885.359217,-16580.613101,-2298.286494
59435.252181,1702.473667,-15988.448347,2374.896044
59435.252490,5921.647536,-9548.656652,6128.763984
59435.252800,11251.130318,-3627.009116,12870.404366
59435.253110,13545.768739,-2368.659014,13713.109414
59435.253420,13323.706956,1850.514855,10189.070123
59435.253730,5403.503377,1184.329507,4596.572988
59435.254040,1184.329507,-1998.556043,1149.143247
59435.254350,-2960.823768,-5995.668130,-1838.629195
59435.254659,-10658.965565,-11917.315666,-7967.393179
59435.254969,-11917.315666,-15100.201217,-12334.137518
59435.255279,-13323.706956,-19615.457463,-11031.775171
59435.255589,-9548.656652,-21317.931130,-4060.306139
59435.255899,-6143.709319,-15322.262999,-4903.011187
59435.256209,1998.556043,-11843.295072,1149.143247
59435.256519,6661.853478,-5773.606348,5362.668486
59435.256829,11769.274478,-3775.050304,12334.137518
59435.257138,13767.830521,-2664.741391,14938.862211
59435.257448,11251.130318,4663.297435,9806.022374
59435.257758,6809.894666,2960.823768,5286.058936
59435.258068,1480.411884,-74.020594,2757.943793
59435.258378,-1554.432478,-7105.977043,-1302.362347
59435.258688,-10658.965565,-9548.656652,-8580.269578
59435.258998,-10732.986159,-12435.459826,-13559.890315
59435.259307,-9548.656652,-18357.107362,-8656.879127
59435.259617,-9252.574275,-17690.922014,-5669.106685
59435.259927,-3478.967927,-17542.880825,-153.219100
59435.260237,74.020594,-15026.180623,2451.505594
59435.260547,4145.153275,-8290.306550,5132.839837
59435.260857,7328.038826,-11251.130318,10189.070123
59435.261167,10658.965565,-2442.679609,11031.775171
59435.261476,12879.583391,-1776.494261,12180.918418
59435.261786,7031.956449,0.000000,4826.401637
59435.262096,1702.473667,0.000000,-76.609550
59435.262406,-4811.338623,-8142.265362,-1608.800546
59435.262716,-9252.574275,-12731.542202,-5898.935335
59435.263026,-11695.253884,-15470.304188,-10648.727422
59435.263336,-11621.233289,-17542.880825,-8810.098227
59435.263645,-7772.162391,-17468.860231,-4979.620737
59435.263955,-2812.782580,-18209.066173,-689.485948
59435.264265,-1036.288319,-14582.057057,306.438199
59435.264575,1184.329507,-14285.974681,7354.516781
59435.264885,8808.450710,-10658.965565,9116.536426
59435.265195,11769.274478,-6809.894666,12180.918418
59435.265505,10658.965565,-740.205942,10648.727422
59435.265814,6217.729913,666.185348,5362.668486
59435.266124,1036.288319,-2960.823768,2911.162892
59435.266434,-2220.617826,-5625.565159,-1685.410096
59435.266744,-9548.656652,-11251.130318,-5286.058936
59435.267054,-10881.027347,-13915.871710,-10265.679673
59435.267364,-10436.903782,-14285.974681,-9499.584175
59435.267674,-8290.306550,-16062.468941,-3677.258390
59435.267983,-1258.350101,-15396.283594,-76.609550
59435.268293,1110.308913,-10658.965565,2068.457845
59435.268603,2664.741391,-9548.656652,4903.011187
59435.268913,7994.224174,-6735.874072,8427.050478
59435.269223,9696.697840,-3849.070898,11338.213370
59435.269533,9030.512492,518.144159,8350.440928
59435.269843,7031.956449,148.041188,5515.887586
59435.270153,4663.297435,-3404.947333,3600.648841
59435.270462,-2442.679609,-4441.235652,-2528.115143
59435.270772,-9474.636058,-9548.656652,-4903.011187
59435.271082,-7179.997637,-14211.954086,-6818.249932
59435.271392,-8142.265362,-13841.851115,-7354.516781
59435.271702,-9178.553681,-16654.633695,-4826.401637
59435.272012,-4219.173869,-15470.304188,-2834.553343
59435.272322,-1924.535449,-15840.407159,229.828649
59435.272631,2368.659014,-11103.089130,2681.334243
59435.272941,5107.421000,-9474.636058,7354.516781
59435.273251,8290.306550,-4811.338623,10112.460574
59435.273561,11177.109724,-2220.617826,9729.412825
59435.273871,3552.988522,2294.638420,4903.011187
59435.274181,4663.297435,-2960.823768,4826.401637
59435.274491,-2072.576638,-5403.503377,0.000000
59435.274800,-7105.977043,-8364.327145,-4290.134789
59435.275110,-9252.574275,-11769.274478,-7660.954980
59435.275420,-8438.347739,-15840.407159,-7507.735880
59435.275730,-5699.585753,-15618.345376,-4060.306139
59435.276040,-3108.864956,-16654.633695,-1149.143247
59435.276350,-1776.494261,-16210.510130,0.000000
59435.276660,1702.473667,-15988.448347,3600.648841
59435.276969,4663.297435,-8586.388927,4826.401637
59435.277279,8290.306550,-4811.338623,9806.022374
59435.277589,7698.141797,-74.020594,7967.393179
59435.277899,5847.626942,296.082377,6052.154434
59435.278209,4145.153275,444.123565,3294.210641
59435.278519,740.205942,-4367.215058,1915.238745
59435.278829,-4219.173869,-6587.832884,-3830.477490
59435.279138,-6513.812290,-8364.327145,-7124.688131
59435.279448,-6661.853478,-12361.439231,-8120.612279
59435.279758,-5033.400406,-16654.633695,-3370.820191
59435.280068,-2442.679609,-18653.189738,-3140.991542
59435.280378,-4737.318029,-15470.304188,-2451.505594
59435.280688,-3552.988522,-12509.480420,0.000000
59435.280998,3478.967927,-11251.130318,4213.525239
59435.281307,5403.503377,-6661.853478,7201.297681
59435.281617,8808.450710,-2738.761985,8886.707777
59435.281927,8364.327145,1406.391290,7431.126331
59435.282237,4885.359217,0.000000,5439.278036
59435.282547,518.144159,-3997.112087,1991.848295
59435.282857,-4145.153275,-6735.874072,-153.219100
59435.283167,-4811.338623,-9474.636058,-4979.620737
59435.283477,-7105.977043,-9548.656652,-7048.078582
59435.283786,-5995.668130,-13471.748144,-5515.887586
59435.284096,-2442.679609,-17764.942608,-2528.115143
59435.284406,-3182.885551,-16284.530724,-2451.505594
59435.284716,-2738.761985,-16876.695478,-153.219100
59435.285026,0.000000,-13397.727550,2834.553343
59435.285336,3775.050304,-8290.306550,5439.278036
59435.285646,5329.482782,-3182.885551,6894.859482
59435.285955,5921.647536,1110.308913,5515.887586
59435.286265,7031.956449,-3552.988522,6665.030833
59435.286575,-814.226536,-1850.514855,612.876398
59435.286885,-2442.679609,-4145.153275,-2528.115143
59435.287195,-5329.482782,-8734.430116,-3140.991542
59435.287505,-4515.256246,-10658.965565,-4060.306139
59435.287815,-3923.091493,-14137.933492,-2834.553343
59435.288124,-3034.844362,-14804.118840,-2528.115143
59435.288434,-2442.679609,-17764.942608,-76.609550
59435.288744,-3034.844362,-15396.283594,-689.485948
59435.289054,-2368.659014,-10732.986159,0.000000
59435.289364,4441.235652,-9474.636058,6588.421283
59435.289674,7031.956449,-4441.235652,5439.278036
59435.289984,7031.956449,-2368.659014,6052.154434
59435.290293,2664.741391,-1184.329507,4443.353888
59435.290603,888.247130,-3701.029710,2145.067394
59435.290913,-2146.597232,-4589.276840,-1072.533697
59435.291223,-3108.864956,-6291.750507,-2604.724693
59435.291533,-3034.844362,-9548.656652,-1762.019645
59435.291843,-2738.761985,-11843.295072,-2528.115143
59435.292153,-3997.112087,-12509.480420,-4903.011187
59435.292462,-3552.988522,-16062.468941,-919.314598
59435.292772,-2442.679609,-15396.283594,-1608.800546
59435.293082,-74.020594,-15322.262999,2374.896044
59435.293392,1776.494261,-8364.327145,3064.381992
59435.293702,5181.441594,-6809.894666,5592.497135
59435.294012,5255.462188,-3256.906145,6205.373534
59435.294322,3552.988522,-1554.432478,4826.401637
59435.294631,1184.329507,-3627.009116,3983.696590
59435.294941,1110.308913,-4737.318029,1149.143247
59435.295251,-962.267725,-5181.441594,-2528.115143
59435.295561,-3552.988522,-6587.832884,0.000000
59435.295871,-74.020594,-12731.542202,-383.047749
59435.296181,-2368.659014,-16580.613101,-76.609550
59435.296491,-3849.070898,-15914.427753,-3064.381992
59435.296800,-4885.359217,-17690.922014,-1762.019645
59435.297110,-3034.844362,-14730.098246,-689.485948
59435.297420,1258.350101,-10362.883188,2068.457845
59435.297730,1776.494261,-5107.421000,3064.381992
59435.298040,4663.297435,-4441.235652,5439.278036
59435.298350,1702.473667,-2368.659014,3294.210641
59435.298660,0.000000,-2442.679609,2451.505594
59435.298970,2294.638420,-4737.318029,1762.019645
59435.299279,0.000000,-4959.379811,1225.752797
59435.299589,444.123565,-7105.977043,-383.047749
59435.299899,-444.123565,-11325.150913,-383.047749
59435.300209,-296.082377,-14359.995275,-919.314598
59435.300519,-1480.411884,-15544.324782,-1762.019645
59435.300829,-4145.153275,-14285.974681,-3677.258390
59435.301139,-3256.906145,-15470.304188,306.438199
59435.301448,2294.638420,-14211.954086,4213.525239
59435.301758,1258.350101,-6661.853478,919.314598
59435.302068,2368.659014,-5995.668130,4903.011187
59435.302378,0.000000,-3034.844362,2757.943793
59435.302688,1110.308913,-4589.276840,2068.457845
59435.302998,0.000000,-4219.173869,1225.752797
59435.303308,0.000000,-4737.318029,383.047749
59435.303617,74.020594,-6439.791695,229.828649
59435.303927,-1258.350101,-8734.430116,-689.485948
59435.304237,-2072.576638,-11325.150913,0.000000
59435.304547,-74.020594,-15396.283594,-76.609550
59435.304857,-5477.523971,-13397.727550,-3370.820191
59435.305167,-4145.153275,-14878.139434,0.000000
59435.305477,-1924.535449,-10732.986159,0.000000
59435.305786,1406.391290,-9326.594869,1915.238745
59435.306096,814.226536,-5921.647536,2757.943793
59435.306406,370.102971,-4367.215058,2604.724693
59435.306716,370.102971,-4515.256246,1685.410096
59435.307026,1110.308913,-4737.318029,1149.143247
59435.307336,0.000000,-3627.009116,0.000000
59435.307646,2294.638420,-9474.636058,3600.648841
59435.307955,-2072.576638,-7772.162391,0.000000
59435.308265,740.205942,-12805.562797,1225.752797
59435.308575,-1258.350101,-12287.418637,-1225.752797
59435.308885,-3330.926739,-16062.468941,-919.314598
59435.309195,-4071.132681,-15322.262999,-612.876398
59435.309505,-2664.741391,-12805.562797,229.828649
59435.309815,-444.123565,-10510.924376,1762.019645
59435.310124,1998.556043,-8290.306550,3600.648841
59435.310434,-1850.514855,-4515.256246,1532.190996
59435.310744,0.000000,-3034.844362,1225.752797
59435.311054,-74.020594,-5921.647536,2374.896044
59435.311364,0.000000,-2738.761985,0.000000
59435.311674,1702.473667,-5329.482782,0.000000
59435.311984,592.164754,-8216.285956,1532.190996
59435.312294,1776.494261,-11177.109724,1455.581446
59435.312603,592.164754,-12065.356855,0.000000
59435.312913,-2220.617826,-14952.160028,-76.609550
59435.313223,-1850.514855,-16580.613101,-76.609550
59435.313533,-1258.350101,-13619.789333,-76.609550
59435.313843,-1258.350101,-9548.656652,-1302.362347
59435.314153,-2368.659014,-7179.997637,1225.752797
59435.314463,-370.102971,-7698.141797,2374.896044
59435.314772,-74.020594,-5921.647536,-76.609550
59435.315082,0.000000,-4515.256246,1991.848295
59435.315392,2146.597232,-4441.235652,2528.115143
59435.315702,2368.659014,-4441.235652,2451.505594
59435.316012,2442.679609,-7105.977043,4136.915689
59435.316322,2960.823768,-10436.903782,4443.353888
59435.316632,2294.638420,-11843.295072,1149.143247
59435.316942,-1258.350101,-14804.118840,-76.609550
59435.317252,-5921.647536,-14285.974681,-3370.820191
59435.317562,-2368.659014,-14582.057057,-76.609550
59435.317872,-592.164754,-11621.233289,-229.828649
59435.318182,-2368.659014,-8364.327145,306.438199
59435.318491,-1258.350101,-8290.306550,1149.143247
59435.318801,-1184.329507,-6291.750507,306.438199
59435.319111,518.144159,-5995.668130,2451.505594
59435.319421,2368.659014,-4811.338623,3677.258390
59435.319731,4663.297435,-5551.544565,4826.401637
59435.320041,2886.803174,-3478.967927,1608.800546
59435.320351,4737.318029,-9104.533087,4903.011187
59435.320661,3478.967927,-10658.965565,1762.019645
59435.320971,-74.020594,-13027.624579,-76.609550
59435.321281,-4145.153275,-14434.015869,-1378.971896
59435.321591,-3256.906145,-13471.748144,-2374.896044
59435.321901,-2220.617826,-12435.459826,-1378.971896
59435.322210,-2738.761985,-10140.821405,0.000000
59435.322520,-4737.318029,-7179.997637,0.000000
59435.322830,-1998.556043,-8364.327145,612.876398
59435.323140,-74.020594,-7105.977043,-76.609550
59435.323450,592.164754,-4811.338623,3064.381992
59435.323760,3478.967927,-4737.318029,3294.210641
59435.324070,2960.823768,-6513.812290,4826.401637
59435.324380,3478.967927,-6957.935855,3294.210641
59435.324690,2812.782580,-8808.450710,1915.238745
59435.325000,-592.164754,-11547.212695,383.047749
59435.325310,-3404.947333,-13545.768739,-2145.067394
59435.325620,-4737.318029,-11917.315666,-2451.505594
59435.325929,-2960.823768,-12805.562797,0.000000
59435.326239,-1258.350101,-14211.954086,-76.609550
59435.326549,-5699.585753,-8364.327145,-2451.505594
59435.326859,-3552.988522,-8660.409521,0.000000
59435.327169,-888.247130,-8364.327145,2911.162892
59435.327479,1702.473667,-5329.482782,2987.772442
59435.327789,2738.761985,-3627.009116,3753.867940
59435.328099,3775.050304,-4663.297435,4826.401637
59435.328409,5107.421000,-4219.173869,3294.210641
59435.328719,2590.720797,-5403.503377,0.000000
59435.329029,-1776.494261,-9548.656652,0.000000
59435.329339,-666.185348,-15396.283594,-76.609550
59435.329648,-5477.523971,-11917.315666,-4213.525239
59435.329958,-4737.318029,-14285.974681,-2068.457845
59435.330268,-6513.812290,-12657.521608,-2298.286494
59435.330578,-6439.791695,-11843.295072,-2528.115143
59435.330888,-4071.132681,-10066.800811,-2221.676944
59435.331198,-962.267725,-8586.388927,1225.752797
59435.331508,1776.494261,-5329.482782,3294.210641
59435.331818,4663.297435,-2664.741391,1762.019645
59435.332128,4737.318029,-2442.679609,2451.505594
59435.332438,8882.471304,-6587.832884,8427.050478
59435.332748,5699.585753,-5329.482782,3907.087040
59435.333058,592.164754,-9548.656652,3677.258390
59435.333367,-2368.659014,-11325.150913,0.000000
59435.333677,-2664.741391,-13915.871710,-1991.848295
59435.333987,-5033.400406,-14211.954086,-3677.258390
59435.334297,-6587.832884,-13101.645173,-4213.525239
59435.334607,-6735.874072,-13619.789333,-2528.115143
59435.334917,-3627.009116,-11251.130318,-2528.115143
59435.335227,-2072.576638,-8290.306550,-1302.362347
59435.335537,0.000000,-4811.338623,2451.505594
59435.335847,6439.791695,-4145.153275,4826.401637
59435.336157,5403.503377,-1850.514855,4903.011187
59435.336467,5921.647536,-1258.350101,4290.134789
59435.336777,5625.565159,-4515.256246,4596.572988
59435.337086,1628.453072,-8882.471304,2221.676944
59435.337396,-1184.329507,-12435.459826,-383.047749
59435.337706,-1850.514855,-14211.954086,-1302.362347
59435.338016,-2442.679609,-16580.613101,-1302.362347
59435.338326,-5403.503377,-15396.283594,-3140.991542
59435.338636,-9178.553681,-11917.315666,-5822.325785
59435.338946,-5329.482782,-12805.562797,-2451.505594
59435.339256,-1554.432478,-10658.965565,-1225.752797
59435.339566,518.144159,-6069.688724,2068.457845
59435.339876,4441.235652,-3182.885551,4290.134789
59435.340186,7328.038826,-2738.761985,6511.811733
59435.340496,9400.615463,-2072.576638,7814.174080
59435.340805,9400.615463,-2738.761985,7048.078582
59435.341115,2072.576638,-9474.636058,5898.935335
59435.341425,-74.020594,-14211.954086,-76.609550
59435.341735,-4737.318029,-10732.986159,-3370.820191
59435.342045,-2368.659014,-16580.613101,-1455.581446
59435.342355,-6661.853478,-12805.562797,-6358.592633
59435.342665,-9548.656652,-15988.448347,-4979.620737
59435.342975,-6735.874072,-12287.418637,-5362.668486
59435.343285,-4737.318029,-11843.295072,-1915.238745
59435.343595,-1406.391290,-7105.977043,1378.971896
59435.343905,2368.659014,-3627.009116,4903.011187
59435.344215,7105.977043,-3627.009116,8580.269578
59435.344524,11251.130318,-3627.009116,10725.336972
59435.344834,8808.450710,-2368.659014,7277.907231
59435.345144,1184.329507,-3627.009116,2451.505594
59435.345454,-74.020594,-11251.130318,1149.143247
59435.345764,-74.020594,-13619.789333,-689.485948
59435.346074,-3775.050304,-14952.160028,-3524.039291
59435.346384,-6661.853478,-15396.283594,-4136.915689
59435.346694,-9622.677246,-16136.489536,-5669.106685
59435.347004,-9474.636058,-12509.480420,-7354.516781
59435.347314,-7105.977043,-10732.986159,-2451.505594
59435.347624,-4145.153275,-7772.162391,1838.629195
59435.347934,4663.297435,-4737.318029,4826.401637
59435.348243,5403.503377,-1258.350101,6128.763984
59435.348553,11473.192101,-3256.906145,9729.412825
59435.348863,11547.212695,-2368.659014,9729.412825
59435.349173,4515.256246,-3701.029710,4903.011187
59435.349483,222.061783,-9326.594869,2145.067394
59435.349793,-1924.535449,-11325.150913,-1378.971896
59435.350103,-6513.812290,-14285.974681,-4903.011187
59435.350413,-10658.965565,-13101.645173,-7354.516781
59435.350723,-14211.954086,-14582.057057,-8580.269578
59435.351033,-8364.327145,-17690.922014,-5362.668486
59435.351343,-5995.668130,-13323.706956,-4366.744339
59435.351653,-3478.967927,-9474.636058,1149.143247
59435.351962,2960.823768,-4219.173869,5056.230287
59435.352272,8512.368333,-2368.659014,7584.345430
59435.352582,12065.356855,-444.123565,10189.070123
59435.352892,10362.883188,-1110.308913,9882.631924
59435.353202,5255.462188,-2072.576638,4213.525239
59435.353512,74.020594,-6661.853478,2068.457845
59435.353822,-4441.235652,-9548.656652,-2451.505594
59435.354132,-1258.350101,-15100.201217,-1762.019645
59435.354442,-8068.244768,-15100.201217,-6052.154434
59435.354752,-10214.842000,-17690.922014,-5898.935335
59435.355062,-11843.295072,-17246.798449,-7354.516781
59435.355372,-7179.997637,-16136.489536,-4673.182538
59435.355681,-3849.070898,-9918.759623,-536.266849
59435.355991,1110.308913,-5403.503377,2451.505594
59435.356301,8808.450710,-3256.906145,7277.907231
59435.356611,12361.439231,0.000000,9729.412825
59435.356921,9474.636058,1702.473667,7354.516781
59435.357231,5921.647536,-1850.514855,7354.516781
59435.357541,3478.967927,-7105.977043,4519.963438
59435.357851,0.000000,-9548.656652,1378.971896
59435.358161,-3552.988522,-11917.315666,-3370.820191
59435.358471,-7105.977043,-15396.283594,-5439.278036
59435.358781,-10732.986159,-16950.716072,-8503.660028
59435.359091,-12139.377449,-16802.674883,-8580.269578
59435.359400,-7179.997637,-16580.613101,-4979.620737
59435.359710,-3627.009116,-13027.624579,-76.609550
59435.360020,-74.020594,-4737.318029,-76.609550
59435.360330,5921.647536,-1258.350101,5515.887586
59435.360640,14137.933492,-2072.576638,12180.918418
59435.360950,10955.047942,1702.473667,10418.898773
59435.361260,6143.709319,-74.020594,7660.954980
59435.361570,2368.659014,-4293.194464,4060.306139
59435.361880,-888.247130,-9178.553681,76.609550
59435.362190,-2738.761985,-12657.521608,-2221.676944
59435.362500,-4811.338623,-16432.571912,-3753.867940
59435.362810,-7179.997637,-18949.272115,-5822.325785
59435.363119,-9548.656652,-18949.272115,-9882.631924
59435.363429,-11251.130318,-14285.974681,-8580.269578
59435.363739,-6735.874072,-15988.448347,-1302.362347
59435.364049,-3849.070898,-3034.844362,-2451.505594
59435.364359,6439.791695,-2146.597232,5745.716235
59435.364669,12583.501014,-666.185348,10418.898773
59435.364979,14211.954086,592.164754,11721.261119
59435.365289,8216.285956,-1628.453072,9039.926876
59435.365599,4737.318029,-4219.173869,6128.763984
59435.365909,2072.576638,-9104.533087,1225.752797
59435.366219,-74.020594,-11843.295072,-76.609550
59435.366529,-5995.668130,-11991.336260,-5439.278036
59435.366838,-10658.965565,-17246.798449,-6741.640382
59435.367148,-11621.233289,-17024.736666,-8656.879127
59435.367458,-8364.327145,-17468.860231,-7431.126331
59435.367768,-8808.450710,-14656.077652,-3600.648841
59435.368078,-3182.885551,-8586.388927,-306.438199
59435.368388,4959.379811,-4367.215058,5132.839837
59435.368698,10658.965565,2886.803174,9806.022374
59435.369008,12435.459826,2294.638420,9806.022374
59435.369318,9474.636058,1702.473667,9806.022374
59435.369628,4663.297435,-1776.494261,4826.401637
59435.369938,0.000000,-5403.503377,1532.190996
59435.370248,-74.020594,-9178.553681,-689.485948
59435.370558,-3627.009116,-14211.954086,-3753.867940
59435.370867,-11177.109724,-16580.613101,-7967.393179
59435.371177,-12213.398043,-17764.942608,-9576.193725
59435.371487,-10510.924376,-18061.024985,-7507.735880
59435.371797,-9474.636058,-11917.315666,-6128.763984
59435.372107,-5921.647536,-8660.409521,-1608.800546
59435.372417,3552.988522,-3627.009116,4903.011187
59435.372727,13841.851115,-2960.823768,12180.918418
59435.373037,13841.851115,2294.638420,9806.022374
59435.373347,11769.274478,0.000000,10955.165621
59435.373657,5847.626942,-2368.659014,6665.030833
59435.373967,1702.473667,-4441.235652,1532.190996
59435.374277,-740.205942,-8438.347739,-459.657299
59435.374586,-5403.503377,-10658.965565,-4519.963438
59435.374896,-10881.027347,-16062.468941,-7890.783629
59435.375206,-13323.706956,-17912.983796,-9269.755526
59435.375516,-11843.295072,-16654.633695,-9806.022374
59435.375826,-8586.388927,-18283.086767,-3370.820191
59435.376136,-5255.462188,-10732.986159,-3447.429741
59435.376446,5551.544565,-5921.647536,5669.106685
59435.376756,9770.718434,-666.185348,9882.631924
59435.377066,14137.933492,3849.070898,10955.165621
59435.377376,9548.656652,222.061783,10189.070123
59435.377686,6291.750507,0.000000,6052.154434
59435.377996,2886.803174,-3552.988522,2374.896044
59435.378305,-74.020594,-7105.977043,-76.609550
59435.378615,-6513.812290,-7772.162391,-4903.011187
59435.378925,-6957.935855,-17024.736666,-4443.353888
59435.379235,-9548.656652,-16580.613101,-10189.070123
59435.379545,-9474.636058,-18727.210333,-6741.640382
59435.379855,-11843.295072,-17987.004391,-5515.887586
59435.380165,-3701.029710,-12657.521608,-1302.362347
59435.380475,3034.844362,-7624.121203,2451.505594
59435.380785,9770.718434,-3775.050304,9193.145976
59435.381095,14137.933492,0.000000,12180.918418
59435.381405,13545.768739,-4737.318029,12793.794817
59435.381715,6735.874072,-1184.329507,5898.935335
59435.382024,2960.823768,-4811.338623,3677.258390
59435.382334,1406.391290,-6513.812290,-76.609550
59435.382644,-4737.318029,-9548.656652,-2451.505594
59435.382954,-7994.224174,-13693.809927,-4903.011187
59435.383264,-8882.471304,-16802.674883,-8197.221829
59435.383574,-10140.821405,-17690.922014,-9269.755526
59435.383884,-11917.315666,-17098.757260,-6435.202183
59435.384194,-4811.338623,-15396.283594,-1302.362347
59435.384504,3478.967927,-10362.883188,4826.401637
59435.384814,9400.615463,-2368.659014,7277.907231
59435.385124,7698.141797,-74.020594,9806.022374
59435.385434,11769.274478,0.000000,12180.918418
59435.385743,3552.988522,-74.020594,6128.763984
59435.386053,4293.194464,-2368.659014,3294.210641
59435.386363,1924.535449,-5107.421000,1378.971896
59435.386673,-3404.947333,-9252.574275,-1302.362347
59435.386983,-8512.368333,-12139.377449,-5286.058936
59435.387293,-7550.100608,-17838.963202,-7967.393179
59435.387603,-9474.636058,-16950.716072,-8273.831378
59435.387913,-9548.656652,-20133.601622,-4979.620737
59435.388223,-7476.080014,-13841.851115,-2987.772442
59435.388533,0.000000,-5403.503377,2451.505594
59435.388843,6069.688724,-3034.844362,6128.763984
59435.389153,12361.439231,0.000000,11261.603821
59435.389462,9474.636058,1332.370696,10418.898773
59435.389772,6143.709319,-1998.556043,7737.564530
59435.390082,4441.235652,-888.247130,3447.429741
59435.390392,1184.329507,-4811.338623,1225.752797
59435.390702,-4145.153275,-7179.997637,-3677.258390
59435.391012,-7402.059420,-14952.160028,-4749.792088
59435.391322,-10140.821405,-18653.189738,-9882.631924
59435.391632,-14211.954086,-19023.292709,-11951.089769
59435.391942,-11917.315666,-18653.189738,-9422.974625
59435.392252,-7179.997637,-15396.283594,-3753.867940
59435.392562,0.000000,-8290.306550,1608.800546
59435.392872,9474.636058,-3182.885551,7201.297681
59435.393181,11621.233289,1554.432478,11184.994271
59435.393491,8290.306550,6439.791695,9806.022374
59435.393801,6735.874072,3182.885551,6894.859482
59435.394111,7105.977043,-962.267725,6741.640382
59435.394421,4071.132681,-2368.659014,2374.896044
59435.394731,-3552.988522,-4811.338623,0.000000
59435.395041,-5995.668130,-13619.789333,-4979.620737
59435.395351,-8364.327145,-17616.901420,-8197.221829
59435.395661,-10807.006753,-19245.354492,-10342.289223
59435.395971,-12213.398043,-19615.457463,-7967.393179
59435.396281,-9178.553681,-17172.777854,-4519.963438
59435.396591,-1332.370696,-9844.739029,-689.485948
59435.396900,7031.956449,-5107.421000,5286.058936
59435.397210,11843.295072,-1258.350101,12257.527968
59435.397520,11769.274478,0.000000,12180.918418
59435.397830,5033.400406,-74.020594,7354.516781
59435.398140,9400.615463,-5921.647536,9116.536426
59435.398450,4885.359217,-3330.926739,4443.353888
59435.398760,666.185348,-6957.935855,1455.581446
59435.399070,-5921.647536,-11251.130318,-3677.258390
59435.399380,-9548.656652,-15544.324782,-8503.660028
59435.399690,-11917.315666,-18801.230927,-9882.631924
59435.400000,-11917.315666,-20725.766376,-9882.631924
59435.400310,-11991.336260,-17838.963202,-7354.516781
59435.400619,-2368.659014,-11991.336260,0.000000
59435.400929,8216.285956,-9474.636058,5439.278036
59435.401239,11769.274478,-2368.659014,9729.412825
59435.401549,9474.636058,1110.308913,10572.117872
59435.401859,9400.615463,1184.329507,9422.974625
59435.402169,9326.594869,296.082377,7890.783629
59435.402479,5625.565159,-1258.350101,5209.449386
59435.402789,3478.967927,-4737.318029,2374.896044
59435.403099,-1258.350101,-11843.295072,-689.485948
59435.403409,-6587.832884,-14063.912898,-6818.249932
59435.403719,-10066.800811,-17542.880825,-9806.022374
59435.404029,-10732.986159,-18949.272115,-11108.384721
59435.404338,-12435.459826,-17838.963202,-6128.763984
59435.404648,-5921.647536,-14434.015869,-2451.505594
59435.404958,3404.947333,-9178.553681,4060.306139
59435.405268,5773.606348,-5255.462188,7660.954980
59435.405578,7105.977043,-518.144159,8886.707777
59435.405888,10140.821405,0.000000,9729.412825
59435.406198,9400.615463,0.000000,10955.165621
59435.406508,5847.626942,3701.029710,3600.648841
59435.406818,2960.823768,-2442.679609,4596.572988
59435.407128,-666.185348,-7105.977043,-1302.362347
59435.407438,-8290.306550,-11325.150913,-4903.011187
59435.407748,-10881.027347,-18653.189738,-9346.365076
59435.408057,-14211.954086,-18431.127956,-10725.336972
59435.408367,-12435.459826,-19097.313304,-7124.688131
59435.408677,-4663.297435,-14582.057057,-3600.648841
59435.408987,2220.617826,-11029.068536,2757.943793
59435.409297,5921.647536,-7179.997637,7660.954980
59435.409607,8216.285956,-3552.988522,9422.974625
59435.409917,7105.977043,-2442.679609,6128.763984
59435.410227,10214.842000,-4737.318029,12563.966167
59435.410537,5921.647536,-666.185348,6128.763984
59435.410847,4663.297435,-4441.235652,4213.525239
59435.411157,-1036.288319,-7476.080014,-459.657299
59435.411467,-4737.318029,-14285.974681,-3064.381992
59435.411776,-8438.347739,-18283.086767,-7967.393179
59435.412086,-14211.954086,-15766.386565,-11644.651570
59435.412396,-15396.283594,-19023.292709,-9806.022374
59435.412706,-5403.503377,-15914.427753,-4979.620737
59435.413016,740.205942,-11843.295072,-1302.362347
59435.413326,1184.329507,-6587.832884,4903.011187
59435.413636,4663.297435,-3330.926739,6741.640382
59435.413946,9992.780217,-3552.988522,10801.946522
59435.414256,10288.862594,-962.267725,11184.994271
59435.414566,9918.759623,-74.020594,8273.831378
59435.414876,6217.729913,-2738.761985,5362.668486
59435.415186,0.000000,-3034.844362,153.219100
59435.415495,-3552.988522,-9548.656652,-3677.258390
59435.415805,-8290.306550,-17394.839637,-6741.640382
59435.416115,-11917.315666,-21317.931130,-9882.631924
59435.416425,-16580.613101,-19023.292709,-11644.651570
59435.416735,-7772.162391,-17172.777854,-8656.879127
59435.417045,-1628.453072,-13397.727550,-1378.971896
59435.417355,2146.597232,-8882.471304,2681.334243
59435.417665,4737.318029,-5107.421000,6665.030833
59435.417974,8660.409521,-2812.782580,9422.974625
59435.418284,11769.274478,-2368.659014,12180.918418
59435.418594,10584.944971,1332.370696,9422.974625
59435.418904,5107.421000,1332.370696,5056.230287
59435.419214,1480.411884,-518.144159,0.000000
59435.419524,-74.020594,-9474.636058,-76.609550
59435.419833,-3627.009116,-15396.283594,-5592.497135
59435.420143,-13027.624579,-16654.633695,-9806.022374
59435.420453,-12657.521608,-20133.601622,-10495.508323
59435.420763,-10362.883188,-18209.066173,-8197.221829
59435.421073,-2368.659014,-14434.015869,-2145.067394
59435.421383,2886.803174,-11695.253884,3294.210641
59435.421692,4663.297435,-7994.224174,6665.030833
59435.422002,6735.874072,-5995.668130,8273.831378
59435.422312,11843.295072,-7179.997637,15475.129060
59435.422622,11769.274478,0.000000,10955.165621
59435.422932,9030.512492,-1776.494261,9116.536426
59435.423242,2442.679609,-2442.679609,2451.505594
59435.423551,-1480.411884,-8216.285956,-612.876398
59435.423861,-5921.647536,-14582.057057,-4136.915689
59435.424171,-10510.924376,-18209.066173,-9039.926876
59435.424481,-13693.809927,-17616.901420,-11338.213370
59435.424791,-10140.821405,-18949.272115,-8044.002729
59435.425101,-6957.935855,-14508.036463,-5898.935335
59435.425410,-2368.659014,-13397.727550,2451.505594
59435.425720,4367.215058,-8882.471304,4826.401637
59435.426030,4145.153275,-8068.244768,10878.556072
59435.426340,10510.924376,-3182.885551,12027.699319
59435.426650,11325.150913,74.020594,12947.013916
59435.426960,8660.409521,1628.453072,9422.974625
59435.427269,5255.462188,1554.432478,3907.087040
59435.427579,592.164754,-5107.421000,0.000000
59435.427889,-4441.235652,-11325.150913,-3677.258390
59435.428199,-11917.315666,-16506.592507,-8963.317327
59435.428509,-17764.942608,-16654.633695,-14096.157163
59435.428818,-11769.274478,-20355.663405,-8120.612279
59435.429128,-8882.471304,-16654.633695,-5209.449386
59435.429438,-4293.194464,-15988.448347,229.828649
59435.429748,740.205942,-9178.553681,3753.867940
59435.430058,5107.421000,-5995.668130,7737.564530
59435.430368,9326.594869,-3923.091493,12104.308868
59435.430677,10658.965565,1702.473667,10112.460574
59435.430987,9474.636058,-666.185348,11031.775171
59435.431297,6217.729913,0.000000,6128.763984
59435.431607,1702.473667,-1480.411884,-76.609550
59435.431917,-4737.318029,-7179.997637,-3370.820191
59435.432227,-10362.883188,-13101.645173,-7967.393179
59435.432536,-12213.398043,-18357.107362,-11108.384721
59435.432846,-11029.068536,-20207.622217,-10265.679673
59435.433156,-9918.759623,-23834.631332,-5669.106685
59435.433466,-5107.421000,-19467.416275,-689.485948
59435.433776,-4663.297435,-13101.645173,536.266849
59435.434086,1184.329507,-9548.656652,7354.516781
59435.434395,10807.006753,-6513.812290,13406.671215
59435.434705,9696.697840,2294.638420,11031.775171
59435.435015,12879.583391,666.185348,12793.794817
59435.435325,7105.977043,4515.256246,4903.011187
59435.435635,4737.318029,0.000000,3830.477490
59435.435945,-2812.782580,-5699.585753,-2451.505594
59435.436254,-9030.512492,-13101.645173,-7890.783629
59435.436564,-13397.727550,-17690.922014,-12334.137518
59435.436874,-11769.274478,-18653.189738,-12334.137518
59435.437184,-13027.624579,-19467.416275,-8580.269578
59435.437494,-8586.388927,-16654.633695,-4903.011187
59435.437804,-74.020594,-16580.613101,3294.210641
59435.438113,4737.318029,-6883.915261,5362.668486
59435.438423,9622.677246,-4515.256246,9806.022374
59435.438733,11399.171507,-666.185348,14249.376263
59435.439043,12953.603985,3478.967927,11568.042020
59435.439353,8068.244768,2812.782580,6358.592633
59435.439663,2664.741391,666.185348,3600.648841
59435.439972,-74.020594,-4737.318029,-3140.991542
59435.440282,-11029.068536,-9844.739029,-8503.660028
59435.440592,-11843.295072,-15470.304188,-11644.651570
59435.440902,-9548.656652,-21021.848753,-9882.631924
59435.441212,-12435.459826,-17987.004391,-9806.022374
59435.441522,-5403.503377,-17764.942608,-4366.744339
59435.441831,-3404.947333,-13693.809927,766.095498
59435.442141,4515.256246,-10140.821405,6281.983084
59435.442451,9104.533087,-7105.977043,10801.946522
59435.442761,11473.192101,-666.185348,14632.424012
59435.443071,16210.510130,1184.329507,14632.424012
59435.443381,11769.274478,1776.494261,7890.783629
59435.443690,3478.967927,3404.947333,1455.581446
59435.444000,-1184.329507,-4219.173869,0.000000
59435.444310,-6291.750507,-12879.583391,-4979.620737
59435.444620,-11325.150913,-16580.613101,-11721.261119
59435.444930,-13915.871710,-17542.880825,-12717.185267
59435.445239,-11695.253884,-21688.034101,-9193.145976
59435.445549,-7105.977043,-20355.663405,-3217.601092
59435.445859,-3849.070898,-15470.304188,2451.505594
59435.446169,5329.482782,-6809.894666,6128.763984
59435.446479,10584.944971,-6513.812290,12180.918418
59435.446789,11621.233289,0.000000,14019.547613
59435.447098,10658.965565,5847.626942,12870.404366
59435.447408,10362.883188,2738.761985,9193.145976
59435.447718,4219.173869,3552.988522,6052.154434
59435.448028,-444.123565,-518.144159,-1225.752797
59435.448338,-7550.100608,-8660.409521,-6205.373534
59435.448648,-11991.336260,-14878.139434,-8120.612279
59435.448957,-12287.418637,-15174.221811,-14709.033562
59435.449267,-13027.624579,-19615.457463,-9806.022374
59435.449577,-7994.224174,-17912.983796,-4979.620737
59435.449887,-3627.009116,-18949.272115,3600.648841
59435.450197,592.164754,-5403.503377,2604.724693
59435.450507,10066.800811,-5995.668130,11338.213370
59435.450816,11251.130318,-4145.153275,15245.300410
59435.451126,12953.603985,3552.988522,11568.042020
59435.451436,11473.192101,2960.823768,7507.735880
59435.451746,5181.441594,1924.535449,4903.011187
59435.452056,-148.041188,-74.020594,-2451.505594
59435.452366,-8290.306550,-5995.668130,-8580.269578
59435.452675,-13323.706956,-11473.192101,-11031.775171
59435.452985,-9548.656652,-20725.766376,-10189.070123
59435.453295,-11029.068536,-20133.601622,-9269.755526
59435.453605,-8290.306550,-21984.116477,-2374.896044
59435.453915,-5255.462188,-20799.786970,2757.943793
59435.454225,1998.556043,-12657.521608,4596.572988
59435.454534,8290.306550,-7328.038826,8350.440928
59435.454844,9918.759623,-3849.070898,14096.157163
59435.455154,12213.398043,4367.215058,9729.412825
59435.455464,10362.883188,6439.791695,4903.011187
59435.455774,5921.647536,5847.626942,3677.258390
59435.456084,3478.967927,-2368.659014,-76.609550
59435.456393,-6291.750507,-3330.926739,-6052.154434
59435.456703,-12435.459826,-8364.327145,-9499.584175
59435.457013,-10584.944971,-16062.468941,-12257.527968
59435.457323,-9548.656652,-18653.189738,-9269.755526
59435.457633,-7698.141797,-19689.478057,-4596.572988
59435.457943,-4219.173869,-17912.983796,0.000000
59435.458252,1110.308913,-12435.459826,2374.896044
59435.458562,7031.956449,-7994.224174,6665.030833
59435.458872,7698.141797,-3627.009116,11338.213370
59435.459182,10066.800811,2294.638420,14709.033562
59435.459492,12953.603985,1776.494261,9116.536426
59435.459801,5921.647536,3478.967927,5515.887586
59435.460111,1480.411884,-74.020594,0.000000
59435.460421,-5995.668130,-7105.977043,-4290.134789
59435.460731,-10510.924376,-12953.603985,-8120.612279
59435.461041,-9696.697840,-15988.448347,-12027.699319
59435.461351,-8660.409521,-18949.272115,-7431.126331
59435.461660,-6587.832884,-20133.601622,-3753.867940
59435.461970,-4663.297435,-15174.221811,-1532.190996
59435.462280,0.000000,-14285.974681,3677.258390
59435.462590,5847.626942,-11843.295072,7277.907231
59435.462900,5329.482782,-4811.338623,9806.022374
59435.463210,7031.956449,-74.020594,10572.117872
59435.463519,9474.636058,1702.473667,9499.584175
59435.463829,6365.771101,3330.926739,4673.182538
59435.464139,1332.370696,-2368.659014,2834.553343
59435.464449,-1850.514855,-7846.182985,-76.609550
59435.464759,-7328.038826,-14211.954086,-5592.497135
59435.465069,-9548.656652,-14804.118840,-11108.384721
59435.465378,-13027.624579,-14285.974681,-11644.651570
59435.465688,-8660.409521,-23612.569550,-3140.991542
59435.465998,-6143.709319,-14878.139434,-4749.792088
59435.466308,-1258.350101,-13915.871710,1149.143247
59435.466618,3923.091493,-10066.800811,6741.640382
59435.466928,9252.574275,-6439.791695,10265.679673
59435.467237,9548.656652,-3552.988522,12793.794817
59435.467547,10066.800811,-666.185348,11338.213370
59435.467857,8586.388927,-1776.494261,9346.365076
59435.468167,3478.967927,-1184.329507,3600.648841
59435.468477,-7105.977043,-3627.009116,-4903.011187
59435.468787,-8068.244768,-13619.789333,-4826.401637
59435.469096,-7772.162391,-13323.706956,-11414.822920
59435.469406,-7179.997637,-18357.107362,-8044.002729
59435.469716,-8660.409521,-20873.807564,-4673.182538
59435.470026,-3701.029710,-16728.654289,-1915.238745
59435.470336,-1554.432478,-16580.613101,995.924147
59435.470646,1184.329507,-13693.809927,5515.887586
59435.470955,5329.482782,-9548.656652,9806.022374
59435.471265,8660.409521,-4441.235652,12180.918418
59435.471575,7031.956449,2368.659014,6665.030833
59435.471885,6513.812290,2294.638420,6128.763984
59435.472195,4367.215058,-2368.659014,4213.525239
59435.472505,-74.020594,-5921.647536,-689.485948
59435.472814,-7179.997637,-9918.759623,-4903.011187
59435.473124,-6735.874072,-11991.336260,-9116.536426
59435.473434,-7254.018232,-16284.530724,-7354.516781
59435.473744,-9474.636058,-17542.880825,-6741.640382
59435.474054,-4737.318029,-19023.292709,0.000000
59435.474364,-1776.494261,-17542.880825,1532.190996
59435.474673,6439.791695,-15396.283594,6052.154434
59435.474983,2960.823768,-7179.997637,5515.887586
59435.475293,7105.977043,-5921.647536,10342.289223
59435.475603,8808.450710,-1850.514855,9422.974625
59435.475913,7031.956449,2368.659014,5975.544884
59435.476222,4515.256246,-222.061783,3524.039291
59435.476532,0.000000,-5477.523971,0.000000
59435.476842,-7031.956449,-7402.059420,-5132.839837
59435.477152,-9474.636058,-9548.656652,-9193.145976
59435.477462,-6809.894666,-14582.057057,-6128.763984
59435.477772,-4811.338623,-17764.942608,-4979.620737
59435.478081,-7105.977043,-11917.315666,-4903.011187
59435.478391,-370.102971,-15396.283594,2068.457845
59435.478701,1184.329507,-10732.986159,2757.943793
59435.479011,3701.029710,-8142.265362,5822.325785
59435.479321,3775.050304,-2960.823768,6435.202183
59435.479631,7179.997637,-1480.411884,7354.516781
59435.479940,8216.285956,3552.988522,7277.907231
59435.480250,3330.926739,2294.638420,3140.991542
59435.480560,0.000000,-1850.514855,0.000000
59435.480870,-1258.350101,-7105.977043,-2528.115143
59435.481180,-4737.318029,-8364.327145,-3677.258390
59435.481490,-2442.679609,-14211.954086,-2681.334243
59435.481799,-7994.224174,-14582.057057,-4903.011187
59435.482109,-6587.832884,-18135.045579,-3217.601092
59435.482419,-3478.967927,-18209.066173,-1915.238745
59435.482729,-2146.597232,-18431.127956,1532.190996
59435.483039,1702.473667,-14211.954086,4826.401637
59435.483349,4663.297435,-7105.977043,4826.401637
59435.483658,5477.523971,-1258.350101,3064.381992
59435.483968,9030.512492,-2072.576638,11031.775171
59435.484278,3478.967927,-592.164754,4749.792088
59435.484588,1184.329507,-2738.761985,2451.505594
59435.484898,-4589.276840,-6883.915261,-1991.848295
59435.485208,-3552.988522,-8956.491898,-2757.943793
59435.485517,-3627.009116,-13027.624579,-2987.772442
59435.485827,-4293.194464,-16210.510130,-2757.943793
59435.486137,-3627.009116,-18949.272115,-689.485948
59435.486447,-1258.350101,-18357.107362,-1302.362347
59435.486757,-2590.720797,-16580.613101,-76.609550
59435.487067,-3552.988522,-10732.986159,612.876398
59435.487376,3775.050304,-8882.471304,5745.716235
59435.487686,3552.988522,-2442.679609,2451.505594
59435.487996,5403.503377,1036.288319,5745.716235
59435.488306,4441.235652,-296.082377,4519.963438
59435.488616,2294.638420,-3849.070898,2298.286494
59435.488926,-1998.556043,-5625.565159,-995.924147
59435.489235,-1776.494261,-8956.491898,-459.657299
59435.489545,-666.185348,-13027.624579,-1915.238745
59435.489855,-3627.009116,-14211.954086,-3140.991542
59435.490165,-7105.977043,-14582.057057,-4826.401637
59435.490475,-2812.782580,-16950.716072,-1149.143247
59435.490784,-3923.091493,-15322.262999,-1608.800546
59435.491094,-2146.597232,-12435.459826,1762.019645
59435.491404,1628.453072,-7550.100608,3677.258390
59435.491714,4959.379811,-4737.318029,5745.716235
59435.492024,5921.647536,740.205942,6128.763984
59435.492334,4145.153275,-962.267725,6435.202183
59435.492643,3182.885551,-4737.318029,4213.525239
59435.492953,-1332.370696,-5033.400406,-1915.238745
59435.493263,-4145.153275,-7772.162391,-2451.505594
59435.493573,-1258.350101,-11251.130318,-3140.991542
59435.493883,-6513.812290,-11325.150913,-4903.011187
59435.494193,-4737.318029,-14582.057057,-2987.772442
59435.494502,-2960.823768,-15470.304188,-2068.457845
59435.494812,-3775.050304,-17172.777854,-383.047749
59435.495122,-2886.803174,-12509.480420,612.876398
59435.495432,2590.720797,-11547.212695,5592.497135
59435.495742,7031.956449,-7105.977043,7277.907231
59435.496052,5551.544565,0.000000,4826.401637
59435.496361,3552.988522,-1258.350101,5515.887586
59435.496671,2886.803174,-3552.988522,2374.896044
59435.496981,-4737.318029,-3627.009116,0.000000
59435.497291,-814.226536,-9104.533087,-383.047749
59435.497601,-2294.638420,-9474.636058,-2681.334243
59435.497911,-3404.947333,-12213.398043,-3753.867940
59435.498220,-2738.761985,-15692.365970,-1915.238745
59435.498530,-3256.906145,-15470.304188,-1685.410096
59435.498840,-1036.288319,-18949.272115,1455.581446
59435.499150,-666.185348,-17764.942608,2987.772442
59435.499460,1702.473667,-9474.636058,1762.019645
59435.499770,3552.988522,-5995.668130,5515.887586
59435.500079,5551.544565,-1184.329507,5439.278036
59435.500389,4663.297435,-2960.823768,4826.401637
59435.500699,1850.514855,-3552.988522,2451.505594
59435.501009,0.000000,-4367.215058,919.314598
59435.501319,-666.185348,-7254.018232,0.000000
59435.501629,-2368.659014,-7772.162391,0.000000
59435.501938,-1184.329507,-12509.480420,-76.609550
59435.502248,-518.144159,-15470.304188,612.876398
59435.502558,-1258.350101,-15396.283594,-2528.115143
59435.502868,-5921.647536,-14878.139434,-2451.505594
59435.503178,-4293.194464,-13397.727550,-1072.533697
59435.503488,-74.020594,-11843.295072,1762.019645
59435.503797,2738.761985,-6883.915261,3294.210641
59435.504107,3552.988522,-3034.844362,4903.011187
59435.504417,3034.844362,-2368.659014,4366.744339
59435.504727,1184.329507,-2442.679609,2451.505594
59435.505037,1998.556043,-6957.935855,4213.525239
59435.505347,-74.020594,-7105.977043,-76.609550
59435.505656,-2368.659014,-7179.997637,0.000000
59435.505966,-74.020594,-11843.295072,-76.609550
59435.506276,-3552.988522,-10288.862594,-4290.134789
59435.506586,-666.185348,-15396.283594,-1302.362347
59435.506896,-3034.844362,-16580.613101,-995.924147
59435.507205,-2812.782580,-14952.160028,0.000000
59435.507515,-1406.391290,-12213.398043,1072.533697
59435.507825,1184.329507,-7179.997637,2451.505594
59435.508135,888.247130,-3627.009116,3370.820191
59435.508445,1702.473667,-4145.153275,2987.772442
59435.508755,0.000000,-4219.173869,3064.381992
59435.509064,-74.020594,-4737.318029,1149.143247
59435.509374,0.000000,-6217.729913,1532.190996
59435.509684,-74.020594,-6513.812290,-76.609550
59435.509994,-962.267725,-9030.512492,0.000000
59435.510304,-814.226536,-11473.192101,-842.705048
59435.510614,-1554.432478,-13767.830521,-1915.238745
59435.510923,-4737.318029,-14285.974681,-3677.258390
59435.511233,-6513.812290,-14285.974681,0.000000
59435.511543,-2960.823768,-13471.748144,0.000000
59435.511853,2294.638420,-10658.965565,-76.609550
59435.512163,0.000000,-4811.338623,1225.752797
59435.512473,2294.638420,-7105.977043,4826.401637
59435.512782,1480.411884,-5107.421000,3677.258390
59435.513092,1702.473667,-5329.482782,2987.772442
59435.513402,1998.556043,-4663.297435,2374.896044
59435.513712,1628.453072,-5847.626942,2221.676944
59435.514022,814.226536,-5847.626942,229.828649
59435.514332,-2368.659014,-7772.162391,-1838.629195
59435.514641,-2368.659014,-11917.315666,-2451.505594
59435.514951,-1258.350101,-18653.189738,-76.609550
59435.515261,-6513.812290,-13693.809927,-3370.820191
59435.515571,-1258.350101,-15914.427753,1149.143247
59435.515881,-1776.494261,-10732.986159,612.876398
59435.516191,592.164754,-7698.141797,1915.238745
59435.516500,-222.061783,-5921.647536,2374.896044
59435.516810,592.164754,-4515.256246,1455.581446
59435.517120,2294.638420,-4737.318029,2987.772442
59435.517430,2294.638420,-3552.988522,2068.457845
59435.517740,1480.411884,-3034.844362,1225.752797
59435.518050,4663.297435,-7550.100608,2987.772442
59435.518360,0.000000,-7179.997637,0.000000
59435.518669,592.164754,-11917.315666,1532.190996
59435.518979,-4737.318029,-14285.974681,-2451.505594
59435.519289,-4811.338623,-15988.448347,-4903.011187
59435.519599,-3552.988522,-14656.077652,-1762.019645
59435.519909,-296.082377,-11991.336260,-76.609550
59435.520219,1998.556043,-9474.636058,3294.210641
59435.520529,-74.020594,-6513.812290,-76.609550
59435.520838,-740.205942,-4811.338623,0.000000
59435.521148,4663.297435,-8290.306550,4213.525239
59435.521458,1184.329507,-3034.844362,2451.505594
59435.521768,3552.988522,-4811.338623,3677.258390
59435.522078,2442.679609,-4219.173869,1915.238745
59435.522388,3256.906145,-8290.306550,2681.334243
59435.522698,1628.453072,-9844.739029,842.705048
59435.523007,-2960.823768,-13989.892304,-612.876398
59435.523317,-4219.173869,-17024.736666,-459.657299
59435.523627,-1850.514855,-17764.942608,-689.485948
59435.523937,-1258.350101,-12731.542202,-1302.362347
59435.524247,-3552.988522,-8364.327145,0.000000
59435.524557,-666.185348,-8882.471304,-76.609550
59435.524867,-4737.318029,-4811.338623,-3677.258390
59435.525176,814.226536,-6809.894666,2068.457845
59435.525486,2812.782580,-3923.091493,3600.648841
59435.525796,2960.823768,-4367.215058,4213.525239
59435.526106,3701.029710,-3330.926739,3064.381992
59435.526416,4737.318029,-8068.244768,5515.887586
59435.526726,5403.503377,-10658.965565,4213.525239
59435.527036,-666.185348,-14211.954086,-76.609550
59435.527345,-6513.812290,-12213.398043,-3677.258390
59435.527655,-3552.988522,-14434.015869,-2145.067394
59435.527965,-1850.514855,-13323.706956,-1302.362347
59435.528275,-2442.679609,-12435.459826,-995.924147
59435.528585,-5033.400406,-9252.574275,-1685.410096
59435.528895,-2886.803174,-8290.306550,-1225.752797
59435.529205,-296.082377,-7402.059420,1608.800546
59435.529514,592.164754,-3627.009116,2757.943793
59435.529824,3552.988522,-4811.338623,6128.763984
59435.530134,5773.606348,-5403.503377,7048.078582
59435.530444,4663.297435,-5329.482782,3600.648841
59435.530754,1184.329507,-6587.832884,2451.505594
59435.531064,-74.020594,-11547.212695,-76.609550
59435.531374,-2442.679609,-15396.283594,-76.609550
59435.531683,-3034.844362,-14582.057057,-1762.019645
59435.531993,-3256.906145,-14211.954086,-1915.238745
59435.532303,-4441.235652,-11991.336260,-2451.505594
59435.532613,-8290.306550,-7772.162391,-3677.258390
59435.532923,-4737.318029,-9548.656652,-1838.629195
59435.533233,-74.020594,-11843.295072,4213.525239
59435.533543,74.020594,-3701.029710,1072.533697
59435.533852,3849.070898,-4367.215058,5056.230287
59435.534162,8216.285956,-4737.318029,4826.401637
59435.534472,7402.059420,-4959.379811,6894.859482
59435.534782,4885.359217,-5403.503377,4290.134789
59435.535092,148.041188,-9252.574275,1225.752797
59435.535402,-3478.967927,-12287.418637,-1302.362347
59435.535712,-5921.647536,-11917.315666,-4903.011187
59435.536021,-7105.977043,-13101.645173,-4290.134789
59435.536331,-8290.306550,-11325.150913,-4903.011187
59435.536641,-6291.750507,-15396.283594,-2528.115143
59435.536951,-5403.503377,-10436.903782,-3983.696590
59435.537261,-74.020594,-11843.295072,2374.896044
59435.537571,1776.494261,-6291.750507,3983.696590
59435.537881,4367.215058,-3849.070898,5132.839837
59435.538190,6587.832884,-2072.576638,5822.325785
59435.538500,8068.244768,-2664.741391,7277.907231
59435.538810,7031.956449,-3552.988522,3600.648841
59435.539120,740.205942,-5995.668130,1608.800546
59435.539430,-3552.988522,-9548.656652,0.000000
59435.539740,-2442.679609,-16432.571912,-689.485948
59435.540050,-3849.070898,-14285.974681,-4136.915689
59435.540359,-3256.906145,-14285.974681,-919.314598
59435.540669,-8882.471304,-13693.809927,-4290.134789
59435.540979,-6735.874072,-12435.459826,-4290.134789
59435.541289,-3330.926739,-11621.233289,-1455.581446
59435.541599,1110.308913,-6883.915261,2604.724693
59435.541909,4663.297435,-4737.318029,4826.401637
59435.542219,7031.956449,-888.247130,4826.401637
59435.542528,5329.482782,-74.020594,5515.887586
59435.542838,10584.944971,-4737.318029,9116.536426
59435.543148,2886.803174,-5329.482782,2987.772442
59435.543458,-2960.823768,-10140.821405,2451.505594
59435.543768,-4293.194464,-12509.480420,-2987.772442
59435.544078,-3997.112087,-15396.283594,-3753.867940
59435.544388,-5847.626942,-14952.160028,-4903.011187
59435.544697,-9030.512492,-17690.922014,-4596.572988
59435.545007,-4811.338623,-15988.448347,-1302.362347
59435.545317,-1258.350101,-11843.295072,-76.609550
59435.545627,1702.473667,-7105.977043,1149.143247
59435.545937,1776.494261,-2442.679609,4903.011187
59435.546247,8808.450710,-2960.823768,7890.783629
59435.546557,7105.977043,-74.020594,7967.393179
59435.546866,7179.997637,-666.185348,6894.859482
59435.547176,2960.823768,-3997.112087,4443.353888
59435.547486,-1110.308913,-9992.780217,1072.533697
59435.547796,-2590.720797,-11029.068536,-1991.848295
59435.548106,-4367.215058,-16284.530724,-1915.238745
59435.548416,-5995.668130,-16580.613101,-4596.572988
59435.548726,-9548.656652,-18949.272115,-6205.373534
59435.549035,-10955.047942,-16062.468941,-7354.516781
59435.549345,-4293.194464,-13693.809927,-842.705048
59435.549655,-3330.926739,-6735.874072,0.000000
59435.549965,3478.967927,-3404.947333,3600.648841
59435.550275,7698.141797,-1628.453072,7354.516781
59435.550585,11473.192101,0.000000,10035.851024
59435.550895,9326.594869,-518.144159,9116.536426
59435.551204,5329.482782,-3627.009116,7354.516781
59435.551514,1850.514855,-9326.594869,2451.505594
59435.551824,-74.020594,-14211.954086,-76.609550
59435.552134,-5551.544565,-14211.954086,-3294.210641
59435.552444,-9474.636058,-15470.304188,-7354.516781
59435.552754,-11029.068536,-16284.530724,-9806.022374
59435.553064,-10140.821405,-18949.272115,-6818.249932
59435.553373,-6661.853478,-14804.118840,-4290.134789
59435.553683,-3552.988522,-9178.553681,76.609550
59435.553993,2812.782580,-5329.482782,4673.182538
59435.554303,7105.977043,-666.185348,8580.269578
59435.554613,11843.295072,518.144159,11031.775171
59435.554923,13545.768739,0.000000,12180.918418
59435.555233,2516.700203,-74.020594,4136.915689
59435.555542,1110.308913,-8290.306550,3600.648841
59435.555852,-1258.350101,-10066.800811,-1302.362347
59435.556162,-2516.700203,-13619.789333,-3217.601092
59435.556472,-6883.915261,-13619.789333,-6205.373534
59435.556782,-11251.130318,-16950.716072,-8733.488677
59435.557092,-10362.883188,-18357.107362,-7967.393179
59435.557402,-8882.471304,-14285.974681,-4903.011187
59435.557711,-5329.482782,-9548.656652,0.000000
59435.558021,1184.329507,-6587.832884,4903.011187
59435.558331,7920.203579,-1776.494261,6052.154434
59435.558641,13027.624579,666.185348,11031.775171
59435.558951,15322.262999,0.000000,12180.918418
59435.559261,6809.894666,-370.102971,8044.002729
59435.559571,1702.473667,-5181.441594,1608.800546
59435.559880,-222.061783,-11325.150913,842.705048
59435.560190,-1480.411884,-13101.645173,-2604.724693
59435.560500,-8586.388927,-13101.645173,-8197.221829
59435.560810,-11843.295072,-14878.139434,-9882.631924
59435.561120,-11843.295072,-19023.292709,-9806.022374
59435.561430,-5403.503377,-20429.683999,-4366.744339
59435.561740,-5773.606348,-11029.068536,-4596.572988
59435.562049,2960.823768,-9474.636058,4826.401637
59435.562359,7846.182985,-3034.844362,7354.516781
59435.562669,13175.665768,1184.329507,10725.336972
59435.562979,11473.192101,222.061783,12180.918418
59435.563289,7328.038826,444.123565,8044.002729
59435.563599,3478.967927,-2220.617826,1455.581446
59435.563909,222.061783,-9474.636058,-76.609550
59435.564218,-4441.235652,-10140.821405,-3677.258390
59435.564528,-8290.306550,-15470.304188,-5515.887586
59435.564838,-9548.656652,-18949.272115,-7431.126331
59435.565148,-11251.130318,-23094.425390,-7201.297681
59435.565458,-9474.636058,-19911.539840,-6128.763984
59435.565768,-6365.771101,-14878.139434,-2068.457845
59435.566078,-444.123565,-7772.162391,1532.190996
59435.566387,6513.812290,-3923.091493,6511.811733
59435.566697,14137.933492,0.000000,11568.042020
59435.567007,13545.768739,0.000000,13406.671215
59435.567317,5255.462188,3182.885551,6128.763984
59435.567627,4145.153275,-3108.864956,5515.887586
59435.567937,1110.308913,-5995.668130,536.266849
59435.568247,-2368.659014,-10140.821405,0.000000
59435.568556,-7920.203579,-12065.356855,-5822.325785
59435.568866,-10807.006753,-16358.551318,-8273.831378
59435.569176,-11695.253884,-21095.869347,-9499.584175
59435.569486,-11029.068536,-18727.210333,-8120.612279
59435.569796,-7772.162391,-18653.189738,-1915.238745
59435.570106,-74.020594,-11843.295072,2374.896044
59435.570416,6439.791695,-4441.235652,5439.278036
59435.570725,10658.965565,-74.020594,9959.241474
59435.571035,12953.603985,0.000000,14019.547613
59435.571345,6513.812290,2294.638420,9806.022374
59435.571655,4663.297435,296.082377,4979.620737
59435.571965,0.000000,-5551.544565,2298.286494
59435.572275,-1480.411884,-8290.306550,0.000000
59435.572585,-5181.441594,-14730.098246,-2451.505594
59435.572894,-9178.553681,-17246.798449,-7354.516781
59435.573204,-11843.295072,-19023.292709,-9806.022374
59435.573514,-11029.068536,-23538.548956,-7431.126331
59435.573824,-10436.903782,-14211.954086,-6971.469032
59435.574134,-3552.988522,-12509.480420,2451.505594
59435.574444,4737.318029,-4811.338623,5515.887586
59435.574754,11769.274478,-3256.906145,9729.412825
59435.575063,12361.439231,-518.144159,11874.480219
59435.575373,9326.594869,-148.041188,11108.384721
59435.575683,4959.379811,-1480.411884,5745.716235
59435.575993,2664.741391,-4811.338623,2757.943793
59435.576303,592.164754,-8364.327145,2451.505594
59435.576613,-2442.679609,-14211.954086,-1302.362347
59435.576923,-11251.130318,-15470.304188,-7967.393179
59435.577232,-9548.656652,-23686.590144,-7737.564530
59435.577542,-12509.480420,-21317.931130,-10495.508323
59435.577852,-9474.636058,-18801.230927,-4519.963438
59435.578162,-3478.967927,-12287.418637,-383.047749
59435.578472,5477.523971,-7920.203579,5056.230287
59435.578782,11473.192101,-2886.803174,9269.755526
59435.579092,11843.295072,1702.473667,11031.775171
59435.579401,5921.647536,4663.297435,7967.393179
59435.579711,4145.153275,-148.041188,7354.516781
59435.580021,4071.132681,0.000000,1762.019645
59435.580331,0.000000,-2442.679609,0.000000
59435.580641,-2442.679609,-8882.471304,-3447.429741
59435.580951,-9326.594869,-11325.150913,-7967.393179
59435.581261,-9696.697840,-16284.530724,-10801.946522
59435.581570,-10140.821405,-19319.375086,-9576.193725
59435.581880,-9844.739029,-19023.292709,-5592.497135
59435.582190,-6957.935855,-11325.150913,-3217.601092
59435.582500,2368.659014,-4811.338623,1225.752797
59435.582810,10658.965565,-2442.679609,9806.022374
59435.583120,14730.098246,1184.329507,12180.918418
59435.583430,4737.318029,3478.967927,9806.022374
59435.583739,8808.450710,1184.329507,6052.154434
59435.584049,3404.947333,-1258.350101,3064.381992
59435.584359,2072.576638,-5329.482782,1762.019645
59435.584669,-2516.700203,-10436.903782,-1838.629195
59435.584979,-8142.265362,-13175.665768,-7737.564530
59435.585289,-11325.150913,-16580.613101,-11721.261119
59435.585599,-11325.150913,-21317.931130,-10495.508323
59435.585908,-11843.295072,-19023.292709,-7354.516781
59435.586218,-6809.894666,-17764.942608,-1302.362347
59435.586528,518.144159,-8734.430116,1302.362347
59435.586838,11325.150913,-7698.141797,10955.165621
59435.587148,11843.295072,-1406.391290,10418.898773
59435.587458,8808.450710,-518.144159,12334.137518
59435.587767,6587.832884,-592.164754,7814.174080
59435.588077,4737.318029,-2886.803174,5745.716235
59435.588387,2886.803174,-5921.647536,3294.210641
59435.588697,-74.020594,-9474.636058,-76.609550
59435.589007,-8882.471304,-11325.150913,-7354.516781
59435.589317,-11843.295072,-17394.839637,-9806.022374
59435.589627,-11917.315666,-25463.084405,-9882.631924
59435.589936,-12731.542202,-24870.919651,-5592.497135
59435.590246,-7328.038826,-16654.633695,-4366.744339
59435.590556,1628.453072,-11399.171507,2681.334243
59435.590866,6883.915261,-6957.935855,8810.098227
59435.591176,10288.862594,-2220.617826,11568.042020
59435.591486,10288.862594,0.000000,11568.042020
59435.591796,9400.615463,0.000000,9116.536426
59435.592105,4663.297435,-1776.494261,4826.401637
59435.592415,1776.494261,-2442.679609,3064.381992
59435.592725,2294.638420,-8882.471304,-76.609550
59435.593035,-5921.647536,-10140.821405,-4596.572988
59435.593345,-9548.656652,-15988.448347,-9882.631924
59435.593655,-11325.150913,-18875.251521,-11644.651570
59435.593965,-13249.686362,-23686.590144,-7354.516781
59435.594274,-9474.636058,-17764.942608,-4060.306139
59435.594584,2368.659014,-13323.706956,2145.067394
59435.594894,11769.274478,-8882.471304,10342.289223
59435.595204,11177.109724,-2368.659014,10955.165621
59435.595514,7105.977043,-74.020594,10418.898773
59435.595824,9400.615463,0.000000,9729.412825
59435.596134,3256.906145,-74.020594,6205.373534
59435.596443,4663.297435,-1480.411884,3140.991542
59435.596753,518.144159,-5773.606348,612.876398
59435.597063,-6513.812290,-8808.450710,-3907.087040
59435.597373,-9104.533087,-15766.386565,-9269.755526
59435.597683,-12731.542202,-21391.951724,-11644.651570
59435.597993,-15396.283594,-21984.116477,-9499.584175
59435.598303,-9548.656652,-18949.272115,-5592.497135
59435.598612,-1776.494261,-9548.656652,-3677.258390
59435.598922,12139.377449,-5847.626942,9039.926876
59435.599232,11177.109724,-74.020594,10418.898773
59435.599542,9770.718434,2368.659014,10342.289223
59435.599852,7920.203579,888.247130,9039.926876
59435.600162,6513.812290,592.164754,6665.030833
59435.600472,5847.626942,0.000000,3983.696590
59435.600781,1776.494261,-2442.679609,1532.190996
59435.601091,-2368.659014,-8364.327145,0.000000
59435.601401,-5403.503377,-15100.201217,-7431.126331
59435.601711,-12139.377449,-16062.468941,-12870.404366
59435.602021,-12435.459826,-23020.404796,-7967.393179
59435.602331,-11473.192101,-21317.931130,-8273.831378
59435.602641,-3330.926739,-16432.571912,-2298.286494
59435.602950,5255.462188,-8660.409521,3830.477490
59435.603260,7772.162391,-5995.668130,8580.269578
59435.603570,8290.306550,-1554.432478,9652.803275
59435.603880,6513.812290,1998.556043,8810.098227
59435.604190,5921.647536,2294.638420,6435.202183
59435.604500,8142.265362,-1776.494261,8044.002729
59435.604810,2368.659014,-3627.009116,1225.752797
59435.605119,-74.020594,-10584.944971,1149.143247
59435.605429,-5995.668130,-12731.542202,-7124.688131
59435.605739,-9918.759623,-17838.963202,-9652.803275
59435.606049,-13767.830521,-22872.363608,-9806.022374
59435.606359,-12435.459826,-21169.889941,-6818.249932
59435.606669,-3627.009116,-16580.613101,-1302.362347
59435.606979,2738.761985,-15100.201217,4060.306139
59435.607288,3256.906145,-7179.997637,6435.202183
59435.607598,6513.812290,-4515.256246,9499.584175
59435.607908,6439.791695,-370.102971,6971.469032
59435.608218,5921.647536,-74.020594,8580.269578
59435.608528,8216.285956,-2072.576638,6665.030833
59435.608838,3256.906145,-1850.514855,3217.601092
59435.609148,-1332.370696,-8068.244768,536.266849
59435.609457,-5551.544565,-11843.295072,-4519.963438
59435.609767,-9474.636058,-17616.901420,-7967.393179
59435.610077,-13101.645173,-21317.931130,-9882.631924
59435.610387,-13101.645173,-20133.601622,-8044.002729
59435.610697,-7105.977043,-14285.974681,-4903.011187
59435.611007,4663.297435,-12731.542202,4826.401637
59435.611317,4367.215058,-6143.709319,5132.839837
59435.611626,6735.874072,-2886.803174,8503.660028
59435.611936,5773.606348,-1850.514855,8656.879127
59435.612246,7105.977043,-1258.350101,9806.022374
59435.612556,7994.224174,-222.061783,7890.783629
59435.612866,5403.503377,370.102971,3064.381992
59435.613176,1702.473667,-3552.988522,2068.457845
59435.613486,-1258.350101,-6513.812290,-4060.306139
59435.613795,-9474.636058,-12509.480420,-9499.584175
59435.614105,-10214.842000,-18949.272115,-9039.926876
59435.614415,-14285.974681,-20133.601622,-10801.946522
59435.614725,-8734.430116,-19837.519246,-4366.744339
59435.615035,518.144159,-14582.057057,-383.047749
59435.615345,3997.112087,-9696.697840,5209.449386
59435.615655,4737.318029,-7698.141797,7431.126331
59435.615964,6217.729913,-2738.761985,8580.269578
59435.616274,9178.553681,-2368.659014,11031.775171
59435.616584,11177.109724,-2960.823768,9729.412825
59435.616894,3627.009116,1110.308913,4136.915689
59435.617204,2294.638420,-7105.977043,4826.401637
59435.617514,-2146.597232,-7994.224174,-2528.115143
59435.617824,-7994.224174,-13989.892304,-6894.859482
59435.618133,-10140.821405,-18949.272115,-9882.631924
59435.618443,-13175.665768,-20355.663405,-10112.460574
59435.618753,-8364.327145,-18357.107362,-7354.516781
59435.619063,-1406.391290,-14878.139434,-2451.505594
59435.619373,3701.029710,-11991.336260,3677.258390
59435.619683,5921.647536,-8068.244768,8273.831378
59435.619992,6439.791695,-4737.318029,8197.221829
59435.620302,6217.729913,1110.308913,9806.022374
59435.620612,11769.274478,0.000000,9729.412825
59435.620922,7624.121203,1776.494261,8197.221829
59435.621232,3108.864956,-1554.432478,3677.258390
59435.621542,962.267725,-7698.141797,689.485948
59435.621851,-4367.215058,-9400.615463,-6281.983084
59435.622161,-10288.862594,-15248.242405,-8963.317327
59435.622471,-11399.171507,-20429.683999,-9193.145976
59435.622781,-7179.997637,-20133.601622,-6818.249932
59435.623091,-3923.091493,-16580.613101,-3753.867940
59435.623401,0.000000,-10140.821405,0.000000
59435.623710,4663.297435,-13027.624579,7277.907231
59435.624020,4737.318029,-5995.668130,7660.954980
59435.624330,9400.615463,-3256.906145,10955.165621
59435.624640,9770.718434,-592.164754,10572.117872
59435.624950,8290.306550,814.226536,7737.564530
59435.625260,3701.029710,-1924.535449,4366.744339
59435.625569,0.000000,-10140.821405,2757.943793
59435.625879,-3256.906145,-13101.645173,-1455.581446
59435.626189,-8956.491898,-16580.613101,-8656.879127
59435.626499,-14211.954086,-19615.457463,-9806.022374
59435.626809,-7476.080014,-22206.178260,-6205.373534
59435.627119,-7698.141797,-16654.633695,-4596.572988
59435.627428,-1998.556043,-13767.830521,612.876398
59435.627738,2072.576638,-7328.038826,3907.087040
59435.628048,4737.318029,-5995.668130,6511.811733
59435.628358,7698.141797,-1332.370696,9499.584175
59435.628668,7698.141797,-666.185348,11644.651570
59435.628978,9474.636058,1998.556043,11031.775171
59435.629287,8216.285956,0.000000,6052.154434
59435.629597,888.247130,-74.020594,536.266849
59435.629907,-2368.659014,-9548.656652,-1838.629195
59435.630217,-11991.336260,-11251.130318,-9652.803275
59435.630527,-14211.954086,-18505.148550,-11261.603821
59435.630836,-11917.315666,-20355.663405,-10572.117872
59435.631146,-9992.780217,-19911.539840,-6818.249932
59435.631456,-6513.812290,-18283.086767,-1302.362347
59435.631766,0.000000,-9548.656652,1838.629195
59435.632076,2368.659014,-5995.668130,7354.516781
59435.632386,10288.862594,-8882.471304,13713.109414
59435.632695,10881.027347,-1110.308913,9806.022374
59435.633005,14137.933492,-2368.659014,13713.109414
59435.633315,7624.121203,0.000000,5209.449386
59435.633625,2072.576638,-3108.864956,2451.505594
59435.633935,-1554.432478,-9400.615463,-1762.019645
59435.634245,-9400.615463,-11621.233289,-9346.365076
59435.634554,-14137.933492,-16432.571912,-11797.870669
59435.634864,-14211.954086,-21762.054695,-10189.070123
59435.635174,-11843.295072,-19023.292709,-7967.393179
59435.635484,-4737.318029,-19615.457463,-919.314598
59435.635794,-74.020594,-12139.377449,995.924147
59435.636104,2368.659014,-7179.997637,6741.640382
59435.636413,9104.533087,-7105.977043,10955.165621
59435.636723,11251.130318,-666.185348,13942.938064
59435.637033,11769.274478,2294.638420,11031.775171
59435.637343,7698.141797,1480.411884,7431.126331
59435.637653,4589.276840,-1628.453072,6358.592633
59435.637963,-2738.761985,-6809.894666,-1302.362347
59435.638272,-7179.997637,-8142.265362,-9882.631924
59435.638582,-13915.871710,-17838.963202,-12257.527968
59435.638892,-11917.315666,-26055.249158,-9882.631924
59435.639202,-12213.398043,-22206.178260,-9576.193725
59435.639512,-5403.503377,-20133.601622,-3140.991542
59435.639822,-1184.329507,-13323.706956,1225.752797
59435.640131,4885.359217,-8660.409521,7048.078582
59435.640441,9992.780217,-6513.812290,11261.603821
59435.640751,11399.171507,-1480.411884,15321.909960
59435.641061,14137.933492,2368.659014,13253.452115
59435.641371,9400.615463,2664.741391,7277.907231
59435.641681,2960.823768,-74.020594,2757.943793
59435.641990,-74.020594,-7105.977043,-76.609550
59435.642300,-8882.471304,-7179.997637,-9806.022374
59435.642610,-11325.150913,-15544.324782,-11721.261119
59435.642920,-13249.686362,-21317.931130,-12870.404366
59435.643230,-11917.315666,-23982.672521,-8963.317327
59435.643540,-6143.709319,-19837.519246,-4826.401637
59435.643849,-2812.782580,-17838.963202,0.000000
59435.644159,4663.297435,-10288.862594,7660.954980
59435.644469,10584.944971,-8290.306550,10955.165621
59435.644779,9474.636058,-5403.503377,14709.033562
59435.645089,14730.098246,-2664.741391,17696.806004
59435.645399,10584.944971,3997.112087,6971.469032
59435.645708,4737.318029,0.000000,5975.544884
59435.646018,222.061783,-5551.544565,-76.609550
59435.646328,-8734.430116,-11325.150913,-3753.867940
59435.646638,-11547.212695,-14878.139434,-12257.527968
59435.646948,-14211.954086,-20799.786970,-14096.157163
59435.647257,-13619.789333,-23464.528361,-11031.775171
59435.647567,-5995.668130,-23686.590144,-3140.991542
59435.647877,-5107.421000,-23982.672521,1149.143247
59435.648187,1184.329507,-14285.974681,7354.516781
59435.648497,10584.944971,-7105.977043,10955.165621
59435.648807,8882.471304,-3404.947333,16854.100956
59435.649116,14656.077652,8290.306550,12180.918418
59435.649426,11547.212695,4071.132681,10725.336972
59435.649736,5699.585753,4737.318029,4826.401637
59435.650046,1776.494261,1554.432478,-1302.362347
59435.650356,-6513.812290,-7772.162391,-4903.011187
59435.650666,-14211.954086,-9548.656652,-18386.291952
59435.650975,-13693.809927,-21910.095883,-14785.643111
59435.651285,-12509.480420,-23094.425390,-11721.261119
59435.651595,-11843.295072,-20503.704593,-6894.859482
59435.651905,-7994.224174,-15766.386565,-1838.629195
59435.652215,4367.215058,-8068.244768,3907.087040
59435.652525,9918.759623,-4441.235652,9806.022374
59435.652834,11695.253884,-1406.391290,15475.129060
59435.653144,13249.686362,2960.823768,14632.424012
59435.653454,10066.800811,7031.956449,8044.002729
59435.653764,4737.318029,5847.626942,4903.011187
59435.654074,4663.297435,0.000000,2374.896044
59435.654384,-8290.306550,-2442.679609,-6741.640382
59435.654693,-14211.954086,-11917.315666,-9806.022374
59435.655003,-13027.624579,-16062.468941,-15321.909960
59435.655313,-14434.015869,-25611.125593,-9806.022374
59435.655623,-11325.150913,-24204.734303,-5822.325785
59435.655933,-4885.359217,-17838.963202,-2987.772442
59435.656243,370.102971,-14211.954086,4519.963438
59435.656552,6809.894666,-7624.121203,8503.660028
59435.656862,7698.141797,-5403.503377,12870.404366
59435.657172,10732.986159,-814.226536,15858.176809
59435.657482,11177.109724,4441.235652,8503.660028
59435.657792,9400.615463,1924.535449,7354.516781
59435.658102,2960.823768,1702.473667,1838.629195
59435.658411,-4145.153275,-6883.915261,-2221.676944
59435.658721,-11917.315666,-10436.903782,-9806.022374
59435.659031,-12509.480420,-17024.736666,-14096.157163
59435.659341,-11917.315666,-24870.919651,-8963.317327
59435.659651,-10436.903782,-23686.590144,-5592.497135
59435.659961,-7179.997637,-17468.860231,-3447.429741
59435.660270,0.000000,-10732.986159,2451.505594
59435.660580,9400.615463,-7105.977043,7277.907231
59435.660890,7772.162391,-4811.338623,9806.022374
59435.661200,8216.285956,0.000000,12180.918418
59435.661510,10288.862594,2072.576638,12257.527968
59435.661819,8512.368333,3182.885551,6665.030833
59435.662129,4737.318029,-518.144159,3524.039291
59435.662439,-1406.391290,-6587.832884,-919.314598
59435.662749,-9548.656652,-9474.636058,-6818.249932
59435.663059,-10732.986159,-13619.789333,-12334.137518
59435.663369,-10362.883188,-17838.963202,-12257.527968
59435.663678,-7698.141797,-23686.590144,-4060.306139
59435.663988,-6291.750507,-19023.292709,-4673.182538
59435.664298,-74.020594,-17764.942608,2987.772442
59435.664608,4293.194464,-11473.192101,7431.126331
59435.664918,9400.615463,-5625.565159,10342.289223
59435.665228,8808.450710,-3330.926739,12793.794817
59435.665537,10658.965565,5255.462188,10418.898773
59435.665847,9400.615463,1628.453072,8810.098227
59435.666157,5847.626942,-1776.494261,4519.963438
59435.666467,-2738.761985,-3627.009116,-4903.011187
59435.666777,-9474.636058,-10140.821405,-6741.640382
59435.667087,-9548.656652,-14211.954086,-9882.631924
59435.667396,-8364.327145,-20725.766376,-8810.098227
59435.667706,-9548.656652,-22428.240043,-5209.449386
59435.668016,-5773.606348,-19689.478057,-2604.724693
59435.668326,0.000000,-15470.304188,1302.362347
59435.668636,3552.988522,-9548.656652,3677.258390
59435.668946,7698.141797,-8660.409521,11031.775171
59435.669255,9400.615463,-2368.659014,11568.042020
59435.669565,7328.038826,2368.659014,7277.907231
59435.669875,5921.647536,3478.967927,7354.516781
59435.670185,6439.791695,-2368.659014,6052.154434
59435.670495,-666.185348,-4737.318029,-76.609550
59435.670805,-9400.615463,-7254.018232,-7507.735880
59435.671114,-10066.800811,-15396.283594,-9269.755526
59435.671424,-8438.347739,-20133.601622,-7660.954980
59435.671734,-10066.800811,-20207.622217,-7354.516781
59435.672044,-8290.306550,-20207.622217,-4596.572988
59435.672354,-1998.556043,-20133.601622,2068.457845
59435.672664,4071.132681,-9548.656652,1455.581446
59435.672973,7994.224174,-7402.059420,9729.412825
59435.673283,8808.450710,-4737.318029,12180.918418
59435.673593,8290.306550,1110.308913,10572.117872
59435.673903,8586.388927,2368.659014,7277.907231
59435.674213,3627.009116,370.102971,4290.134789
59435.674523,-3627.009116,-4293.194464,-2451.505594
59435.674832,-11325.150913,-8290.306550,-7737.564530
59435.675142,-15396.283594,-11917.315666,-11031.775171
59435.675452,-13027.624579,-16654.633695,-8580.269578
59435.675762,-9548.656652,-18949.272115,-6205.373534
59435.676072,-11843.295072,-15470.304188,-4290.134789
59435.676382,-3404.947333,-17987.004391,3753.867940
59435.676691,0.000000,-9548.656652,3677.258390
59435.677001,2220.617826,-9844.739029,10265.679673
59435.677311,3330.926739,-148.041188,10112.460574
59435.677621,2072.576638,592.164754,8427.050478
59435.677931,2294.638420,592.164754,6665.030833
59435.678240,518.144159,3256.906145,2221.676944
59435.678550,-5921.647536,-3034.844362,0.000000
59435.678860,-9548.656652,-9474.636058,-3140.991542
59435.679170,-16580.613101,-9622.677246,-11491.432470
59435.679480,-14211.954086,-14878.139434,-7354.516781
59435.679790,-15396.283594,-19023.292709,-6741.640382
59435.680099,-9474.636058,-16654.633695,-2681.334243
59435.680409,-2664.741391,-12435.459826,1608.800546
59435.680719,1036.288319,-7698.141797,4673.182538
59435.681029,3478.967927,-10658.965565,9729.412825
59435.681339,-74.020594,-5625.565159,9116.536426
59435.681649,0.000000,-1258.350101,6128.763984
59435.681958,814.226536,-3552.988522,8503.660028
59435.682268,-7105.977043,-74.020594,1838.629195
59435.682578,-7698.141797,-4219.173869,612.876398
59435.682888,-7179.997637,-5107.421000,-3447.429741
59435.683198,-4737.318029,-8660.409521,-3983.696590
59435.683508,-7772.162391,-11917.315666,-3370.820191
59435.683817,-10214.842000,-15544.324782,-3677.258390
59435.684127,-5625.565159,-16210.510130,-1915.238745
59435.684437,-666.185348,-16580.613101,-689.485948
59435.684747,-1258.350101,-10807.006753,766.095498
59435.685057,-2368.659014,-8364.327145,3064.381992
59435.685367,-74.020594,-9474.636058,4826.401637
59435.685676,0.000000,-2442.679609,2451.505594
59435.685986,5847.626942,-2368.659014,4826.401637
59435.686296,4515.256246,-666.185348,4903.011187
59435.686606,1110.308913,-2886.803174,2221.676944
59435.686916,-5107.421000,-8660.409521,-1532.190996
59435.687226,-7698.141797,-12509.480420,-3677.258390
59435.687535,-6291.750507,-18949.272115,-3907.087040
59435.687845,-7476.080014,-18061.024985,-3140.991542
59435.688155,-9474.636058,-11325.150913,-4903.011187
59435.688465,-5329.482782,-16062.468941,1225.752797
59435.688775,-1258.350101,-11251.130318,1762.019645
59435.689085,2294.638420,-9474.636058,5439.278036
59435.689394,3404.947333,-3330.926739,6128.763984
59435.689704,4737.318029,0.000000,6894.859482
59435.690014,6957.935855,1036.288319,5669.106685
59435.690324,4737.318029,-666.185348,3064.381992
59435.690634,296.082377,-8660.409521,919.314598
59435.690944,-7772.162391,-14211.954086,-3753.867940
59435.691253,-13101.645173,-15692.365970,-9269.755526
59435.691563,-11251.130318,-14878.139434,-7354.516781
59435.691873,-5403.503377,-13027.624579,-4979.620737
59435.692183,-5403.503377,-14211.954086,-842.705048
59435.692493,-3627.009116,-11251.130318,536.266849
59435.692803,-740.205942,-13693.809927,5745.716235
59435.693112,1924.535449,-8068.244768,7890.783629
59435.693422,0.000000,-74.020594,7354.516781
59435.693732,1776.494261,814.226536,9806.022374
59435.694042,5847.626942,3552.988522,7277.907231
59435.694352,592.164754,4367.215058,2451.505594
59435.694661,3182.885551,-4737.318029,2374.896044
59435.694971,-2442.679609,-10658.965565,-4979.620737
59435.695281,-11547.212695,-17394.839637,-7737.564530
59435.695591,-16654.633695,-23316.487173,-10648.727422
59435.695901,-17838.963202,-25463.084405,-9806.022374
59435.696211,-14137.933492,-21021.848753,-6052.154434
59435.696520,-10510.924376,-15322.262999,-3677.258390
59435.696830,-5329.482782,-8364.327145,3677.258390
59435.697140,2664.741391,-3330.926739,9806.022374
59435.697450,7031.956449,1184.329507,10955.165621
59435.697760,7698.141797,4663.297435,12563.966167
59435.698070,9400.615463,2368.659014,10955.165621
59435.698379,3552.988522,1702.473667,6128.763984
59435.698689,-2146.597232,-3182.885551,1455.581446
59435.698999,-7846.182985,-9474.636058,-3677.258390
59435.699309,-15988.448347,-16358.551318,-8810.098227
59435.699619,-19615.457463,-22206.178260,-12487.356617
59435.699929,-20133.601622,-21688.034101,-9806.022374
59435.700238,-14804.118840,-20207.622217,-4903.011187
59435.700548,-4811.338623,-18357.107362,-76.609550
59435.700858,-2368.659014,-5403.503377,4903.011187
59435.701168,9400.615463,-4663.297435,13406.671215
59435.701478,8290.306550,2294.638420,12257.527968
59435.701788,9252.574275,3330.926739,10572.117872
59435.702097,6217.729913,592.164754,7354.516781
59435.702407,1776.494261,-4367.215058,3217.601092
59435.702717,-74.020594,-7105.977043,-689.485948
59435.703027,-6143.709319,-9770.718434,-5592.497135
59435.703337,-11547.212695,-12509.480420,-9193.145976
59435.703647,-12509.480420,-21910.095883,-7431.126331
59435.703956,-12509.480420,-20429.683999,-8656.879127
59435.704266,-9474.636058,-20207.622217,-2451.505594
59435.704576,-4293.194464,-14878.139434,0.000000
59435.704886,370.102971,-11547.212695,5056.230287
59435.705196,6069.688724,-3923.091493,8427.050478
59435.705506,6957.935855,296.082377,10725.336972
59435.705815,9400.615463,1184.329507,12180.918418
59435.706125,7031.956449,2960.823768,7277.907231
59435.706435,592.164754,1406.391290,1225.752797
59435.706745,2294.638420,-6513.812290,4826.401637
59435.707055,-4515.256246,-7772.162391,-1915.238745
59435.707365,-8882.471304,-9548.656652,-4290.134789
59435.707674,-9918.759623,-16136.489536,-6665.030833
59435.707984,-8438.347739,-17246.798449,-5439.278036
59435.708294,-6587.832884,-18801.230927,-2221.676944
59435.708604,-2516.700203,-15248.242405,1225.752797
59435.708914,4219.173869,-11251.130318,6052.154434
59435.709223,8216.285956,-6809.894666,8503.660028
59435.709533,9104.533087,-1850.514855,9269.755526
59435.709843,12435.459826,1480.411884,13483.280765
59435.710153,8068.244768,4663.297435,8580.269578
59435.710463,3552.988522,-74.020594,6128.763984
59435.710773,2590.720797,-4737.318029,3447.429741
59435.711082,-3627.009116,-11621.233289,1455.581446
59435.711392,-8068.244768,-13841.851115,-689.485948
59435.711702,-7624.121203,-17690.922014,-2298.286494
59435.712012,-5329.482782,-19911.539840,612.876398
59435.712322,-3034.844362,-18653.189738,1762.019645
59435.712632,-2442.679609,-16580.613101,4826.401637
59435.712941,0.000000,-5995.668130,4903.011187
59435.713251,4959.379811,-6883.915261,9499.584175
59435.713561,6439.791695,-1776.494261,8350.440928
59435.713871,8216.285956,1184.329507,10955.165621
59435.714181,5773.606348,1998.556043,10955.165621
59435.714491,4663.297435,2738.761985,9346.365076
59435.714800,2664.741391,-2368.659014,7124.688131
59435.715110,0.000000,-5995.668130,7354.516781
59435.715420,-1480.411884,-11769.274478,6128.763984
59435.715730,-3627.009116,-18949.272115,4826.401637
59435.716040,-8882.471304,-16654.633695,612.876398
59435.716350,-10658.965565,-19319.375086,3217.601092
59435.716659,-8364.327145,-14804.118840,2374.896044
59435.716969,-2738.761985,-9178.553681,7277.907231
59435.717279,3627.009116,-2294.638420,10955.165621
59435.717592,7476.080014,1480.411884,12257.527968
59435.717902,7402.059420,2368.659014,13789.718964
59435.718212,4737.318029,-74.020594,14709.033562
59435.718521,3256.906145,-6291.750507,11108.384721
59435.718831,-74.020594,-9474.636058,9729.412825
59435.719141,-7105.977043,-8364.327145,3677.258390
59435.719451,-3256.906145,-12879.583391,4826.401637
59435.719760,-2442.679609,-11843.295072,1762.019645
59435.720070,-3849.070898,-14285.974681,2451.505594
59435.720380,-5329.482782,-15470.304188,842.705048
59435.720690,-6661.853478,-17838.963202,2145.067394
59435.720999,-4589.276840,-13989.892304,3294.210641
59435.721309,0.000000,-4811.338623,4903.011187
59435.721619,2368.659014,-2442.679609,8273.831378
59435.721929,4663.297435,-4737.318029,12180.918418
59435.722239,2812.782580,-74.020594,6588.421283
59435.722548,4885.359217,-4663.297435,8197.221829
59435.722858,4663.297435,-6513.812290,4826.401637
59435.723168,296.082377,-11177.109724,2911.162892
59435.723478,-2294.638420,-16580.613101,2451.505594
59435.723787,-6217.729913,-18431.127956,-1225.752797
59435.724097,-8808.450710,-19985.560434,-2298.286494
59435.724407,-11325.150913,-17542.880825,-4596.572988
59435.724717,-7105.977043,-11917.315666,-3370.820191
59435.725027,-1184.329507,-11917.315666,3064.381992
59435.725336,1702.473667,-4441.235652,1149.143247
59435.725646,3849.070898,-4811.338623,5056.230287
59435.725956,10584.944971,-4737.318029,7277.907231
59435.726266,7698.141797,-3923.091493,6741.640382
59435.726575,4663.297435,-8660.409521,6435.202183
59435.726885,1554.432478,-10881.027347,3217.601092
59435.727195,0.000000,-13693.809927,2298.286494
59435.727505,-74.020594,-10658.965565,-2451.505594
59435.727814,-4293.194464,-12509.480420,-2298.286494
59435.728124,-5921.647536,-11917.315666,-1838.629195
59435.728434,-2442.679609,-14211.954086,-2528.115143
59435.728744,-3552.988522,-12509.480420,-3370.820191
59435.729054,-2368.659014,-11325.150913,-2451.505594
59435.729363,-666.185348,-13915.871710,995.924147
59435.729673,444.123565,-9622.677246,1991.848295
59435.729983,4515.256246,-4885.359217,3294.210641
59435.730293,5033.400406,-1480.411884,4060.306139
59435.730602,5033.400406,-2294.638420,6052.154434
59435.730912,3108.864956,-4737.318029,4826.401637
59435.731222,1998.556043,-3404.947333,76.609550
59435.731532,592.164754,-9548.656652,1532.190996
59435.731842,-666.185348,-16580.613101,2374.896044
59435.732151,-4219.173869,-18949.272115,-76.609550
59435.732461,-4737.318029,-17542.880825,0.000000
59435.732771,-3552.988522,-12583.501014,-842.705048
59435.733081,-1776.494261,-9030.512492,383.047749
59435.733390,1332.370696,-6365.771101,2834.553343
59435.733700,1406.391290,-2738.761985,3064.381992
59435.734010,1036.288319,-4811.338623,1838.629195
59435.734320,592.164754,-11621.233289,7354.516781
59435.734629,-74.020594,-12435.459826,6665.030833
59435.734939,-1776.494261,-10732.986159,6128.763984
59435.735249,-3404.947333,-9844.739029,5822.325785
59435.735559,-1850.514855,-7698.141797,4826.401637
59435.735869,740.205942,-7031.956449,5975.544884
59435.736178,1258.350101,-7254.018232,5745.716235
59435.736488,-1998.556043,-9030.512492,3064.381992
59435.736798,-3923.091493,-13027.624579,3524.039291
59435.737108,-666.185348,-14211.954086,6052.154434
59435.737417,-74.020594,-7698.141797,3294.210641
59435.737727,0.000000,-5995.668130,4903.011187
59435.738037,-370.102971,-8290.306550,6052.154434
59435.738347,-74.020594,-7105.977043,3907.087040
59435.738657,1776.494261,-6143.709319,4903.011187
59435.738966,-592.164754,-8142.265362,5056.230287
59435.739276,-3108.864956,-8660.409521,3983.696590
59435.739586,-2072.576638,-9474.636058,5439.278036
59435.739896,-1776.494261,-8660.409521,3064.381992
59435.740205,-3552.988522,-5995.668130,612.876398
59435.740515,-74.020594,-7698.141797,3294.210641
59435.740825,-2072.576638,-5107.421000,689.485948
59435.741135,2960.823768,-8364.327145,5515.887586
59435.741444,1998.556043,-7105.977043,2987.772442
59435.741754,1480.411884,-7328.038826,1685.410096
59435.742064,-148.041188,-9770.718434,1455.581446
59435.742374,-1184.329507,-11695.253884,229.828649
59435.742684,-2294.638420,-11917.315666,-2374.896044
59435.742993,-962.267725,-13619.789333,1378.971896
59435.743303,-74.020594,-13619.789333,-76.609550
59435.743613,-2368.659014,-7772.162391,-1532.190996
59435.743923,1406.391290,-10658.965565,2374.896044
59435.744232,-74.020594,-7698.141797,-2374.896044
59435.744542,-1036.288319,-7920.203579,-1378.971896
59435.744852,296.082377,-9696.697840,0.000000
59435.745162,666.185348,-9252.574275,153.219100
59435.745472,2442.679609,-6439.791695,-1149.143247
59435.745781,4663.297435,-7846.182985,1149.143247
59435.746091,0.000000,-7476.080014,-995.924147
59435.746401,-3552.988522,-10140.821405,-3370.820191
59435.746711,-148.041188,-17616.901420,-1608.800546
59435.747020,-1850.514855,-15988.448347,-3753.867940
59435.747330,-4737.318029,-12509.480420,-2451.505594
59435.747640,-370.102971,-11547.212695,-306.438199
59435.747950,-666.185348,-8290.306550,-1072.533697
59435.748259,296.082377,-7550.100608,-612.876398
59435.748569,1628.453072,-5995.668130,-229.828649
59435.748879,0.000000,-4811.338623,-3677.258390
59435.749189,2664.741391,-6291.750507,0.000000
59435.749499,4663.297435,-7105.977043,-1302.362347
59435.749808,296.082377,-5403.503377,-3370.820191
59435.750118,-74.020594,-14063.912898,-689.485948
59435.750428,-4515.256246,-12731.542202,-5669.106685
59435.750738,-4441.235652,-14582.057057,-5822.325785
59435.751047,-1998.556043,-14878.139434,-2145.067394
59435.751357,-1702.473667,-11325.150913,-1532.190996
59435.751667,-1776.494261,-8734.430116,-1532.190996
59435.751977,-74.020594,-9474.636058,1762.019645
59435.752287,1110.308913,-6883.915261,229.828649
59435.752596,1184.329507,-3627.009116,0.000000
59435.752906,2886.803174,-6217.729913,1608.800546
59435.753216,0.000000,-2442.679609,0.000000
59435.753526,4441.235652,-6661.853478,1455.581446
59435.753835,3256.906145,-8586.388927,1149.143247
59435.754145,-1850.514855,-10436.903782,-995.924147
59435.754455,-4219.173869,-13545.768739,-2145.067394
59435.754765,-3330.926739,-16654.633695,-1991.848295
59435.755075,-4737.318029,-14285.974681,0.000000
59435.755384,-962.267725,-14063.912898,2451.505594
59435.755694,-74.020594,-11843.295072,2374.896044
59435.756004,-1776.494261,-7179.997637,612.876398
59435.756314,3478.967927,-8290.306550,4213.525239
59435.756623,1184.329507,-2442.679609,4903.011187
59435.756933,1628.453072,-2294.638420,3830.477490
59435.757243,2442.679609,-3627.009116,4749.792088
59435.757553,2442.679609,-4737.318029,3677.258390
59435.757862,1406.391290,-6661.853478,2604.724693
59435.758172,-222.061783,-11843.295072,3294.210641
59435.758482,-5477.523971,-12509.480420,-842.705048
59435.758792,-7105.977043,-15470.304188,0.000000
59435.759102,-2442.679609,-17764.942608,2374.896044
59435.759411,-4737.318029,-10732.986159,1225.752797
59435.759721,-74.020594,-9474.636058,3600.648841
59435.760031,-74.020594,-6809.894666,3907.087040
59435.760341,888.247130,-5329.482782,4443.353888
59435.760650,2664.741391,-3701.029710,5056.230287
59435.760960,1702.473667,-4145.153275,5056.230287
59435.761270,0.000000,-2442.679609,4903.011187
59435.761580,2960.823768,-4737.318029,4366.744339
59435.761890,2886.803174,-5329.482782,3294.210641
59435.762199,-3552.988522,-4811.338623,0.000000
59435.762509,-1850.514855,-12731.542202,-76.609550
59435.762819,-4737.318029,-15766.386565,-536.266849
59435.763129,-4441.235652,-17246.798449,0.000000
59435.763438,-2368.659014,-16802.674883,2068.457845
59435.763748,-1776.494261,-11843.295072,1915.238745
59435.764058,-1480.411884,-7920.203579,2145.067394
59435.764368,2294.638420,-6513.812290,2374.896044
59435.764677,2368.659014,-1702.473667,1991.848295
59435.764987,2368.659014,-1850.514855,3677.258390
59435.765297,4663.297435,-3552.988522,2374.896044
59435.765607,2368.659014,-4959.379811,3064.381992
59435.765917,3478.967927,-7698.141797,842.705048
59435.766226,-74.020594,-12361.439231,1455.581446
59435.766536,-3182.885551,-13027.624579,-842.705048
59435.766846,-3256.906145,-15914.427753,-1608.800546
59435.767156,-2072.576638,-16210.510130,-919.314598
59435.767465,-2960.823768,-13397.727550,0.000000
59435.767775,-666.185348,-12805.562797,842.705048
59435.768085,-888.247130,-9474.636058,1072.533697
59435.768395,-444.123565,-8660.409521,1532.190996
59435.768705,1628.453072,-4811.338623,1149.143247
59435.769014,2294.638420,-2960.823768,-229.828649
59435.769324,1702.473667,-2146.597232,0.000000
59435.769634,4663.297435,-5921.647536,2987.772442
59435.769944,1184.329507,-4219.173869,0.000000
59435.770253,444.123565,-10807.006753,1225.752797
59435.770563,-4663.297435,-13101.645173,-1838.629195
59435.770873,-4663.297435,-16876.695478,-2528.115143
59435.771183,-3552.988522,-16876.695478,-1455.581446
59435.771492,-1776.494261,-14285.974681,153.219100
59435.771802,-1554.432478,-11991.336260,383.047749
59435.772112,-74.020594,-8882.471304,-76.609550
59435.772422,-666.185348,-5921.647536,-689.485948
59435.772732,0.000000,-2442.679609,0.000000
59435.773041,2294.638420,-4737.318029,2374.896044
59435.773351,0.000000,-2590.720797,76.609550
59435.773661,1184.329507,-3034.844362,0.000000
59435.773971,3849.070898,-5625.565159,995.924147
59435.774280,666.185348,-9030.512492,536.266849
