#time,accel_x,accel_y,accel_z
163581.193089,518.144159,-9474.636058,0.000000
163581.193409,740.205942,-9696.697840,76.609550
163581.193729,2294.638420,-10584.944971,1149.143247
163581.194049,222.061783,-8290.306550,-689.485948
163581.194369,0.000000,-8956.491898,919.314598
163581.194689,814.226536,-9474.636058,766.095498
163581.195009,-74.020594,-10658.965565,-76.609550
163581.195329,-2368.659014,-7179.997637,0.000000
163581.195649,-666.185348,-8290.306550,-536.266849
163581.195969,-1184.329507,-9030.512492,-459.657299
163581.196289,-1184.329507,-8882.471304,-306.438199
163581.196609,-1110.308913,-9030.512492,-689.485948
163581.196929,-1554.432478,-8882.471304,-76.609550
163581.197249,-2294.638420,-8734.430116,-1838.629195
163581.197569,-1628.453072,-8512.368333,-2451.505594
163581.197889,-296.082377,-10436.903782,306.438199
163581.198209,-74.020594,-9474.636058,-76.609550
163581.198529,-2368.659014,-7179.997637,0.000000
163581.198849,370.102971,-9474.636058,-153.219100
163581.199169,0.000000,-9474.636058,-536.266849
163581.199489,296.082377,-9548.656652,-306.438199
163581.199809,814.226536,-9474.636058,-1302.362347
163581.200129,-74.020594,-10658.965565,-689.485948
163581.200449,1702.473667,-11843.295072,-76.609550
163581.200769,222.061783,-8882.471304,-689.485948
163581.201089,0.000000,-9548.656652,0.000000
163581.201409,1184.329507,-9548.656652,1455.581446
163581.201729,-1184.329507,-7179.997637,0.000000
163581.202049,296.082377,-9474.636058,306.438199
163581.202369,-296.082377,-9326.594869,153.219100
163581.202689,-592.164754,-8882.471304,0.000000
163581.203009,-74.020594,-10658.965565,-76.609550
163581.203329,-2368.659014,-7772.162391,0.000000
163581.203649,-74.020594,-10658.965565,-76.609550
163581.203969,-370.102971,-9104.533087,-76.609550
163581.204289,-74.020594,-9474.636058,-689.485948
163581.204609,-3552.988522,-7772.162391,0.000000
163581.204929,-814.226536,-9474.636058,-842.705048
163581.205249,-1036.288319,-9400.615463,-995.924147
163581.205569,-888.247130,-9696.697840,-995.924147
163581.205889,-962.267725,-8364.327145,-2068.457845
163581.206209,-74.020594,-9548.656652,-995.924147
163581.206529,-1480.411884,-8512.368333,-919.314598
163581.206849,814.226536,-10066.800811,1378.971896
163581.207170,-74.020594,-9474.636058,-689.485948
163581.207490,296.082377,-10140.821405,919.314598
163581.207810,0.000000,-8364.327145,0.000000
163581.208130,518.144159,-9474.636058,-306.438199
163581.208450,296.082377,-9326.594869,229.828649
163581.208770,296.082377,-9400.615463,0.000000
163581.209090,2294.638420,-8882.471304,-689.485948
163581.209410,1110.308913,-9474.636058,-76.609550
163581.209730,518.144159,-11251.130318,-76.609550
163581.210050,-74.020594,-8438.347739,-383.047749
163581.210370,-1184.329507,-8660.409521,0.000000
163581.210690,0.000000,-9548.656652,1838.629195
163581.211010,-2368.659014,-7920.203579,-1225.752797
163581.211330,-1184.329507,-9178.553681,-306.438199
163581.211650,-814.226536,-8956.491898,0.000000
163581.211970,-444.123565,-9326.594869,-229.828649
163581.212290,-74.020594,-9474.636058,-76.609550
163581.212610,-1776.494261,-9548.656652,306.438199
163581.212930,-74.020594,-9474.636058,-1302.362347
163581.213250,-1924.535449,-9548.656652,-1072.533697
163581.213570,-3552.988522,-7476.080014,0.000000
163581.213890,-2146.597232,-7772.162391,-3064.381992
163581.214210,-74.020594,-9474.636058,-459.657299
163581.214530,0.000000,-9474.636058,-536.266849
163581.214850,222.061783,-9474.636058,-229.828649
163581.215170,2294.638420,-11843.295072,-76.609550
163581.215490,1036.288319,-9178.553681,-536.266849
163581.215810,518.144159,-8586.388927,-995.924147
163581.216130,0.000000,-9104.533087,0.000000
163581.216450,888.247130,-10732.986159,1378.971896
163581.216770,1702.473667,-9474.636058,-1302.362347
163581.217090,1406.391290,-10362.883188,-76.609550
163581.217410,592.164754,-8956.491898,229.828649
163581.217730,1480.411884,-8660.409521,229.828649
163581.218050,1480.411884,-8512.368333,0.000000
163581.218370,0.000000,-8364.327145,612.876398
163581.218690,518.144159,-9252.574275,-229.828649
163581.219010,444.123565,-9844.739029,-536.266849
163581.219330,1184.329507,-9030.512492,-383.047749
163581.219650,814.226536,-7920.203579,-2068.457845
163581.219970,3182.885551,-10066.800811,-1225.752797
163581.220290,3478.967927,-11251.130318,-383.047749
163581.220610,2294.638420,-8882.471304,-1072.533697
163581.220930,2368.659014,-8364.327145,-1455.581446
163581.221250,4663.297435,-10584.944971,1685.410096
163581.221570,2368.659014,-7179.997637,0.000000
163581.221890,5699.585753,-9178.553681,689.485948
163581.222210,5625.565159,-9030.512492,76.609550
163581.222530,5403.503377,-9030.512492,-76.609550
163581.222850,4663.297435,-10658.965565,-689.485948
163581.223170,4515.256246,-9474.636058,-1915.238745
163581.223490,5107.421000,-10362.883188,-689.485948
163581.223810,6143.709319,-11473.192101,919.314598
163581.224130,7624.121203,-9474.636058,-229.828649
163581.224450,7698.141797,-8660.409521,1225.752797
163581.224770,7328.038826,-8364.327145,0.000000
163581.225090,7402.059420,-9696.697840,842.705048
163581.225410,5329.482782,-10140.821405,229.828649
163581.225730,3552.988522,-11621.233289,-383.047749
163581.226050,2294.638420,-11547.212695,-459.657299
163581.226370,1850.514855,-10584.944971,306.438199
163581.226690,1184.329507,-8364.327145,1225.752797
163581.227010,5551.544565,-8808.450710,1762.019645
163581.227330,3775.050304,-5551.544565,-76.609550
163581.227650,2368.659014,-4811.338623,0.000000
163581.227970,3478.967927,-5921.647536,-2298.286494
163581.228290,3849.070898,-7772.162391,-2911.162892
163581.228610,3775.050304,-9844.739029,-2757.943793
163581.228930,2590.720797,-10955.047942,-2987.772442
163581.229250,3478.967927,-14804.118840,-1378.971896
163581.229570,4663.297435,-17172.777854,1149.143247
163581.229890,2886.803174,-13323.706956,1302.362347
163581.230210,2664.741391,-8364.327145,536.266849
163581.230530,3701.029710,-7920.203579,2451.505594
163581.230850,592.164754,-4219.173869,-1838.629195
163581.231170,2368.659014,-6217.729913,-689.485948
163581.231490,2368.659014,-7179.997637,-76.609550
163581.231810,1184.329507,-7846.182985,-459.657299
163581.232130,-74.020594,-9474.636058,383.047749
163581.232450,-2220.617826,-9548.656652,0.000000
163581.232770,1702.473667,-10362.883188,1915.238745
163581.233090,3404.947333,-10807.006753,3600.648841
163581.233410,3182.885551,-9474.636058,842.705048
163581.233730,0.000000,-10436.903782,2451.505594
163581.234050,740.205942,-9622.677246,919.314598
163581.234370,1480.411884,-9252.574275,536.266849
163581.234690,222.061783,-7476.080014,-2068.457845
163581.235010,-1628.453072,-7772.162391,-5822.325785
163581.235330,-1998.556043,-9252.574275,-5898.935335
163581.235650,296.082377,-11695.253884,-842.705048
163581.235970,814.226536,-10140.821405,0.000000
163581.236290,0.000000,-9548.656652,1838.629195
163581.236610,1702.473667,-10658.965565,-76.609550
163581.236930,0.000000,-7179.997637,0.000000
163581.237250,4145.153275,-9548.656652,1149.143247
163581.237570,6291.750507,-9252.574275,3600.648841
163581.237890,5847.626942,-7920.203579,4060.306139
163581.238210,2886.803174,-4737.318029,-1455.581446
163581.238530,-74.020594,-7994.224174,-5975.544884
163581.238850,-74.020594,-13027.624579,-6205.373534
163581.239170,-1258.350101,-13767.830521,-4903.011187
163581.239490,-1036.288319,-11917.315666,-3753.867940
163581.239811,1184.329507,-13101.645173,-306.438199
163581.240131,592.164754,-9548.656652,-2451.505594
163581.240451,6735.874072,-10140.821405,2987.772442
163581.240771,13027.624579,-7476.080014,7890.783629
163581.241091,13027.624579,-3923.091493,9269.755526
163581.241411,10584.944971,-2368.659014,5439.278036
163581.241731,3552.988522,-2442.679609,766.095498
163581.242051,5181.441594,-8882.471304,-76.609550
163581.242371,5847.626942,-14063.912898,3140.991542
163581.242691,1110.308913,-12435.459826,-2528.115143
163581.243011,-4441.235652,-14285.974681,-4903.011187
163581.243331,-4959.379811,-13545.768739,-9422.974625
163581.243651,-1850.514855,-13989.892304,-6358.592633
163581.243971,1702.473667,-12213.398043,-2604.724693
163581.244291,1850.514855,-8364.327145,-1991.848295
163581.244611,4367.215058,-6439.791695,0.000000
163581.244931,5033.400406,-5107.421000,1685.410096
163581.245251,5033.400406,-3627.009116,2451.505594
163581.245571,9400.615463,-7994.224174,7124.688131
163581.245891,11769.274478,-9474.636058,8197.221829
163581.246211,6513.812290,-5995.668130,3677.258390
163581.246531,2738.761985,-8438.347739,-1378.971896
163581.246851,-962.267725,-11769.274478,-4136.915689
163581.247171,-888.247130,-14063.912898,-5822.325785
163581.247491,-1850.514855,-13323.706956,-6818.249932
163581.247811,-666.185348,-15322.262999,-2987.772442
163581.248131,1702.473667,-14211.954086,-2528.115143
163581.248451,1998.556043,-8882.471304,-689.485948
163581.248771,4145.153275,-5699.585753,536.266849
163581.249091,3552.988522,-4811.338623,1225.752797
163581.249411,8068.244768,-4885.359217,4826.401637
163581.249731,5921.647536,-4515.256246,5209.449386
163581.250051,3182.885551,-6143.709319,3524.039291
163581.250371,592.164754,-7402.059420,-995.924147
163581.250691,-2072.576638,-10288.862594,-2068.457845
163581.251011,-3627.009116,-9770.718434,-5209.449386
163581.251331,-3552.988522,-12065.356855,-4136.915689
163581.251651,-4737.318029,-10732.986159,-4596.572988
163581.251971,-2368.659014,-9548.656652,-2145.067394
163581.252291,3478.967927,-9474.636058,-76.609550
163581.252611,4441.235652,-7105.977043,76.609550
163581.252931,4737.318029,-7105.977043,2145.067394
163581.253251,5329.482782,-7328.038826,2834.553343
163581.253571,3552.988522,-7772.162391,4136.915689
163581.253891,2294.638420,-8290.306550,0.000000
163581.254211,1702.473667,-10214.842000,-1225.752797
163581.254531,1702.473667,-11843.295072,-3140.991542
163581.254851,-222.061783,-10288.862594,-4673.182538
163581.255171,2886.803174,-13619.789333,-76.609550
163581.255491,2442.679609,-10807.006753,-1072.533697
163581.255811,4367.215058,-10214.842000,995.924147
163581.256131,4737.318029,-9252.574275,2221.676944
163581.256451,5625.565159,-9474.636058,3677.258390
163581.256771,4811.338623,-6143.709319,2451.505594
163581.257091,6143.709319,-7476.080014,4366.744339
163581.257411,4293.194464,-7105.977043,2451.505594
163581.257731,1406.391290,-7031.956449,-1302.362347
163581.258051,-74.020594,-9474.636058,-3753.867940
163581.258371,-1554.432478,-11251.130318,-4366.744339
163581.258691,0.000000,-10732.986159,-4903.011187
163581.259011,1110.308913,-12139.377449,-2681.334243
163581.259331,2886.803174,-14211.954086,-995.924147
163581.259651,0.000000,-8364.327145,0.000000
163581.259971,5255.462188,-10066.800811,2374.896044
163581.260291,7402.059420,-8290.306550,4903.011187
163581.260611,7920.203579,-7476.080014,4979.620737
163581.260931,4737.318029,-4885.359217,2451.505594
163581.261251,2368.659014,-7105.977043,-76.609550
163581.261571,1110.308913,-9178.553681,-2221.676944
163581.261891,1184.329507,-9548.656652,-4903.011187
163581.262211,1776.494261,-11325.150913,-1838.629195
163581.262531,1998.556043,-11251.130318,-2834.553343
163581.262851,0.000000,-10732.986159,-4903.011187
163581.263171,2886.803174,-13027.624579,-459.657299
163581.263491,3404.947333,-11325.150913,2298.286494
163581.263811,4737.318029,-8586.388927,3447.429741
163581.264131,3404.947333,-6513.812290,1762.019645
163581.264450,5551.544565,-9474.636058,4826.401637
163581.264770,4145.153275,-5995.668130,919.314598
163581.265090,6809.894666,-7476.080014,5056.230287
163581.265410,3923.091493,-6365.771101,1149.143247
163581.265730,518.144159,-7772.162391,-2451.505594
163581.266050,0.000000,-10140.821405,-3370.820191
163581.266370,1258.350101,-12213.398043,-3677.258390
163581.266689,-962.267725,-11843.295072,-2604.724693
163581.267009,-1184.329507,-11473.192101,-3753.867940
163581.267329,-74.020594,-10658.965565,-3140.991542
163581.267649,2664.741391,-9548.656652,0.000000
163581.267969,4663.297435,-9474.636058,-76.609550
163581.268289,3478.967927,-7105.977043,1762.019645
163581.268609,2886.803174,-6661.853478,1838.629195
163581.268928,6513.812290,-7179.997637,5209.449386
163581.269248,3552.988522,-7772.162391,766.095498
163581.269568,1036.288319,-8808.450710,-383.047749
163581.269888,814.226536,-11029.068536,-1455.581446
163581.270208,4663.297435,-11029.068536,-383.047749
163581.270528,5107.421000,-9622.677246,-2681.334243
163581.270848,1184.329507,-11917.315666,-2298.286494
163581.271168,222.061783,-11029.068536,-6128.763984
163581.271487,0.000000,-11917.315666,-1072.533697
163581.271807,962.267725,-10066.800811,-1915.238745
163581.272127,0.000000,-9548.656652,1838.629195
163581.272447,2590.720797,-7698.141797,2068.457845
163581.272767,6365.771101,-5033.400406,5822.325785
163581.273087,8808.450710,-5033.400406,5209.449386
163581.273407,5773.606348,-4811.338623,2834.553343
163581.273726,3330.926739,-5995.668130,76.609550
163581.274046,74.020594,-9474.636058,-1302.362347
163581.274366,-5107.421000,-10732.986159,-6511.811733
163581.274686,-8290.306550,-11621.233289,-8580.269578
163581.275006,-2442.679609,-18949.272115,-2528.115143
163581.275326,4737.318029,-10732.986159,-919.314598
163581.275646,4071.132681,-8068.244768,-1455.581446
163581.275965,1258.350101,-10807.006753,306.438199
163581.276285,1998.556043,-7031.956449,-1685.410096
163581.276605,2294.638420,-7031.956449,995.924147
163581.276925,7031.956449,-8882.471304,3294.210641
163581.277245,6439.791695,-7624.121203,2145.067394
163581.277565,7402.059420,-6883.915261,6128.763984
163581.277885,7698.141797,-7179.997637,3064.381992
163581.278204,9104.533087,-12435.459826,4213.525239
163581.278524,1184.329507,-9030.512492,-2451.505594
163581.278844,-4071.132681,-11473.192101,-6128.763984
163581.279164,-3701.029710,-12731.542202,-6358.592633
163581.279484,-296.082377,-12731.542202,-4903.011187
163581.279804,2146.597232,-10955.047942,-1838.629195
163581.280124,3108.864956,-10510.924376,1838.629195
163581.280444,5255.462188,-7698.141797,2374.896044
163581.280763,4663.297435,-6809.894666,2374.896044
163581.281083,3330.926739,-4145.153275,2068.457845
163581.281403,3552.988522,-8882.471304,4826.401637
163581.281723,7105.977043,-6957.935855,5745.716235
163581.282043,5625.565159,-8808.450710,1149.143247
163581.282363,-666.185348,-11843.295072,1072.533697
163581.282683,-8290.306550,-9548.656652,-6128.763984
163581.283002,-9474.636058,-11991.336260,-6741.640382
163581.283322,-8882.471304,-10732.986159,-9806.022374
163581.283642,-6809.894666,-11325.150913,-4903.011187
163581.283962,-3034.844362,-12435.459826,-2604.724693
163581.284282,3478.967927,-8290.306550,2374.896044
163581.284602,5625.565159,-7624.121203,5822.325785
163581.284922,3404.947333,-4885.359217,3370.820191
163581.285241,-1850.514855,-5329.482782,2145.067394
163581.285561,-2516.700203,-7105.977043,1685.410096
163581.285881,-2960.823768,-7179.997637,0.000000
163581.286201,-370.102971,-11547.212695,-76.609550
163581.286521,-5921.647536,-10732.986159,612.876398
163581.286841,-6809.894666,-12287.418637,-2987.772442
163581.287161,-8290.306550,-10732.986159,-5822.325785
163581.287481,-8290.306550,-9548.656652,-3677.258390
163581.287800,-5847.626942,-9770.718434,-2221.676944
163581.288120,-888.247130,-7328.038826,689.485948
163581.288440,2960.823768,-5551.544565,3294.210641
163581.288760,3923.091493,-4811.338623,4519.963438
163581.289080,1480.411884,-4811.338623,2757.943793
163581.289400,-4737.318029,-6883.915261,1225.752797
163581.289720,-5995.668130,-9474.636058,-76.609550
163581.290039,-3034.844362,-12731.542202,-2528.115143
163581.290359,-4737.318029,-9548.656652,-3064.381992
163581.290679,-3034.844362,-10584.944971,-1532.190996
163581.290999,-3478.967927,-12435.459826,-1838.629195
163581.291319,-2960.823768,-9844.739029,-2528.115143
163581.291639,-3923.091493,-8290.306550,-3524.039291
163581.291959,-74.020594,-10658.965565,-76.609550
163581.292278,296.082377,-7179.997637,-459.657299
163581.292598,4441.235652,-8142.265362,3524.039291
163581.292918,6513.812290,-8734.430116,4826.401637
163581.293238,4737.318029,-6513.812290,3677.258390
163581.293558,0.000000,-7179.997637,0.000000
163581.293878,-3034.844362,-8734.430116,-4903.011187
163581.294198,-2960.823768,-11843.295072,-4290.134789
163581.294517,-666.185348,-14730.098246,-1302.362347
163581.294837,444.123565,-12139.377449,-1302.362347
163581.295157,4663.297435,-13027.624579,1762.019645
163581.295477,2664.741391,-8512.368333,153.219100
163581.295797,2664.741391,-7179.997637,0.000000
163581.296117,2072.576638,-7328.038826,229.828649
163581.296437,1628.453072,-5995.668130,2374.896044
163581.296757,3552.988522,-7846.182985,2604.724693
163581.297076,2960.823768,-7179.997637,2451.505594
163581.297396,3108.864956,-9252.574275,1225.752797
163581.297716,2294.638420,-11843.295072,-76.609550
163581.298036,-74.020594,-10658.965565,-1608.800546
163581.298356,-4441.235652,-11547.212695,-3907.087040
163581.298676,-3627.009116,-11991.336260,-5056.230287
163581.298996,-1184.329507,-11547.212695,-2757.943793
163581.299315,1924.535449,-11029.068536,229.828649
163581.299635,2368.659014,-5995.668130,1225.752797
163581.299955,0.000000,-6883.915261,612.876398
163581.300275,2294.638420,-8882.471304,-76.609550
163581.300595,0.000000,-5403.503377,0.000000
163581.300915,2368.659014,-8660.409521,2145.067394
163581.301235,5847.626942,-10658.965565,4826.401637
163581.301554,3997.112087,-10140.821405,2911.162892
163581.301874,1110.308913,-10140.821405,153.219100
163581.302194,-2886.803174,-9918.759623,-2374.896044
163581.302514,-5625.565159,-11621.233289,-4290.134789
163581.302834,-4737.318029,-11917.315666,-3370.820191
163581.303154,-3997.112087,-8364.327145,-3064.381992
163581.303474,0.000000,-9548.656652,1991.848295
163581.303794,1110.308913,-6143.709319,3217.601092
163581.304113,-1036.288319,-4959.379811,-1149.143247
163581.304433,-74.020594,-8882.471304,1762.019645
163581.304753,-1184.329507,-6587.832884,612.876398
163581.305073,-1554.432478,-8956.491898,306.438199
163581.305393,-666.185348,-10436.903782,2068.457845
163581.305713,0.000000,-9844.739029,0.000000
163581.306033,814.226536,-11251.130318,-76.609550
163581.306352,-6365.771101,-9548.656652,-4290.134789
163581.306672,-9474.636058,-9548.656652,-7737.564530
163581.306992,-9474.636058,-10140.821405,-4903.011187
163581.307312,-2442.679609,-9474.636058,-3753.867940
163581.307632,592.164754,-9474.636058,995.924147
163581.307952,1258.350101,-6883.915261,2221.676944
163581.308272,740.205942,-7105.977043,2451.505594
163581.308591,0.000000,-6069.688724,2374.896044
163581.308911,-888.247130,-7105.977043,689.485948
163581.309231,-370.102971,-10658.965565,842.705048
163581.309551,0.000000,-10658.965565,1149.143247
163581.309871,0.000000,-10732.986159,1225.752797
163581.310191,1480.411884,-10732.986159,0.000000
163581.310511,-74.020594,-9474.636058,-1302.362347
163581.310831,-3552.988522,-9844.739029,-2451.505594
163581.311150,-1924.535449,-8512.368333,-3140.991542
163581.311470,888.247130,-9104.533087,-995.924147
163581.311790,4737.318029,-11103.089130,5362.668486
163581.312110,4145.153275,-7772.162391,4290.134789
163581.312430,2960.823768,-6587.832884,2451.505594
163581.312750,-74.020594,-7105.977043,-76.609550
163581.313070,-1480.411884,-8364.327145,-1225.752797
163581.313389,-2442.679609,-8364.327145,-3524.039291
163581.313709,-74.020594,-11695.253884,-383.047749
163581.314029,-1036.288319,-12509.480420,-1378.971896
163581.314349,-518.144159,-10658.965565,-1072.533697
163581.314669,-666.185348,-8956.491898,-2451.505594
163581.314989,0.000000,-8364.327145,0.000000
163581.315309,-962.267725,-6143.709319,-3677.258390
163581.315628,0.000000,-8956.491898,-1838.629195
163581.315948,2960.823768,-10214.842000,1225.752797
163581.316268,4663.297435,-9474.636058,-76.609550
163581.316588,1110.308913,-9104.533087,-2374.896044
163581.316908,962.267725,-10066.800811,459.657299
163581.317228,-1184.329507,-10584.944971,-1149.143247
163581.317548,370.102971,-10584.944971,0.000000
163581.317867,1406.391290,-10658.965565,1455.581446
163581.318187,3330.926739,-11843.295072,4213.525239
163581.318507,4071.132681,-7105.977043,2528.115143
163581.318827,666.185348,-7105.977043,-76.609550
163581.319147,-3552.988522,-6291.750507,0.000000
163581.319467,-4737.318029,-5995.668130,-3677.258390
163581.319787,-3627.009116,-9104.533087,-3447.429741
163581.320107,-1332.370696,-9918.759623,919.314598
163581.320426,592.164754,-9548.656652,0.000000
163581.320746,-888.247130,-8438.347739,-153.219100
163581.321066,-1332.370696,-11251.130318,1762.019645
163581.321386,-2368.659014,-10288.862594,-2221.676944
163581.321706,-74.020594,-11547.212695,-76.609550
163581.322026,-74.020594,-9474.636058,-76.609550
163581.322346,0.000000,-9548.656652,1532.190996
163581.322665,0.000000,-5995.668130,0.000000
163581.322985,2886.803174,-8882.471304,689.485948
163581.323305,-666.185348,-8438.347739,-1455.581446
163581.323625,-3997.112087,-9474.636058,-3524.039291
163581.323945,-3627.009116,-10732.986159,-3140.991542
163581.324265,-1184.329507,-11547.212695,-1532.190996
163581.324585,-2960.823768,-9548.656652,-3064.381992
163581.324904,2368.659014,-11251.130318,1149.143247
163581.325224,814.226536,-9474.636058,1149.143247
163581.325544,-74.020594,-10658.965565,-2221.676944
163581.325864,-74.020594,-10658.965565,-76.609550
163581.326184,-1628.453072,-9400.615463,383.047749
163581.326504,2368.659014,-10140.821405,2374.896044
163581.326824,2516.700203,-7550.100608,2068.457845
163581.327144,2368.659014,-8364.327145,2451.505594
163581.327463,-1036.288319,-9104.533087,-76.609550
163581.327783,-3627.009116,-9474.636058,-2528.115143
163581.328103,-4515.256246,-11843.295072,-2528.115143
163581.328423,-5107.421000,-10214.842000,-3600.648841
163581.328743,-74.020594,-13027.624579,-76.609550
163581.329063,592.164754,-7476.080014,919.314598
163581.329383,-296.082377,-8068.244768,76.609550
163581.329702,-370.102971,-7624.121203,153.219100
163581.330022,-666.185348,-7772.162391,612.876398
163581.330342,-666.185348,-5995.668130,-2451.505594
163581.330662,518.144159,-8734.430116,2221.676944
163581.330982,222.061783,-8808.450710,689.485948
163581.331302,518.144159,-8290.306550,-612.876398
163581.331622,-666.185348,-11251.130318,-76.609550
163581.331941,1702.473667,-10955.047942,-76.609550
163581.332261,0.000000,-9992.780217,-919.314598
163581.332581,-1554.432478,-10658.965565,-2834.553343
163581.332901,0.000000,-10436.903782,-1762.019645
163581.333221,1184.329507,-9548.656652,0.000000
163581.333541,1702.473667,-7254.018232,-1608.800546
163581.333861,1406.391290,-9622.677246,1225.752797
163581.334181,-222.061783,-8956.491898,459.657299
163581.334500,1480.411884,-8734.430116,1149.143247
163581.334820,1998.556043,-9030.512492,2374.896044
163581.335140,2294.638420,-9030.512492,-76.609550
163581.335460,-1184.329507,-8364.327145,0.000000
163581.335780,-74.020594,-12731.542202,1149.143247
163581.336100,1110.308913,-11843.295072,-1915.238745
163581.336420,-4441.235652,-8364.327145,-3677.258390
163581.336739,-3034.844362,-11029.068536,-3447.429741
163581.337059,-1332.370696,-10658.965565,-3064.381992
163581.337379,222.061783,-9548.656652,-2221.676944
163581.337699,666.185348,-9030.512492,-612.876398
163581.338019,-74.020594,-8290.306550,1762.019645
163581.338339,0.000000,-7698.141797,-153.219100
163581.338659,0.000000,-7179.997637,0.000000
163581.338978,1480.411884,-9992.780217,2374.896044
163581.339298,-74.020594,-8290.306550,1455.581446
163581.339618,-2368.659014,-5995.668130,0.000000
163581.339938,740.205942,-8660.409521,-536.266849
163581.340258,-148.041188,-10584.944971,-383.047749
163581.340578,-1554.432478,-9548.656652,-383.047749
163581.340898,-1258.350101,-11251.130318,-1302.362347
163581.341217,-74.020594,-11843.295072,306.438199
163581.341537,148.041188,-7698.141797,536.266849
163581.341857,444.123565,-7031.956449,383.047749
163581.342177,0.000000,-4811.338623,0.000000
163581.342497,0.000000,-8364.327145,3064.381992
163581.342817,296.082377,-8364.327145,2145.067394
163581.343137,-814.226536,-7698.141797,766.095498
163581.343457,-1332.370696,-10066.800811,306.438199
163581.343776,-1776.494261,-8586.388927,-612.876398
163581.344096,-1850.514855,-10584.944971,-2834.553343
163581.344416,-2368.659014,-9992.780217,-612.876398
163581.344736,-962.267725,-11251.130318,-689.485948
163581.345056,-666.185348,-11325.150913,-76.609550
163581.345376,-1258.350101,-8882.471304,-1915.238745
163581.345696,-2368.659014,-9548.656652,612.876398
163581.346015,0.000000,-8660.409521,-1302.362347
163581.346335,1184.329507,-8956.491898,1455.581446
163581.346655,592.164754,-9548.656652,0.000000
163581.346975,-296.082377,-9104.533087,-1838.629195
163581.347295,-888.247130,-8660.409521,-2451.505594
163581.347615,296.082377,-10584.944971,-536.266849
163581.347935,296.082377,-10732.986159,0.000000
163581.348254,962.267725,-11251.130318,-995.924147
163581.348574,-74.020594,-13027.624579,-76.609550
163581.348894,592.164754,-10140.821405,1225.752797
163581.349214,2812.782580,-8882.471304,76.609550
163581.349534,962.267725,-8068.244768,2068.457845
163581.349854,962.267725,-8290.306550,919.314598
163581.350174,1258.350101,-5995.668130,0.000000
163581.350494,1406.391290,-7254.018232,229.828649
163581.350813,-1406.391290,-6957.935855,-1991.848295
163581.351133,-1776.494261,-10288.862594,-459.657299
163581.351453,-1406.391290,-10955.047942,-76.609550
163581.351773,1554.432478,-11843.295072,2374.896044
163581.352093,-2960.823768,-5995.668130,-1838.629195
163581.352413,-2886.803174,-10066.800811,-1685.410096
163581.352733,-666.185348,-7105.977043,-2451.505594
163581.353052,296.082377,-9770.718434,-612.876398
163581.353372,1702.473667,-7698.141797,-76.609550
163581.353692,-2368.659014,-9400.615463,536.266849
163581.354012,1110.308913,-9474.636058,-76.609550
163581.354332,814.226536,-7698.141797,-2528.115143
163581.354652,962.267725,-7846.182985,-995.924147
163581.354972,1924.535449,-11843.295072,2374.896044
163581.355291,666.185348,-10732.986159,536.266849
163581.355611,1258.350101,-10214.842000,-536.266849
163581.355931,518.144159,-10510.924376,536.266849
163581.356251,-2368.659014,-9548.656652,0.000000
163581.356571,-2368.659014,-7179.997637,-2451.505594
163581.356891,-1480.411884,-9844.739029,-612.876398
163581.357211,0.000000,-8660.409521,0.000000
163581.357531,2294.638420,-10362.883188,1762.019645
163581.357850,1110.308913,-9474.636058,2374.896044
163581.358170,-444.123565,-10436.903782,1838.629195
163581.358490,-1924.535449,-8438.347739,-459.657299
163581.358810,-3034.844362,-8364.327145,-1455.581446
163581.359130,-1924.535449,-9548.656652,-1378.971896
163581.359450,-2368.659014,-8364.327145,-2451.505594
163581.359770,888.247130,-9844.739029,536.266849
163581.360089,-2368.659014,-7179.997637,0.000000
163581.360409,-2072.576638,-9548.656652,-1378.971896
163581.360729,-1258.350101,-9770.718434,-1302.362347
163581.361049,-3256.906145,-8364.327145,0.000000
163581.361369,-370.102971,-9844.739029,-1149.143247
163581.361689,74.020594,-9770.718434,766.095498
163581.362009,444.123565,-8956.491898,459.657299
163581.362328,444.123565,-7179.997637,0.000000
163581.362648,1406.391290,-8290.306550,-919.314598
163581.362968,-888.247130,-8216.285956,0.000000
163581.363288,-74.020594,-10362.883188,-76.609550
163581.363608,814.226536,-9474.636058,-76.609550
163581.363927,0.000000,-8364.327145,0.000000
163581.364247,518.144159,-7254.018232,0.000000
163581.364567,222.061783,-9030.512492,612.876398
163581.364887,296.082377,-8512.368333,1225.752797
163581.365207,-1184.329507,-8142.265362,-1608.800546
163581.365526,1110.308913,-11843.295072,-76.609550
163581.365846,814.226536,-9474.636058,766.095498
163581.366166,518.144159,-8660.409521,383.047749
163581.366486,1184.329507,-9548.656652,1532.190996
163581.366806,-74.020594,-9474.636058,-76.609550
163581.367126,-370.102971,-8290.306550,-2528.115143
163581.367445,-1924.535449,-8956.491898,-842.705048
163581.367765,-444.123565,-9548.656652,-1072.533697
163581.368085,518.144159,-10288.862594,612.876398
163581.368405,888.247130,-9548.656652,536.266849
163581.368725,-2368.659014,-7772.162391,0.000000
163581.369044,-1406.391290,-9548.656652,-1915.238745
163581.369364,-3478.967927,-9178.553681,-2987.772442
163581.369684,-1924.535449,-10732.986159,-1608.800546
163581.370004,-74.020594,-9474.636058,-689.485948
163581.370324,4663.297435,-10955.047942,2374.896044
163581.370644,4515.256246,-9474.636058,3140.991542
163581.370963,1702.473667,-8142.265362,536.266849
163581.371283,-3552.988522,-6587.832884,-2451.505594
163581.371603,-1332.370696,-9992.780217,766.095498
163581.371923,-2664.741391,-9548.656652,-2451.505594
163581.372243,518.144159,-10584.944971,306.438199
163581.372562,1480.411884,-9326.594869,1455.581446
163581.372882,888.247130,-9844.739029,2374.896044
163581.373202,1110.308913,-6661.853478,0.000000
163581.373522,-1036.288319,-8068.244768,-612.876398
163581.373842,-370.102971,-8808.450710,0.000000
163581.374161,1998.556043,-9474.636058,-76.609550
163581.374481,2886.803174,-9474.636058,1532.190996
163581.374801,1184.329507,-8364.327145,3983.696590
163581.375121,-2294.638420,-8364.327145,-1072.533697
163581.375441,-4589.276840,-9770.718434,-2145.067394
163581.375761,-4737.318029,-9400.615463,-4136.915689
163581.376080,-2960.823768,-11325.150913,-3370.820191
163581.376400,-1258.350101,-7550.100608,-3447.429741
163581.376720,0.000000,-8734.430116,-1302.362347
163581.377040,0.000000,-7772.162391,612.876398
163581.377360,1406.391290,-8438.347739,1149.143247
163581.377679,-74.020594,-9474.636058,-76.609550
163581.377999,-4145.153275,-8364.327145,0.000000
163581.378319,-74.020594,-9844.739029,-536.266849
163581.378639,2442.679609,-10214.842000,1378.971896
163581.378959,3478.967927,-10140.821405,1991.848295
163581.379278,-370.102971,-9178.553681,-383.047749
163581.379598,-1258.350101,-11251.130318,-995.924147
163581.379918,-4811.338623,-11251.130318,-3753.867940
163581.380238,-3923.091493,-9696.697840,-3140.991542
163581.380558,-74.020594,-9474.636058,-689.485948
163581.380878,4589.276840,-11399.171507,5669.106685
163581.381197,3849.070898,-7476.080014,4903.011187
163581.381517,2590.720797,-5921.647536,3524.039291
163581.381837,-2368.659014,-6217.729913,0.000000
163581.382157,-4737.318029,-7846.182985,-1225.752797
163581.382477,-2442.679609,-9918.759623,-2451.505594
163581.382796,1480.411884,-10362.883188,1225.752797
163581.383116,2294.638420,-10584.944971,1838.629195
163581.383436,2294.638420,-11251.130318,-76.609550
163581.383756,-1406.391290,-8290.306550,-3294.210641
163581.384076,-5625.565159,-10140.821405,-2681.334243
163581.384395,-5255.462188,-10584.944971,-4979.620737
163581.384715,-1628.453072,-9696.697840,-1838.629195
163581.385035,3256.906145,-8956.491898,842.705048
163581.385355,2960.823768,-7179.997637,2451.505594
163581.385675,2368.659014,-5995.668130,306.438199
163581.385995,518.144159,-6587.832884,0.000000
163581.386314,1110.308913,-9474.636058,1149.143247
163581.386634,-74.020594,-8512.368333,-2221.676944
163581.386954,1998.556043,-11843.295072,-76.609550
163581.387274,2368.659014,-11325.150913,1838.629195
163581.387594,2294.638420,-12731.542202,1225.752797
163581.387913,888.247130,-9696.697840,-1378.971896
163581.388233,-4145.153275,-9548.656652,-3447.429741
163581.388553,-6143.709319,-7179.997637,-4903.011187
163581.388873,-2442.679609,-11843.295072,-1915.238745
163581.389193,1702.473667,-10362.883188,-229.828649
163581.389512,2368.659014,-9548.656652,3217.601092
163581.389832,5847.626942,-10658.965565,6052.154434
163581.390152,2886.803174,-7698.141797,3600.648841
163581.390472,-3404.947333,-7179.997637,-1225.752797
163581.390792,-3478.967927,-11103.089130,-1915.238745
163581.391112,-1406.391290,-10584.944971,-459.657299
163581.391431,0.000000,-10881.027347,612.876398
163581.391751,2442.679609,-10362.883188,1225.752797
163581.392071,740.205942,-10658.965565,-76.609550
163581.392391,-2886.803174,-8882.471304,-1302.362347
163581.392711,-3627.009116,-8882.471304,-4979.620737
163581.393030,-4737.318029,-8586.388927,-4903.011187
163581.393350,1702.473667,-11843.295072,-76.609550
163581.393670,1628.453072,-8364.327145,2451.505594
163581.393990,2886.803174,-9252.574275,3370.820191
163581.394310,3330.926739,-6661.853478,2451.505594
163581.394630,-3552.988522,-7179.997637,612.876398
163581.394949,-2812.782580,-7772.162391,-1225.752797
163581.395269,-3108.864956,-7179.997637,-3753.867940
163581.395589,0.000000,-9548.656652,306.438199
163581.395909,3478.967927,-11251.130318,1762.019645
163581.396229,4367.215058,-11251.130318,-76.609550
163581.396548,-1184.329507,-9548.656652,306.438199
163581.396868,-5107.421000,-8586.388927,-2834.553343
163581.397188,-4515.256246,-9474.636058,-4060.306139
163581.397508,-740.205942,-9696.697840,-1149.143247
163581.397828,1184.329507,-7179.997637,0.000000
163581.398147,2960.823768,-9474.636058,2374.896044
163581.398467,0.000000,-7179.997637,2451.505594
163581.398787,-666.185348,-9178.553681,-842.705048
163581.399107,-4515.256246,-11251.130318,-1302.362347
163581.399427,-5921.647536,-11325.150913,-2451.505594
163581.399747,-3034.844362,-10955.047942,-1532.190996
163581.400066,1702.473667,-9844.739029,1838.629195
163581.400386,2812.782580,-9548.656652,1762.019645
163581.400706,-1184.329507,-5995.668130,-2145.067394
163581.401026,-4071.132681,-6291.750507,-3064.381992
163581.401346,-4145.153275,-9696.697840,-2451.505594
163581.401665,-74.020594,-9474.636058,-689.485948
163581.401985,0.000000,-8364.327145,0.000000
163581.402305,0.000000,-9548.656652,2451.505594
163581.402625,962.267725,-7476.080014,995.924147
163581.402945,148.041188,-9548.656652,0.000000
163581.403264,-1480.411884,-9104.533087,0.000000
163581.403584,-2220.617826,-8808.450710,-1455.581446
163581.403904,-74.020594,-10658.965565,2987.772442
163581.404224,2368.659014,-8364.327145,1838.629195
163581.404544,3701.029710,-8808.450710,2834.553343
163581.404864,1554.432478,-8364.327145,2068.457845
163581.405183,-3330.926739,-7402.059420,-919.314598
163581.405503,-6513.812290,-9548.656652,-3370.820191
163581.405823,-3627.009116,-7624.121203,-3983.696590
163581.406143,-2960.823768,-10436.903782,-2451.505594
163581.406463,888.247130,-11547.212695,1532.190996
163581.406782,-370.102971,-9178.553681,-383.047749
163581.407102,-74.020594,-11251.130318,-76.609550
163581.407422,-4071.132681,-8734.430116,-2757.943793
163581.407742,-3108.864956,-9696.697840,-3064.381992
163581.408062,0.000000,-10140.821405,-383.047749
163581.408381,2368.659014,-8956.491898,1455.581446
163581.408701,3701.029710,-10288.862594,3370.820191
163581.409021,2886.803174,-7698.141797,459.657299
163581.409341,-2664.741391,-6587.832884,-4213.525239
163581.409661,-5329.482782,-9548.656652,-4290.134789
163581.409981,-1850.514855,-11843.295072,-2528.115143
163581.410300,-1332.370696,-12509.480420,-766.095498
163581.410620,2220.617826,-10955.047942,1991.848295
163581.410940,4071.132681,-8142.265362,2145.067394
163581.411260,2738.761985,-6957.935855,1838.629195
163581.411580,0.000000,-6587.832884,1225.752797
163581.411899,-2072.576638,-7772.162391,-1225.752797
163581.412219,-74.020594,-11251.130318,2374.896044
163581.412539,2886.803174,-9474.636058,-76.609550
163581.412859,1258.350101,-10436.903782,1762.019645
163581.413179,2886.803174,-9178.553681,2374.896044
163581.413499,-2220.617826,-8512.368333,-2145.067394
163581.413818,-4367.215058,-10881.027347,-2604.724693
163581.414138,-5255.462188,-8808.450710,-4519.963438
163581.414458,-2886.803174,-11621.233289,-153.219100
163581.414778,296.082377,-8364.327145,1838.629195
163581.415098,592.164754,-7179.997637,0.000000
163581.415417,3256.906145,-8364.327145,3983.696590
163581.415737,1110.308913,-6513.812290,1762.019645
163581.416057,-2146.597232,-7772.162391,-2221.676944
163581.416377,-74.020594,-10658.965565,-995.924147
163581.416697,-1776.494261,-9770.718434,-2221.676944
163581.417016,74.020594,-11843.295072,0.000000
163581.417336,222.061783,-10658.965565,-383.047749
163581.417656,-2368.659014,-9548.656652,-1685.410096
163581.417976,-962.267725,-10066.800811,-1915.238745
163581.418296,-3552.988522,-8956.491898,-2757.943793
163581.418616,0.000000,-7179.997637,-3064.381992
163581.418935,2960.823768,-8586.388927,4136.915689
163581.419255,5847.626942,-6809.894666,2987.772442
163581.419575,5033.400406,-7698.141797,4290.134789
163581.419895,148.041188,-8660.409521,1991.848295
163581.420215,-2072.576638,-8734.430116,-459.657299
163581.420534,-4515.256246,-9770.718434,-1302.362347
163581.420854,-2220.617826,-10436.903782,-766.095498
163581.421174,-74.020594,-10362.883188,-2528.115143
163581.421494,-2442.679609,-9918.759623,-1455.581446
163581.421814,-2368.659014,-8364.327145,-1838.629195
163581.422133,-2368.659014,-8364.327145,0.000000
163581.422453,-2442.679609,-7105.977043,-3753.867940
163581.422773,-2590.720797,-8808.450710,-536.266849
163581.423093,-370.102971,-7698.141797,842.705048
163581.423413,2294.638420,-7846.182985,2451.505594
163581.423733,3701.029710,-9474.636058,4749.792088
163581.424052,592.164754,-8364.327145,1149.143247
163581.424372,-74.020594,-11251.130318,1762.019645
163581.424692,-1850.514855,-9326.594869,-2834.553343
163581.425012,-2072.576638,-10140.821405,-3217.601092
163581.425332,-2960.823768,-9548.656652,-3677.258390
163581.425651,1702.473667,-11251.130318,-76.609550
163581.425971,1480.411884,-9696.697840,-919.314598
163581.426291,0.000000,-9252.574275,-229.828649
163581.426611,-1184.329507,-9400.615463,-536.266849
163581.426931,-592.164754,-8956.491898,1225.752797
163581.427250,1110.308913,-6587.832884,0.000000
163581.427570,1184.329507,-7179.997637,1838.629195
163581.427890,3775.050304,-9474.636058,5439.278036
163581.428210,1702.473667,-9474.636058,1149.143247
163581.428530,-3330.926739,-8364.327145,-3064.381992
163581.428850,-3330.926739,-10362.883188,-2145.067394
163581.429169,-2738.761985,-11843.295072,-2681.334243
163581.429489,-1480.411884,-11177.109724,-919.314598
163581.429809,-962.267725,-11547.212695,-1302.362347
163581.430129,-1924.535449,-11103.089130,-383.047749
163581.430449,-2442.679609,-8882.471304,-2604.724693
163581.430768,-3256.906145,-7179.997637,-4290.134789
163581.431088,-2368.659014,-7772.162391,0.000000
163581.431408,0.000000,-7031.956449,0.000000
163581.431728,2886.803174,-7698.141797,1762.019645
163581.432048,5995.668130,-7476.080014,3217.601092
163581.432367,2368.659014,-7179.997637,1608.800546
163581.432687,-1776.494261,-8438.347739,-766.095498
163581.433007,-3627.009116,-14211.954086,-1608.800546
163581.433327,-2442.679609,-13323.706956,-2528.115143
163581.433647,-1184.329507,-11325.150913,612.876398
163581.433967,1406.391290,-11029.068536,1915.238745
163581.434286,2590.720797,-8290.306550,2374.896044
163581.434606,0.000000,-5403.503377,0.000000
163581.434926,-74.020594,-7994.224174,-76.609550
163581.435246,-2072.576638,-8290.306550,-995.924147
163581.435566,-740.205942,-9474.636058,0.000000
163581.435885,1776.494261,-10214.842000,1762.019645
163581.436205,3478.967927,-11621.233289,3600.648841
163581.436525,0.000000,-9548.656652,1225.752797
163581.436845,1110.308913,-11103.089130,-76.609550
163581.437165,-2442.679609,-10658.965565,-1915.238745
163581.437485,-2442.679609,-11103.089130,-4443.353888
163581.437804,-2442.679609,-11843.295072,-2528.115143
163581.438124,-740.205942,-10732.986159,0.000000
163581.438444,1776.494261,-8808.450710,0.000000
163581.438764,0.000000,-6439.791695,-306.438199
163581.439084,-888.247130,-8364.327145,306.438199
163581.439403,-1258.350101,-8808.450710,-612.876398
163581.439723,-74.020594,-9474.636058,-76.609550
163581.440043,740.205942,-8882.471304,1149.143247
163581.440363,0.000000,-9548.656652,1225.752797
163581.440683,4663.297435,-11843.295072,2987.772442
163581.441002,0.000000,-9252.574275,612.876398
163581.441322,-1480.411884,-9474.636058,-2145.067394
163581.441642,-1998.556043,-10732.986159,-1378.971896
163581.441962,-148.041188,-10510.924376,-995.924147
163581.442282,-888.247130,-7179.997637,-3064.381992
163581.442602,1406.391290,-8808.450710,1149.143247
163581.442921,444.123565,-7772.162391,-689.485948
163581.443241,1036.288319,-9104.533087,689.485948
163581.443561,370.102971,-8882.471304,-76.609550
163581.443881,-74.020594,-10658.965565,-76.609550
163581.444201,-592.164754,-10584.944971,-76.609550
163581.444520,-962.267725,-11843.295072,-76.609550
163581.444840,0.000000,-8364.327145,-1762.019645
163581.445160,0.000000,-8364.327145,0.000000
163581.445480,-1924.535449,-9548.656652,-1762.019645
163581.445800,-2294.638420,-9474.636058,-1991.848295
163581.446119,-3330.926739,-10288.862594,-2145.067394
163581.446439,-3034.844362,-9474.636058,-612.876398
163581.446759,-1110.308913,-8216.285956,-1608.800546
163581.447079,-370.102971,-9178.553681,-1991.848295
163581.447399,0.000000,-8364.327145,-1532.190996
163581.447719,0.000000,-8364.327145,0.000000
163581.448038,2294.638420,-11695.253884,1149.143247
163581.448358,0.000000,-7179.997637,0.000000
163581.448678,1406.391290,-9474.636058,459.657299
163581.448998,1480.411884,-8512.368333,842.705048
163581.449318,296.082377,-8512.368333,0.000000
163581.449637,1110.308913,-9474.636058,2374.896044
163581.449957,2368.659014,-9696.697840,-76.609550
163581.450277,444.123565,-10510.924376,2068.457845
163581.450597,-518.144159,-8364.327145,536.266849
163581.450917,-1850.514855,-5921.647536,-2757.943793
163581.451236,-1776.494261,-7772.162391,306.438199
163581.451556,-1184.329507,-7179.997637,0.000000
163581.451876,-370.102971,-10658.965565,-689.485948
163581.452196,888.247130,-10362.883188,612.876398
163581.452516,-962.267725,-9104.533087,-1302.362347
163581.452836,-1850.514855,-8956.491898,-1302.362347
163581.453155,-74.020594,-9178.553681,-1608.800546
163581.453475,-1258.350101,-8882.471304,-2528.115143
163581.453795,-3552.988522,-9548.656652,-1225.752797
163581.454115,-370.102971,-9918.759623,-76.609550
163581.454435,1036.288319,-10140.821405,1608.800546
163581.454754,0.000000,-7476.080014,0.000000
163581.455074,296.082377,-9548.656652,-306.438199
163581.455394,0.000000,-8290.306550,-612.876398
163581.455714,-888.247130,-8956.491898,-1608.800546
163581.456034,-74.020594,-10658.965565,-1302.362347
163581.456354,592.164754,-10140.821405,612.876398
163581.456673,1110.308913,-11251.130318,1762.019645
163581.456993,1998.556043,-11251.130318,2374.896044
163581.457313,1702.473667,-7994.224174,0.000000
163581.457633,0.000000,-8660.409521,2298.286494
163581.457953,-740.205942,-7031.956449,-536.266849
163581.458272,-518.144159,-7994.224174,-1608.800546
163581.458592,-148.041188,-9548.656652,-766.095498
163581.458912,222.061783,-9992.780217,0.000000
163581.459232,0.000000,-8956.491898,0.000000
163581.459552,0.000000,-7772.162391,766.095498
163581.459871,-74.020594,-9474.636058,-76.609550
163581.460191,-74.020594,-8882.471304,-689.485948
163581.460511,-962.267725,-9474.636058,536.266849
163581.460831,-1776.494261,-10436.903782,0.000000
163581.461151,-740.205942,-9992.780217,153.219100
163581.461471,-1332.370696,-8956.491898,-1072.533697
163581.461790,-1850.514855,-9770.718434,-1149.143247
163581.462110,-2738.761985,-6587.832884,-4903.011187
163581.462430,-2442.679609,-8808.450710,-1915.238745
163581.462750,1702.473667,-11843.295072,-76.609550
163581.463070,74.020594,-8660.409521,-1762.019645
163581.463389,1258.350101,-11547.212695,612.876398
163581.463709,1998.556043,-11843.295072,2374.896044
163581.464029,0.000000,-9104.533087,0.000000
163581.464349,0.000000,-9400.615463,-229.828649
163581.464669,-296.082377,-9474.636058,-536.266849
163581.464989,0.000000,-10510.924376,-229.828649
163581.465308,2294.638420,-10362.883188,1455.581446
163581.465628,0.000000,-7476.080014,919.314598
163581.465948,1258.350101,-9178.553681,1532.190996
163581.466268,1480.411884,-9474.636058,995.924147
163581.466588,-74.020594,-8290.306550,-1378.971896
163581.466908,1702.473667,-10510.924376,229.828649
163581.467227,-1776.494261,-8660.409521,612.876398
163581.467547,-1480.411884,-9622.677246,-689.485948
163581.467867,-3701.029710,-11325.150913,-766.095498
163581.468187,-3552.988522,-9548.656652,-2451.505594
163581.468507,-3552.988522,-7179.997637,0.000000
163581.468827,296.082377,-7105.977043,153.219100
163581.469146,1702.473667,-9474.636058,-76.609550
163581.469466,222.061783,-7328.038826,-383.047749
163581.469786,-74.020594,-9474.636058,1762.019645
163581.470106,74.020594,-9104.533087,612.876398
163581.470426,-2220.617826,-8216.285956,-2374.896044
163581.470746,-1702.473667,-9474.636058,-2374.896044
163581.471065,-148.041188,-10732.986159,-689.485948
163581.471385,0.000000,-9548.656652,-2451.505594
163581.471705,592.164754,-11991.336260,842.705048
163581.472025,-962.267725,-7772.162391,-2451.505594
163581.472345,-1776.494261,-8956.491898,-1378.971896
163581.472665,-1850.514855,-9326.594869,-689.485948
163581.472985,2886.803174,-9474.636058,-76.609550
163581.473304,2664.741391,-7772.162391,2451.505594
163581.473624,3108.864956,-8956.491898,2374.896044
163581.473944,1184.329507,-8734.430116,1838.629195
163581.474264,-444.123565,-9252.574275,1685.410096
163581.474584,-3034.844362,-8438.347739,-1762.019645
163581.474904,-666.185348,-11547.212695,-1608.800546
163581.475223,-3997.112087,-8364.327145,-2145.067394
163581.475543,-592.164754,-9178.553681,-3677.258390
163581.475863,0.000000,-10881.027347,-76.609550
163581.476183,-2368.659014,-9548.656652,0.000000
163581.476503,-2738.761985,-8882.471304,-1762.019645
163581.476823,-3923.091493,-8364.327145,-1838.629195
163581.477142,-1332.370696,-7846.182985,-1685.410096
163581.477462,-74.020594,-7254.018232,0.000000
163581.477782,2738.761985,-8660.409521,2528.115143
163581.478102,3108.864956,-8512.368333,3370.820191
163581.478422,1924.535449,-8660.409521,3064.381992
163581.478742,-1258.350101,-9178.553681,-1915.238745
163581.479061,-4737.318029,-7179.997637,-3677.258390
163581.479381,-1406.391290,-8586.388927,-2528.115143
163581.479701,1702.473667,-10362.883188,-229.828649
163581.480021,1036.288319,-9252.574275,919.314598
163581.480341,1554.432478,-9844.739029,1072.533697
163581.480661,4663.297435,-10658.965565,2374.896044
163581.480981,-1480.411884,-6883.915261,-1225.752797
163581.481300,-1110.308913,-9030.512492,-995.924147
163581.481620,814.226536,-8882.471304,-459.657299
163581.481940,1184.329507,-9548.656652,612.876398
163581.482260,0.000000,-9548.656652,1762.019645
163581.482580,-2368.659014,-8956.491898,0.000000
163581.482900,-1480.411884,-9548.656652,-306.438199
163581.483219,-1702.473667,-9104.533087,306.438199
163581.483539,-74.020594,-9474.636058,-1302.362347
163581.483859,1998.556043,-9474.636058,-76.609550
163581.484179,1110.308913,-9474.636058,459.657299
163581.484499,370.102971,-9474.636058,766.095498
163581.484819,222.061783,-9178.553681,-1302.362347
163581.485138,-4589.276840,-9474.636058,-1762.019645
163581.485458,-4737.318029,-8364.327145,-2528.115143
163581.485778,-3256.906145,-7476.080014,-2451.505594
163581.486098,74.020594,-7179.997637,-1838.629195
163581.486418,2664.741391,-10732.986159,2451.505594
163581.486738,1110.308913,-7994.224174,383.047749
163581.487057,-740.205942,-9474.636058,-229.828649
163581.487377,-1258.350101,-8068.244768,-459.657299
163581.487697,-1258.350101,-8734.430116,-1608.800546
163581.488017,962.267725,-9474.636058,229.828649
163581.488337,3923.091493,-9474.636058,2374.896044
163581.488657,3404.947333,-9252.574275,2681.334243
163581.488976,0.000000,-7179.997637,0.000000
163581.489296,-1776.494261,-9400.615463,-459.657299
163581.489616,-3182.885551,-9326.594869,-1455.581446
163581.489936,-4293.194464,-6587.832884,-4903.011187
163581.490256,-296.082377,-9696.697840,-689.485948
163581.490576,1776.494261,-9918.759623,2145.067394
163581.490896,2294.638420,-9400.615463,842.705048
163581.491215,1702.473667,-10658.965565,2068.457845
163581.491535,-74.020594,-9474.636058,-2451.505594
163581.491855,-1258.350101,-11547.212695,-76.609550
163581.492175,814.226536,-8290.306550,-1302.362347
163581.492495,0.000000,-8586.388927,-1302.362347
163581.492815,0.000000,-9548.656652,1225.752797
163581.493134,-740.205942,-8216.285956,-1455.581446
163581.493454,-2664.741391,-9548.656652,-1225.752797
163581.493774,-4663.297435,-8364.327145,-3983.696590
163581.494094,-4737.318029,-10288.862594,-3447.429741
163581.494414,-74.020594,-10288.862594,-383.047749
163581.494734,1184.329507,-8808.450710,2068.457845
163581.495053,3552.988522,-10732.986159,4366.744339
163581.495373,4737.318029,-8364.327145,3677.258390
163581.495693,1110.308913,-8142.265362,766.095498
163581.496013,-4737.318029,-5403.503377,-2451.505594
163581.496333,-370.102971,-9178.553681,-766.095498
163581.496653,2516.700203,-10658.965565,0.000000
163581.496972,0.000000,-9548.656652,0.000000
163581.497292,-370.102971,-9992.780217,-229.828649
163581.497612,-1850.514855,-10510.924376,-1302.362347
163581.497932,-3775.050304,-9178.553681,-1532.190996
163581.498252,-3775.050304,-7179.997637,-3524.039291
163581.498572,0.000000,-9548.656652,0.000000
163581.498891,3478.967927,-9474.636058,3753.867940
163581.499211,0.000000,-7179.997637,1225.752797
163581.499531,1554.432478,-8956.491898,2374.896044
163581.499851,-2738.761985,-7920.203579,-2374.896044
163581.500171,-5625.565159,-9992.780217,-3140.991542
163581.500491,-2442.679609,-9178.553681,-4060.306139
163581.500811,-1258.350101,-11547.212695,-1302.362347
163581.501130,4071.132681,-13027.624579,-76.609550
163581.501450,2368.659014,-8512.368333,919.314598
163581.501770,2368.659014,-8216.285956,-689.485948
163581.502090,-2368.659014,-7476.080014,612.876398
163581.502410,-4885.359217,-8660.409521,-3907.087040
163581.502730,-1480.411884,-9178.553681,-919.314598
163581.503049,1998.556043,-8956.491898,919.314598
163581.503369,4145.153275,-9548.656652,4213.525239
163581.503689,6735.874072,-9474.636058,4749.792088
163581.504009,1776.494261,-7179.997637,2451.505594
163581.504329,-222.061783,-8290.306550,-689.485948
163581.504649,-2442.679609,-10732.986159,-1532.190996
163581.504968,-2442.679609,-11251.130318,-3140.991542
163581.505288,0.000000,-10732.986159,1225.752797
163581.505608,1776.494261,-12213.398043,383.047749
163581.505928,296.082377,-10510.924376,1378.971896
163581.506248,-2664.741391,-8512.368333,-995.924147
163581.506568,-4219.173869,-6069.688724,-4366.744339
163581.506887,-1258.350101,-7624.121203,-2834.553343
163581.507207,0.000000,-8364.327145,0.000000
163581.507527,592.164754,-9548.656652,2451.505594
163581.507847,4663.297435,-9474.636058,2374.896044
163581.508167,1702.473667,-11103.089130,2221.676944
163581.508487,-4737.318029,-7772.162391,-2451.505594
163581.508807,-5403.503377,-10288.862594,-4366.744339
163581.509126,-2516.700203,-9844.739029,-3217.601092
163581.509446,222.061783,-10436.903782,-536.266849
163581.509766,2886.803174,-9474.636058,76.609550
163581.510086,1628.453072,-10140.821405,2298.286494
163581.510406,-74.020594,-7402.059420,-76.609550
163581.510726,-3034.844362,-7031.956449,-1685.410096
163581.511045,-592.164754,-8438.347739,0.000000
163581.511365,-2368.659014,-7179.997637,0.000000
163581.511685,4663.297435,-9326.594869,3447.429741
163581.512005,3923.091493,-8882.471304,4136.915689
163581.512325,3330.926739,-7994.224174,2911.162892
163581.512645,592.164754,-7105.977043,-76.609550
163581.512964,-2368.659014,-9104.533087,-2145.067394
163581.513284,-4737.318029,-7772.162391,-3677.258390
163581.513604,-1184.329507,-11029.068536,0.000000
163581.513924,2294.638420,-12435.459826,-76.609550
163581.514244,-1258.350101,-8586.388927,-1608.800546
163581.514564,-1258.350101,-11251.130318,-383.047749
163581.514883,-5181.441594,-8068.244768,-2145.067394
163581.515203,-4515.256246,-8364.327145,-2374.896044
163581.515523,-1776.494261,-8438.347739,-1532.190996
163581.515843,2368.659014,-9548.656652,4443.353888
163581.516163,4589.276840,-9400.615463,2834.553343
163581.516483,4663.297435,-8734.430116,3600.648841
163581.516802,-74.020594,-7698.141797,-383.047749
163581.517122,-3849.070898,-8364.327145,-4290.134789
163581.517442,-1406.391290,-11843.295072,-2528.115143
163581.517762,-2220.617826,-11325.150913,-2451.505594
163581.518082,0.000000,-12435.459826,-229.828649
163581.518402,666.185348,-10955.047942,612.876398
163581.518722,0.000000,-9548.656652,-153.219100
163581.519041,-3849.070898,-5107.421000,-2451.505594
163581.519361,-2294.638420,-6513.812290,-1838.629195
163581.519681,-592.164754,-7476.080014,76.609550
163581.520001,3997.112087,-7846.182985,2451.505594
163581.520321,4663.297435,-8882.471304,3600.648841
163581.520641,3478.967927,-8290.306550,2987.772442
163581.520960,444.123565,-9400.615463,2221.676944
163581.521280,-74.020594,-10510.924376,-76.609550
163581.521600,-74.020594,-11547.212695,-2528.115143
163581.521920,-4737.318029,-9548.656652,-2451.505594
163581.522240,-1998.556043,-9918.759623,-3294.210641
163581.522560,370.102971,-11177.109724,-1302.362347
163581.522879,-888.247130,-10066.800811,-766.095498
163581.523199,-2220.617826,-7772.162391,-1302.362347
163581.523519,-2146.597232,-8290.306550,-689.485948
163581.523839,1332.370696,-7624.121203,1225.752797
163581.524159,4145.153275,-7031.956449,1225.752797
163581.524479,5477.523971,-8882.471304,5209.449386
163581.524798,3182.885551,-8882.471304,1608.800546
163581.525118,-3552.988522,-8364.327145,-2451.505594
163581.525438,-3923.091493,-12139.377449,-3294.210641
163581.525758,-6291.750507,-11621.233289,-4596.572988
163581.526078,-4811.338623,-12361.439231,-3294.210641
163581.526398,222.061783,-10362.883188,-1302.362347
163581.526718,3478.967927,-8882.471304,-76.609550
163581.527037,2738.761985,-8882.471304,-76.609550
163581.527357,0.000000,-6661.853478,0.000000
163581.527677,-1184.329507,-7624.121203,76.609550
163581.527997,1628.453072,-8660.409521,3677.258390
163581.528317,0.000000,-7179.997637,0.000000
163581.528637,1924.535449,-10288.862594,1685.410096
163581.528956,2442.679609,-10066.800811,2604.724693
163581.529276,-74.020594,-9474.636058,995.924147
163581.529596,-1850.514855,-9474.636058,-1302.362347
163581.529916,-4737.318029,-10140.821405,-3064.381992
163581.530236,-3034.844362,-10658.965565,-2068.457845
163581.530556,-1258.350101,-10658.965565,-76.609550
163581.530875,-74.020594,-11843.295072,2374.896044
163581.531195,592.164754,-7772.162391,0.000000
163581.531515,-2812.782580,-7179.997637,-919.314598
163581.531835,-1258.350101,-8216.285956,-1991.848295
163581.532155,-1554.432478,-7994.224174,-1302.362347
163581.532475,-740.205942,-10066.800811,-229.828649
163581.532794,2220.617826,-8142.265362,306.438199
163581.533114,1776.494261,-10140.821405,2451.505594
163581.533434,2146.597232,-8882.471304,-76.609550
163581.533754,-666.185348,-11547.212695,-1608.800546
163581.534074,-4737.318029,-9844.739029,-2987.772442
163581.534394,-4737.318029,-10140.821405,-2451.505594
163581.534713,-4885.359217,-11029.068536,-995.924147
163581.535033,-3256.906145,-10066.800811,-306.438199
163581.535353,-1036.288319,-8734.430116,2298.286494
163581.535673,-1258.350101,-5625.565159,76.609550
163581.535993,-2146.597232,-6513.812290,536.266849
163581.536313,-4515.256246,-7698.141797,-76.609550
163581.536633,-6513.812290,-4959.379811,-1762.019645
163581.536952,-4737.318029,-10066.800811,1378.971896
163581.537272,-2590.720797,-9326.594869,2374.896044
163581.537592,-7105.977043,-8364.327145,-1838.629195
163581.537912,-8956.491898,-11251.130318,-2528.115143
163581.538232,-9400.615463,-11621.233289,-4519.963438
163581.538552,-10658.965565,-11103.089130,-3753.867940
163581.538871,-8956.491898,-9178.553681,-2528.115143
163581.539191,-5181.441594,-10362.883188,536.266849
163581.539511,-2442.679609,-9474.636058,1149.143247
163581.539831,0.000000,-7402.059420,3983.696590
163581.540151,-74.020594,-4737.318029,3600.648841
163581.540471,-296.082377,-6809.894666,5286.058936
163581.540790,-5107.421000,-6143.709319,0.000000
163581.541110,-5329.482782,-8660.409521,0.000000
163581.541430,-6587.832884,-9844.739029,-1608.800546
163581.541750,-7179.997637,-12213.398043,-2451.505594
163581.542070,-6365.771101,-11547.212695,-4290.134789
163581.542390,-6513.812290,-11325.150913,-1838.629195
163581.542709,-7476.080014,-10881.027347,-4290.134789
163581.543029,-7772.162391,-11843.295072,-1915.238745
163581.543349,-6291.750507,-9474.636058,-689.485948
163581.543669,-1184.329507,-9400.615463,4290.134789
163581.543989,518.144159,-6365.771101,3677.258390
163581.544309,2516.700203,-7105.977043,7201.297681
163581.544628,3923.091493,-5995.668130,5669.106685
163581.544948,1332.370696,-3034.844362,2451.505594
163581.545268,-1850.514855,-6365.771101,-1685.410096
163581.545588,-7105.977043,-9548.656652,-4903.011187
163581.545908,-8290.306550,-14285.974681,-4903.011187
163581.546228,-6439.791695,-16136.489536,-3753.867940
163581.546548,-5995.668130,-16580.613101,-3753.867940
163581.546867,-8290.306550,-11917.315666,-3677.258390
163581.547187,-4737.318029,-9400.615463,-3907.087040
163581.547507,1332.370696,-7402.059420,1455.581446
163581.547827,2738.761985,-4367.215058,1225.752797
163581.548147,1258.350101,-3182.885551,2528.115143
163581.548467,4071.132681,-6513.812290,3600.648841
163581.548786,3330.926739,-7031.956449,3447.429741
163581.549106,0.000000,-7772.162391,0.000000
163581.549426,-4737.318029,-11325.150913,153.219100
163581.549746,-7994.224174,-13101.645173,-4290.134789
163581.550066,-4737.318029,-13027.624579,-3600.648841
163581.550386,-3404.947333,-12509.480420,-3294.210641
163581.550705,-4663.297435,-9548.656652,-1532.190996
163581.551025,-4737.318029,-7772.162391,-3294.210641
163581.551345,0.000000,-6883.915261,612.876398
163581.551665,2664.741391,-6883.915261,3677.258390
163581.551985,2294.638420,-5773.606348,5745.716235
163581.552305,-74.020594,-8290.306550,2987.772442
163581.552624,-4737.318029,-4811.338623,1225.752797
163581.552944,-666.185348,-9918.759623,1455.581446
163581.553264,-2886.803174,-9400.615463,-766.095498
163581.553584,-6513.812290,-11029.068536,-2834.553343
163581.553904,-9622.677246,-11325.150913,-6665.030833
163581.554224,-8068.244768,-15396.283594,-4366.744339
163581.554544,-8290.306550,-13101.645173,-4290.134789
163581.554863,-5921.647536,-10066.800811,-1991.848295
163581.555183,-5033.400406,-9918.759623,612.876398
163581.555503,-3627.009116,-6143.709319,1838.629195
163581.555823,-2368.659014,-4811.338623,2451.505594
163581.556143,0.000000,-3775.050304,4903.011187
163581.556463,2960.823768,-5699.585753,5822.325785
163581.556782,518.144159,-6809.894666,4826.401637
163581.557102,-4959.379811,-5921.647536,-3140.991542
163581.557422,-6365.771101,-13915.871710,-3447.429741
163581.557742,-9178.553681,-14582.057057,-5592.497135
163581.558062,-8068.244768,-15174.221811,-4290.134789
163581.558382,-8956.491898,-13619.789333,-3753.867940
163581.558701,-9474.636058,-10140.821405,-1762.019645
163581.559021,-5033.400406,-7994.224174,-1149.143247
163581.559341,-1258.350101,-6809.894666,3217.601092
163581.559661,2960.823768,-3330.926739,4519.963438
163581.559981,1184.329507,-2442.679609,6741.640382
163581.560301,2294.638420,-4737.318029,4826.401637
163581.560620,-2590.720797,-6143.709319,995.924147
163581.560940,-6143.709319,-10658.965565,-1838.629195
163581.561260,-7031.956449,-13249.686362,-3830.477490
163581.561580,-8068.244768,-15840.407159,-3830.477490
163581.561900,-9326.594869,-13397.727550,-4290.134789
163581.562220,-9474.636058,-12361.439231,-4749.792088
163581.562539,-8290.306550,-10732.986159,-2451.505594
163581.562859,-2738.761985,-9474.636058,-383.047749
163581.563179,-74.020594,-6809.894666,2221.676944
163581.563499,4071.132681,-5921.647536,4826.401637
163581.563819,3627.009116,-4219.173869,5209.449386
163581.564139,2294.638420,-5107.421000,3600.648841
163581.564458,-296.082377,-6291.750507,0.000000
163581.564778,-2960.823768,-10140.821405,-1838.629195
163581.565098,-5921.647536,-13101.645173,-4596.572988
163581.565418,-7105.977043,-14285.974681,-4290.134789
163581.565737,-4589.276840,-16358.551318,-2451.505594
163581.566057,-3701.029710,-14211.954086,-612.876398
163581.566377,-3849.070898,-9548.656652,0.000000
163581.566697,-3256.906145,-7476.080014,306.438199
163581.567016,0.000000,-4811.338623,1225.752797
163581.567336,1702.473667,-4737.318029,3677.258390
163581.567656,1258.350101,-3997.112087,5056.230287
163581.567975,-370.102971,-4219.173869,1532.190996
163581.568295,-74.020594,-9252.574275,2374.896044
163581.568615,-2442.679609,-9474.636058,-995.924147
163581.568935,-6513.812290,-9696.697840,-3983.696590
163581.569254,-9474.636058,-10732.986159,-7354.516781
163581.569574,-7179.997637,-15988.448347,-4979.620737
163581.569894,-7994.224174,-13101.645173,-4290.134789
163581.570214,-5699.585753,-12213.398043,-1302.362347
163581.570533,-3108.864956,-10140.821405,0.000000
163581.570853,0.000000,-7550.100608,2451.505594
163581.571173,1702.473667,-4589.276840,3370.820191
163581.571493,518.144159,-3923.091493,3677.258390
163581.571812,-740.205942,-5921.647536,2374.896044
163581.572132,-1554.432478,-7994.224174,-229.828649
163581.572452,-4145.153275,-9548.656652,0.000000
163581.572771,-3330.926739,-14211.954086,-229.828649
163581.573091,-6957.935855,-12435.459826,-3677.258390
163581.573411,-5329.482782,-14359.995275,-2298.286494
163581.573731,-4441.235652,-11621.233289,0.000000
163581.574050,-5921.647536,-7476.080014,0.000000
163581.574370,-6957.935855,-3034.844362,0.000000
163581.574690,-3849.070898,-4219.173869,-2451.505594
163581.575010,-3256.906145,-6587.832884,2451.505594
163581.575329,-370.102971,-8586.388927,4673.182538
163581.575649,-3627.009116,-9474.636058,3600.648841
163581.575969,-6513.812290,-8808.450710,-612.876398
163581.576289,-7105.977043,-10732.986159,-3294.210641
163581.576608,-4071.132681,-12879.583391,-766.095498
163581.576928,-3552.988522,-11621.233289,842.705048
163581.577248,-6513.812290,-7179.997637,0.000000
163581.577567,-5403.503377,-8290.306550,-2834.553343
163581.577887,-6883.915261,-6439.791695,-6741.640382
163581.578207,-4737.318029,-10140.821405,-3217.601092
163581.578527,-4145.153275,-10732.986159,0.000000
163581.578846,-2442.679609,-11843.295072,4519.963438
163581.579166,-5847.626942,-7476.080014,1838.629195
163581.579486,-4441.235652,-7550.100608,153.219100
163581.579806,-1850.514855,-8142.265362,842.705048
163581.580125,1776.494261,-9104.533087,4596.572988
163581.580445,2886.803174,-8438.347739,6052.154434
163581.580765,1110.308913,-9474.636058,3294.210641
163581.581085,-3182.885551,-7994.224174,-76.609550
163581.581404,-4811.338623,-7698.141797,-5592.497135
163581.581724,-4219.173869,-6661.853478,-6511.811733
163581.582044,-74.020594,-14211.954086,-3140.991542
163581.582363,-4145.153275,-11917.315666,-3140.991542
163581.582683,-6217.729913,-13175.665768,-1685.410096
163581.583003,-5551.544565,-11843.295072,0.000000
163581.583323,-4737.318029,-10140.821405,1532.190996
163581.583642,-1184.329507,-7179.997637,2757.943793
163581.583962,592.164754,-5033.400406,3677.258390
163581.584282,2886.803174,-5921.647536,4826.401637
163581.584602,1110.308913,-3923.091493,1762.019645
163581.584921,1110.308913,-6513.812290,-76.609550
163581.585241,-962.267725,-11029.068536,-76.609550
163581.585561,-4737.318029,-11917.315666,-3447.429741
163581.585881,-7328.038826,-12657.521608,-5439.278036
163581.586200,-9326.594869,-13101.645173,-6435.202183
163581.586520,-10658.965565,-10732.986159,-6128.763984
163581.586840,-5699.585753,-9474.636058,-4979.620737
163581.587159,-3552.988522,-7179.997637,-2451.505594
163581.587479,370.102971,-8512.368333,1532.190996
163581.587799,-74.020594,-9474.636058,3600.648841
163581.588119,-444.123565,-10066.800811,5898.935335
163581.588438,-1036.288319,-10066.800811,3524.039291
163581.588758,-666.185348,-9844.739029,5515.887586
163581.589078,-222.061783,-8956.491898,5439.278036
163581.589398,-2072.576638,-7179.997637,2451.505594
163581.589717,-1184.329507,-6291.750507,1378.971896
163581.590037,-4737.318029,-6735.874072,-2757.943793
163581.590357,-8216.285956,-8142.265362,-5515.887586
163581.590677,-9548.656652,-10658.965565,-8044.002729
163581.590996,-10658.965565,-10140.821405,-6741.640382
163581.591316,-8734.430116,-10140.821405,-4903.011187
163581.591636,-3923.091493,-11621.233289,-76.609550
163581.591955,-1628.453072,-9548.656652,2987.772442
163581.592275,592.164754,-8808.450710,4749.792088
163581.592595,3478.967927,-8290.306550,6052.154434
163581.592915,0.000000,-8068.244768,4903.011187
163581.593234,-1628.453072,-7994.224174,2528.115143
163581.593554,-4293.194464,-8882.471304,306.438199
163581.593874,-6883.915261,-10140.821405,-689.485948
163581.594194,-10658.965565,-10140.821405,-4903.011187
163581.594513,-12731.542202,-9548.656652,-7354.516781
163581.594833,-7254.018232,-12213.398043,-4213.525239
163581.595153,-4811.338623,-11251.130318,-995.924147
163581.595473,-2812.782580,-8364.327145,0.000000
163581.595792,2886.803174,-9474.636058,3600.648841
163581.596112,1924.535449,-7476.080014,4596.572988
163581.596432,2960.823768,-7846.182985,5439.278036
163581.596751,1110.308913,-7402.059420,4519.963438
163581.597071,-1776.494261,-7179.997637,1685.410096
163581.597391,-296.082377,-9400.615463,2604.724693
163581.597711,-2220.617826,-8438.347739,153.219100
163581.598030,1406.391290,-11251.130318,2451.505594
163581.598350,2368.659014,-11029.068536,2374.896044
163581.598670,2294.638420,-10658.965565,383.047749
163581.598990,2738.761985,-11399.171507,1762.019645
163581.599309,1184.329507,-8956.491898,1072.533697
163581.599629,1776.494261,-8512.368333,2298.286494
163581.599949,2590.720797,-8364.327145,3677.258390
163581.600269,4145.153275,-8660.409521,7507.735880
163581.600588,3256.906145,-8512.368333,6281.983084
163581.600908,2294.638420,-9474.636058,6971.469032
163581.601228,-1184.329507,-8586.388927,2145.067394
163581.601547,-2368.659014,-10510.924376,3370.820191
163581.601867,-1258.350101,-9474.636058,-76.609550
163581.602187,-2220.617826,-11251.130318,2145.067394
163581.602507,-814.226536,-11695.253884,3140.991542
163581.602826,740.205942,-11473.192101,5439.278036
163581.603146,4071.132681,-11251.130318,8503.660028
163581.603466,3552.988522,-8660.409521,9346.365076
163581.603786,2368.659014,-4811.338623,6435.202183
163581.604105,4663.297435,-6809.894666,6665.030833
163581.604425,1258.350101,-6217.729913,4749.792088
163581.604745,0.000000,-7772.162391,4290.134789
163581.605065,2294.638420,-13619.789333,5439.278036
163581.605384,-740.205942,-14952.160028,7201.297681
163581.605704,-2146.597232,-15470.304188,7737.564530
163581.606024,-3404.947333,-12879.583391,9039.926876
163581.606343,-3256.906145,-8364.327145,8580.269578
163581.606663,-2442.679609,-4737.318029,6971.469032
163581.606983,-2368.659014,-1554.432478,6205.373534
163581.607303,0.000000,-2442.679609,3677.258390
163581.607622,0.000000,-5995.668130,6435.202183
163581.607942,-666.185348,-6661.853478,4136.915689
163581.608262,-962.267725,-10510.924376,6052.154434
163581.608582,-3923.091493,-11621.233289,5362.668486
163581.608901,-5921.647536,-11621.233289,3140.991542
163581.609221,-6217.729913,-11029.068536,2834.553343
163581.609541,-3775.050304,-10658.965565,3524.039291
163581.609861,-1258.350101,-10066.800811,2987.772442
163581.610180,1702.473667,-13619.789333,7277.907231
163581.610500,-74.020594,-10658.965565,4826.401637
163581.610820,-2368.659014,-8956.491898,4903.011187
163581.611139,-3627.009116,-6365.771101,1608.800546
163581.611459,-1924.535449,-8068.244768,2681.334243
163581.611779,1258.350101,-7402.059420,4443.353888
163581.612099,3701.029710,-7179.997637,5515.887586
163581.612418,5847.626942,-9474.636058,7277.907231
163581.612738,4071.132681,-11547.212695,4826.401637
163581.613058,0.000000,-10732.986159,2451.505594
163581.613378,-2812.782580,-13397.727550,536.266849
163581.613697,-4071.132681,-12139.377449,-2451.505594
163581.614017,-4737.318029,-9696.697840,-2451.505594
163581.614337,-1258.350101,-11251.130318,-1302.362347
163581.614656,74.020594,-10658.965565,612.876398
163581.614976,1036.288319,-9252.574275,2451.505594
163581.615296,1258.350101,-6957.935855,3064.381992
163581.615616,1850.514855,-5995.668130,2681.334243
163581.615935,0.000000,-5107.421000,-2068.457845
163581.616255,3552.988522,-8364.327145,1532.190996
163581.616575,7031.956449,-10362.883188,5286.058936
163581.616895,5255.462188,-9474.636058,3294.210641
163581.617214,-4663.297435,-6587.832884,-4903.011187
163581.617534,-6291.750507,-11695.253884,-7124.688131
163581.617854,-7105.977043,-13989.892304,-6052.154434
163581.618174,-5033.400406,-13397.727550,-2528.115143
163581.618493,-2442.679609,-10658.965565,-689.485948
163581.618813,888.247130,-8734.430116,1762.019645
163581.619133,3182.885551,-4959.379811,1072.533697
163581.619452,5033.400406,-4367.215058,612.876398
163581.619772,4293.194464,-6291.750507,3447.429741
163581.620092,2960.823768,-7179.997637,1225.752797
163581.620412,814.226536,-8216.285956,0.000000
163581.620731,1406.391290,-11621.233289,1838.629195
163581.621051,-962.267725,-12065.356855,842.705048
163581.621371,-2072.576638,-12583.501014,766.095498
163581.621691,-74.020594,-13027.624579,-76.609550
163581.622010,-1480.411884,-9474.636058,383.047749
163581.622330,-2442.679609,-10658.965565,-76.609550
163581.622650,-3330.926739,-8882.471304,-689.485948
163581.622970,0.000000,-7772.162391,3064.381992
163581.623289,1184.329507,-5403.503377,3677.258390
163581.623609,1998.556043,-7624.121203,2987.772442
163581.623929,222.061783,-7476.080014,2221.676944
163581.624248,-888.247130,-8956.491898,766.095498
163581.624568,-2146.597232,-11843.295072,995.924147
163581.624888,-666.185348,-15396.283594,2068.457845
163581.625208,-4737.318029,-12509.480420,1225.752797
163581.625527,-2072.576638,-12213.398043,2374.896044
163581.625847,-1258.350101,-9474.636058,1149.143247
163581.626167,-666.185348,-7994.224174,1225.752797
163581.626487,-74.020594,-7105.977043,2987.772442
163581.626806,296.082377,-6217.729913,4979.620737
163581.627126,2220.617826,-6291.750507,5745.716235
163581.627446,4441.235652,-7772.162391,7277.907231
163581.627766,5921.647536,-9252.574275,10725.336972
163581.628085,2442.679609,-9474.636058,6588.421283
163581.628405,-2146.597232,-10214.842000,3140.991542
163581.628725,-4145.153275,-11103.089130,842.705048
163581.629044,-5921.647536,-11917.315666,2451.505594
163581.629364,-2442.679609,-13619.789333,4213.525239
163581.629684,-4589.276840,-10436.903782,2451.505594
163581.630004,-3182.885551,-8068.244768,2681.334243
163581.630323,-1332.370696,-5181.441594,2987.772442
163581.630643,148.041188,-4959.379811,3447.429741
163581.630963,0.000000,-4811.338623,3677.258390
163581.631283,4071.132681,-8290.306550,7354.516781
163581.631602,4737.318029,-8808.450710,7124.688131
163581.631922,2368.659014,-10436.903782,7277.907231
163581.632242,74.020594,-11843.295072,7277.907231
163581.632562,-74.020594,-14063.912898,4213.525239
163581.632881,-74.020594,-13619.789333,4826.401637
163581.633201,-2442.679609,-9770.718434,1685.410096
163581.633521,-4219.173869,-10658.965565,2374.896044
163581.633840,-4737.318029,-7179.997637,1225.752797
163581.634160,-2812.782580,-5403.503377,0.000000
163581.634480,1554.432478,-7105.977043,1455.581446
163581.634800,2368.659014,-5995.668130,2987.772442
163581.635119,2368.659014,-9622.677246,4826.401637
163581.635439,4589.276840,-11029.068536,7584.345430
163581.635759,4515.256246,-12731.542202,8503.660028
163581.636079,2664.741391,-12139.377449,10801.946522
163581.636398,-962.267725,-11843.295072,6665.030833
163581.636718,-3182.885551,-7550.100608,2987.772442
163581.637038,-4737.318029,-6291.750507,2451.505594
163581.637358,-1850.514855,-5773.606348,919.314598
163581.637677,-2146.597232,-6883.915261,1225.752797
163581.637997,-740.205942,-6365.771101,-383.047749
163581.638317,-962.267725,-9548.656652,-459.657299
163581.638636,-74.020594,-11251.130318,1762.019645
163581.638956,-740.205942,-11991.336260,2681.334243
163581.639276,-2960.823768,-10732.986159,3064.381992
163581.639596,-296.082377,-10584.944971,4443.353888
163581.639915,-3330.926739,-9844.739029,3600.648841
163581.640235,-4737.318029,-5403.503377,2451.505594
163581.640555,444.123565,-6587.832884,1225.752797
163581.640875,518.144159,-7179.997637,153.219100
163581.641194,-1036.288319,-9252.574275,-1225.752797
163581.641514,-74.020594,-11251.130318,-76.609550
163581.641834,-74.020594,-13619.789333,2374.896044
163581.642154,2294.638420,-14804.118840,2068.457845
163581.642473,-3034.844362,-10140.821405,229.828649
163581.642793,-740.205942,-8882.471304,2987.772442
163581.643113,296.082377,-5995.668130,2451.505594
163581.643432,1184.329507,-5699.585753,1838.629195
163581.643752,3108.864956,-6439.791695,689.485948
163581.644072,1924.535449,-10732.986159,2681.334243
163581.644392,888.247130,-9992.780217,2221.676944
163581.644711,-666.185348,-11547.212695,1149.143247
163581.645031,-4441.235652,-11325.150913,612.876398
163581.645351,-2220.617826,-10362.883188,-76.609550
163581.645671,-222.061783,-7994.224174,2374.896044
163581.645990,666.185348,-5107.421000,2451.505594
163581.646310,2368.659014,-5995.668130,2451.505594
163581.646630,0.000000,-10362.883188,995.924147
163581.646950,0.000000,-10658.965565,1302.362347
163581.647269,-740.205942,-11177.109724,1072.533697
163581.647589,-3108.864956,-7772.162391,-1225.752797
163581.647909,-3923.091493,-8882.471304,-2681.334243
163581.648228,-1184.329507,-6587.832884,919.314598
163581.648548,592.164754,-5995.668130,306.438199
163581.648868,2960.823768,-9696.697840,3140.991542
163581.649188,2294.638420,-15100.201217,4826.401637
163581.649507,0.000000,-11325.150913,2451.505594
163581.649827,-1702.473667,-13323.706956,2604.724693
163581.650147,-3108.864956,-10955.047942,459.657299
163581.650467,-3330.926739,-9844.739029,2298.286494
163581.650786,-74.020594,-4737.318029,842.705048
163581.651106,2886.803174,-5921.647536,3907.087040
163581.651426,4663.297435,-7105.977043,1762.019645
163581.651746,0.000000,-9548.656652,3600.648841
163581.652065,-1184.329507,-9548.656652,689.485948
163581.652385,-3997.112087,-13693.809927,5669.106685
163581.652705,-5329.482782,-11029.068536,1991.848295
163581.653024,-2738.761985,-7402.059420,3830.477490
163581.653344,1998.556043,-6883.915261,3447.429741
163581.653664,3997.112087,-7476.080014,6588.421283
163581.653984,5551.544565,-10658.965565,7277.907231
163581.654303,0.000000,-9548.656652,8886.707777
163581.654623,-2738.761985,-7105.977043,1685.410096
163581.654943,-7476.080014,-9474.636058,-76.609550
163581.655263,-5995.668130,-6513.812290,-3447.429741
163581.655582,0.000000,-11325.150913,3830.477490
163581.655902,4145.153275,-11251.130318,5975.544884
163581.656222,3108.864956,-10362.883188,7584.345430
163581.656542,-1480.411884,-9548.656652,4826.401637
163581.656861,-5625.565159,-8364.327145,0.000000
163581.657181,-3478.967927,-8068.244768,306.438199
163581.657501,0.000000,-6883.915261,3677.258390
163581.657820,1184.329507,-6587.832884,4903.011187
163581.658140,5255.462188,-9178.553681,4826.401637
163581.658460,2886.803174,-11843.295072,4826.401637
163581.658780,-4145.153275,-10140.821405,306.438199
163581.659099,-5403.503377,-11399.171507,-2987.772442
163581.659419,-4737.318029,-10881.027347,-2681.334243
163581.659739,-2146.597232,-9622.677246,-2221.676944
163581.660059,222.061783,-9548.656652,0.000000
163581.660378,4145.153275,-9400.615463,3140.991542
163581.660698,3478.967927,-8882.471304,3294.210641
163581.661018,-1776.494261,-7772.162391,3064.381992
163581.661338,-2442.679609,-7994.224174,1685.410096
163581.661657,-4737.318029,-4811.338623,0.000000
163581.661977,-666.185348,-6217.729913,-2068.457845
163581.662297,3182.885551,-8586.388927,153.219100
163581.662616,2664.741391,-9030.512492,-612.876398
163581.662936,-962.267725,-8734.430116,-2987.772442
163581.663256,-2812.782580,-13619.789333,-4443.353888
163581.663576,-5921.647536,-9548.656652,-6588.421283
163581.663895,-2664.741391,-12213.398043,-4979.620737
163581.664215,370.102971,-11843.295072,-1302.362347
163581.664535,1776.494261,-6587.832884,0.000000
163581.664855,7031.956449,-8290.306550,2374.896044
163581.665174,3552.988522,-7179.997637,1455.581446
163581.665494,-222.061783,-7550.100608,-919.314598
163581.665814,-2442.679609,-7920.203579,-3447.429741
163581.666134,-74.020594,-11843.295072,-2068.457845
163581.666453,1998.556043,-10658.965565,-3294.210641
163581.666773,1628.453072,-10066.800811,-2528.115143
163581.667093,-1998.556043,-9548.656652,-4290.134789
163581.667413,-3552.988522,-10732.986159,-5362.668486
163581.667732,-2442.679609,-11843.295072,-6205.373534
163581.668052,-1850.514855,-11695.253884,-5592.497135
163581.668372,-1776.494261,-9548.656652,-3983.696590
163581.668692,1480.411884,-10584.944971,0.000000
163581.669011,2886.803174,-8216.285956,2221.676944
163581.669331,0.000000,-5995.668130,1225.752797
163581.669651,-1850.514855,-6143.709319,-2068.457845
163581.669971,-2220.617826,-6661.853478,-4749.792088
163581.670290,0.000000,-10362.883188,-3830.477490
163581.670610,-222.061783,-10955.047942,-2681.334243
163581.670930,-74.020594,-13027.624579,-383.047749
163581.671250,-1258.350101,-11843.295072,-3140.991542
163581.671570,-5181.441594,-8586.388927,-5209.449386
163581.671889,-3627.009116,-6513.812290,-8044.002729
163581.672209,-370.102971,-7698.141797,-3753.867940
163581.672529,0.000000,-9548.656652,-3064.381992
163581.672849,4885.359217,-13027.624579,1915.238745
163581.673168,4145.153275,-11843.295072,3830.477490
163581.673488,-814.226536,-9622.677246,2987.772442
163581.673808,-2738.761985,-5995.668130,-3064.381992
163581.674128,-2146.597232,-5329.482782,-3524.039291
163581.674447,2812.782580,-6809.894666,-1225.752797
163581.674767,6883.915261,-9474.636058,2068.457845
163581.675087,4663.297435,-10658.965565,995.924147
163581.675407,1480.411884,-13989.892304,2374.896044
163581.675726,-4589.276840,-11917.315666,-2298.286494
163581.676046,-5625.565159,-9918.759623,-3524.039291
163581.676366,-3627.009116,-9400.615463,-1532.190996
163581.676686,1036.288319,-7846.182985,612.876398
163581.677005,3404.947333,-5107.421000,612.876398
163581.677325,5329.482782,-7179.997637,3677.258390
163581.677645,1776.494261,-7179.997637,4290.134789
163581.677965,-296.082377,-9918.759623,2681.334243
163581.678284,-3330.926739,-10658.965565,-76.609550
163581.678604,-3552.988522,-11029.068536,-536.266849
163581.678924,-2516.700203,-11177.109724,-383.047749
163581.679244,148.041188,-9548.656652,766.095498
163581.679564,1332.370696,-10140.821405,2451.505594
163581.679883,-2072.576638,-7476.080014,0.000000
163581.680203,-2442.679609,-12953.603985,842.705048
163581.680523,-3034.844362,-10658.965565,-76.609550
163581.680843,-2368.659014,-8364.327145,1302.362347
163581.681162,0.000000,-6587.832884,3677.258390
163581.681482,6439.791695,-9474.636058,7277.907231
163581.681802,4145.153275,-7772.162391,6741.640382
163581.682122,1480.411884,-7328.038826,4979.620737
163581.682441,-2368.659014,-8216.285956,2451.505594
163581.682761,-4663.297435,-9474.636058,153.219100
163581.683081,-3701.029710,-9770.718434,-1225.752797
163581.683401,-1332.370696,-11251.130318,842.705048
163581.683720,-74.020594,-9992.780217,2757.943793
163581.684040,-74.020594,-9474.636058,1762.019645
163581.684360,-1554.432478,-8364.327145,383.047749
163581.684680,-74.020594,-11843.295072,3600.648841
163581.684999,-2368.659014,-8438.347739,1838.629195
163581.685319,296.082377,-8364.327145,2834.553343
163581.685639,2368.659014,-8142.265362,4136.915689
163581.685959,2368.659014,-7772.162391,3677.258390
163581.686279,0.000000,-7179.997637,2757.943793
163581.686598,-888.247130,-9252.574275,1225.752797
163581.686918,-1258.350101,-9474.636058,-1302.362347
163581.687238,-4441.235652,-7476.080014,-5132.839837
163581.687558,-962.267725,-10362.883188,-4366.744339
163581.687877,3404.947333,-14211.954086,-842.705048
163581.688197,2368.659014,-13397.727550,1838.629195
163581.688517,962.267725,-11399.171507,3677.258390
163581.688837,-1554.432478,-7328.038826,-306.438199
163581.689156,-4441.235652,-4811.338623,-4290.134789
163581.689476,888.247130,-6809.894666,-1608.800546
163581.689796,2960.823768,-5995.668130,153.219100
163581.690116,5181.441594,-9252.574275,4903.011187
163581.690435,4071.132681,-11547.212695,3600.648841
163581.690755,-74.020594,-11251.130318,-1302.362347
163581.691075,-5921.647536,-8364.327145,-5439.278036
163581.691395,-5107.421000,-9178.553681,-6281.983084
163581.691714,-1184.329507,-10955.047942,-4366.744339
163581.692034,1554.432478,-10510.924376,-76.609550
163581.692354,814.226536,-10881.027347,-766.095498
163581.692674,-74.020594,-9474.636058,-76.609550
163581.692994,-2738.761985,-7105.977043,-3753.867940
163581.693313,-1258.350101,-8290.306550,-2528.115143
163581.693633,-1184.329507,-5403.503377,-4596.572988
163581.693953,4071.132681,-9474.636058,-76.609550
163581.694273,2072.576638,-8660.409521,306.438199
163581.694592,1406.391290,-8734.430116,-1072.533697
163581.694912,-1258.350101,-9622.677246,-2068.457845
163581.695232,-3552.988522,-7920.203579,-4596.572988
163581.695552,-4737.318029,-10732.986159,-5975.544884
163581.695871,-1554.432478,-11917.315666,-4290.134789
163581.696191,2294.638420,-12731.542202,-1302.362347
163581.696511,2294.638420,-10066.800811,306.438199
163581.696831,2294.638420,-6957.935855,-689.485948
163581.697150,2294.638420,-9178.553681,1149.143247
163581.697470,814.226536,-6143.709319,-612.876398
163581.697790,1554.432478,-7550.100608,-306.438199
163581.698110,2442.679609,-9622.677246,1378.971896
163581.698429,2960.823768,-9548.656652,3064.381992
163581.698749,814.226536,-8364.327145,-1838.629195
163581.699069,-2368.659014,-9844.739029,-612.876398
163581.699389,-1776.494261,-10881.027347,-3140.991542
163581.699708,-1850.514855,-13027.624579,-2834.553343
163581.700028,-74.020594,-14211.954086,-76.609550
163581.700348,-592.164754,-11325.150913,-1072.533697
163581.700668,444.123565,-10288.862594,766.095498
163581.700988,-888.247130,-8512.368333,0.000000
163581.701307,-1184.329507,-8364.327145,0.000000
163581.701627,-74.020594,-7772.162391,0.000000
163581.701947,-74.020594,-9326.594869,-76.609550
163581.702267,0.000000,-9548.656652,459.657299
163581.702586,-1480.411884,-6587.832884,0.000000
163581.702906,0.000000,-9252.574275,1991.848295
163581.703226,-3256.906145,-7772.162391,-1225.752797
163581.703546,-2294.638420,-9252.574275,-3524.039291
163581.703865,-2812.782580,-10584.944971,-3753.867940
163581.704185,-296.082377,-11621.233289,-1302.362347
163581.704505,2294.638420,-12435.459826,-76.609550
163581.704825,1406.391290,-10436.903782,3600.648841
163581.705144,-592.164754,-7254.018232,1608.800546
163581.705464,0.000000,-7031.956449,1762.019645
163581.705784,814.226536,-5699.585753,536.266849
163581.706104,1776.494261,-8068.244768,4596.572988
163581.706423,2368.659014,-7179.997637,4903.011187
163581.706743,2886.803174,-8290.306550,2221.676944
163581.707063,0.000000,-8660.409521,1225.752797
163581.707383,-2960.823768,-8660.409521,0.000000
163581.707703,-1258.350101,-9474.636058,-3753.867940
163581.708022,-2516.700203,-9474.636058,-1608.800546
163581.708342,-1036.288319,-11843.295072,-1302.362347
163581.708662,-444.123565,-11843.295072,459.657299
163581.708982,1184.329507,-9992.780217,1991.848295
163581.709301,-962.267725,-6735.874072,919.314598
163581.709621,0.000000,-7476.080014,0.000000
163581.709941,0.000000,-8364.327145,612.876398
163581.710261,2294.638420,-10658.965565,2298.286494
163581.710580,0.000000,-7179.997637,766.095498
163581.710900,2590.720797,-10362.883188,1608.800546
163581.711220,0.000000,-9992.780217,612.876398
163581.711540,-2368.659014,-9770.718434,-1608.800546
163581.711859,-1332.370696,-11399.171507,-612.876398
163581.712179,-666.185348,-10658.965565,-76.609550
163581.712499,-1332.370696,-10658.965565,-383.047749
163581.712819,-1850.514855,-10658.965565,-76.609550
163581.713138,-1480.411884,-7179.997637,0.000000
163581.713458,0.000000,-8364.327145,919.314598
163581.713778,-74.020594,-6069.688724,0.000000
163581.714098,222.061783,-8068.244768,1378.971896
163581.714417,-814.226536,-7550.100608,1532.190996
163581.714737,962.267725,-8512.368333,1608.800546
163581.715057,1702.473667,-10658.965565,2987.772442
163581.715377,2590.720797,-10658.965565,3524.039291
163581.715697,-74.020594,-11251.130318,1762.019645
163581.716016,-3034.844362,-8882.471304,-2911.162892
163581.716336,-3478.967927,-9548.656652,-3064.381992
163581.716656,-4737.318029,-10140.821405,-3677.258390
163581.716976,-666.185348,-10362.883188,-2068.457845
163581.717295,0.000000,-9622.677246,0.000000
163581.717615,74.020594,-8882.471304,459.657299
163581.717935,74.020594,-6809.894666,0.000000
163581.718255,2220.617826,-7550.100608,612.876398
163581.718574,0.000000,-5995.668130,-1838.629195
163581.718894,1776.494261,-10732.986159,0.000000
163581.719214,4071.132681,-12583.501014,-76.609550
163581.719534,4071.132681,-13027.624579,1149.143247
163581.719853,-3552.988522,-8364.327145,-3064.381992
163581.720173,-2442.679609,-8882.471304,-3830.477490
163581.720493,-2812.782580,-9474.636058,-5209.449386
163581.720813,0.000000,-10584.944971,-3294.210641
163581.721132,2072.576638,-10510.924376,-153.219100
163581.721452,1480.411884,-11103.089130,2374.896044
163581.721772,-444.123565,-7920.203579,-1149.143247
163581.722092,-2368.659014,-7179.997637,-3677.258390
163581.722412,-74.020594,-9178.553681,-1608.800546
163581.722731,1110.308913,-7105.977043,-536.266849
163581.723051,0.000000,-5107.421000,-1838.629195
163581.723371,2146.597232,-9030.512492,689.485948
163581.723691,-74.020594,-10584.944971,-995.924147
163581.724010,-2738.761985,-9770.718434,-2911.162892
163581.724330,-1850.514855,-11843.295072,-2528.115143
163581.724650,-666.185348,-11103.089130,-2528.115143
163581.724970,-222.061783,-11843.295072,-1302.362347
163581.725289,1110.308913,-9474.636058,-1302.362347
163581.725609,666.185348,-8142.265362,-612.876398
163581.725929,0.000000,-5995.668130,1225.752797
163581.726249,-814.226536,-6661.853478,-995.924147
163581.726568,74.020594,-9696.697840,-383.047749
163581.726888,-518.144159,-8216.285956,-1762.019645
163581.727208,222.061783,-10510.924376,0.000000
163581.727528,4071.132681,-11843.295072,2374.896044
163581.727847,0.000000,-7772.162391,1225.752797
163581.728167,1628.453072,-9030.512492,919.314598
163581.728487,-74.020594,-8068.244768,-76.609550
163581.728807,-74.020594,-10658.965565,-2834.553343
163581.729127,-2368.659014,-8364.327145,0.000000
163581.729446,-74.020594,-12435.459826,1302.362347
163581.729766,-518.144159,-10584.944971,1225.752797
163581.730086,-592.164754,-8808.450710,0.000000
163581.730406,-2368.659014,-8438.347739,-1302.362347
163581.730725,1184.329507,-8660.409521,-76.609550
163581.731045,-1480.411884,-7179.997637,0.000000
163581.731365,0.000000,-10436.903782,0.000000
163581.731685,2294.638420,-13027.624579,2374.896044
163581.732004,814.226536,-10140.821405,2604.724693
163581.732324,-4145.153275,-7476.080014,0.000000
163581.732644,-2738.761985,-11029.068536,-689.485948
163581.732964,-2368.659014,-10436.903782,-1532.190996
163581.733283,-2072.576638,-10436.903782,-459.657299
163581.733603,-74.020594,-10658.965565,1762.019645
163581.733923,-222.061783,-7846.182985,-76.609550
163581.734243,-1480.411884,-7698.141797,-76.609550
163581.734562,-2072.576638,-7179.997637,0.000000
163581.734882,2664.741391,-9844.739029,2221.676944
163581.735202,2368.659014,-9548.656652,4903.011187
163581.735522,1036.288319,-6069.688724,2145.067394
163581.735841,1776.494261,-7772.162391,2834.553343
163581.736161,1332.370696,-7624.121203,1149.143247
163581.736481,1924.535449,-8660.409521,995.924147
163581.736801,2294.638420,-9474.636058,2374.896044
163581.737121,-592.164754,-10732.986159,2451.505594
163581.737440,-444.123565,-10955.047942,1072.533697
163581.737760,-2146.597232,-9474.636058,-76.609550
163581.738080,-74.020594,-9474.636058,-536.266849
163581.738400,-1554.432478,-6883.915261,0.000000
163581.738719,74.020594,-7624.121203,689.485948
163581.739039,-814.226536,-7698.141797,459.657299
163581.739359,-1036.288319,-6809.894666,-1532.190996
163581.739679,-74.020594,-10658.965565,-76.609550
163581.739998,814.226536,-9474.636058,-1149.143247
163581.740318,-370.102971,-11177.109724,-1608.800546
163581.740638,-888.247130,-11917.315666,-3677.258390
163581.740958,-3256.906145,-11029.068536,-919.314598
163581.741277,-1258.350101,-10658.965565,-2528.115143
163581.741597,-148.041188,-10288.862594,-1915.238745
163581.741917,592.164754,-10510.924376,-1532.190996
163581.742237,1480.411884,-10288.862594,76.609550
163581.742556,1850.514855,-9844.739029,229.828649
163581.742876,-2368.659014,-7179.997637,306.438199
163581.743196,-1480.411884,-8290.306550,-1762.019645
163581.743516,-1702.473667,-8068.244768,-1991.848295
163581.743836,0.000000,-7031.956449,-1455.581446
163581.744155,1702.473667,-7328.038826,229.828649
163581.744475,3478.967927,-9474.636058,-229.828649
163581.744795,2294.638420,-11251.130318,2068.457845
163581.745115,-2886.803174,-8364.327145,-1378.971896
163581.745434,-2368.659014,-8882.471304,-1915.238745
163581.745754,-74.020594,-10362.883188,-76.609550
163581.746074,-2368.659014,-8364.327145,-1532.190996
163581.746394,518.144159,-9400.615463,-229.828649
163581.746713,-370.102971,-8438.347739,-459.657299
163581.747033,-1406.391290,-8216.285956,-1762.019645
163581.747353,-2442.679609,-10658.965565,-1915.238745
163581.747673,-1924.535449,-9622.677246,-2451.505594
163581.747992,1702.473667,-11621.233289,-76.609550
163581.748312,3478.967927,-13027.624579,2987.772442
163581.748632,2294.638420,-9326.594869,-76.609550
163581.748952,592.164754,-8660.409521,2145.067394
163581.749271,-1776.494261,-8512.368333,-2911.162892
163581.749591,888.247130,-9548.656652,-2221.676944
163581.749911,1332.370696,-9992.780217,-612.876398
163581.750231,592.164754,-9252.574275,-1072.533697
163581.750551,-666.185348,-9104.533087,-3600.648841
163581.750870,-592.164754,-9844.739029,-1838.629195
163581.751190,0.000000,-7772.162391,-2451.505594
163581.751510,0.000000,-9548.656652,0.000000
163581.751830,740.205942,-9918.759623,-76.609550
163581.752149,0.000000,-8956.491898,1838.629195
163581.752469,888.247130,-8068.244768,-383.047749
163581.752789,814.226536,-9030.512492,766.095498
163581.753109,1036.288319,-9326.594869,919.314598
163581.753428,-2294.638420,-7772.162391,0.000000
163581.753748,-1258.350101,-8882.471304,1149.143247
163581.754068,-1554.432478,-7698.141797,-1915.238745
163581.754388,-3182.885551,-7846.182985,-2374.896044
163581.754707,-2368.659014,-5995.668130,-2528.115143
163581.755027,1110.308913,-10955.047942,-76.609550
163581.755347,-2368.659014,-9548.656652,-1838.629195
163581.755667,-2738.761985,-10510.924376,-1685.410096
163581.755986,-2590.720797,-12361.439231,-536.266849
163581.756306,-1702.473667,-8438.347739,-306.438199
163581.756626,-370.102971,-7994.224174,-383.047749
163581.756946,1480.411884,-9178.553681,2374.896044
163581.757265,3478.967927,-7402.059420,995.924147
163581.757585,740.205942,-7402.059420,383.047749
163581.757905,0.000000,-8364.327145,995.924147
163581.758225,-592.164754,-11473.192101,1762.019645
163581.758545,-2220.617826,-8660.409521,-2298.286494
163581.758864,-1036.288319,-9474.636058,-1455.581446
163581.759184,296.082377,-10436.903782,-689.485948
163581.759504,1110.308913,-9844.739029,0.000000
163581.759824,0.000000,-10140.821405,0.000000
163581.760143,592.164754,-10288.862594,1532.190996
163581.760463,-2368.659014,-5107.421000,0.000000
163581.760783,0.000000,-7920.203579,1838.629195
163581.761103,2886.803174,-8882.471304,2374.896044
163581.761422,3552.988522,-10140.821405,3830.477490
163581.761742,2146.597232,-10510.924376,3217.601092
163581.762062,-666.185348,-10066.800811,2374.896044
163581.762382,-3330.926739,-8882.471304,-612.876398
163581.762701,-5773.606348,-6291.750507,-4903.011187
163581.763021,-3182.885551,-7846.182985,-3064.381992
163581.763341,-2294.638420,-8364.327145,-3677.258390
163581.763661,0.000000,-11029.068536,306.438199
163581.763980,518.144159,-13619.789333,2451.505594
163581.764300,-74.020594,-11843.295072,3294.210641
163581.764620,-4441.235652,-5551.544565,-919.314598
163581.764940,-2886.803174,-4515.256246,-3294.210641
163581.765260,962.267725,-6661.853478,-2451.505594
163581.765579,4885.359217,-10510.924376,842.705048
163581.765899,4367.215058,-11991.336260,3447.429741
163581.766219,814.226536,-13323.706956,4519.963438
163581.766538,-4811.338623,-10658.965565,-1302.362347
163581.766858,-5403.503377,-9474.636058,-3753.867940
163581.767178,-2442.679609,-7994.224174,-5898.935335
163581.767498,3478.967927,-9474.636058,-76.609550
163581.767817,5847.626942,-9474.636058,2068.457845
163581.768137,3404.947333,-10510.924376,2068.457845
163581.768457,-1036.288319,-9844.739029,766.095498
163581.768777,-3997.112087,-8586.388927,-1225.752797
163581.769096,-3034.844362,-7550.100608,-2451.505594
163581.769416,-74.020594,-8586.388927,-153.219100
163581.769736,3404.947333,-9474.636058,1762.019645
163581.770056,4663.297435,-11251.130318,2221.676944
163581.770375,-666.185348,-7698.141797,-689.485948
163581.770695,-74.020594,-13619.789333,-76.609550
163581.771015,-3627.009116,-7402.059420,-4366.744339
163581.771335,-2886.803174,-9252.574275,-5362.668486
163581.771654,-592.164754,-9622.677246,-2298.286494
163581.771974,0.000000,-7772.162391,0.000000
163581.772294,1184.329507,-9548.656652,766.095498
163581.772614,1184.329507,-8956.491898,0.000000
163581.772933,-2072.576638,-9548.656652,-1225.752797
163581.773253,-74.020594,-10066.800811,-1608.800546
163581.773573,1110.308913,-9474.636058,-2528.115143
163581.773893,2368.659014,-11843.295072,1685.410096
163581.774212,2590.720797,-9622.677246,1838.629195
163581.774532,0.000000,-10288.862594,1302.362347
163581.774852,-740.205942,-8882.471304,-306.438199
163581.775172,-4145.153275,-4811.338623,-3677.258390
163581.775491,-2590.720797,-8512.368333,-4060.306139
163581.775811,-2960.823768,-8364.327145,-2451.505594
163581.776131,1406.391290,-11843.295072,-76.609550
163581.776451,962.267725,-12731.542202,3294.210641
163581.776770,0.000000,-10140.821405,3983.696590
163581.777090,-2664.741391,-9548.656652,-612.876398
163581.777410,-2812.782580,-8364.327145,-1608.800546
163581.777730,-2368.659014,-8586.388927,-1455.581446
163581.778049,0.000000,-8364.327145,0.000000
163581.778369,1184.329507,-8438.347739,1838.629195
163581.778689,1702.473667,-12731.542202,2374.896044
163581.779009,-518.144159,-10658.965565,2068.457845
163581.779328,-2442.679609,-7105.977043,-2068.457845
163581.779648,-4441.235652,-7772.162391,-1225.752797
163581.779968,-4145.153275,-5403.503377,-4290.134789
163581.780288,74.020594,-9178.553681,-2374.896044
163581.780607,3330.926739,-12213.398043,1149.143247
163581.780927,1776.494261,-11991.336260,1685.410096
163581.781247,-74.020594,-12435.459826,1149.143247
163581.781567,-2072.576638,-8068.244768,-383.047749
163581.781886,-1184.329507,-8808.450710,-1072.533697
163581.782206,2146.597232,-7994.224174,-306.438199
163581.782526,3849.070898,-9178.553681,2987.772442
163581.782846,4663.297435,-11843.295072,6052.154434
163581.783165,2886.803174,-10658.965565,3600.648841
163581.783485,-2886.803174,-7772.162391,-3294.210641
163581.783805,-4515.256246,-7624.121203,-4290.134789
163581.784125,-2960.823768,-9474.636058,-3677.258390
163581.784444,-666.185348,-9178.553681,-1915.238745
163581.784764,2590.720797,-11251.130318,1149.143247
163581.785084,0.000000,-11029.068536,1532.190996
163581.785404,-592.164754,-9548.656652,766.095498
163581.785723,-666.185348,-8216.285956,-76.609550
163581.786043,-444.123565,-8364.327145,-153.219100
163581.786363,1036.288319,-8290.306550,-689.485948
163581.786683,1110.308913,-8290.306550,-76.609550
163581.787002,2886.803174,-11251.130318,-76.609550
163581.787322,-3552.988522,-9548.656652,612.876398
163581.787642,-4515.256246,-8512.368333,-3217.601092
163581.787962,-4293.194464,-8512.368333,-3524.039291
163581.788281,-2664.741391,-7846.182985,-4213.525239
163581.788601,1258.350101,-9844.739029,-1915.238745
163581.788921,4071.132681,-11029.068536,1685.410096
163581.789241,2738.761985,-11251.130318,2987.772442
163581.789560,1332.370696,-10584.944971,2451.505594
163581.789880,-370.102971,-8734.430116,-76.609550
163581.790200,-2146.597232,-6513.812290,-2528.115143
163581.790520,0.000000,-7179.997637,306.438199
163581.790839,2442.679609,-8068.244768,229.828649
163581.791159,3256.906145,-10066.800811,2374.896044
163581.791479,518.144159,-11325.150913,1608.800546
163581.791799,-1924.535449,-10732.986159,-2145.067394
163581.792118,-4219.173869,-8808.450710,-3753.867940
163581.792438,-4515.256246,-9474.636058,-2528.115143
163581.792758,-2072.576638,-7328.038826,-1838.629195
163581.793078,2368.659014,-7772.162391,383.047749
163581.793397,4071.132681,-11843.295072,4519.963438
163581.793717,0.000000,-10140.821405,2757.943793
163581.794037,-1998.556043,-9326.594869,536.266849
163581.794357,-3997.112087,-9400.615463,-1762.019645
163581.794676,-3775.050304,-8216.285956,-2911.162892
163581.794996,-1554.432478,-7698.141797,-3140.991542
163581.795316,2294.638420,-11251.130318,1762.019645
163581.795636,814.226536,-8882.471304,-1532.190996
163581.795955,0.000000,-11917.315666,-1225.752797
163581.796275,-3997.112087,-8660.409521,-2451.505594
163581.796595,-2516.700203,-12509.480420,-76.609550
163581.796915,-4737.318029,-7179.997637,-2451.505594
163581.797234,1998.556043,-8290.306550,-153.219100
163581.797554,3404.947333,-10140.821405,1915.238745
163581.797874,3182.885551,-9844.739029,3524.039291
163581.798194,666.185348,-8068.244768,306.438199
163581.798513,-1924.535449,-8512.368333,-459.657299
163581.798833,-2146.597232,-9326.594869,-2451.505594
163581.799153,-74.020594,-10658.965565,-2528.115143
163581.799473,666.185348,-8882.471304,-842.705048
163581.799792,888.247130,-11621.233289,4136.915689
163581.800112,1184.329507,-9548.656652,76.609550
163581.800432,-1480.411884,-8808.450710,-689.485948
163581.800751,-3108.864956,-8660.409521,-2528.115143
163581.801071,-4145.153275,-5995.668130,-4290.134789
163581.801391,-2146.597232,-5995.668130,-3064.381992
163581.801711,2368.659014,-8364.327145,-2451.505594
163581.802030,888.247130,-10732.986159,1225.752797
163581.802350,518.144159,-10214.842000,1302.362347
163581.802670,-666.185348,-11843.295072,-76.609550
163581.802990,-4145.153275,-7772.162391,-2451.505594
163581.803309,-1702.473667,-7550.100608,-4136.915689
163581.803629,888.247130,-10288.862594,-1302.362347
163581.803949,2960.823768,-9844.739029,0.000000
163581.804269,1850.514855,-8364.327145,1302.362347
163581.804588,-74.020594,-11843.295072,2374.896044
163581.804908,-1998.556043,-7920.203579,-2834.553343
163581.805228,-2960.823768,-8512.368333,-2298.286494
163581.805548,0.000000,-9548.656652,0.000000
163581.805867,4367.215058,-11843.295072,4213.525239
163581.806187,0.000000,-8512.368333,2757.943793
163581.806507,-592.164754,-9326.594869,1149.143247
163581.806827,-1924.535449,-6809.894666,-1225.752797
163581.807146,-2664.741391,-8512.368333,-2451.505594
163581.807466,-1850.514855,-10066.800811,-1225.752797
163581.807786,370.102971,-11843.295072,1455.581446
163581.808106,-74.020594,-10066.800811,2987.772442
163581.808425,-666.185348,-9178.553681,536.266849
163581.808745,-2368.659014,-7994.224174,-76.609550
163581.809065,-74.020594,-10955.047942,1149.143247
163581.809385,-1184.329507,-9622.677246,919.314598
163581.809704,0.000000,-10140.821405,536.266849
163581.810024,222.061783,-9474.636058,1378.971896
163581.810344,-4737.318029,-5995.668130,0.000000
163581.810664,-3256.906145,-7772.162391,-1838.629195
163581.810983,-1628.453072,-8068.244768,-4290.134789
163581.811303,0.000000,-9844.739029,-459.657299
163581.811623,1702.473667,-11547.212695,-76.609550
163581.811943,2294.638420,-11843.295072,-76.609550
163581.812262,296.082377,-10510.924376,1072.533697
163581.812582,370.102971,-9918.759623,995.924147
163581.812902,592.164754,-9548.656652,-689.485948
163581.813222,444.123565,-7402.059420,153.219100
163581.813541,-2368.659014,-5995.668130,-2298.286494
163581.813861,1406.391290,-9326.594869,-1302.362347
163581.814181,296.082377,-8364.327145,0.000000
163581.814501,1110.308913,-11547.212695,1149.143247
163581.814820,-74.020594,-12361.439231,2145.067394
163581.815140,-3552.988522,-8364.327145,0.000000
163581.815460,-2146.597232,-9178.553681,-2374.896044
163581.815780,-518.144159,-8142.265362,-2451.505594
163581.816099,0.000000,-9474.636058,-689.485948
163581.816419,0.000000,-8660.409521,0.000000
163581.816739,0.000000,-8586.388927,-766.095498
163581.817059,-1480.411884,-9844.739029,-1072.533697
163581.817378,-1850.514855,-8734.430116,-459.657299
163581.817698,-1258.350101,-8290.306550,-2528.115143
163581.818018,-2368.659014,-7179.997637,0.000000
163581.818338,1110.308913,-8586.388927,-383.047749
163581.818657,-666.185348,-9030.512492,-612.876398
163581.818977,-1480.411884,-8438.347739,-1532.190996
163581.819297,-2220.617826,-8290.306550,-2911.162892
163581.819617,-74.020594,-11251.130318,-76.609550
163581.819936,-1184.329507,-9622.677246,-2451.505594
163581.820256,962.267725,-10807.006753,-306.438199
163581.820576,2516.700203,-10881.027347,1915.238745
163581.820896,1258.350101,-8956.491898,2451.505594
163581.821215,-2368.659014,-6587.832884,0.000000
163581.821535,-2368.659014,-5107.421000,0.000000
163581.821855,1110.308913,-10362.883188,-76.609550
163581.822175,1998.556043,-10881.027347,2374.896044
163581.822494,888.247130,-9474.636058,1762.019645
163581.822814,-74.020594,-11251.130318,2374.896044
163581.823134,-3923.091493,-7772.162391,-1762.019645
163581.823454,-3627.009116,-8364.327145,-3524.039291
163581.823773,-1702.473667,-8956.491898,-2681.334243
163581.824093,0.000000,-8956.491898,229.828649
163581.824413,1702.473667,-12287.418637,2068.457845
163581.824733,1998.556043,-11917.315666,3600.648841
163581.825052,-1480.411884,-8364.327145,0.000000
163581.825372,-2368.659014,-8364.327145,1838.629195
163581.825692,-1258.350101,-6513.812290,-1302.362347
163581.826012,-2072.576638,-6587.832884,-2145.067394
163581.826331,1110.308913,-9548.656652,-1455.581446
163581.826651,3182.885551,-11843.295072,153.219100
163581.826971,1702.473667,-13323.706956,1762.019645
163581.827291,-2368.659014,-10732.986159,2451.505594
163581.827610,-4737.318029,-8808.450710,-2911.162892
163581.827930,-1554.432478,-10658.965565,-1302.362347
163581.828250,1110.308913,-8290.306550,-1915.238745
163581.828570,2812.782580,-8808.450710,1915.238745
163581.828889,7624.121203,-10658.965565,4826.401637
163581.829209,1480.411884,-9400.615463,2451.505594
163581.829529,-1554.432478,-9326.594869,612.876398
163581.829849,-4515.256246,-8290.306550,-2451.505594
163581.830168,-3552.988522,-8956.491898,-1838.629195
163581.830488,-2368.659014,-7179.997637,0.000000
163581.830808,0.000000,-5995.668130,-1838.629195
163581.831128,592.164754,-9844.739029,2145.067394
163581.831447,814.226536,-8882.471304,0.000000
163581.831767,-74.020594,-8438.347739,-1455.581446
163581.832087,-814.226536,-8882.471304,-383.047749
163581.832407,-2960.823768,-9548.656652,-2604.724693
163581.832726,-814.226536,-10955.047942,153.219100
163581.833046,1332.370696,-9400.615463,1762.019645
163581.833366,0.000000,-8364.327145,919.314598
163581.833686,1110.308913,-6513.812290,-536.266849
163581.834005,-2812.782580,-5699.585753,-3677.258390
163581.834325,-592.164754,-9030.512492,-2451.505594
163581.834645,2294.638420,-11843.295072,-76.609550
163581.834965,1702.473667,-11843.295072,-76.609550
163581.835284,888.247130,-10436.903782,689.485948
163581.835604,-1480.411884,-8956.491898,-1455.581446
163581.835924,-888.247130,-9696.697840,-2374.896044
163581.836243,296.082377,-9474.636058,-689.485948
163581.836563,148.041188,-11325.150913,1149.143247
163581.836883,962.267725,-10658.965565,2374.896044
163581.837203,2294.638420,-11695.253884,4213.525239
163581.837522,-1258.350101,-6957.935855,0.000000
163581.837842,0.000000,-7179.997637,0.000000
163581.838162,-74.020594,-9178.553681,-76.609550
163581.838482,0.000000,-7772.162391,0.000000
163581.838801,-1480.411884,-9252.574275,-383.047749
163581.839121,-1776.494261,-9844.739029,-842.705048
163581.839441,-888.247130,-11029.068536,1225.752797
163581.839761,-2368.659014,-10732.986159,1225.752797
163581.840080,-3552.988522,-9548.656652,0.000000
163581.840400,-888.247130,-10658.965565,-76.609550
163581.840720,-2442.679609,-8290.306550,-1302.362347
163581.841040,-2442.679609,-6217.729913,-2068.457845
163581.841359,-74.020594,-8290.306550,-76.609550
163581.841679,1628.453072,-9104.533087,536.266849
163581.841999,1776.494261,-9622.677246,842.705048
163581.842319,1406.391290,-10436.903782,1378.971896
163581.842638,0.000000,-7179.997637,612.876398
163581.842958,-2738.761985,-7328.038826,-2987.772442
163581.843278,0.000000,-10436.903782,-1225.752797
163581.843598,1406.391290,-10214.842000,-2451.505594
163581.843917,2220.617826,-13027.624579,2374.896044
163581.844237,-74.020594,-7402.059420,-3753.867940
163581.844557,-1258.350101,-9474.636058,-1685.410096
163581.844877,-1776.494261,-8956.491898,-2528.115143
163581.845196,0.000000,-8438.347739,-2221.676944
163581.845516,2294.638420,-11843.295072,2374.896044
163581.845836,2590.720797,-9474.636058,4136.915689
163581.846156,1998.556043,-8882.471304,1915.238745
163581.846475,-2072.576638,-6217.729913,-1302.362347
163581.846795,-2368.659014,-4811.338623,-2451.505594
163581.847115,-2368.659014,-7179.997637,-3677.258390
163581.847435,1702.473667,-10066.800811,-2528.115143
163581.847754,-296.082377,-13101.645173,0.000000
163581.848074,-2220.617826,-11843.295072,-1455.581446
163581.848394,-4441.235652,-10436.903782,-3064.381992
163581.848714,-3256.906145,-11621.233289,-1302.362347
163581.849033,-2368.659014,-7476.080014,-2451.505594
163581.849353,2072.576638,-9844.739029,2374.896044
163581.849673,3478.967927,-9178.553681,1762.019645
163581.849993,1776.494261,-7476.080014,1225.752797
163581.850312,-2294.638420,-6291.750507,0.000000
163581.850632,-370.102971,-9474.636058,-76.609550
163581.850952,-2146.597232,-9104.533087,-1532.190996
163581.851272,-1036.288319,-9252.574275,-1149.143247
163581.851591,444.123565,-9030.512492,76.609550
163581.851911,1332.370696,-10140.821405,1225.752797
163581.852231,-1924.535449,-8364.327145,-2145.067394
163581.852551,-2368.659014,-10732.986159,0.000000
163581.852870,-888.247130,-10584.944971,-2451.505594
163581.853190,370.102971,-9844.739029,1225.752797
163581.853510,2886.803174,-10658.965565,2068.457845
163581.853830,296.082377,-8438.347739,1838.629195
163581.854149,1110.308913,-7476.080014,2451.505594
163581.854469,592.164754,-7698.141797,2298.286494
163581.854789,0.000000,-7772.162391,3064.381992
163581.855109,-370.102971,-8734.430116,842.705048
163581.855428,-74.020594,-11769.274478,842.705048
163581.855748,-1850.514855,-10362.883188,-689.485948
163581.856068,-3552.988522,-8660.409521,-1838.629195
163581.856388,-1776.494261,-11251.130318,-76.609550
163581.856707,-4589.276840,-8512.368333,-3064.381992
163581.857027,-1850.514855,-10436.903782,-1455.581446
163581.857347,296.082377,-10881.027347,229.828649
163581.857667,1110.308913,-9918.759623,1762.019645
163581.857986,1110.308913,-9104.533087,-842.705048
163581.858306,2442.679609,-8882.471304,2834.553343
163581.858626,962.267725,-8586.388927,229.828649
163581.858946,962.267725,-9474.636058,1455.581446
163581.859265,-74.020594,-9474.636058,-76.609550
163581.859585,296.082377,-10955.047942,-689.485948
163581.859905,0.000000,-11917.315666,-1225.752797
163581.860225,-74.020594,-11843.295072,-689.485948
163581.860544,-74.020594,-12435.459826,-76.609550
163581.860864,-4737.318029,-7179.997637,-2451.505594
163581.861184,-1258.350101,-9474.636058,-2528.115143
163581.861504,-814.226536,-7920.203579,-1225.752797
163581.861823,740.205942,-7772.162391,0.000000
163581.862143,1406.391290,-7698.141797,2451.505594
163581.862463,1332.370696,-8512.368333,2451.505594
163581.862783,1110.308913,-8882.471304,842.705048
163581.863102,-2072.576638,-7179.997637,-1072.533697
163581.863422,-4737.318029,-7179.997637,-2451.505594
163581.863742,-518.144159,-10362.883188,-1455.581446
163581.864062,-2368.659014,-7772.162391,-4290.134789
163581.864381,814.226536,-11251.130318,-1915.238745
163581.864701,-814.226536,-10658.965565,-1532.190996
163581.865021,-2590.720797,-9622.677246,-2834.553343
163581.865340,-2220.617826,-10066.800811,-1685.410096
163581.865660,962.267725,-9474.636058,-76.609550
163581.865980,1998.556043,-8142.265362,842.705048
163581.866300,3478.967927,-7994.224174,1149.143247
163581.866619,2368.659014,-7476.080014,2757.943793
163581.866939,2590.720797,-7698.141797,2145.067394
163581.867259,-2368.659014,-6809.894666,-3064.381992
163581.867578,-1258.350101,-11695.253884,-2298.286494
163581.867898,-1850.514855,-11769.274478,-1991.848295
163581.868218,-1110.308913,-11843.295072,-919.314598
163581.868538,-74.020594,-13027.624579,1149.143247
163581.868857,592.164754,-10732.986159,3370.820191
163581.869177,-2960.823768,-8660.409521,0.000000
163581.869497,-740.205942,-9548.656652,306.438199
163581.869817,-74.020594,-9474.636058,1762.019645
163581.870136,74.020594,-7179.997637,0.000000
163581.870456,2294.638420,-8882.471304,2221.676944
163581.870776,1332.370696,-9252.574275,2451.505594
163581.871095,814.226536,-9104.533087,2604.724693
163581.871415,-1924.535449,-9252.574275,536.266849
163581.871735,-3849.070898,-7846.182985,-1225.752797
163581.872055,-4737.318029,-7772.162391,-3830.477490
163581.872374,-2368.659014,-9252.574275,-4290.134789
163581.872694,-2072.576638,-10732.986159,-2374.896044
163581.873014,0.000000,-11325.150913,1838.629195
163581.873334,-4071.132681,-7179.997637,0.000000
163581.873653,-3552.988522,-8364.327145,-459.657299
163581.873973,-1554.432478,-7105.977043,-2374.896044
163581.874293,2886.803174,-7402.059420,689.485948
163581.874612,5329.482782,-7105.977043,2987.772442
163581.874932,5847.626942,-9474.636058,3600.648841
163581.875252,2294.638420,-9992.780217,1149.143247
163581.875572,-4145.153275,-8364.327145,-2451.505594
163581.875891,-3404.947333,-11917.315666,-1378.971896
163581.876211,-3552.988522,-9548.656652,-1838.629195
163581.876531,-3701.029710,-6587.832884,-3983.696590
163581.876850,-74.020594,-8512.368333,-1991.848295
163581.877170,1924.535449,-8660.409521,-1455.581446
163581.877490,2072.576638,-9548.656652,536.266849
163581.877810,2294.638420,-10658.965565,2374.896044
163581.878129,-222.061783,-10658.965565,459.657299
163581.878449,-370.102971,-9474.636058,-229.828649
163581.878769,-74.020594,-8142.265362,-1302.362347
163581.879089,2368.659014,-7328.038826,-76.609550
163581.879408,2368.659014,-7179.997637,1225.752797
163581.879728,222.061783,-9474.636058,-766.095498
163581.880048,-3034.844362,-10436.903782,-2987.772442
163581.880367,-4811.338623,-10362.883188,-5286.058936
163581.880687,-4219.173869,-11103.089130,-3370.820191
163581.881007,814.226536,-11029.068536,-536.266849
163581.881327,0.000000,-7772.162391,0.000000
163581.881646,2590.720797,-8364.327145,1915.238745
163581.881966,1702.473667,-9474.636058,2374.896044
163581.882286,-74.020594,-7994.224174,-76.609550
163581.882606,-3552.988522,-5995.668130,0.000000
163581.882925,-74.020594,-10732.986159,1149.143247
163581.883245,222.061783,-9622.677246,612.876398
163581.883565,1332.370696,-9474.636058,1762.019645
163581.883884,518.144159,-8882.471304,-76.609550
163581.884204,-74.020594,-10658.965565,-76.609550
163581.884524,-3552.988522,-8882.471304,-1915.238745
163581.884844,-2442.679609,-10066.800811,-1915.238745
163581.885163,-2368.659014,-8364.327145,0.000000
163581.885483,296.082377,-9844.739029,2451.505594
163581.885803,0.000000,-8068.244768,612.876398
163581.886122,222.061783,-9474.636058,1762.019645
163581.886442,-296.082377,-10066.800811,2451.505594
163581.886762,-1184.329507,-7698.141797,995.924147
163581.887082,-74.020594,-7105.977043,-76.609550
163581.887401,-370.102971,-7698.141797,-76.609550
163581.887721,222.061783,-7994.224174,-2221.676944
163581.888041,1184.329507,-11325.150913,1225.752797
163581.888361,1110.308913,-11251.130318,1225.752797
163581.888680,-4219.173869,-8364.327145,-3677.258390
163581.889000,-3330.926739,-9400.615463,-3294.210641
163581.889320,-1480.411884,-9030.512492,-3447.429741
163581.889639,1480.411884,-9770.718434,-383.047749
163581.889959,4515.256246,-10658.965565,2374.896044
163581.890279,2368.659014,-9548.656652,3983.696590
163581.890599,0.000000,-7179.997637,612.876398
163581.890918,-1332.370696,-8956.491898,0.000000
163581.891238,-74.020594,-9474.636058,-76.609550
163581.891558,-74.020594,-6365.771101,-3140.991542
163581.891878,2886.803174,-11547.212695,1149.143247
163581.892197,1184.329507,-10140.821405,0.000000
163581.892517,-740.205942,-9622.677246,-1072.533697
163581.892837,-3034.844362,-9252.574275,-1991.848295
163581.893156,-4737.318029,-7179.997637,-2451.505594
163581.893476,-2442.679609,-9622.677246,-2298.286494
163581.893796,1850.514855,-9474.636058,-306.438199
163581.894116,4663.297435,-10658.965565,1149.143247
163581.894435,0.000000,-8364.327145,1225.752797
163581.894755,-74.020594,-10658.965565,2374.896044
163581.895075,-3552.988522,-7920.203579,-2451.505594
163581.895394,-2590.720797,-7402.059420,-2911.162892
163581.895714,-444.123565,-8216.285956,-1838.629195
163581.896034,1110.308913,-9548.656652,0.000000
163581.896354,4071.132681,-8882.471304,-76.609550
163581.896673,518.144159,-9992.780217,1149.143247
163581.896993,-1258.350101,-10066.800811,-766.095498
163581.897313,-2294.638420,-8734.430116,-2681.334243
163581.897633,-740.205942,-9474.636058,-1225.752797
163581.897952,1110.308913,-9030.512492,-76.609550
163581.898272,2368.659014,-8660.409521,1532.190996
163581.898592,4367.215058,-11547.212695,3370.820191
163581.898911,2294.638420,-11251.130318,2068.457845
163581.899231,-4145.153275,-7179.997637,0.000000
163581.899551,-2738.761985,-7698.141797,-2221.676944
163581.899871,-2442.679609,-8808.450710,-2298.286494
163581.900190,296.082377,-9030.512492,-459.657299
163581.900510,3182.885551,-9400.615463,2374.896044
163581.900830,1998.556043,-9474.636058,4519.963438
163581.901150,-296.082377,-9844.739029,995.924147
163581.901469,-4071.132681,-9918.759623,-2528.115143
163581.901789,-5329.482782,-9548.656652,-2145.067394
163581.902109,-1776.494261,-10584.944971,0.000000
163581.902428,-1998.556043,-6291.750507,0.000000
163581.902748,1258.350101,-8216.285956,1378.971896
163581.903068,148.041188,-8068.244768,153.219100
163581.903388,-370.102971,-9178.553681,-1532.190996
163581.903707,-1258.350101,-10658.965565,-689.485948
163581.904027,-74.020594,-11843.295072,-76.609550
163581.904347,-74.020594,-11843.295072,-76.609550
163581.904666,74.020594,-8364.327145,-2068.457845
163581.904986,592.164754,-9548.656652,0.000000
163581.905306,2368.659014,-9548.656652,1225.752797
163581.905626,0.000000,-7254.018232,-919.314598
163581.905945,-1554.432478,-9992.780217,-995.924147
163581.906265,-2072.576638,-9770.718434,-1685.410096
163581.906585,-1628.453072,-9474.636058,-919.314598
163581.906905,2886.803174,-9474.636058,1991.848295
163581.907224,444.123565,-7179.997637,306.438199
163581.907544,1628.453072,-8290.306550,1378.971896
163581.907864,-74.020594,-7402.059420,-76.609550
163581.908183,-74.020594,-8142.265362,-1915.238745
163581.908503,-2368.659014,-7179.997637,-2451.505594
163581.908823,-222.061783,-9030.512492,-1302.362347
163581.909143,-814.226536,-9474.636058,-1838.629195
163581.909462,-962.267725,-10066.800811,-2145.067394
163581.909782,-1628.453072,-10584.944971,-1225.752797
163581.910102,-1258.350101,-9178.553681,-1302.362347
163581.910421,-4145.153275,-7772.162391,-2145.067394
163581.910741,-1184.329507,-7179.997637,-3064.381992
163581.911061,2886.803174,-8290.306550,-2528.115143
163581.911381,1554.432478,-6809.894666,-1302.362347
163581.911700,0.000000,-5403.503377,-2451.505594
163581.912020,814.226536,-9918.759623,-1685.410096
163581.912340,-888.247130,-10066.800811,-3983.696590
163581.912660,-2368.659014,-10140.821405,-4826.401637
163581.912979,-1258.350101,-10658.965565,-4979.620737
163581.913299,2886.803174,-10658.965565,-4979.620737
163581.913619,2368.659014,-11843.295072,-689.485948
163581.913938,-74.020594,-9622.677246,-2528.115143
163581.914258,-1480.411884,-8068.244768,-3370.820191
163581.914578,-1776.494261,-7179.997637,-4290.134789
163581.914898,-1184.329507,-5699.585753,-6128.763984
163581.915217,1406.391290,-8734.430116,-3753.867940
163581.915537,2368.659014,-8290.306550,-2374.896044
163581.915857,1036.288319,-8734.430116,-2528.115143
163581.916177,1702.473667,-11843.295072,-3140.991542
163581.916496,-1776.494261,-9548.656652,-3677.258390
163581.916816,-2368.659014,-10881.027347,-5056.230287
163581.917136,-370.102971,-10658.965565,-4979.620737
163581.917455,-74.020594,-11843.295072,-6205.373534
163581.917775,0.000000,-9548.656652,-1225.752797
163581.918095,-370.102971,-8438.347739,-5286.058936
163581.918415,-592.164754,-9252.574275,-6511.811733
163581.918734,-1554.432478,-9844.739029,-6741.640382
163581.919054,-592.164754,-8364.327145,-6741.640382
163581.919374,1258.350101,-8364.327145,-7354.516781
163581.919693,0.000000,-7920.203579,-6128.763984
163581.920013,888.247130,-9548.656652,-6128.763984
163581.920333,2220.617826,-9992.780217,-4443.353888
163581.920653,4663.297435,-13915.871710,-3753.867940
163581.920972,0.000000,-11325.150913,-5822.325785
163581.921292,-1850.514855,-12657.521608,-4290.134789
163581.921612,-2664.741391,-9474.636058,-6052.154434
163581.921932,-1110.308913,-7402.059420,-5286.058936
163581.922251,-666.185348,-5403.503377,-9116.536426
163581.922571,1110.308913,-8734.430116,-3983.696590
163581.922891,1702.473667,-7105.977043,-4979.620737
163581.923210,740.205942,-6735.874072,-4596.572988
163581.923530,-1554.432478,-9770.718434,-7048.078582
163581.923850,-1332.370696,-13545.768739,-1608.800546
163581.924170,-3552.988522,-9844.739029,-6741.640382
163581.924489,814.226536,-10807.006753,-2757.943793
163581.924809,-962.267725,-7920.203579,-5822.325785
163581.925129,-1480.411884,-9326.594869,-2911.162892
163581.925449,-666.185348,-5921.647536,-6205.373534
163581.925768,2294.638420,-10510.924376,-383.047749
163581.926088,-74.020594,-6365.771101,-6205.373534
163581.926408,-2368.659014,-7328.038826,-5669.106685
163581.926727,-2590.720797,-7031.956449,-5592.497135
163581.927047,0.000000,-7179.997637,-4903.011187
163581.927367,3775.050304,-10362.883188,-2528.115143
163581.927687,-296.082377,-9844.739029,-2451.505594
163581.928006,-592.164754,-11547.212695,-2451.505594
163581.928326,-74.020594,-10362.883188,-2528.115143
163581.928646,2664.741391,-9474.636058,-1149.143247
163581.928965,0.000000,-6587.832884,-2681.334243
163581.929285,592.164754,-8364.327145,-3677.258390
163581.929605,0.000000,-9548.656652,-919.314598
163581.929925,444.123565,-7179.997637,-3677.258390
163581.930244,2294.638420,-10658.965565,-689.485948
163581.930564,-1776.494261,-7550.100608,-2757.943793
163581.930884,-2368.659014,-10140.821405,-2528.115143
163581.931204,-962.267725,-10362.883188,-306.438199
163581.931523,1776.494261,-10140.821405,2451.505594
163581.931843,740.205942,-9844.739029,2604.724693
163581.932163,1184.329507,-6957.935855,0.000000
163581.932482,-1332.370696,-8068.244768,-1762.019645
163581.932802,-2072.576638,-8364.327145,-4290.134789
163581.933122,-2590.720797,-7846.182985,-4443.353888
163581.933442,-1258.350101,-12879.583391,-1915.238745
163581.933761,-2368.659014,-8956.491898,-2451.505594
163581.934081,-2072.576638,-10436.903782,-3677.258390
163581.934401,-1850.514855,-11843.295072,-76.609550
163581.934721,-2960.823768,-9548.656652,-1225.752797
163581.935040,-370.102971,-10584.944971,536.266849
163581.935360,1628.453072,-7846.182985,459.657299
163581.935680,1850.514855,-6143.709319,0.000000
163581.935999,444.123565,-5625.565159,-2068.457845
163581.936319,0.000000,-6291.750507,-3064.381992
163581.936639,-74.020594,-10214.842000,-2528.115143
163581.936959,-74.020594,-10658.965565,-2528.115143
163581.937278,-1258.350101,-10658.965565,-4136.915689
163581.937598,-74.020594,-13027.624579,-995.924147
163581.937918,-2072.576638,-9844.739029,-3370.820191
163581.938237,-1406.391290,-11177.109724,-2451.505594
163581.938557,-518.144159,-9770.718434,-1915.238745
163581.938877,0.000000,-8290.306550,-1838.629195
163581.939197,0.000000,-5995.668130,-2451.505594
163581.939516,2960.823768,-4663.297435,-2681.334243
163581.939836,0.000000,-5403.503377,-2451.505594
163581.940156,2294.638420,-8882.471304,-3140.991542
163581.940476,-666.185348,-10066.800811,-5286.058936
163581.940795,-962.267725,-14211.954086,-3753.867940
163581.941115,-3034.844362,-11325.150913,-6358.592633
163581.941435,-2442.679609,-11769.274478,-6665.030833
