#time,accel_x,accel_y,accel_z
59416.944977,0.000000,-9548.656652,2911.162892
59416.945287,-74.020594,-7994.224174,-76.609550
59416.945597,0.000000,-8364.327145,612.876398
59416.945907,2294.638420,-11547.212695,3600.648841
59416.946216,-1776.494261,-8364.327145,612.876398
59416.946526,-222.061783,-9326.594869,842.705048
59416.946836,-370.102971,-8882.471304,842.705048
59416.947146,-370.102971,-9104.533087,536.266849
59416.947456,-74.020594,-9474.636058,-76.609550
59416.947766,-666.185348,-7772.162391,-689.485948
59416.948076,-1776.494261,-8364.327145,0.000000
59416.948386,2294.638420,-11843.295072,-76.609550
59416.948696,-2368.659014,-7179.997637,0.000000
59416.949005,592.164754,-9548.656652,3140.991542
59416.949315,-1184.329507,-7772.162391,306.438199
59416.949625,-370.102971,-9326.594869,842.705048
59416.949935,-148.041188,-8956.491898,842.705048
59416.950245,0.000000,-9326.594869,1149.143247
59416.950555,2294.638420,-10658.965565,2374.896044
59416.950865,-74.020594,-9326.594869,-76.609550
59416.951175,-1480.411884,-7476.080014,0.000000
59416.951484,1184.329507,-10584.944971,3064.381992
59416.951794,-666.185348,-8290.306550,-76.609550
59416.952104,0.000000,-7179.997637,612.876398
59416.952414,-666.185348,-8142.265362,0.000000
59416.952724,-592.164754,-8660.409521,612.876398
59416.953034,-296.082377,-9030.512492,612.876398
59416.953344,-222.061783,-9104.533087,842.705048
59416.953654,1258.350101,-10658.965565,3294.210641
59416.953963,-74.020594,-9474.636058,1762.019645
59416.954273,-148.041188,-8364.327145,-2145.067394
59416.954583,2294.638420,-10955.047942,2374.896044
59416.954893,-2072.576638,-7772.162391,0.000000
59416.955203,-1924.535449,-7328.038826,0.000000
59416.955513,-74.020594,-9178.553681,842.705048
59416.955823,-518.144159,-9104.533087,1149.143247
59416.956133,0.000000,-9104.533087,536.266849
59416.956442,-74.020594,-9252.574275,1225.752797
59416.956752,0.000000,-10436.903782,2451.505594
59416.957062,1110.308913,-10362.883188,1762.019645
59416.957372,-74.020594,-9474.636058,-76.609550
59416.957682,0.000000,-8364.327145,612.876398
59416.957992,-74.020594,-9474.636058,1149.143247
59416.958302,-1850.514855,-7179.997637,0.000000
59416.958612,-74.020594,-9474.636058,1149.143247
59416.958922,-518.144159,-8956.491898,459.657299
59416.959231,-444.123565,-9030.512492,536.266849
59416.959541,-444.123565,-8586.388927,842.705048
59416.959851,0.000000,-7772.162391,1225.752797
59416.960161,0.000000,-9548.656652,1225.752797
59416.960471,1110.308913,-10658.965565,-76.609550
59416.960781,-3552.988522,-6587.832884,0.000000
59416.961091,1110.308913,-10584.944971,2221.676944
59416.961401,-74.020594,-9474.636058,-76.609550
59416.961710,518.144159,-9918.759623,995.924147
59416.962020,-74.020594,-9400.615463,842.705048
59416.962330,-518.144159,-9104.533087,383.047749
59416.962640,-74.020594,-9252.574275,1072.533697
59416.962950,-2368.659014,-7179.997637,0.000000
59416.963260,-1184.329507,-8364.327145,306.438199
59416.963570,296.082377,-10140.821405,3217.601092
59416.963880,-370.102971,-8290.306550,-76.609550
59416.964189,0.000000,-8956.491898,1225.752797
59416.964499,2294.638420,-11251.130318,2374.896044
59416.964809,-592.164754,-9104.533087,1225.752797
59416.965119,-148.041188,-9104.533087,1072.533697
59416.965429,-370.102971,-9030.512492,612.876398
59416.965739,-148.041188,-9252.574275,1225.752797
59416.966049,-1258.350101,-7772.162391,0.000000
59416.966359,-1776.494261,-7476.080014,0.000000
59416.966668,0.000000,-9548.656652,2451.505594
59416.966978,-74.020594,-9178.553681,-76.609550
59416.967288,0.000000,-8364.327145,153.219100
59416.967598,1702.473667,-11843.295072,3600.648841
59416.967908,0.000000,-8660.409521,689.485948
59416.968218,-148.041188,-9030.512492,766.095498
59416.968528,-296.082377,-9030.512492,919.314598
59416.968838,-518.144159,-9178.553681,842.705048
59416.969148,-74.020594,-8586.388927,-76.609550
59416.969457,-1184.329507,-8364.327145,229.828649
59416.969767,0.000000,-9548.656652,1838.629195
59416.970077,-74.020594,-9474.636058,-76.609550
59416.970387,0.000000,-8660.409521,919.314598
59416.970697,-962.267725,-7105.977043,76.609550
59416.971007,-74.020594,-9474.636058,1149.143247
59416.971317,-370.102971,-8808.450710,612.876398
59416.971627,-518.144159,-9030.512492,536.266849
59416.971936,-74.020594,-9400.615463,1149.143247
59416.972246,0.000000,-9548.656652,2451.505594
59416.972556,-74.020594,-9918.759623,1838.629195
59416.972866,-74.020594,-8882.471304,-76.609550
59416.973176,0.000000,-8364.327145,1225.752797
59416.973486,-74.020594,-9474.636058,842.705048
59416.973796,296.082377,-9474.636058,2374.896044
59416.974106,-740.205942,-8438.347739,306.438199
59416.974415,0.000000,-9252.574275,1225.752797
59416.974725,-444.123565,-9178.553681,536.266849
59416.975035,-296.082377,-9030.512492,919.314598
59416.975345,-666.185348,-8882.471304,-76.609550
59416.975655,-740.205942,-8290.306550,-76.609550
59416.975965,0.000000,-8364.327145,1225.752797
59416.976275,-74.020594,-9474.636058,1149.143247
59416.976585,0.000000,-7772.162391,612.876398
59416.976894,148.041188,-7254.018232,612.876398
59416.977204,1332.370696,-8882.471304,1455.581446
59416.977514,1110.308913,-8586.388927,1149.143247
59416.977824,1406.391290,-8882.471304,536.266849
59416.978134,1554.432478,-8956.491898,689.485948
59416.978444,2368.659014,-9178.553681,306.438199
59416.978754,2072.576638,-9548.656652,2451.505594
59416.979064,2294.638420,-8290.306550,-383.047749
59416.979374,2368.659014,-8660.409521,1225.752797
59416.979683,3923.091493,-8290.306550,-76.609550
59416.979993,3775.050304,-9474.636058,-76.609550
59416.980303,2072.576638,-8956.491898,0.000000
59416.980613,3182.885551,-9326.594869,306.438199
59416.980923,4071.132681,-9178.553681,842.705048
59416.981233,4885.359217,-9326.594869,1838.629195
59416.981543,4663.297435,-8586.388927,995.924147
59416.981853,5847.626942,-7994.224174,-76.609550
59416.982162,4737.318029,-8364.327145,1225.752797
59416.982472,6735.874072,-9178.553681,1149.143247
59416.982782,5921.647536,-9548.656652,3753.867940
59416.983092,5551.544565,-8364.327145,612.876398
59416.983402,6957.935855,-9474.636058,536.266849
59416.983712,6365.771101,-9400.615463,306.438199
59416.984022,5773.606348,-10140.821405,-536.266849
59416.984332,4885.359217,-11251.130318,-76.609550
59416.984641,3701.029710,-12509.480420,0.000000
59416.984951,4145.153275,-13767.830521,1991.848295
59416.985261,1702.473667,-10807.006753,-383.047749
59416.985571,1184.329507,-9548.656652,1838.629195
59416.985881,2294.638420,-5403.503377,-1608.800546
59416.986191,4663.297435,-5921.647536,1149.143247
59416.986501,5033.400406,-3997.112087,1532.190996
59416.986811,7402.059420,-4071.132681,2757.943793
59416.987120,8956.491898,-4737.318029,2451.505594
59416.987430,10066.800811,-5403.503377,2757.943793
59416.987740,7031.956449,-9474.636058,2374.896044
59416.988050,2886.803174,-12435.459826,-2221.676944
59416.988360,-3552.988522,-16062.468941,-3677.258390
59416.988670,-1850.514855,-20577.725188,-995.924147
59416.988980,-3627.009116,-14211.954086,-3140.991542
59416.989290,-4737.318029,-10140.821405,-1838.629195
59416.989600,-962.267725,-7328.038826,-76.609550
59416.989909,1332.370696,-5921.647536,2068.457845
59416.990219,3775.050304,-5847.626942,4519.963438
59416.990529,5847.626942,-4145.153275,4826.401637
59416.990839,1184.329507,-4219.173869,3677.258390
59416.991149,4071.132681,-6587.832884,8427.050478
59416.991459,2590.720797,-3849.070898,2757.943793
59416.991769,3849.070898,-3034.844362,4290.134789
59416.992079,4663.297435,-4737.318029,842.705048
59416.992388,2294.638420,-9474.636058,-689.485948
59416.992698,-3849.070898,-15840.407159,-2451.505594
59416.993008,-6365.771101,-19837.519246,-3524.039291
59416.993318,-7105.977043,-17690.922014,-4903.011187
59416.993628,-6513.812290,-11917.315666,-2451.505594
59416.993938,-370.102971,-8734.430116,-1302.362347
59416.994248,2886.803174,-4737.318029,1149.143247
59416.994558,3552.988522,-4811.338623,4903.011187
59416.994867,7031.956449,-4737.318029,4826.401637
59416.995177,5921.647536,-5551.544565,7660.954980
59416.995487,8290.306550,-3627.009116,6741.640382
59416.995797,9400.615463,-2960.823768,6052.154434
59416.996107,5847.626942,-5699.585753,4596.572988
59416.996417,1184.329507,-9474.636058,459.657299
59416.996727,-1258.350101,-14211.954086,-2528.115143
59416.997037,-4145.153275,-16654.633695,-4903.011187
59416.997346,-2368.659014,-17246.798449,-4596.572988
59416.997656,-4219.173869,-16580.613101,-4979.620737
59416.997966,-5921.647536,-13101.645173,-3677.258390
59416.998276,-1258.350101,-9770.718434,-2451.505594
59416.998586,6883.915261,-5921.647536,2681.334243
59416.998896,10955.047942,-2812.782580,6435.202183
59416.999206,14211.954086,-740.205942,7814.174080
59416.999516,12879.583391,-4959.379811,8350.440928
59416.999825,10658.965565,-7179.997637,7354.516781
59417.000135,7624.121203,-9326.594869,3600.648841
59417.000445,2146.597232,-9622.677246,842.705048
59417.000755,-888.247130,-12213.398043,-2145.067394
59417.001065,-4811.338623,-16580.613101,-5592.497135
59417.001375,592.164754,-15914.427753,-2528.115143
59417.001685,2368.659014,-14285.974681,-919.314598
59417.001995,3182.885551,-10362.883188,-383.047749
59417.002305,1258.350101,-10362.883188,-689.485948
59417.002614,3330.926739,-8142.265362,766.095498
59417.002924,8216.285956,-3108.864956,2145.067394
59417.003234,7994.224174,-3627.009116,4903.011187
59417.003544,5181.441594,-4367.215058,2681.334243
59417.003854,4589.276840,-6439.791695,1225.752797
59417.004164,6809.894666,-8068.244768,2298.286494
59417.004474,6809.894666,-11103.089130,3600.648841
59417.004784,0.000000,-11917.315666,229.828649
59417.005093,-4367.215058,-11917.315666,-5745.716235
59417.005403,-2368.659014,-14285.974681,-3370.820191
59417.005713,-666.185348,-12731.542202,-2528.115143
59417.006023,-74.020594,-10066.800811,-1455.581446
59417.006333,2738.761985,-7179.997637,459.657299
59417.006643,6513.812290,-5995.668130,3677.258390
59417.006953,9400.615463,-8290.306550,4826.401637
59417.007263,0.000000,-6587.832884,2451.505594
59417.007572,-2294.638420,-7179.997637,1225.752797
59417.007882,-74.020594,-7105.977043,-689.485948
59417.008192,-3552.988522,-8216.285956,-459.657299
59417.008502,-3182.885551,-7920.203579,-459.657299
59417.008812,-2294.638420,-9696.697840,689.485948
59417.009122,-3552.988522,-9844.739029,612.876398
59417.009432,-4811.338623,-12435.459826,-689.485948
59417.009742,-4737.318029,-10066.800811,306.438199
59417.010051,-2886.803174,-7624.121203,1378.971896
59417.010361,-2590.720797,-6587.832884,1608.800546
59417.010671,-962.267725,-5107.421000,229.828649
59417.010981,444.123565,-5699.585753,2068.457845
59417.011291,0.000000,-5995.668130,3983.696590
59417.011601,-3627.009116,-7698.141797,76.609550
59417.011911,-7105.977043,-10140.821405,0.000000
59417.012221,-7031.956449,-10140.821405,-1532.190996
59417.012531,-5403.503377,-12361.439231,-76.609550
59417.012840,-5551.544565,-8808.450710,-536.266849
59417.013150,-4367.215058,-9400.615463,919.314598
59417.013460,-2886.803174,-7994.224174,689.485948
59417.013770,-1258.350101,-10066.800811,1149.143247
59417.014080,-962.267725,-7550.100608,2374.896044
59417.014390,0.000000,-4811.338623,3677.258390
59417.014700,2294.638420,-7105.977043,3600.648841
59417.015010,814.226536,-6365.771101,2374.896044
59417.015319,1184.329507,-5699.585753,2451.505594
59417.015629,1110.308913,-9844.739029,1149.143247
59417.015939,-1554.432478,-11843.295072,0.000000
59417.016249,-3701.029710,-14137.933492,-383.047749
59417.016559,-5847.626942,-14211.954086,-2451.505594
59417.016869,-2590.720797,-14804.118840,-689.485948
59417.017179,-3034.844362,-11251.130318,-76.609550
59417.017489,0.000000,-7179.997637,0.000000
59417.017798,3404.947333,-9326.594869,4826.401637
59417.018108,740.205942,-6661.853478,2451.505594
59417.018418,1924.535449,-7031.956449,2451.505594
59417.018727,3775.050304,-6883.915261,3370.820191
59417.019037,4293.194464,-5403.503377,2911.162892
59417.019347,2664.741391,-6365.771101,1685.410096
59417.019656,2960.823768,-7624.121203,995.924147
59417.019966,4367.215058,-11843.295072,1149.143247
59417.020276,1998.556043,-13027.624579,-76.609550
59417.020585,-4145.153275,-11917.315666,-4290.134789
59417.020895,-1628.453072,-16580.613101,-1685.410096
59417.021205,-1850.514855,-13619.789333,-2528.115143
59417.021514,-74.020594,-11103.089130,-1991.848295
59417.021824,1850.514855,-6291.750507,0.000000
59417.022133,4219.173869,-6217.729913,2987.772442
59417.022443,4367.215058,-4589.276840,2528.115143
59417.022753,2590.720797,-7254.018232,2987.772442
59417.023062,3552.988522,-8216.285956,4443.353888
59417.023372,4663.297435,-8290.306550,3600.648841
59417.023682,0.000000,-4811.338623,0.000000
59417.023991,2072.576638,-11251.130318,1149.143247
59417.024301,-74.020594,-9474.636058,-1302.362347
59417.024611,-666.185348,-13619.789333,-2681.334243
59417.024920,-1184.329507,-12287.418637,-1532.190996
59417.025230,-3108.864956,-13767.830521,-1378.971896
59417.025540,-3701.029710,-13323.706956,-536.266849
59417.025849,-3552.988522,-9622.677246,-76.609550
59417.026159,-2368.659014,-7772.162391,2451.505594
59417.026468,3849.070898,-6439.791695,5056.230287
59417.026778,1110.308913,-4737.318029,1762.019645
59417.027088,0.000000,-4219.173869,2451.505594
59417.027397,888.247130,-8438.347739,3524.039291
59417.027707,2294.638420,-7698.141797,2374.896044
59417.028017,-1480.411884,-8364.327145,1225.752797
59417.028326,-3330.926739,-8512.368333,76.609550
59417.028636,-3034.844362,-11251.130318,-383.047749
59417.028946,-1406.391290,-11547.212695,1225.752797
59417.029255,-4145.153275,-10732.986159,306.438199
59417.029565,-3404.947333,-13101.645173,2451.505594
59417.029875,-2442.679609,-11843.295072,-76.609550
59417.030184,-4737.318029,-8364.327145,-1149.143247
59417.030494,-2220.617826,-7772.162391,1532.190996
59417.030803,962.267725,-5921.647536,4213.525239
59417.031113,1110.308913,-4367.215058,2757.943793
59417.031423,296.082377,-6069.688724,2604.724693
59417.031732,-1036.288319,-9474.636058,2374.896044
59417.032042,-1036.288319,-8956.491898,1225.752797
59417.032352,-2072.576638,-7179.997637,1838.629195
59417.032661,1480.411884,-11029.068536,4903.011187
59417.032971,-74.020594,-8290.306550,-76.609550
59417.033281,0.000000,-9844.739029,1225.752797
59417.033590,222.061783,-11547.212695,2374.896044
59417.033900,-1628.453072,-12879.583391,1762.019645
59417.034210,-2442.679609,-10807.006753,-919.314598
59417.034519,-3404.947333,-9918.759623,-1532.190996
59417.034829,-2664.741391,-8882.471304,-842.705048
59417.035138,-296.082377,-7179.997637,0.000000
59417.035448,0.000000,-5403.503377,0.000000
59417.035758,0.000000,-4811.338623,0.000000
59417.036067,1998.556043,-11251.130318,3294.210641
59417.036377,0.000000,-8364.327145,995.924147
59417.036687,1776.494261,-9548.656652,3677.258390
59417.036996,1480.411884,-8808.450710,3983.696590
59417.037306,2590.720797,-8290.306550,1762.019645
59417.037616,2442.679609,-8290.306550,1532.190996
59417.037925,1924.535449,-9104.533087,1225.752797
59417.038235,-370.102971,-8956.491898,-2068.457845
59417.038545,-1554.432478,-11547.212695,-3753.867940
59417.038854,-4515.256246,-9548.656652,-4519.963438
59417.039164,-2368.659014,-10732.986159,-1838.629195
59417.039473,-74.020594,-10658.965565,-689.485948
59417.039783,0.000000,-8068.244768,536.266849
59417.040093,0.000000,-7772.162391,612.876398
59417.040402,518.144159,-9844.739029,995.924147
59417.040712,962.267725,-9474.636058,1455.581446
59417.041022,1554.432478,-8586.388927,3447.429741
59417.041331,2368.659014,-6513.812290,2987.772442
59417.041641,4663.297435,-6809.894666,3600.648841
59417.041951,4071.132681,-3997.112087,1608.800546
59417.042260,3849.070898,-6587.832884,3677.258390
59417.042570,1702.473667,-7994.224174,-76.609550
59417.042880,-3997.112087,-10732.986159,-2145.067394
59417.043189,-5329.482782,-11917.315666,-4290.134789
59417.043499,-6291.750507,-13693.809927,-3907.087040
59417.043808,-4737.318029,-13101.645173,-2528.115143
59417.044118,-1332.370696,-8882.471304,-1225.752797
59417.044428,-666.185348,-10658.965565,2374.896044
59417.044737,2294.638420,-8290.306550,3600.648841
59417.045047,-962.267725,-7254.018232,1455.581446
59417.045357,1184.329507,-6587.832884,5515.887586
59417.045666,2886.803174,-6513.812290,5439.278036
59417.045976,0.000000,-3627.009116,3064.381992
59417.046286,1332.370696,-3330.926739,1838.629195
59417.046595,3330.926739,-5181.441594,3447.429741
59417.046905,1258.350101,-8364.327145,766.095498
59417.047215,-5107.421000,-12213.398043,-1915.238745
59417.047524,-6291.750507,-15840.407159,-2528.115143
59417.047834,-5181.441594,-16580.613101,-3064.381992
59417.048143,-1998.556043,-15248.242405,-229.828649
59417.048453,-2442.679609,-11251.130318,-1302.362347
59417.048763,-3552.988522,-8068.244768,0.000000
59417.049072,-74.020594,-8882.471304,1225.752797
59417.049382,518.144159,-7105.977043,3600.648841
59417.049692,2072.576638,-6143.709319,5669.106685
59417.050001,2368.659014,-5033.400406,5515.887586
59417.050311,2146.597232,-3775.050304,4366.744339
59417.050621,4589.276840,-6883.915261,5975.544884
59417.050930,3552.988522,-7550.100608,3677.258390
59417.051240,4663.297435,-9474.636058,3600.648841
59417.051549,-3034.844362,-10510.924376,-2604.724693
59417.051859,-5625.565159,-14582.057057,-3677.258390
59417.052169,-5107.421000,-16284.530724,-4903.011187
59417.052478,-4811.338623,-15396.283594,-3140.991542
59417.052788,-3552.988522,-11325.150913,-2451.505594
59417.053098,-1702.473667,-9844.739029,-1532.190996
59417.053407,-666.185348,-8290.306550,766.095498
59417.053717,592.164754,-7476.080014,2451.505594
59417.054027,1776.494261,-6291.750507,2757.943793
59417.054336,5403.503377,-7105.977043,6971.469032
59417.054646,2294.638420,-2442.679609,2834.553343
59417.054956,3552.988522,-3923.091493,5669.106685
59417.055265,5551.544565,-3997.112087,3600.648841
59417.055575,5847.626942,-7105.977043,2987.772442
59417.055884,444.123565,-10140.821405,-842.705048
59417.056194,-3923.091493,-14211.954086,-4290.134789
59417.056504,-5625.565159,-15544.324782,-4979.620737
59417.056813,-6513.812290,-14878.139434,-4903.011187
59417.057123,-3552.988522,-13101.645173,-2604.724693
59417.057433,-3552.988522,-9548.656652,-2451.505594
59417.057742,-74.020594,-9474.636058,-76.609550
59417.058052,-1036.288319,-6291.750507,0.000000
59417.058362,888.247130,-6809.894666,2987.772442
59417.058671,4663.297435,-7105.977043,5745.716235
59417.058981,3775.050304,-3849.070898,4213.525239
59417.059291,3404.947333,-3182.885551,4213.525239
59417.059600,3701.029710,-4367.215058,3753.867940
59417.059910,2368.659014,-4811.338623,1532.190996
59417.060219,1184.329507,-9474.636058,1149.143247
59417.060529,-4737.318029,-11917.315666,-3677.258390
59417.060839,-4367.215058,-17468.860231,-2528.115143
59417.061148,-5773.606348,-15692.365970,-4060.306139
59417.061458,-5773.606348,-15396.283594,-1915.238745
59417.061768,-1628.453072,-11251.130318,-919.314598
59417.062077,-1850.514855,-9030.512492,-995.924147
59417.062387,-1258.350101,-7698.141797,536.266849
59417.062697,296.082377,-6661.853478,2757.943793
59417.063006,740.205942,-5107.421000,3447.429741
59417.063316,2738.761985,-4293.194464,4979.620737
59417.063626,0.000000,-2442.679609,3677.258390
59417.063935,3849.070898,-5847.626942,5592.497135
59417.064245,4515.256246,-4885.359217,2374.896044
59417.064554,2590.720797,-9178.553681,3447.429741
59417.064864,-2072.576638,-13101.645173,1225.752797
59417.065174,-4293.194464,-14211.954086,-2528.115143
59417.065483,-5921.647536,-16210.510130,-3217.601092
59417.065793,-4811.338623,-14211.954086,-2451.505594
59417.066103,-3627.009116,-10658.965565,-1915.238745
59417.066412,-1850.514855,-9474.636058,-76.609550
59417.066722,-2960.823768,-5107.421000,0.000000
59417.067032,-1184.329507,-8364.327145,3064.381992
59417.067341,814.226536,-7698.141797,4213.525239
59417.067651,1924.535449,-7476.080014,5822.325785
59417.067961,1184.329507,-3034.844362,3677.258390
59417.068270,2812.782580,-3997.112087,4826.401637
59417.068580,4071.132681,-5181.441594,4749.792088
59417.068889,3923.091493,-6587.832884,3677.258390
59417.069199,2294.638420,-10658.965565,1149.143247
59417.069509,-1258.350101,-15396.283594,-689.485948
59417.069818,-4811.338623,-14063.912898,-4979.620737
59417.070128,-5921.647536,-14285.974681,-3370.820191
59417.070438,-2442.679609,-14211.954086,-1302.362347
59417.070747,-2960.823768,-8660.409521,-2451.505594
59417.071057,-2960.823768,-8364.327145,-2451.505594
59417.071367,-296.082377,-9178.553681,383.047749
59417.071676,148.041188,-9400.615463,1991.848295
59417.071986,1406.391290,-8216.285956,3753.867940
59417.072296,4071.132681,-7846.182985,5592.497135
59417.072605,6439.791695,-6513.812290,7737.564530
59417.072915,4663.297435,-2664.741391,4213.525239
59417.073224,4737.318029,-4811.338623,4903.011187
59417.073534,3478.967927,-8290.306550,2374.896044
59417.073844,-3552.988522,-10732.986159,0.000000
59417.074153,-5329.482782,-13101.645173,-4596.572988
59417.074463,-6217.729913,-14359.995275,-5056.230287
59417.074773,-5477.523971,-13471.748144,-4443.353888
59417.075082,-3330.926739,-10362.883188,-4443.353888
59417.075392,-74.020594,-10140.821405,-1225.752797
59417.075702,0.000000,-9548.656652,0.000000
59417.076011,2294.638420,-10658.965565,1762.019645
59417.076321,0.000000,-7772.162391,1532.190996
59417.076631,4589.276840,-10584.944971,7431.126331
59417.076940,888.247130,-3701.029710,3064.381992
59417.077250,4071.132681,-3256.906145,4826.401637
59417.077559,6217.729913,-3330.926739,5669.106685
59417.077869,5847.626942,-5329.482782,4903.011187
59417.078179,1702.473667,-8660.409521,1532.190996
59417.078488,-3256.906145,-12805.562797,-2451.505594
59417.078798,-8290.306550,-14285.974681,-4903.011187
59417.079108,-5329.482782,-14878.139434,-3600.648841
59417.079417,-4811.338623,-13027.624579,-3753.867940
59417.079727,-7105.977043,-7179.997637,-4903.011187
59417.080037,-3627.009116,-8438.347739,-2834.553343
59417.080346,-666.185348,-10658.965565,-76.609550
59417.080656,0.000000,-9844.739029,2221.676944
59417.080966,1406.391290,-7476.080014,4673.182538
59417.081275,2294.638420,-5921.647536,6281.983084
59417.081585,2368.659014,-2442.679609,6128.763984
59417.081894,6957.935855,-2886.803174,6665.030833
59417.082204,6513.812290,-4811.338623,7354.516781
59417.082514,4071.132681,-7698.141797,3600.648841
59417.082823,-5921.647536,-9844.739029,0.000000
59417.083133,-5107.421000,-13619.789333,-4366.744339
59417.083443,-5403.503377,-15396.283594,-4979.620737
59417.083752,-7105.977043,-13471.748144,-4903.011187
59417.084062,-4885.359217,-11325.150913,-3830.477490
59417.084372,-3552.988522,-9844.739029,-2451.505594
59417.084681,-3404.947333,-8660.409521,-2451.505594
59417.084991,-2146.597232,-8364.327145,0.000000
59417.085301,0.000000,-7476.080014,4903.011187
59417.085610,3923.091493,-7105.977043,6665.030833
59417.085920,0.000000,-1258.350101,3677.258390
59417.086229,7031.956449,-2960.823768,6052.154434
59417.086539,8216.285956,-4441.235652,7660.954980
59417.086849,5181.441594,-5255.462188,4519.963438
59417.087158,0.000000,-9696.697840,-612.876398
59417.087468,-4811.338623,-14508.036463,-3140.991542
59417.087778,-6587.832884,-14063.912898,-4979.620737
59417.088087,-5995.668130,-14804.118840,-4979.620737
59417.088397,-6217.729913,-11325.150913,-6128.763984
59417.088707,-2664.741391,-11547.212695,-2528.115143
59417.089016,-3627.009116,-8512.368333,-4366.744339
59417.089326,-74.020594,-13027.624579,-76.609550
59417.089636,1184.329507,-9400.615463,2911.162892
59417.089945,1850.514855,-7105.977043,4596.572988
59417.090255,1702.473667,-5181.441594,5286.058936
59417.090564,4737.318029,-3108.864956,6588.421283
59417.090874,7920.203579,-2368.659014,7124.688131
59417.091184,8808.450710,-4737.318029,6971.469032
59417.091493,1184.329507,-6735.874072,1532.190996
59417.091803,-2072.576638,-12287.418637,-76.609550
59417.092113,-4811.338623,-15396.283594,-4979.620737
59417.092422,-5033.400406,-16062.468941,-3677.258390
59417.092732,-5625.565159,-12509.480420,-4903.011187
59417.093042,-3256.906145,-12139.377449,-3524.039291
59417.093351,-2146.597232,-9104.533087,-3753.867940
59417.093661,-1480.411884,-11029.068536,-1455.581446
59417.093971,-74.020594,-11251.130318,612.876398
59417.094280,1702.473667,-10955.047942,3907.087040
59417.094590,0.000000,-4811.338623,2911.162892
59417.094899,3552.988522,-5995.668130,8886.707777
59417.095209,8216.285956,-2368.659014,6665.030833
59417.095519,7105.977043,-3034.844362,8886.707777
59417.095828,3256.906145,-4811.338623,4903.011187
59417.096138,222.061783,-9178.553681,919.314598
59417.096448,-2960.823768,-12139.377449,-1915.238745
59417.096757,-4663.297435,-12509.480420,-3830.477490
59417.097067,-4811.338623,-14211.954086,-3294.210641
59417.097377,-3627.009116,-13323.706956,-2834.553343
59417.097686,-3034.844362,-11843.295072,-3753.867940
59417.097996,-3182.885551,-8364.327145,-5362.668486
59417.098306,-3552.988522,-10140.821405,0.000000
59417.098615,-1776.494261,-8660.409521,3064.381992
59417.098925,148.041188,-6883.915261,3983.696590
59417.099234,2368.659014,-7031.956449,6052.154434
59417.099544,4737.318029,-4515.256246,7048.078582
59417.099854,6883.915261,-2960.823768,6741.640382
59417.100163,6661.853478,-5403.503377,6435.202183
59417.100473,1776.494261,-8364.327145,3677.258390
59417.100783,-1554.432478,-12435.459826,-76.609550
59417.101092,-5921.647536,-12509.480420,-3677.258390
59417.101402,-4811.338623,-15988.448347,-2528.115143
59417.101712,-9474.636058,-10732.986159,-6741.640382
59417.102021,-4811.338623,-9918.759623,-4979.620737
59417.102331,-4367.215058,-10140.821405,-3217.601092
59417.102641,-1258.350101,-9474.636058,-1532.190996
59417.102950,-1332.370696,-10881.027347,1378.971896
59417.103260,0.000000,-7476.080014,3064.381992
59417.103569,1184.329507,-6587.832884,5669.106685
59417.103879,5551.544565,-7105.977043,8197.221829
59417.104189,5625.565159,-1258.350101,3677.258390
59417.104498,8290.306550,-4811.338623,8733.488677
59417.104808,2146.597232,-4293.194464,2451.505594
59417.105118,-666.185348,-9474.636058,-383.047749
59417.105427,-4515.256246,-12805.562797,-2911.162892
59417.105737,-5699.585753,-13619.789333,-5056.230287
59417.106047,-6661.853478,-13249.686362,-5286.058936
59417.106356,-6513.812290,-11917.315666,-5822.325785
59417.106666,-4737.318029,-10732.986159,-4290.134789
59417.106975,-1258.350101,-13027.624579,-1302.362347
59417.107285,-666.185348,-10658.965565,-689.485948
59417.107595,0.000000,-9548.656652,2451.505594
59417.107904,1702.473667,-5773.606348,3294.210641
59417.108214,4663.297435,-5921.647536,7277.907231
59417.108524,6661.853478,-1998.556043,6971.469032
59417.108833,7772.162391,-1924.535449,7048.078582
59417.109143,4441.235652,-4885.359217,4596.572988
59417.109453,-1184.329507,-8586.388927,383.047749
59417.109762,-5625.565159,-10140.821405,-3677.258390
59417.110072,-5329.482782,-13989.892304,-3064.381992
59417.110382,-3923.091493,-16580.613101,-2528.115143
59417.110691,-5403.503377,-11843.295072,-6818.249932
59417.111001,-2442.679609,-13027.624579,-4979.620737
59417.111310,-1258.350101,-13027.624579,-2145.067394
59417.111620,-666.185348,-10955.047942,-842.705048
59417.111930,-888.247130,-11029.068536,1762.019645
59417.112239,888.247130,-7476.080014,4060.306139
59417.112549,2294.638420,-5255.462188,6665.030833
59417.112859,5255.462188,-2664.741391,7277.907231
59417.113168,7105.977043,-74.020594,7967.393179
59417.113478,8216.285956,-4737.318029,8503.660028
59417.113788,296.082377,-4219.173869,919.314598
59417.114097,-74.020594,-11843.295072,-76.609550
59417.114407,-2886.803174,-13619.789333,-2298.286494
59417.114717,-4515.256246,-13989.892304,-3983.696590
59417.115026,-6069.688724,-13545.768739,-5362.668486
59417.115336,-5773.606348,-13619.789333,-5209.449386
59417.115645,-3330.926739,-13175.665768,-2528.115143
59417.115955,-1850.514855,-11251.130318,-2834.553343
59417.116265,-3552.988522,-10140.821405,0.000000
59417.116574,296.082377,-10732.986159,5669.106685
59417.116884,2294.638420,-6513.812290,4519.963438
59417.117194,5551.544565,-5921.647536,9729.412825
59417.117503,6217.729913,-666.185348,8120.612279
59417.117813,7328.038826,-888.247130,7354.516781
59417.118123,3552.988522,-4811.338623,5515.887586
59417.118432,1036.288319,-7624.121203,1532.190996
59417.118742,-666.185348,-11103.089130,-612.876398
59417.119052,-2442.679609,-13027.624579,-2528.115143
59417.119361,-6957.935855,-12509.480420,-5669.106685
59417.119671,-7105.977043,-11917.315666,-4903.011187
59417.119980,-3034.844362,-14211.954086,-3140.991542
59417.120290,-4145.153275,-13619.789333,-995.924147
59417.120600,-3552.988522,-10732.986159,-2298.286494
59417.120910,-1554.432478,-10584.944971,995.924147
59417.121220,296.082377,-6587.832884,2987.772442
59417.121529,2294.638420,-5773.606348,5515.887586
59417.121839,5847.626942,-2442.679609,6128.763984
59417.122149,8216.285956,-3256.906145,8197.221829
59417.122459,6143.709319,-5107.421000,8503.660028
59417.122769,0.000000,-5255.462188,612.876398
59417.123078,-296.082377,-12361.439231,1838.629195
59417.123388,-2812.782580,-13101.645173,-306.438199
59417.123698,-5921.647536,-11917.315666,-2451.505594
59417.124008,-3034.844362,-15100.201217,-3140.991542
59417.124317,-4811.338623,-12657.521608,-5898.935335
59417.124627,-3330.926739,-12139.377449,-3907.087040
59417.124937,-2516.700203,-12361.439231,-3064.381992
59417.125247,-666.185348,-11251.130318,-689.485948
59417.125557,-1850.514855,-8734.430116,1149.143247
59417.125866,0.000000,-4811.338623,3677.258390
59417.126176,7031.956449,-7698.141797,8120.612279
59417.126486,7698.141797,-4145.153275,9499.584175
59417.126796,4737.318029,-1850.514855,5515.887586
59417.127105,2368.659014,-6809.894666,3907.087040
59417.127415,296.082377,-8956.491898,1455.581446
59417.127725,-1850.514855,-11399.171507,-689.485948
59417.128035,-3034.844362,-12213.398043,-3677.258390
59417.128345,-3627.009116,-14211.954086,-3140.991542
59417.128654,-3923.091493,-11695.253884,-4673.182538
59417.128964,-6513.812290,-9548.656652,-4903.011187
59417.129274,-4145.153275,-11325.150913,-2451.505594
59417.129584,-2960.823768,-10140.821405,0.000000
59417.129893,-1998.556043,-8956.491898,383.047749
59417.130203,1332.370696,-7254.018232,3600.648841
59417.130513,3108.864956,-7254.018232,6205.373534
59417.130823,5551.544565,-4219.173869,7277.907231
59417.131133,6365.771101,-3182.885551,5515.887586
59417.131442,2960.823768,-5033.400406,4519.963438
59417.131752,1110.308913,-8882.471304,2681.334243
59417.132062,0.000000,-9548.656652,1532.190996
59417.132372,-74.020594,-13027.624579,-76.609550
59417.132681,-4737.318029,-10732.986159,-3370.820191
59417.132991,-4589.276840,-11177.109724,-4519.963438
59417.133301,-3552.988522,-11621.233289,-3524.039291
59417.133611,-3256.906145,-11177.109724,-3370.820191
59417.133921,-2960.823768,-10436.903782,-2987.772442
59417.134230,-2960.823768,-10362.883188,-1915.238745
59417.134540,-1776.494261,-9548.656652,1532.190996
59417.134850,3478.967927,-9400.615463,6052.154434
59417.135160,3478.967927,-3627.009116,3753.867940
59417.135470,7105.977043,-5107.421000,7967.393179
59417.135779,3552.988522,-2442.679609,4290.134789
59417.136089,2590.720797,-6809.894666,3524.039291
59417.136399,0.000000,-8438.347739,1838.629195
59417.136709,-1702.473667,-10066.800811,306.438199
59417.137018,-3627.009116,-12213.398043,-2604.724693
59417.137328,-4441.235652,-11251.130318,-4060.306139
59417.137638,-5921.647536,-10732.986159,-4903.011187
59417.137948,-2960.823768,-12065.356855,-2451.505594
59417.138258,-1258.350101,-13027.624579,-2528.115143
59417.138567,-3701.029710,-9474.636058,-2834.553343
59417.138877,-3923.091493,-8808.450710,-1838.629195
59417.139187,1554.432478,-9474.636058,2374.896044
59417.139497,3923.091493,-7328.038826,5745.716235
59417.139806,5773.606348,-5477.523971,6971.469032
59417.140116,4663.297435,-4737.318029,6052.154434
59417.140426,3256.906145,-6809.894666,5439.278036
59417.140736,0.000000,-6291.750507,2451.505594
59417.141046,1406.391290,-9474.636058,4213.525239
59417.141355,-1850.514855,-7698.141797,-2068.457845
59417.141665,-4737.318029,-10732.986159,-2451.505594
59417.141975,-3034.844362,-10658.965565,-5898.935335
59417.142285,-4145.153275,-12435.459826,-3907.087040
59417.142594,-4515.256246,-11547.212695,-3907.087040
59417.142904,-5255.462188,-11029.068536,-3983.696590
59417.143214,-2960.823768,-10584.944971,-2145.067394
59417.143524,-74.020594,-11843.295072,2987.772442
59417.143834,1998.556043,-8438.347739,4213.525239
59417.144143,2960.823768,-5403.503377,4903.011187
59417.144453,7031.956449,-7105.977043,7277.907231
59417.144763,1184.329507,-3330.926739,3677.258390
59417.145073,3182.885551,-6513.812290,4826.401637
59417.145382,888.247130,-7179.997637,2757.943793
59417.145692,-74.020594,-8290.306550,919.314598
59417.146002,-2738.761985,-10436.903782,-1608.800546
59417.146312,-3627.009116,-10881.027347,-3524.039291
59417.146622,-1850.514855,-13175.665768,-2221.676944
59417.146931,-2664.741391,-11251.130318,-2987.772442
59417.147241,-5403.503377,-13027.624579,-3753.867940
59417.147551,-4737.318029,-9548.656652,-3677.258390
59417.147861,0.000000,-10584.944971,1532.190996
59417.148171,4071.132681,-11251.130318,4826.401637
59417.148480,2664.741391,-6957.935855,4903.011187
59417.148790,2960.823768,-7105.977043,5975.544884
59417.149100,2886.803174,-5255.462188,5056.230287
59417.149410,222.061783,-6735.874072,3600.648841
59417.149719,1924.535449,-7179.997637,3370.820191
59417.150029,0.000000,-8956.491898,2451.505594
59417.150339,-1184.329507,-7179.997637,0.000000
59417.150649,-888.247130,-13175.665768,-76.609550
59417.150959,-1258.350101,-11251.130318,-2528.115143
59417.151268,-1184.329507,-11695.253884,-1302.362347
59417.151578,-4145.153275,-11325.150913,-3370.820191
59417.151888,-4663.297435,-11103.089130,-3677.258390
59417.152198,-3478.967927,-11917.315666,-2145.067394
59417.152507,-740.205942,-9844.739029,153.219100
59417.152817,2368.659014,-8364.327145,3677.258390
59417.153127,4367.215058,-6587.832884,5975.544884
59417.153437,3478.967927,-5329.482782,4826.401637
59417.153747,1776.494261,-6587.832884,6128.763984
59417.154056,3478.967927,-6809.894666,4213.525239
59417.154366,2368.659014,-7476.080014,5362.668486
59417.154676,0.000000,-7476.080014,1302.362347
59417.154986,-1776.494261,-9178.553681,-919.314598
59417.155295,-2072.576638,-9992.780217,-2834.553343
59417.155605,-2442.679609,-11547.212695,-3140.991542
59417.155915,-4737.318029,-10140.821405,-4596.572988
59417.156225,-5625.565159,-13249.686362,-4213.525239
59417.156535,-2738.761985,-14211.954086,-689.485948
59417.156844,-3627.009116,-9548.656652,-2221.676944
59417.157154,592.164754,-9548.656652,2757.943793
59417.157464,3552.988522,-8068.244768,5515.887586
59417.157774,3923.091493,-6217.729913,5745.716235
59417.158083,2368.659014,-6513.812290,4596.572988
59417.158393,2442.679609,-6587.832884,4136.915689
59417.158703,3478.967927,-6513.812290,4060.306139
59417.159013,592.164754,-5403.503377,1225.752797
59417.159323,-962.267725,-8882.471304,689.485948
59417.159632,-1850.514855,-13027.624579,-76.609550
59417.159942,-4737.318029,-8660.409521,-6128.763984
59417.160252,-4737.318029,-11917.315666,-3677.258390
59417.160562,-5625.565159,-12213.398043,-3677.258390
59417.160872,-4811.338623,-13323.706956,-3140.991542
59417.161181,-2516.700203,-10881.027347,-1455.581446
59417.161491,148.041188,-10288.862594,1991.848295
59417.161801,2516.700203,-7846.182985,4290.134789
59417.162111,4663.297435,-4885.359217,5439.278036
59417.162420,3182.885551,-5625.565159,6588.421283
59417.162730,3478.967927,-8290.306550,7277.907231
59417.163040,0.000000,-3627.009116,2451.505594
59417.163350,2146.597232,-8290.306550,4213.525239
59417.163660,-2368.659014,-6587.832884,0.000000
59417.163969,-1850.514855,-10288.862594,-1302.362347
59417.164279,-2738.761985,-10584.944971,-2757.943793
59417.164589,-3034.844362,-11177.109724,-3524.039291
59417.164899,-3478.967927,-12435.459826,-2834.553343
59417.165208,-4811.338623,-13027.624579,-3753.867940
59417.165518,-4737.318029,-10732.986159,-3447.429741
59417.165828,-3552.988522,-9548.656652,0.000000
59417.166138,4071.132681,-9474.636058,4213.525239
59417.166448,3034.844362,-5477.523971,4290.134789
59417.166757,2960.823768,-4219.173869,6128.763984
59417.167067,2812.782580,-6217.729913,6128.763984
59417.167377,2664.741391,-5847.626942,4749.792088
59417.167687,2590.720797,-6661.853478,4366.744339
59417.167996,222.061783,-7920.203579,2374.896044
59417.168306,-666.185348,-9474.636058,-76.609550
59417.168616,-4293.194464,-9548.656652,-3677.258390
59417.168926,-7105.977043,-9548.656652,-4903.011187
59417.169236,-3034.844362,-14211.954086,-3140.991542
59417.169545,-4811.338623,-13619.789333,-4366.744339
59417.169855,-4811.338623,-11843.295072,-5745.716235
59417.170165,-1776.494261,-11029.068536,0.000000
59417.170475,1258.350101,-8734.430116,2451.505594
59417.170784,3849.070898,-6661.853478,4903.011187
59417.171094,4885.359217,-4737.318029,6052.154434
59417.171404,4663.297435,-8290.306550,7277.907231
59417.171714,1998.556043,-7105.977043,3600.648841
59417.172024,0.000000,-4811.338623,2451.505594
59417.172333,2294.638420,-9474.636058,3600.648841
59417.172643,-3552.988522,-7179.997637,-1225.752797
59417.172953,-2146.597232,-9178.553681,-2528.115143
59417.173263,-1850.514855,-10140.821405,-2681.334243
59417.173573,-2516.700203,-11399.171507,-3064.381992
59417.173882,-4367.215058,-13249.686362,-3064.381992
59417.174192,-5329.482782,-13915.871710,-1915.238745
59417.174502,-1332.370696,-13027.624579,-76.609550
59417.174812,-74.020594,-11547.212695,2374.896044
59417.175121,0.000000,-5107.421000,1225.752797
59417.175431,5255.462188,-7105.977043,6894.859482
59417.175741,2294.638420,-5329.482782,4519.963438
59417.176051,3478.967927,-5921.647536,4213.525239
59417.176361,1628.453072,-6291.750507,3677.258390
59417.176670,740.205942,-7031.956449,2834.553343
59417.176980,-1776.494261,-7994.224174,459.657299
59417.177290,-1776.494261,-8808.450710,-919.314598
59417.177600,0.000000,-9548.656652,0.000000
59417.177909,-74.020594,-11103.089130,-76.609550
59417.178219,-1258.350101,-12435.459826,-3140.991542
59417.178529,-7105.977043,-11325.150913,-4903.011187
59417.178839,-2664.741391,-13101.645173,-1685.410096
59417.179149,-74.020594,-11843.295072,-76.609550
59417.179458,1110.308913,-8068.244768,1915.238745
59417.179768,2812.782580,-7254.018232,3294.210641
59417.180078,2886.803174,-6883.915261,4519.963438
59417.180388,2072.576638,-7476.080014,3677.258390
59417.180697,1184.329507,-5995.668130,3677.258390
59417.181007,1850.514855,-7105.977043,4290.134789
59417.181317,-74.020594,-8290.306550,1762.019645
59417.181627,-2368.659014,-7179.997637,0.000000
59417.181937,-74.020594,-9474.636058,-76.609550
59417.182246,-740.205942,-11251.130318,-76.609550
59417.182556,-1406.391290,-10140.821405,-2298.286494
59417.182866,-3775.050304,-13101.645173,-2528.115143
59417.183176,-3701.029710,-12065.356855,-2911.162892
59417.183485,-2738.761985,-10881.027347,-2145.067394
59417.183795,-2368.659014,-6587.832884,0.000000
59417.184105,1776.494261,-8956.491898,3064.381992
59417.184415,4663.297435,-9474.636058,3600.648841
59417.184725,0.000000,-5995.668130,2451.505594
59417.185034,2294.638420,-9178.553681,5439.278036
59417.185344,1628.453072,-8660.409521,4979.620737
59417.185654,666.185348,-7550.100608,3370.820191
59417.185964,0.000000,-7402.059420,1455.581446
59417.186274,1036.288319,-8216.285956,1225.752797
59417.186583,1554.432478,-6587.832884,-1838.629195
59417.186893,-3330.926739,-8216.285956,-4903.011187
59417.187203,-4737.318029,-10732.986159,-4903.011187
59417.187513,-3849.070898,-14063.912898,-1532.190996
59417.187822,-2442.679609,-13027.624579,-1915.238745
59417.188132,-3552.988522,-8956.491898,-995.924147
59417.188442,0.000000,-8660.409521,1838.629195
59417.188752,2886.803174,-8808.450710,3600.648841
59417.189062,2516.700203,-7772.162391,4290.134789
59417.189371,1850.514855,-8364.327145,3983.696590
59417.189681,2072.576638,-6957.935855,2987.772442
59417.189991,814.226536,-6439.791695,1762.019645
59417.190301,-1776.494261,-5995.668130,0.000000
59417.190610,3182.885551,-9474.636058,2987.772442
59417.190920,0.000000,-6143.709319,-766.095498
59417.191230,0.000000,-8364.327145,1378.971896
59417.191540,-2368.659014,-9548.656652,-2451.505594
59417.191850,-4071.132681,-13249.686362,-2298.286494
59417.192159,-4219.173869,-12065.356855,-3294.210641
59417.192469,-2368.659014,-10362.883188,-1608.800546
59417.192779,0.000000,-8882.471304,842.705048
59417.193089,2294.638420,-8290.306550,1762.019645
59417.193398,1406.391290,-5995.668130,612.876398
59417.193708,1184.329507,-9548.656652,4903.011187
59417.194018,2294.638420,-9474.636058,3600.648841
59417.194328,0.000000,-6291.750507,3677.258390
59417.194638,0.000000,-5107.421000,1838.629195
59417.194947,-74.020594,-7846.182985,2068.457845
59417.195257,444.123565,-7402.059420,842.705048
59417.195567,1406.391290,-7402.059420,76.609550
59417.195877,-814.226536,-11843.295072,-76.609550
59417.196187,-2442.679609,-13027.624579,-1302.362347
59417.196496,-5921.647536,-11843.295072,-4979.620737
59417.196806,-6809.894666,-9548.656652,-3064.381992
59417.197116,-1258.350101,-10658.965565,-229.828649
59417.197426,-666.185348,-8808.450710,0.000000
59417.197735,1998.556043,-5403.503377,995.924147
59417.198045,1480.411884,-8512.368333,3677.258390
59417.198355,1998.556043,-8068.244768,3983.696590
59417.198665,740.205942,-8586.388927,3140.991542
59417.198975,1702.473667,-8290.306550,4826.401637
59417.199284,-74.020594,-9474.636058,4213.525239
59417.199594,-74.020594,-8882.471304,-76.609550
59417.199904,0.000000,-5995.668130,612.876398
59417.200214,2294.638420,-10658.965565,1455.581446
59417.200523,-3256.906145,-9548.656652,-4903.011187
59417.200833,-6957.935855,-10732.986159,-4443.353888
59417.201143,-3923.091493,-10140.821405,-2451.505594
59417.201453,-1924.535449,-10288.862594,-612.876398
59417.201763,-370.102971,-7772.162391,0.000000
59417.202072,1702.473667,-9474.636058,3217.601092
59417.202382,4515.256246,-10658.965565,4826.401637
59417.202692,2294.638420,-9474.636058,2987.772442
59417.203002,0.000000,-7179.997637,2451.505594
59417.203311,1702.473667,-9474.636058,3294.210641
59417.203621,-2072.576638,-7179.997637,0.000000
59417.203931,0.000000,-5403.503377,0.000000
59417.204241,1332.370696,-8808.450710,1991.848295
59417.204551,814.226536,-7550.100608,306.438199
59417.204860,-1924.535449,-9030.512492,-1685.410096
59417.205170,-2442.679609,-12731.542202,-76.609550
59417.205480,-666.185348,-13027.624579,-76.609550
59417.205790,-666.185348,-10658.965565,-1302.362347
59417.206099,-1480.411884,-7179.997637,-1225.752797
59417.206409,2664.741391,-9474.636058,2757.943793
59417.206719,2812.782580,-8586.388927,612.876398
59417.207029,0.000000,-7920.203579,306.438199
59417.207339,592.164754,-9770.718434,2451.505594
59417.207648,592.164754,-9400.615463,2298.286494
59417.207958,-1776.494261,-8660.409521,1225.752797
59417.208268,-74.020594,-10362.883188,2374.896044
59417.208578,3478.967927,-9474.636058,4826.401637
59417.208888,3182.885551,-6809.894666,-76.609550
59417.209197,0.000000,-7179.997637,612.876398
59417.209507,-666.185348,-11843.295072,-689.485948
59417.209817,-3330.926739,-9178.553681,-3677.258390
59417.210127,-2738.761985,-9474.636058,-2221.676944
59417.210436,-1554.432478,-8660.409521,-766.095498
59417.210746,0.000000,-9252.574275,459.657299
59417.211056,1258.350101,-8660.409521,1608.800546
59417.211366,1924.535449,-10436.903782,3064.381992
59417.211676,1036.288319,-11843.295072,4826.401637
59417.211985,-74.020594,-9474.636058,-76.609550
59417.212295,-2368.659014,-8364.327145,2451.505594
59417.212605,-74.020594,-8882.471304,1762.019645
59417.212915,0.000000,-4811.338623,0.000000
59417.213224,4071.132681,-5921.647536,2987.772442
59417.213534,814.226536,-6439.791695,842.705048
59417.213844,-1998.556043,-10066.800811,-1149.143247
59417.214154,-3330.926739,-11325.150913,-1915.238745
59417.214464,-2960.823768,-10140.821405,-1225.752797
59417.214773,-1776.494261,-11325.150913,612.876398
59417.215083,1184.329507,-11843.295072,2451.505594
59417.215393,-74.020594,-8290.306550,-76.609550
59417.215703,0.000000,-9844.739029,1838.629195
59417.216012,-74.020594,-10658.965565,1762.019645
59417.216322,1406.391290,-11547.212695,2987.772442
59417.216632,-1554.432478,-8438.347739,1532.190996
59417.216942,-2368.659014,-7624.121203,1762.019645
59417.217252,0.000000,-6661.853478,2068.457845
59417.217561,1184.329507,-4219.173869,1532.190996
59417.217871,0.000000,-4811.338623,1225.752797
59417.218181,0.000000,-9548.656652,1225.752797
59417.218491,-666.185348,-12435.459826,-76.609550
59417.218800,-4071.132681,-10140.821405,-2451.505594
59417.219110,-2368.659014,-10362.883188,-76.609550
59417.219420,-444.123565,-11473.192101,-76.609550
59417.219730,-222.061783,-9400.615463,612.876398
59417.220040,666.185348,-9992.780217,1149.143247
59417.220349,148.041188,-10955.047942,1455.581446
59417.220659,-2368.659014,-9548.656652,0.000000
59417.220969,-3552.988522,-5995.668130,612.876398
59417.221279,-4737.318029,-4811.338623,0.000000
59417.221588,1702.473667,-8290.306550,4060.306139
59417.221898,1184.329507,-4441.235652,1762.019645
59417.222208,4663.297435,-7105.977043,4673.182538
59417.222518,1184.329507,-8808.450710,1838.629195
59417.222827,-1258.350101,-11621.233289,-612.876398
59417.223137,-3923.091493,-11695.253884,-2221.676944
59417.223447,-1924.535449,-11177.109724,-1225.752797
59417.223757,-1258.350101,-8808.450710,-2221.676944
59417.224066,-1776.494261,-7772.162391,-1762.019645
59417.224376,0.000000,-7179.997637,0.000000
59417.224686,2886.803174,-12657.521608,3447.429741
59417.224996,518.144159,-10066.800811,1149.143247
59417.225305,1036.288319,-10436.903782,3830.477490
59417.225615,-2072.576638,-7179.997637,2451.505594
59417.225925,-444.123565,-6587.832884,1838.629195
59417.226235,1480.411884,-5995.668130,2757.943793
59417.226544,3108.864956,-5477.523971,2451.505594
59417.226854,2294.638420,-7105.977043,-76.609550
59417.227164,-1258.350101,-9474.636058,-1302.362347
59417.227474,-4737.318029,-8364.327145,-3677.258390
59417.227783,-2368.659014,-10732.986159,0.000000
59417.228093,-666.185348,-10658.965565,-76.609550
59417.228403,-592.164754,-9844.739029,612.876398
59417.228713,0.000000,-9548.656652,0.000000
59417.229022,1702.473667,-10658.965565,1532.190996
59417.229332,444.123565,-10214.842000,1149.143247
59417.229642,-296.082377,-10140.821405,1685.410096
59417.229952,-74.020594,-9474.636058,2374.896044
59417.230261,-74.020594,-8290.306550,2374.896044
59417.230571,-74.020594,-5921.647536,-76.609550
59417.230881,592.164754,-4811.338623,2451.505594
59417.231191,3182.885551,-7105.977043,1149.143247
59417.231500,-2368.659014,-7179.997637,0.000000
59417.231810,-4441.235652,-10140.821405,-2068.457845
59417.232120,-2738.761985,-10881.027347,-1225.752797
59417.232430,-2220.617826,-10362.883188,-306.438199
59417.232739,-222.061783,-9548.656652,612.876398
59417.233049,2886.803174,-11547.212695,3600.648841
59417.233359,4663.297435,-11251.130318,4213.525239
59417.233669,518.144159,-7254.018232,-383.047749
59417.233978,0.000000,-10140.821405,2451.505594
59417.234288,-666.185348,-8290.306550,1149.143247
59417.234598,-4737.318029,-7772.162391,0.000000
59417.234908,-1850.514855,-7254.018232,229.828649
59417.235217,0.000000,-6735.874072,766.095498
59417.235527,962.267725,-6735.874072,842.705048
59417.235837,-1110.308913,-8586.388927,76.609550
59417.236147,-1776.494261,-10584.944971,995.924147
59417.236456,-74.020594,-12953.603985,1838.629195
59417.236766,-74.020594,-11843.295072,2374.896044
59417.237076,-2220.617826,-7772.162391,0.000000
59417.237386,888.247130,-8438.347739,2451.505594
59417.237695,1110.308913,-7179.997637,0.000000
59417.238005,1702.473667,-9178.553681,1149.143247
59417.238315,-1480.411884,-10066.800811,536.266849
59417.238625,-1480.411884,-10214.842000,459.657299
59417.238934,-2146.597232,-9474.636058,383.047749
59417.239244,-2960.823768,-9548.656652,1225.752797
59417.239554,-1184.329507,-8364.327145,0.000000
59417.239864,3478.967927,-9474.636058,2374.896044
59417.240173,-1628.453072,-6143.709319,0.000000
59417.240483,-1628.453072,-10140.821405,1532.190996
59417.240793,-666.185348,-9178.553681,-383.047749
59417.241103,-74.020594,-10362.883188,1915.238745
59417.241412,518.144159,-8142.265362,1378.971896
59417.241722,1406.391290,-8142.265362,1762.019645
59417.242032,2442.679609,-7476.080014,1915.238745
59417.242342,0.000000,-7179.997637,612.876398
59417.242652,0.000000,-9548.656652,0.000000
59417.242961,-2368.659014,-11917.315666,0.000000
59417.243271,-1554.432478,-12731.542202,-383.047749
59417.243581,-5181.441594,-9548.656652,-3677.258390
59417.243891,-666.185348,-9474.636058,-76.609550
59417.244200,1702.473667,-9178.553681,2068.457845
59417.244510,1110.308913,-7031.956449,1302.362347
59417.244820,-518.144159,-8438.347739,995.924147
59417.245130,-592.164754,-9178.553681,1225.752797
59417.245439,0.000000,-5995.668130,0.000000
59417.245749,0.000000,-5403.503377,0.000000
59417.246059,0.000000,-6587.832884,1838.629195
59417.246369,4071.132681,-8882.471304,2987.772442
59417.246678,1036.288319,-7179.997637,1991.848295
59417.246988,-74.020594,-11843.295072,-76.609550
59417.247298,-2072.576638,-12361.439231,306.438199
59417.247608,-2664.741391,-13249.686362,-1072.533697
59417.247917,-3330.926739,-12509.480420,-919.314598
59417.248227,-2146.597232,-10362.883188,-612.876398
59417.248537,-1554.432478,-6661.853478,-383.047749
59417.248847,0.000000,-5181.441594,-76.609550
59417.249156,0.000000,-5995.668130,1225.752797
59417.249466,1702.473667,-10658.965565,2987.772442
59417.249776,0.000000,-7476.080014,1532.190996
59417.250086,3478.967927,-9474.636058,4826.401637
59417.250395,0.000000,-7179.997637,2451.505594
59417.250705,1184.329507,-7328.038826,1838.629195
59417.251015,1406.391290,-7550.100608,1455.581446
59417.251325,592.164754,-8808.450710,612.876398
59417.251634,-1258.350101,-11251.130318,-76.609550
59417.251944,-2442.679609,-14211.954086,-76.609550
59417.252254,-4219.173869,-10881.027347,-2451.505594
59417.252564,-3256.906145,-10140.821405,0.000000
59417.252873,-74.020594,-11843.295072,2987.772442
59417.253183,1406.391290,-7624.121203,2681.334243
59417.253493,0.000000,-5995.668130,612.876398
59417.253803,-888.247130,-8438.347739,1302.362347
59417.254112,-444.123565,-8438.347739,1532.190996
59417.254422,74.020594,-8290.306550,1915.238745
59417.254732,1702.473667,-9178.553681,3600.648841
59417.255042,2294.638420,-9474.636058,2374.896044
59417.255351,0.000000,-5107.421000,0.000000
59417.255661,2220.617826,-9474.636058,2528.115143
59417.255971,-666.185348,-8068.244768,-1608.800546
59417.256281,-2368.659014,-11325.150913,0.000000
59417.256590,-3256.906145,-11917.315666,-1455.581446
59417.256900,-2220.617826,-11769.274478,-306.438199
59417.257210,-1258.350101,-10436.903782,459.657299
59417.257520,74.020594,-7550.100608,1225.752797
59417.257829,2294.638420,-8290.306550,2374.896044
59417.258139,-74.020594,-9474.636058,3907.087040
59417.258449,-74.020594,-9474.636058,2374.896044
59417.258759,0.000000,-7179.997637,1532.190996
59417.259068,1110.308913,-6957.935855,536.266849
59417.259378,0.000000,-5403.503377,612.876398
59417.259688,1258.350101,-7105.977043,1149.143247
59417.259998,1776.494261,-7624.121203,1532.190996
59417.260307,74.020594,-9622.677246,383.047749
59417.260617,-2072.576638,-11399.171507,-1149.143247
59417.260927,-1332.370696,-13397.727550,-306.438199
59417.261237,-1184.329507,-13101.645173,612.876398
59417.261546,-74.020594,-13027.624579,-76.609550
59417.261856,-1258.350101,-7920.203579,-919.314598
59417.262166,1702.473667,-9474.636058,2374.896044
59417.262476,-2368.659014,-5107.421000,0.000000
59417.262785,-370.102971,-8290.306550,1149.143247
59417.263095,148.041188,-7920.203579,1762.019645
59417.263405,592.164754,-7698.141797,2068.457845
59417.263715,1036.288319,-7624.121203,2374.896044
59417.264024,2368.659014,-7179.997637,2451.505594
59417.264334,1184.329507,-5995.668130,1225.752797
59417.264644,2886.803174,-10658.965565,2068.457845
59417.264954,-2886.803174,-10362.883188,-1838.629195
59417.265263,-2368.659014,-11917.315666,0.000000
59417.265573,-2442.679609,-12731.542202,-2528.115143
59417.265883,-1258.350101,-11843.295072,-383.047749
59417.266193,-2294.638420,-10066.800811,-1072.533697
59417.266502,-370.102971,-8068.244768,536.266849
59417.266812,0.000000,-7402.059420,766.095498
59417.267122,-2368.659014,-5403.503377,0.000000
59417.267432,-2368.659014,-5995.668130,306.438199
59417.267742,2072.576638,-8438.347739,4443.353888
59417.268051,1110.308913,-6439.791695,2374.896044
59417.268361,3182.885551,-8734.430116,5592.497135
59417.268671,4663.297435,-5329.482782,2374.896044
59417.268981,3478.967927,-7994.224174,2298.286494
59417.269290,-1702.473667,-10362.883188,-689.485948
59417.269600,-4441.235652,-13101.645173,-2221.676944
59417.269910,-4589.276840,-14508.036463,-2681.334243
59417.270220,-5921.647536,-11917.315666,-3983.696590
59417.270529,-4737.318029,-9548.656652,-3064.381992
59417.270839,-1776.494261,-8364.327145,612.876398
59417.271149,1702.473667,-8290.306550,2374.896044
59417.271459,0.000000,-4811.338623,612.876398
59417.271768,3182.885551,-8882.471304,3600.648841
59417.272078,1850.514855,-7476.080014,3753.867940
59417.272388,1702.473667,-6365.771101,3447.429741
59417.272698,2442.679609,-6513.812290,3907.087040
59417.273007,3478.967927,-5699.585753,2911.162892
59417.273317,1554.432478,-6217.729913,1149.143247
59417.273627,-74.020594,-9474.636058,-689.485948
59417.273937,-4737.318029,-11325.150913,-3064.381992
59417.274246,-4441.235652,-15100.201217,-1838.629195
59417.274556,-2442.679609,-14211.954086,-2834.553343
59417.274866,-1850.514855,-14211.954086,-383.047749
59417.275176,-1776.494261,-10436.903782,0.000000
59417.275485,-74.020594,-8586.388927,1149.143247
59417.275795,148.041188,-6883.915261,1455.581446
59417.276105,888.247130,-6513.812290,2374.896044
59417.276415,2886.803174,-5921.647536,4826.401637
59417.276724,4663.297435,-5921.647536,4213.525239
59417.277034,0.000000,-4811.338623,1991.848295
59417.277344,2368.659014,-6883.915261,4903.011187
59417.277654,4663.297435,-7105.977043,2374.896044
59417.277963,2368.659014,-10140.821405,2604.724693
59417.278273,-2960.823768,-10732.986159,-1685.410096
59417.278583,-4441.235652,-14137.933492,-2528.115143
59417.278893,-4367.215058,-14804.118840,-2987.772442
59417.279202,-4071.132681,-13915.871710,-2451.505594
59417.279512,-74.020594,-11843.295072,-995.924147
59417.279822,-74.020594,-9474.636058,-76.609550
59417.280132,-1776.494261,-5403.503377,0.000000
59417.280441,0.000000,-7772.162391,2987.772442
59417.280751,-1628.453072,-4811.338623,383.047749
59417.281061,0.000000,-5995.668130,5515.887586
59417.281371,296.082377,-4811.338623,3370.820191
59417.281680,2516.700203,-5699.585753,3677.258390
59417.281990,3923.091493,-6069.688724,3294.210641
59417.282300,2442.679609,-7846.182985,2068.457845
59417.282610,-74.020594,-12435.459826,536.266849
59417.282919,-1258.350101,-15322.262999,-76.609550
59417.283229,-3627.009116,-15988.448347,-2528.115143
59417.283539,-4515.256246,-11917.315666,-4903.011187
59417.283849,-1036.288319,-13027.624579,-76.609550
59417.284158,-2368.659014,-7772.162391,0.000000
59417.284468,-814.226536,-7624.121203,0.000000
59417.284778,-1184.329507,-8364.327145,1072.533697
59417.285088,0.000000,-7772.162391,1915.238745
59417.285397,518.144159,-7031.956449,3140.991542
59417.285707,1184.329507,-6291.750507,3983.696590
59417.286017,2368.659014,-5995.668130,4290.134789
59417.286327,5847.626942,-6513.812290,4213.525239
59417.286636,1776.494261,-5033.400406,0.000000
59417.286946,1776.494261,-10732.986159,3217.601092
59417.287256,-3552.988522,-10732.986159,-1532.190996
59417.287566,-3330.926739,-14211.954086,-2068.457845
59417.287875,-3849.070898,-13175.665768,-2374.896044
59417.288185,-3997.112087,-12213.398043,-1991.848295
59417.288495,-2146.597232,-9622.677246,-1762.019645
59417.288805,-1776.494261,-7179.997637,0.000000
59417.289114,-1776.494261,-8364.327145,1532.190996
59417.289424,-74.020594,-8882.471304,1762.019645
59417.289734,0.000000,-7179.997637,3064.381992
59417.290044,4663.297435,-8882.471304,4826.401637
59417.290353,0.000000,-3849.070898,1532.190996
59417.290663,4071.132681,-5329.482782,4290.134789
59417.290973,4737.318029,-5033.400406,3447.429741
59417.291283,2886.803174,-8290.306550,2221.676944
59417.291592,-518.144159,-11473.192101,0.000000
59417.291902,-4145.153275,-12509.480420,-1838.629195
59417.292212,-5921.647536,-13101.645173,-3677.258390
59417.292522,-4145.153275,-13101.645173,-1838.629195
59417.292832,-2442.679609,-11843.295072,-1302.362347
59417.293141,-4145.153275,-6291.750507,-2451.505594
59417.293451,-1258.350101,-8512.368333,-1532.190996
59417.293761,-1258.350101,-9548.656652,1225.752797
59417.294071,-444.123565,-8586.388927,1991.848295
59417.294380,592.164754,-7031.956449,3294.210641
59417.294690,296.082377,-5773.606348,3677.258390
59417.295000,1184.329507,-4071.132681,3600.648841
59417.295310,3330.926739,-2442.679609,2834.553343
59417.295619,4737.318029,-6587.832884,3677.258390
59417.295929,1110.308913,-9474.636058,-76.609550
59417.296239,-5921.647536,-10732.986159,-3370.820191
59417.296549,-3034.844362,-14211.954086,-3140.991542
59417.296858,-5107.421000,-13841.851115,-3524.039291
59417.297168,-3108.864956,-11843.295072,-2451.505594
59417.297478,-1258.350101,-9992.780217,-1685.410096
59417.297788,-74.020594,-8882.471304,-536.266849
59417.298097,-666.185348,-9474.636058,-76.609550
59417.298407,-666.185348,-9178.553681,689.485948
59417.298717,0.000000,-7179.997637,2451.505594
59417.299027,2294.638420,-7105.977043,4826.401637
59417.299336,0.000000,-3034.844362,3677.258390
59417.299646,7031.956449,-5921.647536,6052.154434
59417.299956,4737.318029,-4811.338623,4290.134789
59417.300266,2220.617826,-8438.347739,2451.505594
59417.300575,-2072.576638,-11547.212695,-995.924147
59417.300885,-4293.194464,-14582.057057,-2374.896044
59417.301195,-2738.761985,-14804.118840,-1915.238745
59417.301505,-2442.679609,-13915.871710,-3140.991542
59417.301814,-3552.988522,-9548.656652,-2757.943793
59417.302124,1406.391290,-11547.212695,1608.800546
59417.302434,-2738.761985,-7698.141797,-2528.115143
59417.302744,-1850.514855,-11547.212695,1762.019645
59417.303053,-666.185348,-7476.080014,1378.971896
59417.303363,-592.164754,-7179.997637,3064.381992
59417.303673,222.061783,-4737.318029,3830.477490
59417.303983,3108.864956,-4589.276840,4979.620737
59417.304292,8216.285956,-4737.318029,6435.202183
59417.304602,6439.791695,-8290.306550,4826.401637
59417.304912,-1776.494261,-8364.327145,306.438199
59417.305222,-2368.659014,-13101.645173,1225.752797
59417.305531,-2442.679609,-15396.283594,-1915.238745
59417.305841,-4071.132681,-13693.809927,-1378.971896
59417.306151,-3923.091493,-12435.459826,-3140.991542
59417.306461,-2294.638420,-9400.615463,-2298.286494
59417.306770,-1480.411884,-9844.739029,-1378.971896
59417.307080,-2072.576638,-10510.924376,-383.047749
59417.307390,-2220.617826,-10584.944971,1225.752797
59417.307700,-74.020594,-8882.471304,3600.648841
59417.308009,222.061783,-5329.482782,3370.820191
59417.308319,4737.318029,-4811.338623,7967.393179
59417.308629,7031.956449,-1776.494261,4826.401637
59417.308939,5921.647536,-4811.338623,6741.640382
59417.309248,2590.720797,-8660.409521,1915.238745
59417.309558,-2368.659014,-12287.418637,-1225.752797
59417.309868,-4293.194464,-13397.727550,-2451.505594
59417.310178,-5403.503377,-13323.706956,-3600.648841
59417.310487,-4145.153275,-11917.315666,-4290.134789
59417.310797,0.000000,-11621.233289,-612.876398
59417.311107,-74.020594,-10658.965565,-76.609550
59417.311417,-2442.679609,-7698.141797,-3140.991542
59417.311726,-3552.988522,-9548.656652,0.000000
59417.312036,-1776.494261,-8660.409521,1838.629195
59417.312346,962.267725,-7105.977043,3447.429741
59417.312656,2220.617826,-5625.565159,4519.963438
59417.312965,5551.544565,-3256.906145,5669.106685
59417.313275,6587.832884,-4145.153275,5439.278036
59417.313585,2516.700203,-5699.585753,3677.258390
59417.313895,0.000000,-10732.986159,1532.190996
59417.314204,-2442.679609,-13619.789333,-1302.362347
59417.314514,-5995.668130,-11251.130318,-5286.058936
59417.314824,-5329.482782,-12509.480420,-3677.258390
59417.315134,-3552.988522,-10732.986159,-3677.258390
59417.315443,-666.185348,-10362.883188,-1915.238745
59417.315753,-1258.350101,-10066.800811,-1685.410096
59417.316063,-444.123565,-10658.965565,383.047749
59417.316373,-962.267725,-10140.821405,2298.286494
59417.316683,-1480.411884,-5403.503377,2681.334243
59417.316992,0.000000,-4811.338623,3064.381992
59417.317302,4145.153275,-4737.318029,6741.640382
59417.317612,7624.121203,-2960.823768,4826.401637
59417.317922,2368.659014,-3627.009116,2757.943793
59417.318231,1406.391290,-9030.512492,0.000000
59417.318541,-2960.823768,-11177.109724,-1225.752797
59417.318851,-3923.091493,-12805.562797,-2681.334243
59417.319161,-4737.318029,-12805.562797,-3677.258390
59417.319470,-3775.050304,-12361.439231,-2528.115143
59417.319780,-666.185348,-11843.295072,-76.609550
59417.320090,-1850.514855,-10066.800811,-1915.238745
59417.320400,-2886.803174,-8068.244768,-3140.991542
59417.320709,-2960.823768,-10732.986159,1838.629195
59417.321019,-74.020594,-8882.471304,2374.896044
59417.321329,1702.473667,-6513.812290,2374.896044
59417.321638,2516.700203,-4589.276840,6128.763984
59417.321948,6217.729913,-2664.741391,6741.640382
59417.322258,5255.462188,-4145.153275,5286.058936
59417.322567,2294.638420,-7624.121203,4366.744339
59417.322877,-148.041188,-11547.212695,2068.457845
59417.323187,-3034.844362,-13027.624579,-2528.115143
59417.323496,-5329.482782,-11029.068536,-5592.497135
59417.323806,-5403.503377,-10807.006753,-5209.449386
59417.324116,-3256.906145,-12805.562797,-2451.505594
59417.324425,-814.226536,-10955.047942,-2528.115143
59417.324735,-2960.823768,-9548.656652,-2987.772442
59417.325044,-1776.494261,-12065.356855,919.314598
59417.325354,-1406.391290,-10066.800811,1149.143247
59417.325664,-370.102971,-7698.141797,3600.648841
59417.325973,2886.803174,-6513.812290,6052.154434
59417.326283,5255.462188,-2368.659014,5439.278036
59417.326593,5921.647536,-1554.432478,4903.011187
59417.326902,7031.956449,-7698.141797,4826.401637
59417.327212,222.061783,-8290.306550,995.924147
59417.327522,-1258.350101,-10584.944971,-1991.848295
59417.327831,-4293.194464,-12435.459826,-3064.381992
59417.328141,-4219.173869,-13027.624579,-3830.477490
59417.328450,-3627.009116,-12731.542202,-3600.648841
59417.328760,-2072.576638,-12435.459826,-689.485948
59417.329070,-370.102971,-13027.624579,-383.047749
59417.329379,-666.185348,-11843.295072,-689.485948
59417.329689,-2886.803174,-7772.162391,-2221.676944
59417.329999,-2368.659014,-8364.327145,3064.381992
59417.330308,2294.638420,-7698.141797,4826.401637
59417.330618,4663.297435,-4737.318029,4826.401637
59417.330928,5921.647536,-1480.411884,5592.497135
59417.331237,5699.585753,-3330.926739,5132.839837
59417.331547,2368.659014,-7698.141797,2834.553343
59417.331856,-1110.308913,-10066.800811,306.438199
59417.332166,-1850.514855,-13323.706956,-153.219100
59417.332476,-2442.679609,-14211.954086,-2528.115143
59417.332785,-4811.338623,-11547.212695,-5592.497135
59417.333095,-4737.318029,-11917.315666,-3677.258390
59417.333405,-518.144159,-13619.789333,-766.095498
59417.333714,-296.082377,-12435.459826,-689.485948
59417.334024,-2738.761985,-10955.047942,-536.266849
59417.334334,-1924.535449,-8956.491898,1532.190996
59417.334643,222.061783,-6587.832884,3064.381992
59417.334953,2960.823768,-4219.173869,4903.011187
59417.335263,5921.647536,-2442.679609,7660.954980
59417.335572,8216.285956,-3552.988522,6971.469032
59417.335882,2886.803174,-5329.482782,1762.019645
59417.336191,0.000000,-8364.327145,1225.752797
59417.336501,-74.020594,-12435.459826,-76.609550
59417.336811,-2664.741391,-14211.954086,-689.485948
59417.337120,-3478.967927,-13175.665768,-3447.429741
59417.337430,-3627.009116,-13323.706956,-3447.429741
59417.337740,-1924.535449,-12509.480420,-2528.115143
59417.338049,-2738.761985,-11769.274478,-3524.039291
59417.338359,-3552.988522,-9548.656652,0.000000
59417.338669,-1332.370696,-11103.089130,1915.238745
59417.338978,-74.020594,-7105.977043,2374.896044
59417.339288,0.000000,-5107.421000,4903.011187
59417.339597,5847.626942,-4737.318029,7277.907231
59417.339907,6217.729913,-2812.782580,7048.078582
59417.340217,5847.626942,-5181.441594,4979.620737
59417.340526,1702.473667,-8290.306550,2528.115143
59417.340836,-1554.432478,-10658.965565,0.000000
59417.341146,-2590.720797,-11473.192101,-2987.772442
59417.341455,-4737.318029,-11325.150913,-4903.011187
59417.341765,-4145.153275,-13101.645173,-3064.381992
59417.342075,-666.185348,-15026.180623,-76.609550
59417.342384,-2738.761985,-10807.006753,-3447.429741
59417.342694,-3552.988522,-10140.821405,-919.314598
59417.343003,-2960.823768,-9844.739029,1225.752797
59417.343313,-962.267725,-7994.224174,1762.019645
59417.343623,1036.288319,-6291.750507,3600.648841
59417.343932,3923.091493,-4367.215058,5439.278036
59417.344242,5551.544565,-2072.576638,6052.154434
59417.344552,3552.988522,-1332.370696,3064.381992
59417.344861,0.000000,-5995.668130,2145.067394
59417.345171,-74.020594,-13027.624579,4213.525239
59417.345481,-3627.009116,-10066.800811,-2221.676944
59417.345790,-4737.318029,-11325.150913,-1225.752797
59417.346100,-4145.153275,-11917.315666,-2451.505594
59417.346409,-2442.679609,-12657.521608,-2528.115143
59417.346719,-1480.411884,-12065.356855,-1455.581446
59417.347029,-3330.926739,-11325.150913,-2374.896044
59417.347338,-3034.844362,-11251.130318,-1302.362347
59417.347648,-1850.514855,-9474.636058,-1302.362347
59417.347958,-2220.617826,-6735.874072,612.876398
59417.348267,296.082377,-6587.832884,4903.011187
59417.348577,4663.297435,-5329.482782,4826.401637
59417.348887,3552.988522,-2442.679609,6128.763984
59417.349196,2368.659014,-4811.338623,3983.696590
59417.349506,1406.391290,-8216.285956,2911.162892
59417.349816,-962.267725,-10288.862594,1455.581446
59417.350125,-962.267725,-11029.068536,536.266849
59417.350435,-1406.391290,-13027.624579,-76.609550
59417.350744,-1258.350101,-12731.542202,-1302.362347
59417.351054,-3256.906145,-10732.986159,-3447.429741
59417.351364,-3552.988522,-10732.986159,0.000000
59417.351673,-2442.679609,-11843.295072,-3140.991542
59417.351983,-5921.647536,-9548.656652,-3677.258390
59417.352293,-4219.173869,-7179.997637,-1915.238745
59417.352602,0.000000,-8512.368333,1838.629195
59417.352912,3701.029710,-6291.750507,4826.401637
59417.353222,4663.297435,-4885.359217,5286.058936
59417.353531,4663.297435,-7105.977043,6052.154434
59417.353841,3478.967927,-9474.636058,4826.401637
59417.354150,1110.308913,-8586.388927,1762.019645
59417.354460,-3552.988522,-6587.832884,0.000000
59417.354770,-148.041188,-11621.233289,919.314598
59417.355079,-74.020594,-11843.295072,-2604.724693
59417.355389,-2442.679609,-10955.047942,-3140.991542
59417.355699,-1998.556043,-11991.336260,-2145.067394
59417.356008,-3256.906145,-11621.233289,-2298.286494
59417.356318,-2886.803174,-9622.677246,-2221.676944
59417.356628,-1036.288319,-10140.821405,1225.752797
59417.356937,1110.308913,-10658.965565,3600.648841
59417.357247,3182.885551,-7105.977043,3600.648841
59417.357556,4737.318029,-6291.750507,7354.516781
59417.357866,3478.967927,-4145.153275,4213.525239
59417.358176,1184.329507,-5995.668130,1532.190996
59417.358485,1998.556043,-8882.471304,2987.772442
59417.358795,0.000000,-8882.471304,919.314598
59417.359105,-740.205942,-9992.780217,76.609550
59417.359414,-2220.617826,-10584.944971,-1072.533697
59417.359724,-2368.659014,-9844.739029,-1838.629195
59417.360034,-296.082377,-13101.645173,-306.438199
59417.360343,-2442.679609,-13027.624579,-689.485948
59417.360653,-3627.009116,-11251.130318,-3753.867940
59417.360962,-4737.318029,-8364.327145,-2451.505594
59417.361272,-74.020594,-9326.594869,1149.143247
59417.361582,4367.215058,-9474.636058,4213.525239
59417.361891,4663.297435,-5921.647536,5669.106685
59417.362201,4959.379811,-4885.359217,5898.935335
59417.362511,3182.885551,-5477.523971,4366.744339
59417.362820,0.000000,-5995.668130,1225.752797
59417.363130,0.000000,-8364.327145,4903.011187
59417.363440,-74.020594,-11251.130318,2374.896044
59417.363749,-2442.679609,-9474.636058,-3140.991542
59417.364059,-4737.318029,-10732.986159,-2451.505594
59417.364368,-1850.514855,-13027.624579,-1302.362347
59417.364678,-1258.350101,-14211.954086,-1302.362347
59417.364988,-4367.215058,-11843.295072,-2987.772442
59417.365297,-3404.947333,-10066.800811,-1685.410096
59417.365607,-1776.494261,-9770.718434,76.609550
59417.365917,0.000000,-7179.997637,0.000000
59417.366226,592.164754,-4811.338623,4903.011187
59417.366536,4737.318029,-5995.668130,7354.516781
59417.366846,4663.297435,-4737.318029,4213.525239
59417.367155,1480.411884,-7179.997637,4903.011187
59417.367465,1702.473667,-9474.636058,3600.648841
59417.367775,296.082377,-8660.409521,2451.505594
59417.368084,-2294.638420,-9770.718434,-689.485948
59417.368394,-3256.906145,-11473.192101,-1838.629195
59417.368703,-2590.720797,-11177.109724,-3447.429741
59417.369013,-4515.256246,-10288.862594,-4060.306139
59417.369323,-7105.977043,-9548.656652,-4903.011187
59417.369632,-4737.318029,-10732.986159,-3677.258390
59417.369942,-74.020594,-12435.459826,-76.609550
59417.370252,0.000000,-8956.491898,1838.629195
59417.370561,4071.132681,-9474.636058,6052.154434
59417.370871,4145.153275,-5699.585753,6128.763984
59417.371181,3478.967927,-5329.482782,5822.325785
59417.371490,1702.473667,-6365.771101,4060.306139
59417.371800,148.041188,-7179.997637,2911.162892
59417.372109,1406.391290,-7105.977043,1149.143247
59417.372419,-2442.679609,-6735.874072,-1302.362347
59417.372729,-2960.823768,-8364.327145,-4596.572988
59417.373038,-2368.659014,-10732.986159,-1225.752797
59417.373348,-74.020594,-11843.295072,-2528.115143
59417.373658,-3108.864956,-11621.233289,-2451.505594
59417.373967,-5921.647536,-11325.150913,-3677.258390
59417.374277,-2442.679609,-11769.274478,-2068.457845
59417.374587,-1184.329507,-11103.089130,153.219100
59417.374896,1332.370696,-8586.388927,2757.943793
59417.375206,4663.297435,-8290.306550,4826.401637
59417.375515,3478.967927,-5921.647536,4826.401637
59417.375825,888.247130,-3997.112087,2681.334243
59417.376135,592.164754,-7179.997637,4903.011187
59417.376444,2294.638420,-7105.977043,3600.648841
59417.376754,0.000000,-5403.503377,1838.629195
59417.377064,-2146.597232,-7254.018232,-1225.752797
59417.377373,-1184.329507,-9548.656652,-1608.800546
59417.377683,-1258.350101,-10510.924376,-1991.848295
59417.377993,-2294.638420,-11325.150913,-3140.991542
59417.378302,-3034.844362,-15100.201217,-2528.115143
59417.378612,-2442.679609,-13027.624579,-3753.867940
59417.378921,-3923.091493,-10955.047942,-3140.991542
59417.379231,0.000000,-10732.986159,2451.505594
59417.379541,3478.967927,-7698.141797,2987.772442
59417.379850,2368.659014,-4811.338623,4903.011187
59417.380160,2738.761985,-4663.297435,4826.401637
59417.380470,2146.597232,-5773.606348,4749.792088
59417.380779,3034.844362,-6365.771101,4213.525239
59417.381089,1850.514855,-7105.977043,2987.772442
59417.381399,962.267725,-10066.800811,2911.162892
59417.381708,-74.020594,-13027.624579,-76.609550
59417.382018,-74.020594,-9474.636058,-2528.115143
59417.382327,-4737.318029,-9548.656652,-4290.134789
59417.382637,-2960.823768,-12879.583391,-2298.286494
59417.382947,-6883.915261,-12509.480420,-5439.278036
59417.383256,-3330.926739,-12435.459826,-2528.115143
59417.383566,-1924.535449,-11029.068536,0.000000
59417.383876,962.267725,-9622.677246,2681.334243
59417.384185,4071.132681,-5921.647536,4749.792088
59417.384495,3256.906145,-5995.668130,7354.516781
59417.384805,3627.009116,-8068.244768,6665.030833
59417.385114,2886.803174,-8290.306550,4826.401637
59417.385424,0.000000,-4811.338623,2451.505594
59417.385734,1776.494261,-7994.224174,2757.943793
59417.386043,-2738.761985,-7179.997637,-1608.800546
59417.386353,-74.020594,-10658.965565,-689.485948
59417.386662,-1776.494261,-10881.027347,-2298.286494
59417.386972,-3552.988522,-11917.315666,-3677.258390
59417.387282,-5477.523971,-12953.603985,-3983.696590
59417.387591,-6513.812290,-11917.315666,-2451.505594
59417.387901,-1776.494261,-13101.645173,612.876398
59417.388211,2294.638420,-13915.871710,4826.401637
59417.388520,370.102971,-5403.503377,2451.505594
59417.388830,4737.318029,-6439.791695,6588.421283
59417.389140,3478.967927,-4737.318029,4213.525239
59417.389449,2886.803174,-6809.894666,5132.839837
59417.389759,1332.370696,-5625.565159,3983.696590
59417.390068,592.164754,-6883.915261,3064.381992
59417.390378,-1184.329507,-8364.327145,689.485948
59417.390688,-4145.153275,-7179.997637,0.000000
59417.390997,-2368.659014,-9548.656652,-1838.629195
59417.391307,-1776.494261,-13397.727550,-459.657299
59417.391617,-3627.009116,-13027.624579,-3753.867940
59417.391926,-7994.224174,-11917.315666,-4903.011187
59417.392236,-814.226536,-14211.954086,-76.609550
59417.392546,-74.020594,-11547.212695,1532.190996
59417.392855,2294.638420,-8660.409521,3140.991542
59417.393165,3775.050304,-5995.668130,4749.792088
59417.393474,3256.906145,-5551.544565,4903.011187
59417.393784,0.000000,-4367.215058,1838.629195
59417.394094,0.000000,-4811.338623,2451.505594
59417.394403,0.000000,-7179.997637,3064.381992
59417.394713,-74.020594,-9474.636058,-76.609550
59417.395023,-3256.906145,-8364.327145,-2145.067394
59417.395332,1702.473667,-12731.542202,-76.609550
59417.395642,0.000000,-10436.903782,-612.876398
59417.395952,-1850.514855,-11695.253884,-1991.848295
59417.396261,-4737.318029,-13027.624579,-2834.553343
59417.396571,-3256.906145,-11325.150913,-1991.848295
59417.396880,-1850.514855,-10066.800811,-2528.115143
59417.397190,-2294.638420,-6587.832884,0.000000
59417.397500,296.082377,-5995.668130,3064.381992
59417.397809,4663.297435,-7105.977043,4213.525239
59417.398119,1776.494261,-7179.997637,4366.744339
59417.398429,3330.926739,-10362.883188,6052.154434
59417.398738,1184.329507,-5995.668130,3677.258390
59417.399048,888.247130,-8734.430116,3217.601092
59417.399358,2220.617826,-6957.935855,1762.019645
59417.399667,1258.350101,-9252.574275,842.705048
59417.399977,2294.638420,-9474.636058,-689.485948
59417.400287,-2442.679609,-11251.130318,-2221.676944
59417.400596,-6735.874072,-10140.821405,-4903.011187
59417.400906,-4737.318029,-12509.480420,-2451.505594
59417.401215,-2442.679609,-11843.295072,-1302.362347
59417.401525,-2368.659014,-7772.162391,0.000000
59417.401835,0.000000,-6883.915261,1378.971896
59417.402144,2960.823768,-6069.688724,3294.210641
59417.402454,1480.411884,-7254.018232,3370.820191
59417.402764,740.205942,-7550.100608,2911.162892
59417.403073,3478.967927,-9474.636058,4213.525239
59417.403383,2294.638420,-7698.141797,2374.896044
59417.403693,-2294.638420,-5625.565159,0.000000
59417.404002,1776.494261,-9844.739029,2145.067394
59417.404312,1998.556043,-8586.388927,-76.609550
59417.404621,-2368.659014,-9548.656652,0.000000
59417.404931,-3701.029710,-11325.150913,-2451.505594
59417.405241,-4071.132681,-12213.398043,-2374.896044
59417.405550,-1850.514855,-11991.336260,-1455.581446
59417.405860,-1406.391290,-9992.780217,306.438199
59417.406170,3182.885551,-9474.636058,4213.525239
59417.406479,4663.297435,-8290.306550,4826.401637
59417.406789,1406.391290,-4589.276840,1455.581446
59417.407099,1480.411884,-8882.471304,4596.572988
59417.407408,-666.185348,-8290.306550,2068.457845
59417.407718,0.000000,-4811.338623,1225.752797
59417.408027,-666.185348,-8586.388927,842.705048
59417.408337,-1110.308913,-8216.285956,383.047749
59417.408647,222.061783,-8290.306550,612.876398
59417.408956,222.061783,-8882.471304,0.000000
59417.409266,-1036.288319,-12805.562797,689.485948
59417.409576,-2442.679609,-14211.954086,-459.657299
59417.409885,-1258.350101,-13619.789333,-1302.362347
59417.410195,-3256.906145,-7772.162391,-2145.067394
59417.410505,888.247130,-9474.636058,2987.772442
59417.410814,222.061783,-5033.400406,0.000000
59417.411124,3478.967927,-7105.977043,3294.210641
59417.411433,1332.370696,-7772.162391,3524.039291
59417.411743,-296.082377,-9326.594869,2911.162892
59417.412053,-370.102971,-8438.347739,2298.286494
59417.412362,0.000000,-8660.409521,2757.943793
59417.412672,222.061783,-9104.533087,1225.752797
59417.412982,3478.967927,-9474.636058,-76.609550
59417.413291,0.000000,-7179.997637,0.000000
59417.413601,-370.102971,-11177.109724,-76.609550
59417.413911,-3627.009116,-11103.089130,-3753.867940
59417.414220,-2738.761985,-13027.624579,-1608.800546
59417.414530,-2590.720797,-10881.027347,-1532.190996
59417.414839,-222.061783,-9326.594869,1072.533697
59417.415149,2516.700203,-8216.285956,2604.724693
59417.415459,2368.659014,-5403.503377,3677.258390
59417.415768,1184.329507,-7179.997637,1225.752797
59417.416078,2294.638420,-11251.130318,4826.401637
59417.416388,-2368.659014,-7179.997637,383.047749
59417.416697,444.123565,-8882.471304,2911.162892
59417.417007,-74.020594,-8290.306550,-76.609550
59417.417317,962.267725,-8882.471304,1225.752797
59417.417626,1258.350101,-7994.224174,842.705048
59417.417936,148.041188,-8586.388927,0.000000
59417.418246,-2664.741391,-12287.418637,-1302.362347
59417.418555,-6513.812290,-9548.656652,-3677.258390
59417.418865,-4737.318029,-9548.656652,-4136.915689
59417.419174,0.000000,-10140.821405,1225.752797
59417.419484,1110.308913,-8290.306550,-76.609550
59417.419794,1184.329507,-7179.997637,4136.915689
59417.420103,4663.297435,-9474.636058,4519.963438
59417.420413,1036.288319,-9622.677246,3217.601092
59417.420723,444.123565,-8882.471304,2604.724693
59417.421032,0.000000,-8142.265362,2068.457845
59417.421342,-814.226536,-8068.244768,1072.533697
59417.421652,-1924.535449,-7179.997637,0.000000
59417.421962,0.000000,-5995.668130,-76.609550
59417.422271,1776.494261,-8956.491898,2451.505594
59417.422581,-666.185348,-11547.212695,-689.485948
59417.422891,-4737.318029,-10732.986159,-3677.258390
59417.423201,-74.020594,-14211.954086,-76.609550
59417.423510,-1776.494261,-10140.821405,306.438199
59417.423820,370.102971,-8512.368333,1072.533697
59417.424130,1036.288319,-7920.203579,1838.629195
59417.424439,1998.556043,-8216.285956,2451.505594
59417.424749,1110.308913,-7698.141797,1149.143247
59417.425059,0.000000,-9548.656652,3064.381992
59417.425369,-1554.432478,-7254.018232,919.314598
59417.425678,-592.164754,-7772.162391,3677.258390
59417.425988,-74.020594,-7698.141797,-76.609550
59417.426298,296.082377,-7179.997637,2451.505594
59417.426608,2368.659014,-7772.162391,1838.629195
59417.426917,0.000000,-9252.574275,0.000000
59417.427227,-3404.947333,-11769.274478,-1685.410096
59417.427537,-3256.906145,-12361.439231,-1532.190996
59417.427846,-666.185348,-10658.965565,-689.485948
59417.428156,-666.185348,-8882.471304,-76.609550
59417.428466,-2368.659014,-5995.668130,0.000000
59417.428776,2516.700203,-9252.574275,3370.820191
59417.429085,370.102971,-8364.327145,0.000000
59417.429395,0.000000,-11325.150913,4903.011187
59417.429705,-1480.411884,-9030.512492,1608.800546
59417.430015,-148.041188,-7550.100608,2145.067394
59417.430324,0.000000,-7550.100608,1915.238745
59417.430634,666.185348,-7105.977043,1915.238745
59417.430944,4071.132681,-7698.141797,3600.648841
59417.431253,2294.638420,-9474.636058,-76.609550
59417.431563,-4441.235652,-9548.656652,-2451.505594
59417.431873,-2516.700203,-12731.542202,-306.438199
59417.432183,-2442.679609,-10658.965565,-2528.115143
59417.432492,-2368.659014,-8364.327145,0.000000
59417.432802,-1184.329507,-7624.121203,-766.095498
59417.433112,592.164754,-9178.553681,919.314598
59417.433422,962.267725,-9844.739029,1378.971896
59417.433731,-666.185348,-10955.047942,1149.143247
59417.434041,-74.020594,-13027.624579,3294.210641
59417.434351,-74.020594,-11843.295072,4826.401637
59417.434660,-3256.906145,-4811.338623,0.000000
59417.434970,1998.556043,-7698.141797,3447.429741
59417.435280,1850.514855,-4811.338623,0.000000
59417.435590,2368.659014,-4811.338623,1532.190996
59417.435899,-222.061783,-9178.553681,229.828649
59417.436209,-3627.009116,-11177.109724,-1838.629195
59417.436519,-3923.091493,-12065.356855,-2221.676944
59417.436829,-1850.514855,-10140.821405,-1685.410096
59417.437138,-74.020594,-10732.986159,0.000000
59417.437448,1628.453072,-11029.068536,2757.943793
59417.437758,1110.308913,-9400.615463,-76.609550
59417.438068,0.000000,-10140.821405,1225.752797
59417.438377,-74.020594,-13619.789333,4213.525239
59417.438687,-3552.988522,-7179.997637,1225.752797
59417.438997,-222.061783,-7105.977043,2221.676944
59417.439306,296.082377,-6069.688724,2451.505594
59417.439616,2664.741391,-5107.421000,3064.381992
59417.439926,2442.679609,-5847.626942,2298.286494
59417.440236,0.000000,-8364.327145,0.000000
59417.440545,-4737.318029,-10732.986159,0.000000
59417.440855,-2442.679609,-13619.789333,-459.657299
59417.441165,-962.267725,-11251.130318,-689.485948
59417.441475,-3552.988522,-7179.997637,-2451.505594
59417.441784,-518.144159,-7402.059420,0.000000
59417.442094,1998.556043,-10066.800811,1608.800546
59417.442404,518.144159,-10807.006753,1149.143247
59417.442713,-1110.308913,-10955.047942,1455.581446
59417.443023,-1702.473667,-10140.821405,1378.971896
59417.443333,-2368.659014,-6587.832884,612.876398
59417.443643,-3552.988522,-4811.338623,1225.752797
59417.443952,4071.132681,-7994.224174,3600.648841
59417.444262,1776.494261,-4811.338623,842.705048
59417.444572,3552.988522,-8956.491898,3830.477490
59417.444882,-1258.350101,-9474.636058,-2528.115143
59417.445191,-3552.988522,-11917.315666,-842.705048
59417.445501,-1554.432478,-11103.089130,-919.314598
59417.445811,-370.102971,-10214.842000,-229.828649
59417.446120,0.000000,-9178.553681,306.438199
59417.446430,0.000000,-7179.997637,0.000000
59417.446740,0.000000,-7179.997637,0.000000
59417.447050,2072.576638,-12361.439231,3294.210641
59417.447359,-666.185348,-10658.965565,995.924147
59417.447669,-2368.659014,-7179.997637,1225.752797
59417.447979,-74.020594,-8882.471304,1762.019645
59417.448289,592.164754,-6883.915261,1838.629195
59417.448598,2960.823768,-6291.750507,2834.553343
59417.448908,2738.761985,-6661.853478,2068.457845
59417.449218,296.082377,-8660.409521,536.266849
59417.449527,-3034.844362,-10955.047942,-1608.800546
59417.449837,-2442.679609,-9474.636058,-1608.800546
59417.450147,-3552.988522,-9548.656652,0.000000
59417.450457,1702.473667,-9474.636058,1149.143247
59417.450766,0.000000,-7772.162391,1225.752797
59417.451076,3478.967927,-11251.130318,2374.896044
59417.451386,-1628.453072,-9548.656652,0.000000
59417.451696,-2146.597232,-10881.027347,689.485948
59417.452005,-1998.556043,-8882.471304,76.609550
59417.452315,-1776.494261,-8512.368333,995.924147
59417.452625,-74.020594,-7105.977043,1149.143247
59417.452934,2886.803174,-7105.977043,2374.896044
59417.453244,1184.329507,-4811.338623,1225.752797
59417.453554,1110.308913,-9474.636058,2068.457845
59417.453864,-5551.544565,-7476.080014,-3370.820191
59417.454173,-740.205942,-13915.871710,1915.238745
59417.454483,-740.205942,-9770.718434,76.609550
59417.454793,296.082377,-9400.615463,612.876398
59417.455103,888.247130,-8956.491898,1378.971896
59417.455412,1702.473667,-8660.409521,1225.752797
59417.455722,1702.473667,-10658.965565,2987.772442
59417.456032,-74.020594,-11843.295072,-76.609550
59417.456341,-3330.926739,-9548.656652,-536.266849
59417.456651,-1776.494261,-8734.430116,2681.334243
59417.456961,-3034.844362,-6587.832884,-1302.362347
59417.457271,592.164754,-8956.491898,3064.381992
59417.457580,2294.638420,-6735.874072,2068.457845
59417.457890,1110.308913,-7179.997637,1378.971896
59417.458200,-1924.535449,-9696.697840,-153.219100
59417.458510,-3478.967927,-10362.883188,-536.266849
59417.458819,-74.020594,-11251.130318,1072.533697
59417.459129,3478.967927,-11251.130318,2374.896044
59417.459439,0.000000,-7179.997637,0.000000
59417.459749,2072.576638,-8512.368333,3294.210641
59417.460058,2294.638420,-8882.471304,-76.609550
59417.460368,0.000000,-9844.739029,612.876398
59417.460678,-2442.679609,-11547.212695,-153.219100
59417.460987,-2960.823768,-10436.903782,-459.657299
59417.461297,-1924.535449,-9030.512492,-459.657299
59417.461607,-814.226536,-8438.347739,612.876398
59417.461917,2072.576638,-8290.306550,2451.505594
59417.462226,3775.050304,-9474.636058,3600.648841
59417.462536,-962.267725,-7402.059420,-689.485948
59417.462846,-2368.659014,-10140.821405,1225.752797
59417.463156,-1258.350101,-8586.388927,-689.485948
59417.463465,0.000000,-7179.997637,612.876398
59417.463775,1110.308913,-9030.512492,1455.581446
59417.464085,814.226536,-7994.224174,1302.362347
59417.464394,1776.494261,-8660.409521,1302.362347
59417.464704,444.123565,-9844.739029,1072.533697
59417.465014,-1776.494261,-11621.233289,919.314598
59417.465324,-1776.494261,-13101.645173,1838.629195
59417.465633,-666.185348,-11843.295072,-76.609550
59417.465943,-3552.988522,-8364.327145,0.000000
59417.466253,2294.638420,-11251.130318,3600.648841
59417.466563,592.164754,-4811.338623,612.876398
59417.466872,1036.288319,-7402.059420,1991.848295
59417.467182,-1776.494261,-8734.430116,766.095498
59417.467492,-2146.597232,-9252.574275,1149.143247
59417.467801,0.000000,-7920.203579,1532.190996
59417.468111,0.000000,-7179.997637,612.876398
59417.468421,0.000000,-7179.997637,1225.752797
59417.468731,2294.638420,-9474.636058,1762.019645
59417.469040,0.000000,-8364.327145,-2451.505594
59417.469350,-592.164754,-12213.398043,1685.410096
59417.469660,-3034.844362,-11621.233289,-919.314598
59417.469970,-2220.617826,-12287.418637,-383.047749
59417.470279,-1554.432478,-10214.842000,-383.047749
59417.470589,296.082377,-8512.368333,1532.190996
59417.470899,1924.535449,-5921.647536,2298.286494
59417.471208,0.000000,-3923.091493,459.657299
59417.471518,-3552.988522,-6587.832884,0.000000
59417.471828,-74.020594,-10658.965565,2374.896044
59417.472138,0.000000,-7254.018232,2145.067394
59417.472447,-666.185348,-6587.832884,459.657299
59417.472757,74.020594,-6661.853478,0.000000
59417.473067,1184.329507,-8438.347739,1302.362347
59417.473377,962.267725,-9770.718434,995.924147
59417.473686,-1036.288319,-10955.047942,0.000000
59417.473996,-2590.720797,-12287.418637,-76.609550
59417.474306,-3478.967927,-11177.109724,-1915.238745
59417.474615,-2146.597232,-9030.512492,-1532.190996
59417.474925,148.041188,-9696.697840,1838.629195
59417.475235,1554.432478,-5477.523971,0.000000
59417.475545,1924.535449,-7179.997637,3370.820191
59417.475854,-74.020594,-7698.141797,76.609550
59417.476164,-1554.432478,-8512.368333,1072.533697
59417.476474,-962.267725,-8956.491898,1532.190996
59417.476784,74.020594,-7920.203579,1838.629195
59417.477093,740.205942,-7550.100608,3600.648841
59417.477403,1110.308913,-7698.141797,1762.019645
59417.477713,1702.473667,-6957.935855,229.828649
59417.478022,0.000000,-9548.656652,0.000000
59417.478332,-74.020594,-15396.283594,-76.609550
59417.478642,-4737.318029,-10732.986159,-3217.601092
59417.478952,-814.226536,-11843.295072,-1302.362347
59417.479261,-1332.370696,-10140.821405,-459.657299
59417.479571,222.061783,-8734.430116,612.876398
59417.479881,1036.288319,-6661.853478,919.314598
59417.480191,-222.061783,-7772.162391,1532.190996
59417.480500,-74.020594,-9474.636058,1762.019645
59417.480810,-74.020594,-9474.636058,1149.143247
59417.481120,0.000000,-7179.997637,1838.629195
59417.481429,2294.638420,-9474.636058,3600.648841
59417.481739,0.000000,-5403.503377,1838.629195
59417.482049,3775.050304,-7105.977043,3600.648841
59417.482359,1406.391290,-8068.244768,1455.581446
59417.482668,-1850.514855,-11325.150913,306.438199
59417.482978,-3627.009116,-12287.418637,-1378.971896
59417.483288,-3552.988522,-12953.603985,-1838.629195
59417.483598,-666.185348,-12435.459826,-766.095498
59417.483907,-74.020594,-10658.965565,-383.047749
59417.484217,-2368.659014,-7179.997637,0.000000
59417.484527,1110.308913,-7105.977043,-76.609550
59417.484837,-2368.659014,-8364.327145,612.876398
59417.485146,-592.164754,-9474.636058,3600.648841
59417.485456,222.061783,-8512.368333,2528.115143
59417.485766,1554.432478,-7179.997637,3294.210641
59417.486075,2072.576638,-6587.832884,2987.772442
59417.486385,2146.597232,-6217.729913,1225.752797
59417.486695,2664.741391,-7846.182985,2451.505594
59417.487005,-74.020594,-13027.624579,1762.019645
59417.487314,-3182.885551,-12361.439231,-1455.581446
59417.487624,-4737.318029,-11917.315666,0.000000
59417.487934,-1258.350101,-13027.624579,-383.047749
59417.488244,-2072.576638,-11843.295072,-229.828649
59417.488553,-666.185348,-8290.306550,229.828649
59417.488863,74.020594,-6661.853478,0.000000
59417.489173,-962.267725,-8512.368333,842.705048
59417.489482,-296.082377,-7624.121203,0.000000
59417.489792,444.123565,-8364.327145,2451.505594
59417.490102,2664.741391,-7624.121203,4596.572988
59417.490412,2294.638420,-7105.977043,2374.896044
59417.490721,2368.659014,-6587.832884,4903.011187
59417.491031,4663.297435,-8290.306550,2374.896044
59417.491341,592.164754,-9548.656652,1225.752797
59417.491651,-1998.556043,-12213.398043,-842.705048
59417.491960,-3182.885551,-13989.892304,-2528.115143
59417.492270,-3404.947333,-13841.851115,-2221.676944
59417.492580,-2664.741391,-10807.006753,-2374.896044
59417.492889,-1776.494261,-9548.656652,-2451.505594
59417.493199,2664.741391,-9474.636058,2374.896044
59417.493509,222.061783,-6957.935855,536.266849
59417.493819,814.226536,-11843.295072,4826.401637
59417.494128,0.000000,-5699.585753,1838.629195
59417.494438,1776.494261,-6587.832884,4903.011187
59417.494748,3182.885551,-6069.688724,2604.724693
59417.495058,2664.741391,-6365.771101,2987.772442
59417.495367,2812.782580,-6661.853478,2451.505594
59417.495677,1850.514855,-7179.997637,-1072.533697
59417.495987,-2072.576638,-11843.295072,-1225.752797
59417.496296,-2738.761985,-15322.262999,-1302.362347
59417.496606,-3034.844362,-15100.201217,-2528.115143
59417.496916,-4145.153275,-11917.315666,0.000000
59417.497226,-74.020594,-12435.459826,-76.609550
59417.497535,0.000000,-9252.574275,1378.971896
59417.497845,0.000000,-6069.688724,0.000000
59417.498155,-74.020594,-7772.162391,2145.067394
59417.498465,814.226536,-7179.997637,2911.162892
59417.498774,1332.370696,-5403.503377,2451.505594
59417.499084,592.164754,-4811.338623,2451.505594
59417.499394,2220.617826,-6735.874072,4519.963438
59417.499703,2294.638420,-5921.647536,2681.334243
59417.500013,0.000000,-4811.338623,1225.752797
59417.500323,-74.020594,-13027.624579,-76.609550
59417.500633,-4737.318029,-13101.645173,-2451.505594
59417.500942,-4367.215058,-14804.118840,-2987.772442
59417.501252,-3701.029710,-14508.036463,-2374.896044
59417.501562,-3627.009116,-12139.377449,-2145.067394
59417.501872,-1258.350101,-8290.306550,-1302.362347
59417.502181,0.000000,-7179.997637,-1838.629195
59417.502491,-1184.329507,-8364.327145,2451.505594
59417.502801,-74.020594,-8290.306550,2374.896044
59417.503110,592.164754,-6587.832884,5515.887586
59417.503420,2294.638420,-4737.318029,4826.401637
59417.503730,0.000000,-3034.844362,3064.381992
59417.504040,1480.411884,-5255.462188,3447.429741
59417.504349,2812.782580,-6143.709319,2528.115143
59417.504659,1184.329507,-9030.512492,2068.457845
59417.504969,-2442.679609,-11547.212695,-383.047749
59417.505279,-5773.606348,-11621.233289,-2528.115143
59417.505588,-4737.318029,-12509.480420,-2451.505594
59417.505898,-2368.659014,-14137.933492,-689.485948
59417.506208,-3923.091493,-8364.327145,-4213.525239
59417.506518,-1776.494261,-9548.656652,0.000000
59417.506827,-4145.153275,-5625.565159,-2451.505594
59417.507137,-1184.329507,-8142.265362,459.657299
59417.507447,1258.350101,-7846.182985,2604.724693
59417.507756,1406.391290,-6883.915261,3294.210641
59417.508066,2368.659014,-7105.977043,4826.401637
59417.508376,3256.906145,-4589.276840,3294.210641
59417.508686,2664.741391,-3775.050304,2451.505594
59417.508995,4441.235652,-8512.368333,4903.011187
59417.509305,-74.020594,-10658.965565,-76.609550
59417.509615,-4737.318029,-11325.150913,-3677.258390
59417.509925,-4145.153275,-12213.398043,-3217.601092
59417.510234,-3478.967927,-13101.645173,-2451.505594
59417.510544,-2220.617826,-11325.150913,-1991.848295
59417.510854,-1406.391290,-9474.636058,-1302.362347
59417.511163,-666.185348,-9400.615463,-76.609550
59417.511473,-1258.350101,-8290.306550,-76.609550
59417.511783,-2072.576638,-6587.832884,153.219100
59417.512093,1480.411884,-6587.832884,3983.696590
59417.512402,3478.967927,-5921.647536,2374.896044
59417.512712,1184.329507,-4811.338623,2451.505594
59417.513022,4071.132681,-4737.318029,3294.210641
59417.513332,3552.988522,-6513.812290,3064.381992
59417.513641,666.185348,-10510.924376,1149.143247
59417.513951,-2738.761985,-13027.624579,-689.485948
59417.514261,-2220.617826,-13989.892304,-919.314598
59417.514570,-1258.350101,-14211.954086,-689.485948
59417.514880,-2442.679609,-11251.130318,-2528.115143
59417.515190,-2368.659014,-8364.327145,-2451.505594
59417.515500,-74.020594,-11547.212695,-76.609550
59417.515809,-2960.823768,-5403.503377,-3140.991542
59417.516119,-1258.350101,-9474.636058,1149.143247
59417.516429,-444.123565,-8438.347739,2298.286494
59417.516739,888.247130,-6883.915261,3524.039291
59417.517048,1998.556043,-5551.544565,3983.696590
59417.517358,3552.988522,-4811.338623,4903.011187
59417.517668,6439.791695,-7179.997637,6128.763984
59417.517977,3478.967927,-9474.636058,4213.525239
59417.518287,-3552.988522,-10140.821405,0.000000
59417.518597,-1258.350101,-15396.283594,-76.609550
59417.518907,-3627.009116,-11843.295072,-3753.867940
59417.519216,-1258.350101,-12435.459826,-1608.800546
59417.519526,-2664.741391,-10214.842000,-2374.896044
59417.519836,-1628.453072,-9030.512492,-1225.752797
59417.520146,-2146.597232,-9326.594869,-689.485948
59417.520455,-4737.318029,-8660.409521,0.000000
59417.520765,-222.061783,-9844.739029,3064.381992
59417.521075,-74.020594,-8290.306550,3600.648841
59417.521384,0.000000,-4811.338623,2451.505594
59417.521694,6439.791695,-5921.647536,4826.401637
59417.522004,2664.741391,-3256.906145,3600.648841
59417.522314,5847.626942,-8290.306550,4826.401637
59417.522623,518.144159,-10066.800811,919.314598
59417.522933,-2886.803174,-12065.356855,-1149.143247
59417.523243,-3404.947333,-13767.830521,-2298.286494
59417.523552,-4737.318029,-11325.150913,-4903.011187
59417.523862,-2368.659014,-10140.821405,0.000000
59417.524172,-666.185348,-10658.965565,-689.485948
59417.524481,-1850.514855,-7772.162391,-4903.011187
59417.524791,-74.020594,-13027.624579,1762.019645
59417.525100,-3552.988522,-9474.636058,1149.143247
59417.525410,148.041188,-9104.533087,3677.258390
59417.525720,1702.473667,-8142.265362,2987.772442
59417.526029,2886.803174,-5033.400406,4673.182538
59417.526339,4737.318029,-3701.029710,4903.011187
59417.526649,4071.132681,-3627.009116,3294.210641
59417.526958,0.000000,-5995.668130,612.876398
59417.527268,-148.041188,-11843.295072,919.314598
59417.527578,-2442.679609,-14211.954086,-2528.115143
59417.527887,-5921.647536,-11917.315666,-3677.258390
59417.528197,-370.102971,-15988.448347,-76.609550
59417.528506,-1776.494261,-11029.068536,-2451.505594
59417.528816,-1110.308913,-9622.677246,-2604.724693
59417.529126,-2294.638420,-11399.171507,-1378.971896
59417.529435,-1332.370696,-10362.883188,383.047749
59417.529745,-74.020594,-7698.141797,1762.019645
59417.530055,-1776.494261,-4811.338623,1608.800546
59417.530364,592.164754,-5403.503377,4290.134789
59417.530674,4663.297435,-4737.318029,4826.401637
59417.530983,4737.318029,-3627.009116,5515.887586
59417.531293,7031.956449,-8290.306550,5745.716235
59417.531603,0.000000,-9548.656652,919.314598
59417.531912,-2220.617826,-12361.439231,-459.657299
59417.532222,-3552.988522,-13767.830521,-2145.067394
59417.532532,-2886.803174,-12139.377449,-2757.943793
59417.532841,-370.102971,-13027.624579,-1915.238745
59417.533151,-2442.679609,-9326.594869,-3524.039291
59417.533461,-3552.988522,-9548.656652,-2451.505594
59417.533770,-74.020594,-14211.954086,2374.896044
59417.534080,-2886.803174,-7772.162391,0.000000
59417.534389,1184.329507,-8364.327145,4290.134789
59417.534699,0.000000,-5403.503377,2451.505594
59417.535009,2960.823768,-4663.297435,5362.668486
59417.535318,5403.503377,-3849.070898,5898.935335
59417.535628,5255.462188,-5403.503377,4903.011187
59417.535938,2294.638420,-9474.636058,4826.401637
59417.536247,-2442.679609,-11843.295072,-689.485948
59417.536557,-4737.318029,-11917.315666,-2451.505594
59417.536866,-4441.235652,-13101.645173,-612.876398
59417.537176,-3034.844362,-11843.295072,-3753.867940
59417.537486,-4145.153275,-9548.656652,-2451.505594
59417.537795,-3034.844362,-9548.656652,-3140.991542
59417.538105,-2220.617826,-9918.759623,-1149.143247
59417.538415,-1998.556043,-10732.986159,229.828649
59417.538724,-592.164754,-8734.430116,2068.457845
59417.539034,2294.638420,-9326.594869,6052.154434
59417.539344,4071.132681,-7105.977043,4826.401637
59417.539653,4367.215058,-3182.885551,4979.620737
59417.539963,6365.771101,-7105.977043,8503.660028
59417.540272,3182.885551,-4811.338623,2528.115143
59417.540582,0.000000,-7772.162391,0.000000
59417.540892,-2442.679609,-11251.130318,-383.047749
59417.541201,-3552.988522,-11991.336260,-2528.115143
59417.541511,-3775.050304,-12509.480420,-2604.724693
59417.541821,-2738.761985,-11621.233289,-3064.381992
59417.542130,-1628.453072,-11621.233289,-1532.190996
59417.542440,-1258.350101,-12731.542202,-1302.362347
59417.542749,-2442.679609,-9918.759623,-1608.800546
59417.543059,-3552.988522,-9548.656652,1225.752797
59417.543369,-74.020594,-9178.553681,2374.896044
59417.543678,0.000000,-3627.009116,1225.752797
59417.543988,5847.626942,-5921.647536,6052.154434
59417.544298,6513.812290,-5107.421000,6281.983084
59417.544607,5255.462188,-5107.421000,4673.182538
59417.544917,962.267725,-8586.388927,2451.505594
59417.545227,-2368.659014,-10732.986159,0.000000
59417.545536,-1184.329507,-12139.377449,-842.705048
59417.545846,-1258.350101,-12435.459826,-1302.362347
59417.546155,-2442.679609,-10362.883188,-4366.744339
59417.546465,-3552.988522,-10140.821405,-3064.381992
59417.546775,-1258.350101,-11547.212695,-2528.115143
59417.547084,-1554.432478,-11843.295072,-1302.362347
59417.547394,-3182.885551,-10288.862594,-536.266849
59417.547704,-1332.370696,-8660.409521,1838.629195
59417.548013,222.061783,-7105.977043,3370.820191
59417.548323,592.164754,-3627.009116,4903.011187
59417.548632,5921.647536,-4219.173869,6741.640382
59417.548942,6439.791695,-5329.482782,5745.716235
59417.549252,0.000000,-4811.338623,0.000000
59417.549561,-1480.411884,-10732.986159,1225.752797
59417.549871,-74.020594,-11843.295072,-76.609550
59417.550181,-1480.411884,-12731.542202,-612.876398
59417.550490,-2072.576638,-11843.295072,-2451.505594
59417.550800,-1776.494261,-12509.480420,-2451.505594
59417.551110,-1998.556043,-12731.542202,-2451.505594
59417.551419,-4737.318029,-9548.656652,-3677.258390
59417.551729,-4145.153275,-10732.986159,0.000000
59417.552038,-1480.411884,-9474.636058,2374.896044
59417.552348,-2442.679609,-4811.338623,76.609550
59417.552658,1184.329507,-6587.832884,5056.230287
59417.552967,6439.791695,-5921.647536,7277.907231
59417.553277,5033.400406,-3034.844362,6281.983084
59417.553587,2812.782580,-5625.565159,4213.525239
59417.553896,-592.164754,-8512.368333,2298.286494
59417.554206,-2146.597232,-9548.656652,-306.438199
59417.554516,-3034.844362,-9548.656652,-4060.306139
59417.554825,-5921.647536,-10140.821405,-4136.915689
59417.555135,-3552.988522,-11621.233289,-2451.505594
59417.555444,-1258.350101,-13027.624579,-3753.867940
59417.555754,-4145.153275,-13101.645173,-2451.505594
59417.556064,-74.020594,-14211.954086,-76.609550
59417.556373,-2368.659014,-10732.986159,612.876398
59417.556683,-74.020594,-7476.080014,2374.896044
59417.556993,1924.535449,-5773.606348,4903.011187
59417.557302,5255.462188,-4145.153275,6435.202183
59417.557612,8216.285956,-2368.659014,6052.154434
59417.557921,3404.947333,-1850.514855,3753.867940
59417.558231,592.164754,-8364.327145,4596.572988
59417.558541,-666.185348,-10658.965565,-76.609550
59417.558850,-4737.318029,-10140.821405,-2451.505594
59417.559160,-1184.329507,-13397.727550,-76.609550
59417.559470,-4441.235652,-10881.027347,-4136.915689
59417.559779,-2812.782580,-12509.480420,-3370.820191
59417.560089,-3034.844362,-13101.645173,-3370.820191
59417.560399,-3775.050304,-11991.336260,-3217.601092
59417.560708,-666.185348,-11843.295072,-76.609550
59417.561018,-1258.350101,-7994.224174,-76.609550
59417.561327,0.000000,-5403.503377,1225.752797
59417.561637,7624.121203,-7105.977043,8197.221829
59417.561947,5403.503377,-1998.556043,6128.763984
59417.562256,6513.812290,-2442.679609,7354.516781
59417.562566,2072.576638,-4589.276840,3064.381992
59417.562876,-592.164754,-9918.759623,2145.067394
59417.563185,-1776.494261,-10584.944971,-306.438199
59417.563495,-2072.576638,-11177.109724,-1685.410096
59417.563804,-666.185348,-14211.954086,-1302.362347
59417.564114,-1850.514855,-11843.295072,-4366.744339
59417.564424,-3775.050304,-12731.542202,-4979.620737
59417.564733,-6513.812290,-11917.315666,-3677.258390
59417.565043,-2442.679609,-13027.624579,-2528.115143
59417.565353,-5921.647536,-7772.162391,0.000000
59417.565662,-370.102971,-6883.915261,1762.019645
59417.565972,2960.823768,-6217.729913,5286.058936
59417.566282,6069.688724,-3404.947333,6971.469032
59417.566591,6143.709319,-3034.844362,6971.469032
59417.566901,5255.462188,-6513.812290,7124.688131
59417.567210,2294.638420,-8882.471304,3600.648841
59417.567520,-1850.514855,-9474.636058,-383.047749
59417.567830,-3552.988522,-9548.656652,0.000000
59417.568139,-962.267725,-13619.789333,-689.485948
59417.568449,-5477.523971,-9548.656652,-6128.763984
59417.568759,-2590.720797,-13027.624579,-3447.429741
59417.569068,-3552.988522,-12805.562797,-3447.429741
59417.569378,-3627.009116,-11621.233289,-2757.943793
59417.569687,-2664.741391,-10584.944971,-766.095498
59417.569997,-1628.453072,-10140.821405,3064.381992
59417.570307,2294.638420,-8142.265362,4826.401637
59417.570616,4663.297435,-5921.647536,6052.154434
59417.570926,2960.823768,-2442.679609,6741.640382
59417.571236,5255.462188,-4737.318029,6052.154434
59417.571545,-1554.432478,-3627.009116,306.438199
59417.571855,-74.020594,-10658.965565,2374.896044
59417.572165,-1554.432478,-9844.739029,-689.485948
59417.572474,-2664.741391,-11843.295072,-1455.581446
59417.572784,-2812.782580,-11991.336260,-2834.553343
59417.573093,-3552.988522,-11917.315666,-2451.505594
59417.573403,-1776.494261,-13989.892304,-1455.581446
59417.573713,-1850.514855,-14211.954086,-689.485948
59417.574022,-3330.926739,-9178.553681,-2834.553343
59417.574332,-1480.411884,-10584.944971,1532.190996
59417.574642,-74.020594,-7105.977043,1762.019645
59417.574951,3330.926739,-7105.977043,6052.154434
59417.575261,4811.338623,-4737.318029,6511.811733
59417.575571,4885.359217,-3627.009116,5898.935335
59417.575880,2072.576638,-5329.482782,3524.039291
59417.576190,0.000000,-7179.997637,612.876398
59417.576499,-1184.329507,-8956.491898,919.314598
59417.576809,-74.020594,-12805.562797,1762.019645
59417.577119,-3034.844362,-11251.130318,-3753.867940
59417.577428,-4737.318029,-10732.986159,-4290.134789
59417.577738,-74.020594,-13915.871710,-1915.238745
59417.578048,-1998.556043,-13693.809927,-2374.896044
59417.578357,-3404.947333,-10955.047942,-2451.505594
59417.578667,-2590.720797,-10214.842000,-766.095498
59417.578976,-814.226536,-8660.409521,1608.800546
59417.579286,0.000000,-4811.338623,2451.505594
59417.579596,2960.823768,-3923.091493,5515.887586
59417.579905,5921.647536,-6587.832884,9193.145976
59417.580215,592.164754,-3034.844362,2451.505594
59417.580525,1110.308913,-9030.512492,3830.477490
59417.580834,2294.638420,-11251.130318,3600.648841
59417.581144,-592.164754,-9548.656652,306.438199
59417.581454,-1258.350101,-11547.212695,-689.485948
59417.581763,-2664.741391,-11103.089130,-2528.115143
59417.582073,-1554.432478,-12065.356855,-2451.505594
59417.582382,-3034.844362,-10362.883188,-4290.134789
59417.582692,-4737.318029,-10732.986159,-4290.134789
59417.583002,-4737.318029,-10140.821405,-2451.505594
59417.583311,-74.020594,-11843.295072,-76.609550
59417.583621,0.000000,-7476.080014,1838.629195
59417.583931,6439.791695,-9474.636058,7277.907231
59417.584240,4737.318029,-4811.338623,6435.202183
59417.584550,4145.153275,-4367.215058,5592.497135
59417.584859,1480.411884,-6957.935855,3830.477490
59417.585169,148.041188,-8882.471304,2911.162892
59417.585479,-74.020594,-7402.059420,-383.047749
59417.585788,-2812.782580,-8734.430116,-1685.410096
59417.586098,-4737.318029,-9548.656652,-2451.505594
59417.586408,-74.020594,-12435.459826,-1302.362347
59417.586717,-2146.597232,-10658.965565,-3600.648841
59417.587027,-2960.823768,-13101.645173,-919.314598
59417.587337,-4293.194464,-10732.986159,-3370.820191
59417.587646,-1702.473667,-10881.027347,-459.657299
59417.587956,-74.020594,-9918.759623,1455.581446
59417.588265,1776.494261,-7994.224174,3753.867940
59417.588575,5847.626942,-7105.977043,5439.278036
59417.588885,4367.215058,-4737.318029,5286.058936
59417.589194,0.000000,-4811.338623,3677.258390
59417.589504,2294.638420,-9474.636058,4826.401637
59417.589814,0.000000,-6587.832884,1302.362347
59417.590123,-148.041188,-7402.059420,0.000000
59417.590433,-222.061783,-10658.965565,-383.047749
59417.590742,-2368.659014,-9622.677246,-2451.505594
59417.591052,-1998.556043,-10584.944971,-3294.210641
59417.591362,-2590.720797,-10584.944971,-2911.162892
59417.591671,-5921.647536,-10732.986159,-3370.820191
59417.591981,-3256.906145,-12361.439231,-1838.629195
59417.592291,-74.020594,-13027.624579,-76.609550
59417.592600,0.000000,-8364.327145,612.876398
59417.592910,4515.256246,-8290.306550,4826.401637
59417.593220,3552.988522,-6291.750507,6358.592633
59417.593529,1776.494261,-4885.359217,4290.134789
59417.593839,888.247130,-6661.853478,3983.696590
59417.594148,962.267725,-7476.080014,3677.258390
59417.594458,740.205942,-6661.853478,2298.286494
59417.594768,-74.020594,-9178.553681,-229.828649
59417.595077,-2368.659014,-10066.800811,-2528.115143
59417.595387,-4441.235652,-7772.162391,-4290.134789
59417.595697,-2072.576638,-11917.315666,-2451.505594
59417.596006,-3923.091493,-9548.656652,-6511.811733
59417.596316,-5921.647536,-10140.821405,-4596.572988
59417.596625,-2220.617826,-12287.418637,-1302.362347
59417.596935,-814.226536,-10955.047942,689.485948
59417.597245,1850.514855,-8808.450710,3217.601092
59417.597554,3478.967927,-6439.791695,5132.839837
59417.597864,1776.494261,-5699.585753,4903.011187
59417.598174,2368.659014,-7476.080014,6128.763984
59417.598483,2294.638420,-7105.977043,3600.648841
59417.598793,1184.329507,-6587.832884,3217.601092
59417.599103,1110.308913,-9474.636058,-76.609550
59417.599412,-370.102971,-9918.759623,-689.485948
59417.599722,-2368.659014,-9696.697840,-2374.896044
59417.600031,-1628.453072,-10510.924376,-3140.991542
59417.600341,-2738.761985,-11695.253884,-3294.210641
59417.600651,-3849.070898,-11399.171507,-3677.258390
59417.600960,-2738.761985,-11251.130318,-2681.334243
59417.601270,-1554.432478,-10362.883188,-1302.362347
59417.601580,0.000000,-8364.327145,2451.505594
59417.601889,3775.050304,-8290.306550,4519.963438
59417.602199,2368.659014,-6587.832884,8580.269578
59417.602509,740.205942,-5551.544565,5209.449386
59417.602818,1332.370696,-7105.977043,4213.525239
59417.603128,2442.679609,-6365.771101,3907.087040
59417.603437,1480.411884,-7105.977043,2681.334243
59417.603747,74.020594,-7698.141797,-76.609550
59417.604057,-1184.329507,-10436.903782,-2451.505594
59417.604366,-296.082377,-11029.068536,-1225.752797
59417.604676,-1850.514855,-11843.295072,-3753.867940
59417.604986,-6957.935855,-11103.089130,-7354.516781
59417.605295,-2442.679609,-15396.283594,-2911.162892
59417.605605,-1258.350101,-13027.624579,-1302.362347
59417.605914,0.000000,-10288.862594,1838.629195
59417.606224,2960.823768,-8142.265362,4519.963438
59417.606534,4219.173869,-5699.585753,5898.935335
59417.606843,3701.029710,-5995.668130,7354.516781
59417.607153,1554.432478,-6513.812290,5745.716235
59417.607463,74.020594,-4811.338623,2451.505594
59417.607772,2368.659014,-7846.182985,3983.696590
59417.608082,-74.020594,-6587.832884,-1608.800546
59417.608392,-2368.659014,-9844.739029,0.000000
59417.608701,-1184.329507,-9844.739029,-1225.752797
59417.609011,-1850.514855,-11103.089130,-3294.210641
59417.609320,-4441.235652,-11621.233289,-4443.353888
59417.609630,-5255.462188,-13175.665768,-4213.525239
59417.609940,-3034.844362,-12435.459826,-3753.867940
59417.610249,-2368.659014,-10436.903782,0.000000
59417.610559,3330.926739,-11251.130318,4213.525239
59417.610869,3478.967927,-6217.729913,3907.087040
59417.611178,2368.659014,-6587.832884,7660.954980
59417.611488,2294.638420,-5551.544565,3294.210641
59417.611797,1110.308913,-4515.256246,3370.820191
59417.612107,1406.391290,-6291.750507,3447.429741
59417.612417,370.102971,-6957.935855,2068.457845
59417.612726,-1628.453072,-8808.450710,-229.828649
59417.613036,-296.082377,-9992.780217,919.314598
59417.613346,-74.020594,-9474.636058,-2528.115143
59417.613655,-5773.606348,-9918.759623,-5898.935335
59417.613965,-7105.977043,-12509.480420,-6128.763984
59417.614275,-1850.514855,-15988.448347,-1302.362347
59417.614584,-74.020594,-14211.954086,-76.609550
59417.614894,888.247130,-9696.697840,2604.724693
59417.615203,2886.803174,-7328.038826,4060.306139
59417.615513,3478.967927,-5181.441594,4673.182538
59417.615823,2294.638420,-6291.750507,5209.449386
59417.616132,518.144159,-4959.379811,2451.505594
59417.616442,1480.411884,-6291.750507,3677.258390
59417.616752,3478.967927,-9178.553681,4213.525239
59417.617061,-814.226536,-7179.997637,0.000000
59417.617371,-74.020594,-11843.295072,1608.800546
59417.617680,-3997.112087,-8364.327145,-3677.258390
59417.617990,-2442.679609,-11843.295072,-4979.620737
59417.618300,-5625.565159,-12509.480420,-4903.011187
59417.618609,-4737.318029,-13619.789333,-3217.601092
59417.618919,-2368.659014,-12213.398043,-766.095498
59417.619229,1110.308913,-12435.459826,3140.991542
59417.619538,3478.967927,-7994.224174,2987.772442
59417.619848,2368.659014,-3923.091493,4903.011187
59417.620158,4071.132681,-8290.306550,7277.907231
59417.620467,0.000000,-3627.009116,2451.505594
59417.620777,3478.967927,-7994.224174,4826.401637
59417.621086,2294.638420,-8660.409521,3600.648841
59417.621396,-74.020594,-8734.430116,1149.143247
59417.621706,-814.226536,-8956.491898,-612.876398
59417.622015,-518.144159,-9918.759623,-1455.581446
59417.622325,-3552.988522,-8364.327145,-3677.258390
59417.622635,-4293.194464,-12213.398043,-3600.648841
59417.622944,-4811.338623,-14211.954086,-2528.115143
59417.623254,-5107.421000,-10658.965565,-4979.620737
59417.623564,-1184.329507,-12287.418637,612.876398
59417.623873,1776.494261,-9548.656652,3677.258390
59417.624183,3552.988522,-5403.503377,4213.525239
59417.624493,3701.029710,-4959.379811,5745.716235
59417.624802,2294.638420,-6217.729913,4903.011187
59417.625112,1406.391290,-6809.894666,3830.477490
59417.625422,4663.297435,-8586.388927,4213.525239
59417.625731,0.000000,-8068.244768,1455.581446
59417.626041,-888.247130,-8660.409521,536.266849
59417.626351,-1480.411884,-9548.656652,-1302.362347
59417.626660,-1036.288319,-9844.739029,-2374.896044
59417.626970,-4441.235652,-10140.821405,-2451.505594
59417.627280,-5329.482782,-13101.645173,-3677.258390
59417.627589,-1258.350101,-14211.954086,-1915.238745
59417.627899,-4145.153275,-9844.739029,-2451.505594
59417.628209,296.082377,-9844.739029,1225.752797
59417.628518,4071.132681,-8882.471304,4826.401637
59417.628828,2664.741391,-5995.668130,4060.306139
59417.629138,1406.391290,-6661.853478,3753.867940
59417.629447,0.000000,-7476.080014,3830.477490
59417.629757,1110.308913,-7402.059420,3600.648841
59417.630067,0.000000,-6587.832884,1838.629195
59417.630376,-592.164754,-8068.244768,306.438199
59417.630686,-74.020594,-9474.636058,-76.609550
59417.630996,0.000000,-7179.997637,-1532.190996
59417.631305,-888.247130,-10140.821405,-1225.752797
59417.631615,-2812.782580,-12435.459826,-383.047749
59417.631925,-5107.421000,-11251.130318,-3447.429741
59417.632234,-1702.473667,-11325.150913,-1378.971896
59417.632544,74.020594,-10955.047942,536.266849
59417.632854,1184.329507,-8216.285956,2068.457845
59417.633163,592.164754,-5995.668130,2451.505594
59417.633473,1406.391290,-8068.244768,4290.134789
59417.633783,3478.967927,-9474.636058,4826.401637
59417.634092,-2368.659014,-5995.668130,2451.505594
59417.634402,1110.308913,-8586.388927,3600.648841
59417.634712,296.082377,-8068.244768,2757.943793
59417.635021,74.020594,-7698.141797,459.657299
59417.635331,1184.329507,-7179.997637,306.438199
59417.635641,-1480.411884,-9400.615463,-1378.971896
59417.635950,-3701.029710,-10584.944971,-3140.991542
59417.636260,-6143.709319,-10436.903782,-4903.011187
59417.636570,-3701.029710,-11029.068536,-3677.258390
59417.636879,-74.020594,-12731.542202,1762.019645
59417.637189,-74.020594,-8586.388927,842.705048
59417.637499,2368.659014,-7179.997637,2604.724693
59417.637808,1776.494261,-8364.327145,4903.011187
59417.638118,518.144159,-8290.306550,2987.772442
59417.638428,-222.061783,-8956.491898,2681.334243
59417.638737,0.000000,-7402.059420,2528.115143
59417.639047,-666.185348,-7920.203579,1455.581446
59417.639357,-1258.350101,-7254.018232,-1149.143247
59417.639666,962.267725,-7402.059420,0.000000
59417.639976,3478.967927,-10658.965565,-76.609550
59417.640286,-3849.070898,-8364.327145,-2451.505594
59417.640596,-5329.482782,-11917.315666,-2451.505594
59417.640905,-4071.132681,-10732.986159,-2451.505594
59417.641215,-1406.391290,-11251.130318,-383.047749
59417.641525,-370.102971,-8882.471304,0.000000
59417.641834,1406.391290,-8142.265362,2221.676944
59417.642144,2960.823768,-8290.306550,3524.039291
59417.642454,2294.638420,-8290.306550,2987.772442
59417.642763,-1332.370696,-8956.491898,0.000000
59417.643073,-74.020594,-11695.253884,4213.525239
59417.643383,-3552.988522,-7179.997637,0.000000
59417.643692,-3552.988522,-7920.203579,0.000000
59417.644002,-4737.318029,-7179.997637,0.000000
59417.644312,-1258.350101,-9030.512492,-76.609550
59417.644621,-3552.988522,-9992.780217,-1225.752797
59417.644931,-6661.853478,-11769.274478,-2374.896044
59417.645241,-6809.894666,-11473.192101,-1838.629195
59417.645550,-3627.009116,-10658.965565,-689.485948
59417.645860,-4663.297435,-7254.018232,-1302.362347
59417.646170,-4737.318029,-7179.997637,1225.752797
59417.646479,-74.020594,-8290.306550,4826.401637
59417.646789,0.000000,-5107.421000,3217.601092
59417.647099,-3330.926739,-6587.832884,2757.943793
59417.647408,-5847.626942,-10066.800811,2374.896044
59417.647718,-5699.585753,-9474.636058,1225.752797
59417.648028,-4441.235652,-8512.368333,459.657299
59417.648337,-8068.244768,-9030.512492,-995.924147
59417.648647,-9548.656652,-11843.295072,-689.485948
59417.648957,-7624.121203,-9548.656652,-4903.011187
59417.649266,-888.247130,-10881.027347,2145.067394
59417.649576,-2146.597232,-7105.977043,1149.143247
59417.649886,-6513.812290,-8364.327145,1532.190996
59417.650195,-6143.709319,-8882.471304,0.000000
59417.650505,-3404.947333,-8882.471304,1915.238745
59417.650815,-2664.741391,-7846.182985,3064.381992
59417.651124,-5033.400406,-7550.100608,3370.820191
59417.651434,-6957.935855,-7772.162391,1838.629195
59417.651744,-4663.297435,-10214.842000,2987.772442
59417.652053,-666.185348,-9474.636058,3600.648841
59417.652363,0.000000,-4811.338623,2451.505594
59417.652673,1702.473667,-7105.977043,3600.648841
59417.652982,-6735.874072,-8068.244768,-2757.943793
59417.653292,-8660.409521,-13767.830521,-5669.106685
59417.653602,-7994.224174,-14434.015869,-2911.162892
59417.653911,-4737.318029,-11991.336260,-919.314598
59417.654221,-5847.626942,-10214.842000,-1072.533697
59417.654531,-7105.977043,-9696.697840,-76.609550
59417.654840,-4441.235652,-12065.356855,4290.134789
59417.655150,-666.185348,-9474.636058,6665.030833
59417.655460,0.000000,-2442.679609,3064.381992
59417.655769,4071.132681,-3849.070898,6665.030833
59417.656079,5847.626942,-2368.659014,4826.401637
59417.656389,6883.915261,-6217.729913,4213.525239
59417.656698,0.000000,-9622.677246,1991.848295
59417.657008,-5403.503377,-12953.603985,-3064.381992
59417.657318,-7920.203579,-16210.510130,-4596.572988
59417.657627,-6217.729913,-13693.809927,-3370.820191
59417.657937,-7105.977043,-10732.986159,-3064.381992
59417.658247,-6513.812290,-10140.821405,-2451.505594
59417.658556,-1850.514855,-13027.624579,-689.485948
59417.658866,-3034.844362,-12435.459826,153.219100
59417.659176,-2368.659014,-10881.027347,3677.258390
59417.659485,-74.020594,-7698.141797,4826.401637
59417.659795,1850.514855,-2072.576638,5515.887586
59417.660105,5995.668130,592.164754,7354.516781
59417.660414,7105.977043,1036.288319,6281.983084
59417.660724,4959.379811,-1924.535449,3677.258390
59417.661034,0.000000,-5995.668130,0.000000
59417.661343,-4737.318029,-15174.221811,-2451.505594
59417.661653,-10732.986159,-18949.272115,-8044.002729
59417.661963,-17468.860231,-21391.951724,-8580.269578
59417.662272,-14063.912898,-18431.127956,-6741.640382
59417.662582,-9548.656652,-13619.789333,-2834.553343
59417.662892,-5403.503377,-8660.409521,-919.314598
59417.663201,-888.247130,-4367.215058,3217.601092
59417.663511,3256.906145,-2886.803174,7890.783629
59417.663821,6661.853478,148.041188,8580.269578
59417.664130,4737.318029,-74.020594,7967.393179
59417.664440,1184.329507,-74.020594,5515.887586
59417.664750,-74.020594,-7105.977043,4519.963438
59417.665059,-6957.935855,-8438.347739,-1762.019645
59417.665369,-10140.821405,-14804.118840,-3447.429741
59417.665679,-14211.954086,-18949.272115,-4366.744339
59417.665988,-14285.974681,-18505.148550,-6588.421283
59417.666298,-13175.665768,-16136.489536,-5745.716235
59417.666608,-9696.697840,-13397.727550,-2374.896044
59417.666917,-5699.585753,-7328.038826,612.876398
59417.667227,370.102971,-962.267725,3370.820191
59417.667537,2294.638420,1850.514855,5975.544884
59417.667846,5329.482782,1110.308913,8580.269578
59417.668156,6735.874072,-1776.494261,7890.783629
59417.668466,2368.659014,-3034.844362,5515.887586
59417.668775,0.000000,-6291.750507,3370.820191
59417.669085,-4811.338623,-12287.418637,306.438199
59417.669395,-9178.553681,-13397.727550,-6052.154434
59417.669704,-12213.398043,-16580.613101,-7814.174080
59417.670014,-11991.336260,-19023.292709,-7737.564530
59417.670324,-8364.327145,-17764.942608,-5286.058936
59417.670633,-9104.533087,-14878.139434,-2374.896044
59417.670943,-2368.659014,-11917.315666,2757.943793
59417.671253,3478.967927,-7105.977043,7277.907231
59417.671562,4515.256246,-1258.350101,9116.536426
59417.671872,4737.318029,2294.638420,9806.022374
59417.672182,4071.132681,962.267725,9269.755526
59417.672491,4071.132681,-814.226536,7048.078582
59417.672801,74.020594,-5551.544565,3677.258390
59417.673111,-2812.782580,-8882.471304,-76.609550
59417.673420,-5107.421000,-13027.624579,-3753.867940
59417.673730,-10881.027347,-14582.057057,-6358.592633
59417.674040,-8290.306550,-18727.210333,-3064.381992
59417.674349,-6291.750507,-16580.613101,-3140.991542
59417.674659,-6513.812290,-15100.201217,-459.657299
59417.674969,296.082377,-7179.997637,2451.505594
59417.675278,6069.688724,-6661.853478,5669.106685
59417.675588,8512.368333,-2442.679609,9346.365076
59417.675898,10066.800811,666.185348,10418.898773
59417.676207,9400.615463,0.000000,12180.918418
59417.676517,9400.615463,-2368.659014,8580.269578
59417.676827,4663.297435,-8290.306550,8503.660028
59417.677136,-2368.659014,-7772.162391,3064.381992
59417.677446,-2442.679609,-13027.624579,-76.609550
59417.677756,-7105.977043,-15026.180623,-2451.505594
59417.678065,-6809.894666,-14285.974681,-2451.505594
59417.678375,-3552.988522,-14359.995275,0.000000
59417.678685,-2738.761985,-14730.098246,2068.457845
59417.678994,0.000000,-9844.739029,4060.306139
59417.679304,2886.803174,-8882.471304,7890.783629
59417.679614,7402.059420,-4441.235652,11491.432470
59417.679923,9400.615463,-3552.988522,10955.165621
59417.680233,3552.988522,2294.638420,9806.022374
59417.680543,6217.729913,-1480.411884,10955.165621
59417.680852,2516.700203,-1702.473667,4903.011187
59417.681162,-222.061783,-7105.977043,5209.449386
59417.681472,-2072.576638,-11991.336260,4290.134789
59417.681781,-3627.009116,-16506.592507,4443.353888
59417.682091,-4885.359217,-21317.931130,5209.449386
59417.682401,-6883.915261,-20799.786970,5822.325785
