#time,accel_x,accel_y,accel_z
59297.482797,-2368.659014,-7179.997637,0.000000
59297.483107,1110.308913,-10362.883188,1991.848295
59297.483417,-1184.329507,-7772.162391,0.000000
59297.483726,-74.020594,-11547.212695,-76.609550
59297.484036,-74.020594,-9844.739029,1991.848295
59297.484346,-148.041188,-9252.574275,995.924147
59297.484655,-370.102971,-9104.533087,536.266849
59297.484965,-370.102971,-9030.512492,919.314598
59297.485275,-1776.494261,-7179.997637,-1762.019645
59297.485584,1406.391290,-9548.656652,1838.629195
59297.485894,1110.308913,-10658.965565,2374.896044
59297.486204,-666.185348,-8438.347739,0.000000
59297.486513,1184.329507,-11177.109724,3370.820191
59297.486823,-1776.494261,-7179.997637,-1225.752797
59297.487133,-1554.432478,-8068.244768,0.000000
59297.487442,-444.123565,-9252.574275,1149.143247
59297.487752,-74.020594,-9474.636058,842.705048
59297.488061,-222.061783,-8882.471304,842.705048
59297.488371,1406.391290,-10658.965565,3600.648841
59297.488681,-74.020594,-9178.553681,536.266849
59297.488990,-962.267725,-8142.265362,0.000000
59297.489300,148.041188,-9770.718434,1991.848295
59297.489610,-3552.988522,-7179.997637,0.000000
59297.489919,2294.638420,-11843.295072,2374.896044
59297.490229,444.123565,-9474.636058,1608.800546
59297.490539,-370.102971,-8956.491898,842.705048
59297.490848,-592.164754,-9104.533087,1149.143247
59297.491158,-222.061783,-9400.615463,995.924147
59297.491468,-2368.659014,-6587.832884,0.000000
59297.491777,0.000000,-8956.491898,612.876398
59297.492087,222.061783,-9622.677246,1915.238745
59297.492397,-74.020594,-8290.306550,-689.485948
59297.492706,0.000000,-9548.656652,2451.505594
59297.493016,-1776.494261,-7772.162391,306.438199
59297.493325,-666.185348,-8142.265362,0.000000
59297.493635,-444.123565,-9030.512492,919.314598
59297.493945,-74.020594,-9474.636058,1149.143247
59297.494254,-296.082377,-9030.512492,842.705048
59297.494564,1036.288319,-11251.130318,3447.429741
59297.494874,1110.308913,-9474.636058,1149.143247
59297.495183,-1036.288319,-8142.265362,0.000000
59297.495493,518.144159,-11843.295072,2987.772442
59297.495803,-2368.659014,-7179.997637,0.000000
59297.496112,2294.638420,-11251.130318,1762.019645
59297.496422,296.082377,-9844.739029,1225.752797
59297.496732,-74.020594,-9326.594869,689.485948
59297.497041,-296.082377,-9178.553681,536.266849
59297.497351,-592.164754,-8882.471304,842.705048
59297.497661,-2368.659014,-6587.832884,0.000000
59297.497970,-888.247130,-8956.491898,1225.752797
59297.498280,1110.308913,-10066.800811,2374.896044
59297.498589,-3256.906145,-5995.668130,0.000000
59297.498899,1480.411884,-10658.965565,2681.334243
59297.499209,-2368.659014,-7179.997637,0.000000
59297.499518,-814.226536,-8734.430116,76.609550
59297.499828,-888.247130,-8364.327145,306.438199
59297.500138,-518.144159,-9178.553681,842.705048
59297.500447,-592.164754,-9030.512492,536.266849
59297.500757,1110.308913,-9474.636058,1762.019645
59297.501067,-370.102971,-8882.471304,689.485948
59297.501376,-1480.411884,-7772.162391,0.000000
59297.501686,2294.638420,-11251.130318,2987.772442
59297.501996,-962.267725,-8142.265362,-153.219100
59297.502305,-222.061783,-8290.306550,0.000000
59297.502615,-74.020594,-9992.780217,1302.362347
59297.502925,-592.164754,-8956.491898,612.876398
59297.503234,-370.102971,-8882.471304,995.924147
59297.503544,-296.082377,-9178.553681,842.705048
59297.503853,-1184.329507,-8364.327145,612.876398
59297.504163,-74.020594,-9178.553681,995.924147
59297.504473,74.020594,-8956.491898,1072.533697
59297.504782,666.185348,-8290.306550,689.485948
59297.505092,888.247130,-8734.430116,1378.971896
59297.505402,1702.473667,-8290.306550,-76.609550
59297.505711,1406.391290,-7772.162391,0.000000
59297.506021,2368.659014,-8956.491898,2451.505594
59297.506331,2886.803174,-9474.636058,-76.609550
59297.506640,1776.494261,-8364.327145,1225.752797
59297.506950,2886.803174,-8882.471304,0.000000
59297.507260,2442.679609,-8364.327145,0.000000
59297.507569,3478.967927,-10066.800811,-76.609550
59297.507879,592.164754,-8364.327145,0.000000
59297.508189,4367.215058,-11843.295072,-76.609550
59297.508498,2368.659014,-8512.368333,766.095498
59297.508808,3552.988522,-8808.450710,1225.752797
59297.509117,4515.256246,-8734.430116,1225.752797
59297.509427,5329.482782,-8290.306550,1685.410096
59297.509737,5551.544565,-8660.409521,1532.190996
59297.510046,8216.285956,-9474.636058,2374.896044
59297.510356,4959.379811,-8438.347739,536.266849
59297.510666,4737.318029,-7476.080014,0.000000
59297.510975,8216.285956,-11547.212695,2068.457845
59297.511285,3997.112087,-7179.997637,-1532.190996
59297.511595,7031.956449,-9474.636058,-689.485948
59297.511904,6809.894666,-10658.965565,306.438199
59297.512214,5551.544565,-11251.130318,-229.828649
59297.512524,4071.132681,-12361.439231,0.000000
59297.512833,2590.720797,-12509.480420,-306.438199
59297.513143,0.000000,-10436.903782,0.000000
59297.513452,2294.638420,-10955.047942,689.485948
59297.513762,2368.659014,-8438.347739,612.876398
59297.514072,3404.947333,-6587.832884,1378.971896
59297.514381,5033.400406,-4811.338623,2068.457845
59297.514691,8808.450710,-4737.318029,2374.896044
59297.515001,8808.450710,-4145.153275,2374.896044
59297.515310,7105.977043,-4811.338623,2451.505594
59297.515620,9104.533087,-6365.771101,1149.143247
59297.515930,3552.988522,-10436.903782,0.000000
59297.516239,148.041188,-12953.603985,-3677.258390
59297.516549,-4367.215058,-18209.066173,-3447.429741
59297.516859,-4367.215058,-14211.954086,-3983.696590
59297.517168,-4589.276840,-11917.315666,-3064.381992
59297.517478,-2146.597232,-7328.038826,-1302.362347
59297.517788,2294.638420,-7105.977043,2068.457845
59297.518097,4663.297435,-8290.306550,4826.401637
59297.518407,4737.318029,-3627.009116,4903.011187
59297.518716,5551.544565,-7698.141797,7124.688131
59297.519026,1924.535449,-3627.009116,3370.820191
59297.519336,2294.638420,-4145.153275,1532.190996
59297.519645,2368.659014,-4145.153275,2604.724693
59297.519955,1702.473667,-5625.565159,536.266849
59297.520265,-2516.700203,-9400.615463,-2221.676944
59297.520574,-6217.729913,-15692.365970,-3140.991542
59297.520884,-8142.265362,-21836.075289,-2374.896044
59297.521194,-8364.327145,-22206.178260,-1685.410096
59297.521503,-7772.162391,-14211.954086,-4366.744339
59297.521813,-8882.471304,-6587.832884,-2451.505594
59297.522123,-1332.370696,-2590.720797,1991.848295
59297.522432,4663.297435,-1702.473667,4213.525239
59297.522742,4737.318029,518.144159,7354.516781
59297.523052,3849.070898,-2812.782580,7201.297681
59297.523361,1258.350101,-5403.503377,5439.278036
59297.523671,-740.205942,-7254.018232,4136.915689
59297.523980,-2072.576638,-7476.080014,2911.162892
59297.524290,-2960.823768,-7179.997637,0.000000
59297.524600,-4811.338623,-11843.295072,-1915.238745
59297.524909,-9474.636058,-14285.974681,-4290.134789
59297.525219,-8290.306550,-19023.292709,-2451.505594
59297.525529,-7254.018232,-18949.272115,-1302.362347
59297.525838,-7402.059420,-13101.645173,-2451.505594
59297.526148,-4515.256246,-7846.182985,0.000000
59297.526458,740.205942,-2368.659014,3600.648841
59297.526767,6883.915261,2812.782580,5515.887586
59297.527077,7105.977043,3478.967927,6128.763984
59297.527387,2960.823768,-1258.350101,4903.011187
59297.527696,4663.297435,-9474.636058,4826.401637
59297.528006,0.000000,-10140.821405,612.876398
59297.528316,-74.020594,-12731.542202,1072.533697
59297.528625,-814.226536,-11251.130318,-76.609550
59297.528935,-2738.761985,-10066.800811,-2987.772442
59297.529244,-3478.967927,-11991.336260,-2911.162892
59297.529554,-3182.885551,-16580.613101,-1608.800546
59297.529864,-2294.638420,-17172.777854,0.000000
59297.530173,-2368.659014,-12509.480420,-1532.190996
59297.530483,-3552.988522,-7772.162391,0.000000
59297.530793,3923.091493,-5477.523971,4290.134789
59297.531102,6143.709319,592.164754,4213.525239
59297.531412,7402.059420,814.226536,5515.887586
59297.531722,6587.832884,-4737.318029,5515.887586
59297.532031,3330.926739,-9696.697840,2145.067394
59297.532341,1110.308913,-15322.262999,153.219100
59297.532651,814.226536,-16432.571912,919.314598
59297.532960,0.000000,-11325.150913,-3447.429741
59297.533270,518.144159,-10510.924376,-2834.553343
59297.533580,-666.185348,-12435.459826,-3140.991542
59297.533889,-3552.988522,-13101.645173,-3064.381992
59297.534199,-1258.350101,-18209.066173,995.924147
59297.534508,-2590.720797,-13841.851115,-1302.362347
59297.534818,-3849.070898,-11029.068536,612.876398
59297.535128,814.226536,-5403.503377,1762.019645
59297.535437,3478.967927,-1998.556043,4366.744339
59297.535747,6217.729913,814.226536,5132.839837
59297.536057,5255.462188,-888.247130,4826.401637
59297.536366,2886.803174,-7698.141797,4673.182538
59297.536676,-74.020594,-13027.624579,-76.609550
59297.536986,-4737.318029,-13101.645173,0.000000
59297.537295,-1554.432478,-12361.439231,-306.438199
59297.537605,-2590.720797,-10362.883188,-689.485948
59297.537915,-3552.988522,-5403.503377,-3677.258390
59297.538224,-1480.411884,-10955.047942,-1149.143247
59297.538534,-1776.494261,-11695.253884,-1532.190996
59297.538844,-4219.173869,-14508.036463,-995.924147
59297.539153,-4663.297435,-15396.283594,-76.609550
59297.539463,-666.185348,-10658.965565,1225.752797
59297.539772,1628.453072,-5625.565159,4903.011187
59297.540082,3478.967927,0.000000,4213.525239
59297.540392,1480.411884,1702.473667,3677.258390
59297.540701,2886.803174,-4737.318029,3983.696590
59297.541011,0.000000,-8660.409521,1915.238745
59297.541321,-2590.720797,-13693.809927,1608.800546
59297.541630,-3404.947333,-13175.665768,-306.438199
59297.541940,-3552.988522,-10436.903782,-1378.971896
59297.542250,-1258.350101,-8734.430116,-76.609550
59297.542559,-1184.329507,-9252.574275,-1685.410096
59297.542869,-2368.659014,-11029.068536,-612.876398
59297.543179,-2442.679609,-15988.448347,-689.485948
59297.543488,-5699.585753,-14285.974681,-4596.572988
59297.543798,-2368.659014,-12509.480420,0.000000
59297.544108,-74.020594,-7402.059420,1762.019645
59297.544417,1924.535449,-2220.617826,3524.039291
59297.544727,3627.009116,-2146.597232,4979.620737
59297.545036,4959.379811,-3627.009116,5362.668486
59297.545346,4737.318029,-8956.491898,6435.202183
59297.545656,1184.329507,-11325.150913,3907.087040
59297.545965,-1184.329507,-13101.645173,2451.505594
59297.546275,-666.185348,-11547.212695,-76.609550
59297.546585,-2664.741391,-6291.750507,-4903.011187
59297.546894,-444.123565,-4811.338623,-3370.820191
59297.547204,-74.020594,-9474.636058,-1302.362347
59297.547514,-1998.556043,-12583.501014,-2451.505594
59297.547823,-2664.741391,-15544.324782,-2145.067394
59297.548133,-2812.782580,-16580.613101,-1072.533697
59297.548443,-2368.659014,-9844.739029,0.000000
59297.548752,0.000000,-4811.338623,0.000000
59297.549062,2664.741391,-3034.844362,3677.258390
59297.549372,7031.956449,-4737.318029,5439.278036
59297.549681,4145.153275,-4811.338623,1225.752797
59297.549988,3849.070898,-9474.636058,4826.401637
59297.550297,2294.638420,-11843.295072,3600.648841
59297.550607,-814.226536,-9400.615463,383.047749
59297.550917,-1184.329507,-7254.018232,-919.314598
59297.551226,0.000000,-5699.585753,-1915.238745
59297.551536,-1480.411884,-6587.832884,-3370.820191
59297.551845,-2886.803174,-11843.295072,-1532.190996
59297.552155,-5921.647536,-15470.304188,-3677.258390
59297.552465,-3108.864956,-18505.148550,-995.924147
59297.552774,-3108.864956,-12509.480420,-3600.648841
59297.553084,-592.164754,-9474.636058,2374.896044
59297.553393,2294.638420,-4737.318029,4596.572988
59297.553703,5255.462188,-4737.318029,6665.030833
59297.554013,5403.503377,-4959.379811,5286.058936
59297.554322,3923.091493,-8068.244768,4903.011187
59297.554632,0.000000,-8364.327145,2604.724693
59297.554941,-1554.432478,-9474.636058,1225.752797
59297.555251,-2960.823768,-6587.832884,0.000000
59297.555561,-74.020594,-7105.977043,-76.609550
59297.555870,-1628.453072,-5329.482782,-3140.991542
59297.556180,-3330.926739,-11029.068536,-1608.800546
59297.556489,-4737.318029,-15470.304188,-2451.505594
59297.556799,-5107.421000,-17987.004391,-1915.238745
59297.557109,-4885.359217,-15470.304188,-1149.143247
59297.557418,-3478.967927,-9252.574275,306.438199
59297.557728,-74.020594,-3256.906145,2374.896044
59297.558037,3182.885551,-2516.700203,5132.839837
59297.558347,2368.659014,-1258.350101,3064.381992
59297.558657,4219.173869,-7698.141797,5822.325785
59297.558966,1554.432478,-8660.409521,1149.143247
59297.559276,-74.020594,-12213.398043,3677.258390
59297.559585,-2072.576638,-8956.491898,0.000000
59297.559895,-1850.514855,-7402.059420,-1149.143247
59297.560205,-2072.576638,-7031.956449,-2068.457845
59297.560514,-2738.761985,-10214.842000,-2528.115143
59297.560824,-2442.679609,-15396.283594,-2528.115143
59297.561133,-3627.009116,-17542.880825,-459.657299
59297.561443,-3034.844362,-16580.613101,-76.609550
59297.561753,-3997.112087,-8660.409521,0.000000
59297.562062,2368.659014,-6439.791695,6128.763984
59297.562372,3552.988522,-1258.350101,5515.887586
59297.562682,2960.823768,-1258.350101,3677.258390
59297.562991,4515.256246,-5477.523971,4749.792088
59297.563301,2442.679609,-9474.636058,3907.087040
59297.563610,-148.041188,-12213.398043,1838.629195
59297.563920,-666.185348,-12435.459826,-76.609550
59297.564230,-148.041188,-9030.512492,-306.438199
59297.564539,-74.020594,-8882.471304,-1302.362347
59297.564849,-2368.659014,-6809.894666,-3677.258390
59297.565158,-2368.659014,-13101.645173,0.000000
59297.565468,-3552.988522,-14582.057057,-2451.505594
59297.565778,-3849.070898,-14656.077652,-1762.019645
59297.566087,-2368.659014,-11177.109724,766.095498
59297.566397,0.000000,-5625.565159,1685.410096
59297.566706,2960.823768,-1776.494261,3600.648841
59297.567016,7179.997637,-1998.556043,5362.668486
59297.567326,5921.647536,-3923.091493,5515.887586
59297.567635,5551.544565,-9474.636058,4519.963438
59297.567945,0.000000,-11177.109724,0.000000
59297.568254,-74.020594,-15100.201217,2145.067394
59297.568564,-3627.009116,-9844.739029,-4136.915689
59297.568874,-1850.514855,-7994.224174,-2834.553343
59297.569183,-1406.391290,-8882.471304,-2681.334243
59297.569493,-1554.432478,-11843.295072,-2374.896044
59297.569802,-2738.761985,-15396.283594,-1378.971896
59297.570112,-2368.659014,-15174.221811,0.000000
59297.570422,-1258.350101,-12509.480420,0.000000
59297.570731,0.000000,-7179.997637,2451.505594
59297.571041,4663.297435,-3552.988522,4826.401637
59297.571350,2368.659014,-74.020594,3677.258390
59297.571660,5181.441594,-1110.308913,4519.963438
59297.571970,4663.297435,-7105.977043,4519.963438
59297.572279,0.000000,-11917.315666,2145.067394
59297.572589,-2664.741391,-13027.624579,-383.047749
59297.572898,-3478.967927,-11843.295072,-2068.457845
59297.573208,-4441.235652,-8364.327145,-3677.258390
59297.573518,-3552.988522,-4811.338623,-4519.963438
59297.573827,-4441.235652,-8364.327145,-2451.505594
59297.574137,-2368.659014,-13989.892304,-76.609550
59297.574446,-3627.009116,-14137.933492,-2528.115143
59297.574756,-2738.761985,-13027.624579,-383.047749
59297.575066,-74.020594,-10362.883188,2987.772442
59297.575375,1184.329507,-3256.906145,3524.039291
59297.575685,3701.029710,-740.205942,4903.011187
59297.575994,4885.359217,-962.267725,4826.401637
59297.576304,2368.659014,-4811.338623,3907.087040
59297.576614,1998.556043,-11103.089130,3447.429741
59297.576923,-3552.988522,-13101.645173,306.438199
59297.577233,-2442.679609,-13471.748144,-76.609550
59297.577542,-6513.812290,-8364.327145,-4290.134789
59297.577852,-1258.350101,-9474.636058,-1302.362347
59297.578162,-1258.350101,-9474.636058,-1072.533697
59297.578471,-2442.679609,-12139.377449,-1302.362347
59297.578781,-3256.906145,-13767.830521,-1685.410096
59297.579090,-2664.741391,-15248.242405,306.438199
59297.579400,-1998.556043,-9918.759623,2068.457845
59297.579710,1110.308913,-5773.606348,3907.087040
59297.580019,1258.350101,-74.020594,2911.162892
59297.580329,3923.091493,-1850.514855,7277.907231
59297.580638,4663.297435,-3552.988522,2987.772442
59297.580948,3182.885551,-10658.965565,4213.525239
59297.581258,-592.164754,-13767.830521,2451.505594
59297.581567,-2664.741391,-13175.665768,-383.047749
59297.581877,-3108.864956,-11029.068536,-1532.190996
59297.582186,-1998.556043,-6809.894666,-2681.334243
59297.582496,-74.020594,-6217.729913,-2221.676944
59297.582806,-1628.453072,-9030.512492,-1532.190996
59297.583115,-1850.514855,-13027.624579,-2068.457845
59297.583425,-3256.906145,-15470.304188,0.000000
59297.583734,-592.164754,-14878.139434,2757.943793
59297.584044,1702.473667,-9474.636058,4060.306139
59297.584354,592.164754,-2442.679609,3064.381992
59297.584663,4737.318029,-1776.494261,4903.011187
59297.584973,5107.421000,-3330.926739,3907.087040
59297.585282,3034.844362,-7328.038826,3140.991542
59297.585592,1702.473667,-13027.624579,1762.019645
59297.585902,-2368.659014,-13101.645173,-766.095498
59297.586211,-666.185348,-12731.542202,-689.485948
59297.586521,-2368.659014,-6217.729913,-4060.306139
59297.586831,0.000000,-5107.421000,-2451.505594
59297.587140,592.164754,-8364.327145,0.000000
59297.587450,-2368.659014,-11029.068536,-2145.067394
59297.587759,-2516.700203,-15470.304188,-1149.143247
59297.588069,-3108.864956,-15248.242405,-842.705048
59297.588379,-1258.350101,-11325.150913,919.314598
59297.588688,1702.473667,-6809.894666,2834.553343
59297.588998,2368.659014,-2442.679609,3677.258390
59297.589307,5255.462188,-3552.988522,4519.963438
59297.589617,2664.741391,-4811.338623,3677.258390
59297.589927,4663.297435,-13027.624579,4826.401637
59297.590236,-2368.659014,-10732.986159,919.314598
59297.590546,-3256.906145,-10732.986159,-919.314598
59297.590855,-2146.597232,-8512.368333,-1302.362347
59297.591165,-592.164754,-5995.668130,-1225.752797
59297.591475,-888.247130,-6291.750507,-1838.629195
59297.591784,-1776.494261,-9992.780217,-1455.581446
59297.592094,-4145.153275,-14582.057057,-1072.533697
59297.592403,-2738.761985,-17468.860231,-76.609550
59297.592713,-4589.276840,-10881.027347,-2451.505594
59297.593023,-1184.329507,-8660.409521,3677.258390
59297.593332,0.000000,-1258.350101,1532.190996
59297.593642,3478.967927,-1776.494261,3294.210641
59297.593951,3775.050304,-4219.173869,4060.306139
59297.594261,3108.864956,-8216.285956,4136.915689
59297.594571,0.000000,-11473.192101,2451.505594
59297.594880,-2368.659014,-11917.315666,459.657299
59297.595190,-3552.988522,-9548.656652,0.000000
59297.595499,-1036.288319,-7772.162391,0.000000
59297.595809,-74.020594,-8290.306550,-76.609550
59297.596119,-3256.906145,-7476.080014,-3294.210641
59297.596428,-3849.070898,-12509.480420,-4290.134789
59297.596738,-2442.679609,-17172.777854,-689.485948
59297.597047,-2960.823768,-14211.954086,0.000000
59297.597357,-1258.350101,-9474.636058,1608.800546
59297.597667,1036.288319,-3775.050304,3140.991542
59297.597976,2368.659014,-1258.350101,4596.572988
59297.598286,2960.823768,-1258.350101,3677.258390
59297.598595,4145.153275,-7328.038826,4903.011187
59297.598905,1110.308913,-11251.130318,1762.019645
59297.599215,-2368.659014,-11917.315666,0.000000
59297.599524,-1850.514855,-10955.047942,-1302.362347
59297.599834,-370.102971,-8734.430116,-689.485948
59297.600143,-1258.350101,-6217.729913,-2221.676944
59297.600453,-1184.329507,-7920.203579,-1991.848295
59297.600763,-2442.679609,-12657.521608,-2068.457845
59297.601072,-3923.091493,-15396.283594,-689.485948
59297.601382,-3108.864956,-15988.448347,229.828649
59297.601691,-3256.906145,-9548.656652,153.219100
59297.602001,1110.308913,-8290.306550,4826.401637
59297.602311,1998.556043,-592.164754,2374.896044
59297.602620,5847.626942,-2220.617826,6052.154434
59297.602930,5181.441594,-5181.441594,3983.696590
59297.603239,1998.556043,-10214.842000,1991.848295
59297.603549,-1776.494261,-13175.665768,229.828649
59297.603859,-2738.761985,-12879.583391,-1685.410096
59297.604168,-1850.514855,-11103.089130,-1608.800546
59297.604478,-148.041188,-7550.100608,-1685.410096
59297.604787,-666.185348,-7550.100608,-2528.115143
59297.605097,-2368.659014,-9548.656652,0.000000
59297.605407,-74.020594,-16580.613101,-76.609550
59297.605716,-74.020594,-16580.613101,-76.609550
59297.606026,-1776.494261,-12213.398043,1532.190996
59297.606335,370.102971,-6291.750507,2604.724693
59297.606645,2294.638420,-2368.659014,4213.525239
59297.606955,4071.132681,-1406.391290,4519.963438
59297.607264,5033.400406,-3256.906145,4749.792088
59297.607574,2220.617826,-8512.368333,3217.601092
59297.607883,-1406.391290,-12361.439231,229.828649
59297.608193,-4737.318029,-11917.315666,0.000000
59297.608503,-518.144159,-13619.789333,-76.609550
59297.608812,-74.020594,-10658.965565,-76.609550
59297.609122,-1628.453072,-6365.771101,-1532.190996
59297.609432,-1110.308913,-9622.677246,-995.924147
59297.609741,-2294.638420,-13323.706956,-842.705048
59297.610051,-3034.844362,-15914.427753,153.219100
59297.610360,-1702.473667,-13027.624579,919.314598
59297.610670,-1480.411884,-8364.327145,2681.334243
59297.610980,1702.473667,-2960.823768,3600.648841
59297.611289,1184.329507,-74.020594,3677.258390
59297.611599,6439.791695,-4145.153275,5898.935335
59297.611908,3108.864956,-7772.162391,4290.134789
59297.612218,-1184.329507,-11621.233289,612.876398
59297.612528,-2738.761985,-13767.830521,-995.924147
59297.612837,-3108.864956,-13397.727550,-1685.410096
59297.613147,-2516.700203,-9400.615463,-1991.848295
59297.613456,-888.247130,-6291.750507,-2451.505594
59297.613766,-740.205942,-9178.553681,-919.314598
59297.614076,-1258.350101,-13027.624579,-76.609550
59297.614385,-4737.318029,-11917.315666,-2451.505594
59297.614695,-1776.494261,-14285.974681,2451.505594
59297.615004,0.000000,-9548.656652,3370.820191
59297.615314,444.123565,-3627.009116,2604.724693
59297.615624,2738.761985,-1184.329507,3907.087040
59297.615933,4219.173869,-1554.432478,3907.087040
59297.616243,3627.009116,-5107.421000,3370.820191
59297.616552,444.123565,-9918.759623,1455.581446
59297.616862,-2960.823768,-13397.727550,0.000000
59297.617172,-2442.679609,-14211.954086,-76.609550
59297.617481,-3923.091493,-7994.224174,-4060.306139
59297.617791,-2368.659014,-6587.832884,-1532.190996
59297.618100,-2368.659014,-5403.503377,-2451.505594
59297.618410,-962.267725,-10510.924376,-1455.581446
59297.618720,-2368.659014,-14211.954086,-383.047749
59297.619029,-2664.741391,-14952.160028,766.095498
59297.619339,-1628.453072,-11621.233289,1378.971896
59297.619648,-666.185348,-5921.647536,3294.210641
59297.619958,592.164754,-1850.514855,3064.381992
59297.620268,5551.544565,-2368.659014,4826.401637
59297.620577,1998.556043,-666.185348,1532.190996
59297.620887,1480.411884,-8364.327145,3370.820191
59297.621196,-2294.638420,-11769.274478,0.000000
59297.621506,-2442.679609,-14804.118840,-689.485948
59297.621816,-3775.050304,-11621.233289,-1991.848295
59297.622125,-1554.432478,-8142.265362,-1532.190996
59297.622435,-296.082377,-6291.750507,-1302.362347
59297.622744,-740.205942,-9178.553681,-229.828649
59297.623054,-2368.659014,-11917.315666,-1225.752797
59297.623364,-2960.823768,-14285.974681,0.000000
59297.623673,-74.020594,-16580.613101,2374.896044
59297.623983,-370.102971,-7994.224174,1149.143247
59297.624292,1110.308913,-2368.659014,1608.800546
59297.624602,4293.194464,-2294.638420,4443.353888
59297.624912,3923.091493,-2368.659014,3753.867940
59297.625221,3108.864956,-6661.853478,3064.381992
59297.625531,296.082377,-11843.295072,1762.019645
59297.625840,-1850.514855,-15396.283594,1149.143247
59297.626150,-2738.761985,-12879.583391,-919.314598
59297.626460,-3404.947333,-6291.750507,-4213.525239
59297.626769,0.000000,-5995.668130,0.000000
59297.627079,-74.020594,-8290.306550,-689.485948
59297.627388,-74.020594,-11843.295072,-689.485948
59297.627698,-2368.659014,-15840.407159,0.000000
59297.628008,-2738.761985,-15174.221811,536.266849
59297.628317,-2072.576638,-10881.027347,1762.019645
59297.628627,-370.102971,-5181.441594,3217.601092
59297.628936,2738.761985,-2664.741391,5132.839837
59297.629246,4367.215058,-1628.453072,4060.306139
59297.629556,2368.659014,-3034.844362,306.438199
59297.629865,3108.864956,-11843.295072,4519.963438
59297.630175,-666.185348,-14211.954086,-76.609550
59297.630484,-1258.350101,-15100.201217,-383.047749
59297.630794,-3330.926739,-9844.739029,-1838.629195
59297.631104,-1406.391290,-7624.121203,-1455.581446
59297.631413,-370.102971,-6217.729913,-2374.896044
59297.631723,-962.267725,-10288.862594,-1685.410096
59297.632033,-888.247130,-13841.851115,0.000000
59297.632342,-1924.535449,-14952.160028,383.047749
59297.632652,-2146.597232,-10881.027347,-229.828649
59297.632961,0.000000,-5995.668130,2451.505594
59297.633271,3478.967927,-4145.153275,4826.401637
59297.633581,6735.874072,-3552.988522,6665.030833
59297.633890,3923.091493,-2368.659014,3677.258390
59297.634200,2294.638420,-8956.491898,2911.162892
59297.634509,-962.267725,-12879.583391,612.876398
59297.634819,-2590.720797,-14359.995275,-612.876398
59297.635129,-3256.906145,-11325.150913,0.000000
59297.635438,-962.267725,-8956.491898,-689.485948
59297.635748,-74.020594,-8290.306550,-76.609550
59297.636057,-3034.844362,-7179.997637,-2987.772442
59297.636367,-3552.988522,-13101.645173,0.000000
59297.636677,-2664.741391,-16358.551318,1685.410096
59297.636986,-2812.782580,-14211.954086,229.828649
59297.637296,-1776.494261,-8734.430116,2298.286494
59297.637605,1036.288319,-3775.050304,3524.039291
59297.637915,3627.009116,-814.226536,3983.696590
59297.638225,2664.741391,-148.041188,2451.505594
59297.638534,3552.988522,-6439.791695,3370.820191
59297.638844,518.144159,-11843.295072,-76.609550
59297.639153,-4737.318029,-11917.315666,0.000000
59297.639463,-2590.720797,-14582.057057,-229.828649
59297.639773,-3552.988522,-9548.656652,-1685.410096
59297.640082,-962.267725,-6809.894666,-2221.676944
59297.640392,-1110.308913,-7328.038826,-1915.238745
59297.640701,-1036.288319,-11769.274478,-689.485948
59297.641011,-1628.453072,-14434.015869,306.438199
59297.641321,-2294.638420,-13101.645173,0.000000
59297.641630,-592.164754,-11029.068536,3064.381992
59297.641940,3478.967927,-8290.306550,6052.154434
59297.642249,1998.556043,-148.041188,2374.896044
59297.642559,2960.823768,-666.185348,3983.696590
59297.642869,2368.659014,-2738.761985,3064.381992
59297.643178,1702.473667,-11177.109724,2374.896044
59297.643488,-1998.556043,-13619.789333,0.000000
59297.643797,-2886.803174,-14211.954086,-1149.143247
59297.644107,-2664.741391,-10510.924376,-1378.971896
59297.644417,-1258.350101,-6809.894666,-2528.115143
59297.644726,-1776.494261,-5995.668130,-1838.629195
59297.645036,0.000000,-9548.656652,612.876398
59297.645345,-74.020594,-15396.283594,-76.609550
59297.645655,-2442.679609,-14508.036463,0.000000
59297.645965,-4145.153275,-10732.986159,919.314598
59297.646274,-370.102971,-7550.100608,2911.162892
59297.646584,1258.350101,-2368.659014,3140.991542
59297.646893,3330.926739,-1184.329507,3600.648841
59297.647203,3627.009116,-3330.926739,3447.429741
59297.647513,2886.803174,-9474.636058,2374.896044
59297.647822,-3552.988522,-11325.150913,-1225.752797
59297.648132,-2812.782580,-15914.427753,1225.752797
59297.648441,-2442.679609,-13027.624579,-1915.238745
59297.648751,-2960.823768,-7179.997637,-2451.505594
59297.649061,-666.185348,-5625.565159,-3677.258390
59297.649370,0.000000,-8586.388927,-766.095498
59297.649680,-518.144159,-13249.686362,0.000000
59297.649989,-1406.391290,-14804.118840,1149.143247
59297.650299,-1406.391290,-13767.830521,2068.457845
59297.650609,-74.020594,-10658.965565,4213.525239
59297.650918,1110.308913,-3552.988522,2374.896044
59297.651228,0.000000,-74.020594,2451.505594
59297.651537,6217.729913,-4145.153275,5362.668486
59297.651847,2220.617826,-5477.523971,2068.457845
59297.652157,962.267725,-11843.295072,0.000000
59297.652467,-2368.659014,-14285.974681,0.000000
59297.652776,-2960.823768,-13175.665768,-1149.143247
59297.653086,-1850.514855,-9030.512492,-1072.533697
59297.653396,-518.144159,-6069.688724,-76.609550
59297.653706,1110.308913,-8882.471304,-76.609550
59297.654016,-222.061783,-11843.295072,-76.609550
59297.654325,-74.020594,-15396.283594,-383.047749
59297.654635,-4737.318029,-13397.727550,0.000000
59297.654945,-2368.659014,-11029.068536,2451.505594
59297.655255,-74.020594,-6513.812290,1838.629195
59297.655565,0.000000,-666.185348,2451.505594
59297.655874,3552.988522,-2072.576638,4136.915689
59297.656184,2738.761985,-4737.318029,2987.772442
59297.656494,740.205942,-9252.574275,2221.676944
59297.656804,-666.185348,-15396.283594,2068.457845
59297.657114,-3034.844362,-12435.459826,-1608.800546
59297.657423,-3552.988522,-10732.986159,0.000000
59297.657733,-74.020594,-7105.977043,-1302.362347
59297.658043,-1776.494261,-5403.503377,-2451.505594
59297.658353,-74.020594,-10066.800811,-1608.800546
59297.658663,-2072.576638,-13397.727550,-383.047749
59297.658973,-1628.453072,-14582.057057,766.095498
59297.659282,-1258.350101,-13249.686362,1149.143247
59297.659592,0.000000,-7550.100608,3600.648841
59297.659902,3256.906145,-4441.235652,4826.401637
59297.660212,5255.462188,-2368.659014,3600.648841
59297.660522,2368.659014,-1258.350101,2451.505594
59297.660831,4663.297435,-9474.636058,3600.648841
59297.661141,518.144159,-12879.583391,1149.143247
59297.661451,-296.082377,-14211.954086,-383.047749
59297.661761,-2072.576638,-11991.336260,-919.314598
59297.662071,-444.123565,-7179.997637,-919.314598
59297.662380,0.000000,-6291.750507,-919.314598
59297.662690,0.000000,-8068.244768,-612.876398
59297.663000,-2368.659014,-11917.315666,0.000000
59297.663310,-1850.514855,-16432.571912,1608.800546
59297.663620,-2442.679609,-15988.448347,-76.609550
59297.663929,-4737.318029,-9548.656652,0.000000
59297.664239,814.226536,-4515.256246,3370.820191
59297.664549,3849.070898,-2664.741391,4826.401637
59297.664859,4071.132681,-666.185348,3983.696590
59297.665169,2516.700203,-5181.441594,3370.820191
59297.665478,370.102971,-10362.883188,1762.019645
59297.665788,-2368.659014,-13249.686362,0.000000
59297.666098,-4737.318029,-10732.986159,0.000000
59297.666408,-1776.494261,-10140.821405,0.000000
59297.666718,-74.020594,-8882.471304,-76.609550
59297.667027,-2072.576638,-5699.585753,-2911.162892
59297.667337,-1184.329507,-11325.150913,0.000000
59297.667647,-1776.494261,-15988.448347,1762.019645
59297.667957,-2146.597232,-15100.201217,229.828649
59297.668267,-1850.514855,-11695.253884,1225.752797
59297.668576,-370.102971,-6439.791695,2145.067394
59297.668886,2072.576638,-2442.679609,2451.505594
59297.669196,2368.659014,-74.020594,1225.752797
59297.669506,4145.153275,-4219.173869,3677.258390
59297.669816,4663.297435,-11251.130318,3600.648841
59297.670125,-2960.823768,-11325.150913,0.000000
59297.670435,-1776.494261,-13989.892304,919.314598
59297.670745,-2072.576638,-10732.986159,153.219100
59297.671055,-518.144159,-7402.059420,-766.095498
59297.671365,-666.185348,-6587.832884,-1532.190996
59297.671674,-1554.432478,-10066.800811,-1532.190996
59297.671984,-2590.720797,-13693.809927,-1915.238745
59297.672294,-4219.173869,-14285.974681,-3217.601092
59297.672604,-4737.318029,-12509.480420,0.000000
59297.672914,-2368.659014,-7772.162391,2451.505594
59297.673223,1702.473667,-3256.906145,2374.896044
59297.673533,1776.494261,-74.020594,4826.401637
59297.673843,3627.009116,-1850.514855,4290.134789
59297.674153,2738.761985,-7624.121203,3217.601092
59297.674463,-296.082377,-11695.253884,1455.581446
59297.674772,-2220.617826,-13619.789333,153.219100
59297.675082,-2442.679609,-11843.295072,-1302.362347
59297.675392,-1258.350101,-8882.471304,-2834.553343
59297.675702,-1332.370696,-6513.812290,-2528.115143
59297.676012,-2368.659014,-7772.162391,0.000000
59297.676321,-74.020594,-14804.118840,1072.533697
59297.676631,-1850.514855,-14804.118840,-76.609550
59297.676941,-2368.659014,-12509.480420,0.000000
59297.677251,-1406.391290,-9844.739029,2145.067394
59297.677561,222.061783,-4441.235652,2834.553343
59297.677870,3552.988522,-1628.453072,3983.696590
59297.678180,5625.565159,-2368.659014,5745.716235
59297.678490,5847.626942,-5625.565159,4826.401637
59297.678800,1998.556043,-10362.883188,1149.143247
59297.679110,0.000000,-12509.480420,1225.752797
59297.679419,-74.020594,-14211.954086,-76.609550
59297.679729,-1998.556043,-9178.553681,-1838.629195
59297.680039,-2072.576638,-4811.338623,-3370.820191
59297.680349,-740.205942,-7179.997637,-1991.848295
59297.680659,-1776.494261,-11991.336260,-1608.800546
59297.680968,-3108.864956,-15692.365970,-766.095498
59297.681278,-3034.844362,-16580.613101,-76.609550
59297.681588,-1258.350101,-14211.954086,-76.609550
59297.681898,-666.185348,-6513.812290,-76.609550
59297.682208,0.000000,-370.102971,2451.505594
59297.682517,5847.626942,-2960.823768,6052.154434
59297.682827,4219.173869,-2368.659014,1838.629195
59297.683137,1554.432478,-7254.018232,2068.457845
59297.683447,-1184.329507,-11917.315666,1225.752797
59297.683757,-1924.535449,-13175.665768,229.828649
59297.684066,-2590.720797,-11177.109724,-842.705048
59297.684376,-666.185348,-9474.636058,-76.609550
59297.684686,-296.082377,-9474.636058,-76.609550
59297.684996,-74.020594,-13619.789333,-76.609550
59297.685306,-2442.679609,-13619.789333,-2221.676944
59297.685615,-4737.318029,-14285.974681,0.000000
59297.685925,-1850.514855,-13101.645173,0.000000
59297.686235,-370.102971,-7698.141797,1762.019645
59297.686545,962.267725,-2886.803174,3217.601092
59297.686855,3701.029710,-1184.329507,4213.525239
59297.687164,3849.070898,-1850.514855,3983.696590
59297.687474,2960.823768,-5995.668130,3677.258390
59297.687784,1184.329507,-13101.645173,3677.258390
59297.688094,-74.020594,-16580.613101,4213.525239
59297.688404,-1850.514855,-11103.089130,-1608.800546
59297.688713,-2368.659014,-7476.080014,0.000000
59297.689023,-74.020594,-7105.977043,-1302.362347
59297.689333,-74.020594,-9474.636058,-689.485948
59297.689643,-2738.761985,-13397.727550,-1838.629195
59297.689953,-4145.153275,-16062.468941,-1685.410096
59297.690262,-4293.194464,-14285.974681,-1225.752797
59297.690572,-4441.235652,-9548.656652,0.000000
59297.690882,-1776.494261,-3627.009116,2451.505594
59297.691192,2664.741391,-2442.679609,5822.325785
59297.691502,5847.626942,-2072.576638,4519.963438
59297.691811,2368.659014,-3627.009116,3064.381992
59297.692121,2294.638420,-11843.295072,4213.525239
59297.692431,-74.020594,-14211.954086,2068.457845
59297.692741,-2294.638420,-12583.501014,-383.047749
59297.693051,-2442.679609,-10584.944971,-1149.143247
59297.693360,-1406.391290,-7698.141797,-1762.019645
59297.693670,-2960.823768,-7179.997637,-3677.258390
59297.693980,-4145.153275,-9548.656652,-2451.505594
59297.694290,-4737.318029,-13101.645173,0.000000
59297.694600,-370.102971,-16580.613101,-76.609550
59297.694909,-2664.741391,-9844.739029,0.000000
59297.695219,0.000000,-6513.812290,3294.210641
59297.695529,3849.070898,-3034.844362,5209.449386
59297.695839,5699.585753,-1036.288319,4519.963438
59297.696149,5403.503377,-3404.947333,3983.696590
59297.696458,3034.844362,-8216.285956,3140.991542
59297.696768,-370.102971,-11695.253884,536.266849
59297.697078,-3256.906145,-10732.986159,-1685.410096
59297.697388,-4293.194464,-9548.656652,-3370.820191
59297.697698,-1776.494261,-7476.080014,-1225.752797
59297.698007,-74.020594,-8290.306550,-1302.362347
59297.698317,-1850.514855,-11177.109724,-1455.581446
59297.698627,-3256.906145,-14285.974681,-1838.629195
59297.698937,-3997.112087,-16358.551318,-919.314598
59297.699247,-3849.070898,-13101.645173,-842.705048
59297.699556,-1776.494261,-7846.182985,1072.533697
59297.699866,1702.473667,-2812.782580,2374.896044
59297.700176,2294.638420,0.000000,3600.648841
59297.700486,1332.370696,-74.020594,2451.505594
59297.700796,3552.988522,-7179.997637,4903.011187
59297.701105,1110.308913,-11843.295072,2987.772442
59297.701415,-1480.411884,-12583.501014,1225.752797
59297.701725,-4145.153275,-10732.986159,-1225.752797
59297.702035,-2146.597232,-9548.656652,-1378.971896
59297.702345,-1776.494261,-7698.141797,-2374.896044
59297.702654,-1406.391290,-9104.533087,-1838.629195
59297.702964,-1258.350101,-14211.954086,-689.485948
59297.703274,-1258.350101,-15396.283594,-76.609550
59297.703584,-3034.844362,-13619.789333,-1608.800546
59297.703894,-4145.153275,-9548.656652,0.000000
59297.704203,1998.556043,-4737.318029,3294.210641
59297.704513,1184.329507,-74.020594,4903.011187
59297.704823,2738.761985,-74.020594,3830.477490
59297.705133,4441.235652,-4515.256246,3830.477490
59297.705443,2516.700203,-10140.821405,3294.210641
59297.705752,-74.020594,-13545.768739,1991.848295
59297.706062,-74.020594,-14211.954086,-76.609550
59297.706372,-74.020594,-11843.295072,-76.609550
59297.706682,-74.020594,-8290.306550,-1302.362347
59297.706992,-2960.823768,-6291.750507,-3600.648841
59297.707301,-2368.659014,-11917.315666,-1838.629195
59297.707611,-4441.235652,-14285.974681,-3064.381992
59297.707921,-4811.338623,-15396.283594,-1991.848295
59297.708231,-3849.070898,-12287.418637,-536.266849
59297.708541,-1036.288319,-6883.915261,1762.019645
59297.708850,2220.617826,-2516.700203,3907.087040
59297.709160,5847.626942,-2368.659014,7124.688131
59297.709470,7031.956449,-5773.606348,6281.983084
59297.709780,4663.297435,-9474.636058,4213.525239
59297.710090,-2220.617826,-9844.739029,612.876398
59297.710399,-1036.288319,-13619.789333,2374.896044
59297.710709,-3849.070898,-9696.697840,-2451.505594
59297.711019,-1258.350101,-7402.059420,-1915.238745
59297.711329,-1702.473667,-8290.306550,-2374.896044
59297.711639,-1924.535449,-10362.883188,-1991.848295
59297.711948,-2664.741391,-14211.954086,-1915.238745
59297.712258,-3552.988522,-14878.139434,0.000000
59297.712568,-2960.823768,-13989.892304,0.000000
59297.712878,-74.020594,-10510.924376,2987.772442
59297.713188,2294.638420,-3552.988522,2374.896044
59297.713497,2368.659014,-370.102971,3064.381992
59297.713807,5699.585753,-1184.329507,3907.087040
59297.714117,5847.626942,-7105.977043,4826.401637
59297.714427,2368.659014,-10658.965565,3217.601092
59297.714737,222.061783,-12583.501014,1225.752797
59297.715046,-518.144159,-11843.295072,229.828649
59297.715356,-2368.659014,-7772.162391,0.000000
59297.715666,-2368.659014,-5107.421000,-3677.258390
59297.715976,-592.164754,-10881.027347,-459.657299
59297.716286,-1850.514855,-14211.954086,-2528.115143
59297.716595,-5625.565159,-14878.139434,-4903.011187
59297.716905,-2442.679609,-16580.613101,-1302.362347
59297.717215,-1850.514855,-11843.295072,-76.609550
59297.717525,0.000000,-4885.359217,1991.848295
59297.717835,2294.638420,-1628.453072,4443.353888
59297.718144,3923.091493,-962.267725,4213.525239
59297.718454,2368.659014,-2738.761985,2451.505594
59297.718764,1184.329507,-7179.997637,1225.752797
59297.719074,1480.411884,-14063.912898,4136.915689
59297.719384,-1850.514855,-11843.295072,-689.485948
59297.719693,-3256.906145,-9844.739029,0.000000
59297.720003,-370.102971,-9474.636058,-1302.362347
59297.720313,-888.247130,-9474.636058,-2221.676944
59297.720623,-2516.700203,-11991.336260,-1915.238745
59297.720933,-3330.926739,-14582.057057,-2221.676944
59297.721242,-3552.988522,-15396.283594,-689.485948
59297.721552,-4737.318029,-9844.739029,0.000000
59297.721862,-3256.906145,-3923.091493,383.047749
59297.722172,2368.659014,-2590.720797,4903.011187
59297.722482,4663.297435,0.000000,4826.401637
59297.722791,4737.318029,-2442.679609,5515.887586
59297.723101,5847.626942,-9474.636058,6052.154434
59297.723411,888.247130,-12435.459826,3064.381992
59297.723721,-370.102971,-12583.501014,689.485948
59297.724031,-1332.370696,-11399.171507,-689.485948
59297.724340,-518.144159,-7846.182985,-1072.533697
59297.724650,-1850.514855,-5773.606348,-3753.867940
59297.724960,-3627.009116,-9474.636058,-2528.115143
59297.725270,-5921.647536,-13101.645173,-4136.915689
59297.725580,-3256.906145,-16950.716072,-1225.752797
59297.725889,-2442.679609,-16580.613101,-76.609550
59297.726199,-370.102971,-10658.965565,2681.334243
59297.726509,592.164754,-3775.050304,3064.381992
59297.726819,4071.132681,-1628.453072,5362.668486
59297.727129,5255.462188,-962.267725,5209.449386
59297.727438,3997.112087,-5551.544565,4596.572988
59297.727748,2294.638420,-10066.800811,2987.772442
59297.728058,-1258.350101,-14211.954086,2374.896044
59297.728368,-4515.256246,-9548.656652,-2298.286494
59297.728678,-3552.988522,-9548.656652,-1225.752797
59297.728987,-74.020594,-9474.636058,-76.609550
59297.729297,-888.247130,-9844.739029,-1072.533697
59297.729607,-4145.153275,-11917.315666,-2451.505594
59297.729917,-3701.029710,-15174.221811,-1532.190996
59297.730227,-3627.009116,-15174.221811,-689.485948
59297.730536,-2220.617826,-10362.883188,689.485948
59297.730846,2294.638420,-5921.647536,4826.401637
59297.731156,6439.791695,-3552.988522,6052.154434
59297.731466,5255.462188,1184.329507,4213.525239
59297.731776,4737.318029,-2738.761985,4903.011187
59297.732085,4071.132681,-8882.471304,4213.525239
59297.732395,0.000000,-11917.315666,2451.505594
59297.732705,-1628.453072,-11325.150913,0.000000
59297.733015,-1702.473667,-11251.130318,-612.876398
59297.733325,-1998.556043,-8438.347739,-1991.848295
59297.733634,-1702.473667,-8660.409521,-2987.772442
59297.733944,-666.185348,-14211.954086,-1302.362347
59297.734254,-1850.514855,-17468.860231,-229.828649
59297.734564,-3034.844362,-16580.613101,-2528.115143
59297.734874,-4737.318029,-11029.068536,-1225.752797
59297.735183,-74.020594,-9474.636058,4213.525239
59297.735493,0.000000,-74.020594,3677.258390
59297.735803,3701.029710,-74.020594,4596.572988
59297.736113,3923.091493,-1850.514855,4596.572988
59297.736423,2738.761985,-6809.894666,3294.210641
59297.736732,296.082377,-12065.356855,2298.286494
59297.737042,-592.164754,-13101.645173,1225.752797
59297.737352,-2368.659014,-11325.150913,0.000000
59297.737662,-74.020594,-10658.965565,-689.485948
59297.737972,-2146.597232,-7994.224174,-3140.991542
59297.738281,-4737.318029,-8364.327145,-3677.258390
59297.738591,-5033.400406,-11917.315666,-3677.258390
59297.738901,-3330.926739,-15396.283594,-1915.238745
59297.739211,-3627.009116,-13841.851115,0.000000
59297.739521,-518.144159,-8438.347739,1455.581446
59297.739830,2294.638420,-3478.967927,3677.258390
59297.740140,3552.988522,-666.185348,4903.011187
59297.740450,4737.318029,-74.020594,4903.011187
59297.740760,7031.956449,-7105.977043,4826.401637
59297.741070,1554.432478,-9548.656652,2221.676944
59297.741379,2146.597232,-14878.139434,4443.353888
59297.741689,-1258.350101,-10658.965565,-1608.800546
59297.741999,-74.020594,-9474.636058,-76.609550
59297.742309,-666.185348,-7105.977043,-2374.896044
59297.742619,-888.247130,-9548.656652,-1685.410096
59297.742928,-3108.864956,-13989.892304,-1915.238745
59297.743238,-6513.812290,-14285.974681,-3677.258390
59297.743548,-7698.141797,-13101.645173,-3677.258390
59297.743858,-2368.659014,-12065.356855,1225.752797
59297.744168,1702.473667,-6513.812290,3294.210641
59297.744477,2368.659014,-74.020594,4903.011187
59297.744787,6439.791695,-1776.494261,4826.401637
59297.745097,5181.441594,-4737.318029,5286.058936
59297.745407,2072.576638,-8586.388927,3677.258390
59297.745717,-592.164754,-11769.274478,1838.629195
59297.746026,-2146.597232,-11843.295072,229.828649
59297.746336,-4441.235652,-8956.491898,-2757.943793
59297.746646,-4737.318029,-4811.338623,-4136.915689
59297.746956,-1184.329507,-9696.697840,-1225.752797
59297.747266,-1850.514855,-11695.253884,-1915.238745
59297.747575,-7105.977043,-11917.315666,-3677.258390
59297.747885,-1258.350101,-16580.613101,-76.609550
59297.748195,-3108.864956,-14211.954086,689.485948
59297.748505,-74.020594,-6809.894666,2221.676944
59297.748815,3108.864956,-3108.864956,4213.525239
59297.749124,4737.318029,-518.144159,5439.278036
59297.749434,4663.297435,-1184.329507,4519.963438
59297.749744,4663.297435,-5921.647536,2987.772442
59297.750054,592.164754,-10140.821405,3064.381992
59297.750364,-74.020594,-13619.789333,2374.896044
59297.750674,-4145.153275,-8364.327145,-2451.505594
59297.750983,-74.020594,-11251.130318,-76.609550
59297.751293,-2294.638420,-7179.997637,-2145.067394
59297.751603,-1998.556043,-11177.109724,-2681.334243
59297.751912,-4293.194464,-14804.118840,-3064.381992
59297.752222,-4441.235652,-16432.571912,-2757.943793
59297.752532,-2442.679609,-15988.448347,-76.609550
59297.752842,-74.020594,-11251.130318,-76.609550
59297.753151,370.102971,-2812.782580,2221.676944
59297.753461,3256.906145,-1258.350101,6741.640382
59297.753771,5847.626942,0.000000,4213.525239
59297.754080,3552.988522,-6291.750507,6128.763984
59297.754390,592.164754,-8956.491898,2757.943793
59297.754700,-666.185348,-13471.748144,2374.896044
59297.755010,-2664.741391,-11029.068536,-612.876398
59297.755319,-2960.823768,-9622.677246,-1608.800546
59297.755629,-74.020594,-8882.471304,-1915.238745
59297.755939,-74.020594,-10658.965565,-1302.362347
59297.756248,-3034.844362,-13027.624579,-2834.553343
59297.756558,-5625.565159,-14878.139434,-4903.011187
59297.756868,-2368.659014,-16654.633695,612.876398
59297.757177,-3404.947333,-11325.150913,1838.629195
59297.757487,296.082377,-4367.215058,2451.505594
59297.757797,3478.967927,-1702.473667,4673.182538
59297.758107,5181.441594,-888.247130,5745.716235
59297.758416,5847.626942,-3404.947333,5132.839837
59297.758726,5181.441594,-9474.636058,6435.202183
59297.759036,2072.576638,-12805.562797,3983.696590
59297.759345,-74.020594,-13027.624579,-76.609550
59297.759655,-2960.823768,-9548.656652,-3677.258390
59297.759965,1036.288319,-9474.636058,-76.609550
59297.760275,-2960.823768,-6587.832884,-3677.258390
59297.760584,-2886.803174,-11251.130318,-3294.210641
59297.760894,-4737.318029,-15248.242405,-3294.210641
59297.761204,-4589.276840,-17616.901420,-2298.286494
59297.761513,-3108.864956,-14211.954086,0.000000
59297.761823,0.000000,-8364.327145,2757.943793
59297.762133,2368.659014,-3034.844362,6128.763984
59297.762443,5551.544565,0.000000,6052.154434
59297.762752,2812.782580,-74.020594,1225.752797
59297.763062,4737.318029,-7328.038826,5975.544884
59297.763372,-1776.494261,-9548.656652,1225.752797
59297.763681,-1850.514855,-12731.542202,536.266849
59297.763991,-3552.988522,-11917.315666,-1225.752797
59297.764301,-2220.617826,-8586.388927,-1838.629195
59297.764611,-2146.597232,-7624.121203,-2681.334243
59297.764920,-2368.659014,-7772.162391,-2451.505594
59297.765230,-5625.565159,-11917.315666,-3370.820191
59297.765540,-2960.823768,-16062.468941,-842.705048
59297.765849,-2590.720797,-14211.954086,-1302.362347
59297.766159,-3552.988522,-9548.656652,612.876398
59297.766469,370.102971,-2812.782580,1225.752797
59297.766778,4663.297435,-2368.659014,5439.278036
59297.767088,4959.379811,-1184.329507,5286.058936
59297.767398,5329.482782,-4737.318029,4596.572988
59297.767708,2960.823768,-9548.656652,3907.087040
59297.768017,0.000000,-11029.068536,1225.752797
59297.768327,-2960.823768,-10732.986159,0.000000
59297.768637,-74.020594,-11251.130318,459.657299
59297.768946,-370.102971,-7105.977043,-2528.115143
59297.769256,-4737.318029,-6587.832884,-4290.134789
59297.769566,-1554.432478,-12435.459826,-3753.867940
59297.769876,-4145.153275,-16062.468941,-2681.334243
59297.770185,-4145.153275,-16876.695478,-2221.676944
59297.770495,-3182.885551,-12361.439231,-383.047749
59297.770805,592.164754,-6587.832884,2451.505594
59297.771114,1702.473667,-1184.329507,4826.401637
59297.771424,2368.659014,1702.473667,2757.943793
59297.771734,4145.153275,-3627.009116,5209.449386
59297.772044,3478.967927,-8290.306550,2374.896044
59297.772353,-3552.988522,-9548.656652,0.000000
59297.772663,-74.020594,-13027.624579,-76.609550
59297.772973,-2960.823768,-10436.903782,-1225.752797
59297.773282,-1480.411884,-7994.224174,-1762.019645
59297.773592,-1702.473667,-7772.162391,-2451.505594
59297.773902,-2294.638420,-11029.068536,-1608.800546
59297.774212,-3034.844362,-15396.283594,-689.485948
59297.774521,-3627.009116,-15396.283594,-1915.238745
59297.774831,-4145.153275,-12213.398043,0.000000
59297.775141,-74.020594,-10658.965565,4826.401637
59297.775450,2294.638420,-2368.659014,2987.772442
59297.775760,5847.626942,-2368.659014,6665.030833
59297.776070,4737.318029,-962.267725,4903.011187
59297.776379,3923.091493,-6513.812290,4826.401637
59297.776689,1480.411884,-10362.883188,2911.162892
59297.776999,-814.226536,-12657.521608,689.485948
59297.777309,-74.020594,-12435.459826,1455.581446
59297.777618,-74.020594,-9474.636058,-689.485948
59297.777928,-2368.659014,-5477.523971,-2911.162892
59297.778238,-1776.494261,-9548.656652,0.000000
59297.778547,-1258.350101,-15396.283594,-1302.362347
59297.778857,-3404.947333,-17172.777854,-76.609550
59297.779167,-4293.194464,-15470.304188,-1532.190996
59297.779477,-1998.556043,-9844.739029,766.095498
59297.779786,592.164754,-4811.338623,2681.334243
59297.780096,3034.844362,-2146.597232,4903.011187
59297.780406,4811.338623,-2368.659014,5515.887586
59297.780715,5847.626942,-6217.729913,5745.716235
59297.781025,814.226536,-8364.327145,1532.190996
59297.781335,-3552.988522,-10732.986159,2451.505594
59297.781645,-74.020594,-13619.789333,-76.609550
59297.781954,-2368.659014,-9992.780217,306.438199
59297.782264,-1554.432478,-7698.141797,-1608.800546
59297.782574,-1702.473667,-8808.450710,-2145.067394
59297.782883,-2960.823768,-12509.480420,-1991.848295
59297.783193,-3701.029710,-14730.098246,-1608.800546
59297.783503,-4441.235652,-14878.139434,0.000000
59297.783813,-2960.823768,-11991.336260,1225.752797
59297.784122,-74.020594,-7105.977043,2987.772442
59297.784432,0.000000,-74.020594,2451.505594
59297.784742,5625.565159,-2590.720797,6588.421283
59297.785051,4145.153275,-2738.761985,4596.572988
59297.785361,4663.297435,-8290.306550,3907.087040
59297.785671,1036.288319,-11917.315666,2451.505594
59297.785980,-740.205942,-12213.398043,612.876398
59297.786290,-1406.391290,-11103.089130,-306.438199
59297.786600,-1776.494261,-5699.585753,-1838.629195
59297.786910,0.000000,-7179.997637,-1838.629195
59297.787219,-74.020594,-11251.130318,-229.828649
59297.787529,-1258.350101,-15988.448347,-2528.115143
59297.787839,-5921.647536,-14878.139434,-3524.039291
59297.788148,-3997.112087,-13101.645173,-1532.190996
59297.788458,-518.144159,-8882.471304,1225.752797
59297.788768,1998.556043,-3627.009116,3600.648841
59297.789078,3404.947333,-1406.391290,4596.572988
59297.789387,5033.400406,-2072.576638,4673.182538
59297.789697,1776.494261,-4811.338623,1225.752797
59297.790007,0.000000,-10732.986159,3064.381992
59297.790316,-1258.350101,-13027.624579,1608.800546
59297.790626,-6291.750507,-8364.327145,-4749.792088
59297.790936,-2072.576638,-9992.780217,-919.314598
59297.791246,-2738.761985,-6587.832884,-2911.162892
59297.791555,-1850.514855,-10214.842000,-1762.019645
59297.791865,-3256.906145,-13619.789333,-1915.238745
59297.792175,-4071.132681,-15396.283594,-1608.800546
59297.792484,-3404.947333,-14582.057057,76.609550
59297.792794,-3552.988522,-7772.162391,0.000000
59297.793104,1776.494261,-4959.379811,4903.011187
59297.793414,4663.297435,-2368.659014,6052.154434
59297.793723,2960.823768,-666.185348,4903.011187
59297.794033,7031.956449,-7105.977043,6052.154434
59297.794343,592.164754,-7772.162391,3064.381992
59297.794652,370.102971,-12509.480420,1991.848295
59297.794962,-2368.659014,-12213.398043,0.000000
59297.795272,-2294.638420,-9400.615463,-1685.410096
59297.795581,-1554.432478,-6809.894666,-2068.457845
59297.795891,-2368.659014,-7179.997637,-3677.258390
59297.796201,-3552.988522,-12213.398043,-1225.752797
59297.796511,-1554.432478,-16580.613101,-689.485948
59297.796820,-2442.679609,-15248.242405,-1225.752797
59297.797130,-74.020594,-14211.954086,2374.896044
59297.797440,1184.329507,-7402.059420,3830.477490
59297.797749,3182.885551,-2960.823768,4519.963438
59297.798059,4071.132681,-1184.329507,5056.230287
59297.798369,3775.050304,-3034.844362,3983.696590
59297.798679,1850.514855,-8290.306550,2834.553343
59297.798988,-2220.617826,-11917.315666,612.876398
59297.799298,-2960.823768,-13693.809927,612.876398
59297.799608,-3034.844362,-12435.459826,-383.047749
59297.799917,-4737.318029,-4811.338623,-4596.572988
59297.800227,-74.020594,-9474.636058,-229.828649
59297.800537,-2368.659014,-10140.821405,-1225.752797
59297.800847,-2442.679609,-14211.954086,-1302.362347
59297.801156,-2886.803174,-15248.242405,-919.314598
59297.801466,-2368.659014,-13767.830521,459.657299
59297.801776,-74.020594,-7624.121203,2374.896044
59297.802085,592.164754,-1554.432478,2757.943793
59297.802395,2960.823768,-666.185348,5209.449386
59297.802705,7031.956449,-4145.153275,6052.154434
59297.803015,592.164754,-4811.338623,2451.505594
59297.803324,2368.659014,-12213.398043,3907.087040
59297.803634,-2664.741391,-12213.398043,0.000000
59297.803944,-1628.453072,-12435.459826,-995.924147
59297.804253,-1480.411884,-9104.533087,-1378.971896
59297.804563,-296.082377,-6587.832884,-1838.629195
59297.804873,-740.205942,-8882.471304,-2451.505594
59297.805182,-2664.741391,-11769.274478,-3140.991542
59297.805492,-4737.318029,-14434.015869,-2451.505594
59297.805802,-2220.617826,-15840.407159,1608.800546
59297.806112,-74.020594,-9474.636058,-76.609550
59297.806421,0.000000,-3627.009116,2451.505594
59297.806731,2442.679609,-444.123565,2451.505594
59297.807041,3849.070898,-2146.597232,4903.011187
59297.807350,2738.761985,-5329.482782,3600.648841
59297.807660,592.164754,-10066.800811,2145.067394
59297.807970,-2072.576638,-12435.459826,842.705048
59297.808280,-3330.926739,-12435.459826,-689.485948
59297.808589,-4145.153275,-8438.347739,-2834.553343
59297.808899,-1776.494261,-7179.997637,0.000000
59297.809209,-74.020594,-9474.636058,-1302.362347
59297.809518,-3997.112087,-9844.739029,-3064.381992
59297.809828,-3034.844362,-14211.954086,-3677.258390
59297.810138,-4145.153275,-15174.221811,-612.876398
59297.810448,-3034.844362,-12213.398043,995.924147
59297.810757,-666.185348,-6143.709319,1915.238745
59297.811067,1406.391290,-2442.679609,4826.401637
59297.811377,4663.297435,-2368.659014,6665.030833
59297.811686,4663.297435,-2812.782580,3907.087040
59297.811996,2664.741391,-7179.997637,3677.258390
59297.812306,3478.967927,-14211.954086,4826.401637
59297.812616,-2442.679609,-11843.295072,-995.924147
59297.812925,-666.185348,-11399.171507,-1915.238745
59297.813235,-1184.329507,-6883.915261,-1685.410096
59297.813545,-222.061783,-6957.935855,-1838.629195
59297.813854,-888.247130,-9992.780217,-2068.457845
59297.814164,-1998.556043,-14211.954086,-459.657299
59297.814474,-1258.350101,-17468.860231,1149.143247
59297.814783,-1850.514855,-14211.954086,-76.609550
59297.815093,-1406.391290,-6143.709319,0.000000
59297.815403,3256.906145,-6069.688724,5822.325785
59297.815713,4071.132681,-1184.329507,4213.525239
59297.816022,5107.421000,-3256.906145,4826.401637
59297.816332,1924.535449,-6291.750507,2604.724693
59297.816642,-1036.288319,-11177.109724,766.095498
59297.816951,-2812.782580,-13989.892304,689.485948
59297.817261,-3034.844362,-12731.542202,-1225.752797
59297.817571,-1480.411884,-9548.656652,0.000000
59297.817881,-74.020594,-8290.306550,-689.485948
59297.818190,-1998.556043,-6957.935855,-3753.867940
59297.818500,-4737.318029,-11325.150913,0.000000
59297.818810,-1258.350101,-16580.613101,-76.609550
59297.819119,-2072.576638,-14804.118840,2374.896044
59297.819429,-1776.494261,-9474.636058,1762.019645
59297.819739,444.123565,-4515.256246,2834.553343
59297.820049,2590.720797,-1480.411884,3753.867940
59297.820358,5033.400406,-740.205942,2757.943793
59297.820668,3552.988522,-3627.009116,3677.258390
59297.820978,2812.782580,-10807.006753,3524.039291
59297.821287,-74.020594,-15396.283594,2374.896044
59297.821597,-4737.318029,-11029.068536,-3064.381992
59297.821907,-2368.659014,-9548.656652,-1072.533697
59297.822217,0.000000,-8290.306550,-76.609550
59297.822526,-74.020594,-7624.121203,-1685.410096
59297.822836,-222.061783,-10584.944971,-1685.410096
59297.823146,-1332.370696,-14359.995275,-612.876398
59297.823455,-1776.494261,-14878.139434,-1762.019645
59297.823765,-2960.823768,-10140.821405,0.000000
59297.824075,1184.329507,-7772.162391,3677.258390
59297.824384,4071.132681,-4737.318029,4826.401637
59297.824694,1184.329507,-74.020594,2451.505594
59297.825004,4663.297435,-5921.647536,4826.401637
59297.825314,888.247130,-9548.656652,1838.629195
59297.825623,-1850.514855,-12879.583391,-76.609550
59297.825933,-2664.741391,-13545.768739,-919.314598
59297.826243,-2886.803174,-11177.109724,-1378.971896
59297.826552,-1554.432478,-6809.894666,-1302.362347
59297.826862,-2368.659014,-5403.503377,-3447.429741
59297.827172,-2368.659014,-8364.327145,-1532.190996
59297.827482,-74.020594,-16580.613101,2374.896044
59297.827791,-3627.009116,-14063.912898,-1915.238745
59297.828101,-3552.988522,-12509.480420,2451.505594
59297.828411,-1702.473667,-7179.997637,2451.505594
59297.828720,1406.391290,-3552.988522,3907.087040
59297.829030,2738.761985,-1184.329507,3830.477490
59297.829340,4663.297435,-2368.659014,4136.915689
59297.829650,3775.050304,-7105.977043,4213.525239
59297.829959,666.185348,-9770.718434,842.705048
59297.830269,-3478.967927,-11991.336260,0.000000
59297.830579,-4737.318029,-11029.068536,0.000000
59297.830888,-74.020594,-11251.130318,-76.609550
59297.831198,-518.144159,-5551.544565,-1838.629195
59297.831508,0.000000,-5995.668130,-2145.067394
59297.831818,-740.205942,-12287.418637,-842.705048
59297.832127,-1850.514855,-15174.221811,-153.219100
59297.832437,-2146.597232,-14952.160028,306.438199
59297.832747,-814.226536,-11843.295072,3294.210641
59297.833056,1702.473667,-5921.647536,3600.648841
59297.833366,1554.432478,-1850.514855,2451.505594
59297.833676,3552.988522,-3034.844362,6128.763984
59297.833985,2294.638420,-5329.482782,1762.019645
59297.834295,-2368.659014,-8364.327145,0.000000
59297.834605,-3849.070898,-11621.233289,-1149.143247
59297.834915,-3849.070898,-12953.603985,-1532.190996
59297.835224,-2960.823768,-10362.883188,-1378.971896
59297.835534,-1554.432478,-7550.100608,-842.705048
59297.835844,-74.020594,-8734.430116,-76.609550
59297.836153,-74.020594,-13027.624579,-76.609550
59297.836463,-2886.803174,-13619.789333,-1302.362347
59297.836773,-7105.977043,-11917.315666,0.000000
59297.837083,-370.102971,-13915.871710,2987.772442
59297.837392,-74.020594,-5699.585753,1302.362347
59297.837702,2294.638420,-2368.659014,2987.772442
59297.838012,3552.988522,-740.205942,4290.134789
59297.838321,4737.318029,-3330.926739,4290.134789
59297.838631,3478.967927,-7698.141797,3600.648841
59297.838941,740.205942,-12213.398043,3064.381992
59297.839251,-666.185348,-15100.201217,2374.896044
59297.839560,-666.185348,-12435.459826,-76.609550
59297.839870,-666.185348,-6809.894666,-3140.991542
59297.840180,0.000000,-7179.997637,-1225.752797
59297.840489,-74.020594,-8734.430116,-2528.115143
59297.840799,-74.020594,-14211.954086,-689.485948
59297.841109,-2220.617826,-15396.283594,-612.876398
59297.841418,-1258.350101,-14285.974681,842.705048
59297.841728,-518.144159,-9474.636058,2298.286494
59297.842038,1184.329507,-3627.009116,3064.381992
59297.842348,4145.153275,-3034.844362,6128.763984
59297.842657,5255.462188,-3552.988522,4826.401637
59297.842967,0.000000,-3627.009116,306.438199
59297.843277,740.205942,-12657.521608,2757.943793
59297.843586,-1258.350101,-14211.954086,-76.609550
59297.843896,-1258.350101,-13027.624579,-689.485948
59297.844206,-2368.659014,-8882.471304,-1762.019645
59297.844516,-888.247130,-6587.832884,-1225.752797
59297.844825,-518.144159,-7994.224174,-1532.190996
59297.845135,-3552.988522,-10732.986159,-2451.505594
59297.845445,-3552.988522,-13101.645173,0.000000
59297.845754,-1850.514855,-15988.448347,2374.896044
59297.846064,-4219.173869,-7846.182985,0.000000
59297.846374,1184.329507,-6513.812290,4519.963438
59297.846684,2294.638420,-2368.659014,3600.648841
59297.846993,5181.441594,-2368.659014,5669.106685
59297.847303,4589.276840,-4589.276840,4060.306139
59297.847613,1406.391290,-9178.553681,2374.896044
59297.847922,-1184.329507,-12435.459826,536.266849
59297.848232,-4145.153275,-11325.150913,-2451.505594
59297.848542,-4737.318029,-7772.162391,-2451.505594
59297.848852,-148.041188,-8068.244768,-76.609550
59297.849161,-74.020594,-7105.977043,-2528.115143
59297.849471,-2368.659014,-10140.821405,-1838.629195
59297.849781,-74.020594,-16580.613101,-76.609550
59297.850090,-2368.659014,-15470.304188,919.314598
59297.850400,-1110.308913,-12879.583391,1532.190996
59297.850710,296.082377,-6957.935855,2834.553343
59297.851019,1998.556043,-3627.009116,4060.306139
59297.851329,3330.926739,-444.123565,2681.334243
59297.851639,148.041188,-666.185348,612.876398
59297.851949,0.000000,-7179.997637,2451.505594
59297.852258,-74.020594,-14211.954086,-76.609550
59297.852568,-6513.812290,-11325.150913,-2451.505594
59297.852878,-1332.370696,-14211.954086,-76.609550
59297.853187,-2368.659014,-8364.327145,0.000000
59297.853497,-444.123565,-7402.059420,-766.095498
59297.853807,-1258.350101,-8882.471304,-1302.362347
59297.854117,-2590.720797,-12953.603985,-842.705048
59297.854426,-1850.514855,-14804.118840,-76.609550
59297.854736,-3034.844362,-12139.377449,-689.485948
59297.855046,-2368.659014,-7179.997637,0.000000
59297.855355,888.247130,-4811.338623,4903.011187
59297.855665,2294.638420,-1628.453072,2987.772442
59297.855975,4737.318029,-2442.679609,6435.202183
59297.856284,4293.194464,-7105.977043,5745.716235
59297.856594,518.144159,-9622.677246,2987.772442
59297.856904,-1850.514855,-13323.706956,-76.609550
59297.857213,-2590.720797,-12509.480420,-1455.581446
59297.857523,-1110.308913,-9548.656652,-2451.505594
59297.857833,0.000000,-4811.338623,-3677.258390
59297.858142,0.000000,-7772.162391,-1225.752797
59297.858452,2294.638420,-14211.954086,2068.457845
59297.858762,-74.020594,-14804.118840,-689.485948
59297.859072,-2368.659014,-14285.974681,536.266849
59297.859381,-2072.576638,-11917.315666,2451.505594
59297.859691,814.226536,-6069.688724,2528.115143
59297.860001,2220.617826,-3034.844362,3064.381992
59297.860310,3775.050304,-1924.535449,3524.039291
59297.860620,2664.741391,-4219.173869,2374.896044
59297.860930,-1332.370696,-7772.162391,0.000000
59297.861239,-3552.988522,-11917.315666,0.000000
59297.861549,-962.267725,-15766.386565,2374.896044
59297.861859,-3034.844362,-8660.409521,-2528.115143
59297.862168,0.000000,-7179.997637,1455.581446
59297.862478,296.082377,-5995.668130,0.000000
59297.862788,-370.102971,-10288.862594,-306.438199
59297.863097,-2664.741391,-14137.933492,-536.266849
59297.863407,-3256.906145,-14878.139434,-76.609550
59297.863717,-2886.803174,-13027.624579,-76.609550
59297.864027,-666.185348,-6661.853478,842.705048
59297.864336,0.000000,-1850.514855,1838.629195
59297.864646,3552.988522,-1850.514855,5515.887586
59297.864956,4663.297435,-3552.988522,3600.648841
59297.865265,1184.329507,-7179.997637,3677.258390
59297.865575,0.000000,-9696.697840,612.876398
59297.865885,-2368.659014,-13323.706956,383.047749
59297.866194,-2516.700203,-11547.212695,-995.924147
59297.866504,-1184.329507,-7994.224174,-1225.752797
59297.866814,296.082377,-7105.977043,-1302.362347
59297.867123,-74.020594,-8882.471304,-1302.362347
59297.867433,-3108.864956,-11917.315666,-2911.162892
59297.867743,-3552.988522,-14285.974681,0.000000
59297.868052,-74.020594,-16580.613101,-76.609550
59297.868362,-2960.823768,-8364.327145,0.000000
59297.868672,0.000000,-3034.844362,1455.581446
59297.868982,2960.823768,-2146.597232,3983.696590
59297.869291,3849.070898,-2368.659014,3524.039291
59297.869601,2294.638420,-6587.832884,2374.896044
59297.869911,-74.020594,-12287.418637,2374.896044
59297.870220,-74.020594,-14211.954086,-76.609550
59297.870530,-3330.926739,-11399.171507,-1915.238745
59297.870840,-4737.318029,-7179.997637,0.000000
59297.871149,1036.288319,-8290.306550,-76.609550
59297.871459,-666.185348,-6513.812290,-2987.772442
59297.871769,-2442.679609,-11103.089130,-1608.800546
59297.872078,-3775.050304,-14656.077652,-1149.143247
59297.872388,-3627.009116,-15026.180623,-76.609550
59297.872698,-2516.700203,-11621.233289,1532.190996
59297.873008,-74.020594,-6587.832884,3677.258390
59297.873317,3478.967927,-4737.318029,6052.154434
59297.873627,4663.297435,-1776.494261,4826.401637
59297.873937,2368.659014,-2442.679609,3677.258390
59297.874246,4663.297435,-9474.636058,4826.401637
59297.874556,-2294.638420,-9548.656652,0.000000
59297.874866,-1258.350101,-13027.624579,-76.609550
59297.875175,-2368.659014,-10732.986159,-766.095498
59297.875485,-518.144159,-6883.915261,-1378.971896
59297.875795,148.041188,-7105.977043,-1608.800546
59297.876104,0.000000,-9548.656652,0.000000
59297.876414,-888.247130,-15470.304188,1225.752797
59297.876724,-1258.350101,-17172.777854,-76.609550
59297.877033,-666.185348,-14211.954086,-76.609550
59297.877343,0.000000,-7179.997637,1225.752797
59297.877653,3478.967927,-4145.153275,2987.772442
59297.877963,4663.297435,-2368.659014,3907.087040
59297.878272,3182.885551,-2664.741391,2681.334243
59297.878582,1924.535449,-7772.162391,2298.286494
59297.878892,-1258.350101,-11399.171507,383.047749
59297.879201,-4441.235652,-11917.315666,0.000000
59297.879511,-3256.906145,-10732.986159,0.000000
59297.879821,-370.102971,-9474.636058,0.000000
59297.880130,-74.020594,-7698.141797,-383.047749
59297.880440,-3552.988522,-7476.080014,-2451.505594
59297.880750,-2146.597232,-14211.954086,-76.609550
59297.881059,-2146.597232,-16580.613101,-76.609550
59297.881369,-3923.091493,-14359.995275,-76.609550
59297.881679,-2220.617826,-9696.697840,1762.019645
59297.881988,814.226536,-4959.379811,3370.820191
59297.882298,1628.453072,-666.185348,2451.505594
59297.882608,2368.659014,-74.020594,4903.011187
59297.882918,4737.318029,-5403.503377,5209.449386
59297.883227,4663.297435,-11843.295072,3600.648841
59297.883537,-3552.988522,-10140.821405,0.000000
59297.883847,-2442.679609,-15100.201217,-76.609550
59297.884156,-1776.494261,-10288.862594,-612.876398
59297.884466,-74.020594,-7105.977043,-1532.190996
59297.884776,-666.185348,-7920.203579,-1608.800546
59297.885085,-2072.576638,-11251.130318,-1455.581446
59297.885395,-2738.761985,-14063.912898,-2834.553343
59297.885705,-4737.318029,-12509.480420,-2451.505594
59297.886014,-2368.659014,-11917.315666,0.000000
59297.886324,2294.638420,-8882.471304,3600.648841
59297.886634,74.020594,-1850.514855,1838.629195
59297.886943,6291.750507,-3849.070898,7048.078582
59297.887253,2960.823768,-3330.926739,3370.820191
59297.887563,1406.391290,-9252.574275,2528.115143
59297.887873,-1776.494261,-11843.295072,612.876398
59297.888182,-2368.659014,-12805.562797,-153.219100
59297.888492,-666.185348,-10362.883188,-383.047749
59297.888802,-1258.350101,-6957.935855,-1915.238745
59297.889111,-1776.494261,-5995.668130,-3677.258390
59297.889421,-592.164754,-11325.150913,0.000000
59297.889731,-2442.679609,-14211.954086,-1302.362347
59297.890040,-4737.318029,-14285.974681,306.438199
59297.890350,-5329.482782,-11917.315666,0.000000
59297.890660,-2072.576638,-8068.244768,1838.629195
59297.890969,814.226536,-4145.153275,3064.381992
59297.891279,3404.947333,-1924.535449,4366.744339
59297.891589,5847.626942,-3552.988522,4826.401637
59297.891898,4663.297435,-5921.647536,2987.772442
59297.892208,0.000000,-9548.656652,0.000000
59297.892518,-1184.329507,-13101.645173,2451.505594
59297.892828,-74.020594,-12435.459826,-76.609550
59297.893137,-2368.659014,-5995.668130,0.000000
59297.893447,0.000000,-5995.668130,-1991.848295
59297.893757,148.041188,-9548.656652,-919.314598
59297.894066,-814.226536,-12805.562797,-766.095498
59297.894376,-2072.576638,-15322.262999,-689.485948
59297.894686,-1258.350101,-16580.613101,2374.896044
59297.894995,-74.020594,-11843.295072,-76.609550
59297.895305,0.000000,-3034.844362,-689.485948
59297.895615,2368.659014,-3034.844362,3677.258390
59297.895924,3478.967927,-2368.659014,2374.896044
59297.896234,1480.411884,-4811.338623,306.438199
59297.896544,518.144159,-9326.594869,1149.143247
59297.896854,-1184.329507,-12435.459826,536.266849
59297.897163,-1702.473667,-12065.356855,76.609550
59297.897473,-518.144159,-9918.759623,-76.609550
59297.897783,1184.329507,-8512.368333,1762.019645
59297.898092,2146.597232,-10658.965565,-76.609550
59297.898402,-1258.350101,-14211.954086,-76.609550
59297.898712,-4959.379811,-13101.645173,-3370.820191
59297.899021,-4071.132681,-16136.489536,-153.219100
59297.899331,-4811.338623,-9770.718434,-2374.896044
59297.899641,-74.020594,-6513.812290,1149.143247
59297.899950,1184.329507,-2664.741391,3140.991542
59297.900260,3923.091493,-1702.473667,4213.525239
59297.900570,4589.276840,-3849.070898,4060.306139
59297.900879,2368.659014,-7179.997637,3983.696590
59297.901189,888.247130,-12805.562797,3677.258390
59297.901499,-74.020594,-14211.954086,2987.772442
59297.901809,-1850.514855,-10066.800811,-1302.362347
59297.902118,-1776.494261,-8068.244768,0.000000
59297.902428,1110.308913,-8290.306550,-1915.238745
59297.902738,-74.020594,-11843.295072,-76.609550
59297.903047,-2442.679609,-13397.727550,-1608.800546
59297.903357,-3552.988522,-15248.242405,-1378.971896
59297.903667,-3627.009116,-13619.789333,-153.219100
59297.903976,-4145.153275,-6587.832884,0.000000
59297.904286,0.000000,-4219.173869,2451.505594
59297.904596,5551.544565,-5107.421000,7124.688131
59297.904905,3478.967927,-1184.329507,2374.896044
59297.905215,2368.659014,-6587.832884,3677.258390
59297.905525,-74.020594,-11843.295072,-76.609550
59297.905834,-962.267725,-13323.706956,842.705048
59297.906144,-1850.514855,-11621.233289,-766.095498
59297.906454,-666.185348,-9252.574275,-153.219100
59297.906764,-370.102971,-8512.368333,-689.485948
59297.907073,-2960.823768,-7772.162391,-3064.381992
59297.907383,-4737.318029,-11917.315666,-2451.505594
59297.907693,-4145.153275,-14285.974681,0.000000
59297.908002,-2442.679609,-15396.283594,-76.609550
59297.908312,-4441.235652,-8364.327145,0.000000
59297.908622,3478.967927,-8290.306550,4826.401637
59297.908931,3701.029710,-2738.761985,4903.011187
59297.909241,4885.359217,-2220.617826,4443.353888
59297.909551,4441.235652,-4145.153275,3524.039291
59297.909860,2072.576638,-9400.615463,2911.162892
59297.910170,-1258.350101,-10288.862594,0.000000
59297.910480,-4737.318029,-9696.697840,-1991.848295
59297.910789,-4737.318029,-8364.327145,0.000000
59297.911099,-74.020594,-9474.636058,-76.609550
59297.911409,-1110.308913,-7254.018232,-2451.505594
59297.911719,888.247130,-13619.789333,995.924147
59297.912028,-2368.659014,-14285.974681,-919.314598
59297.912338,-1924.535449,-14211.954086,-153.219100
59297.912648,-2146.597232,-11843.295072,536.266849
59297.912957,0.000000,-6513.812290,1991.848295
59297.913267,3478.967927,-2960.823768,2374.896044
59297.913577,3182.885551,-888.247130,3294.210641
59297.913886,592.164754,-1850.514855,1225.752797
59297.914196,3775.050304,-11103.089130,4136.915689
59297.914506,-1702.473667,-10955.047942,0.000000
59297.914815,-296.082377,-13693.809927,2451.505594
59297.915125,-2368.659014,-9548.656652,-1225.752797
59297.915435,-444.123565,-8290.306550,-689.485948
59297.915744,-962.267725,-7846.182985,-1225.752797
59297.916054,-1850.514855,-10584.944971,-1685.410096
59297.916364,-1258.350101,-15396.283594,-1302.362347
59297.916674,-3627.009116,-15396.283594,-1302.362347
59297.916983,-7698.141797,-10732.986159,-3370.820191
59297.917293,-1332.370696,-9844.739029,2298.286494
59297.917603,0.000000,-3627.009116,2374.896044
59297.917912,2368.659014,-666.185348,4903.011187
59297.918222,3330.926739,-1258.350101,3983.696590
59297.918532,3330.926739,-5921.647536,3830.477490
59297.918841,1332.370696,-10362.883188,3140.991542
59297.919151,-666.185348,-11399.171507,1838.629195
59297.919461,-74.020594,-11843.295072,2374.896044
59297.919770,-74.020594,-9474.636058,-76.609550
59297.920080,-1850.514855,-5181.441594,-2987.772442
59297.920390,0.000000,-8364.327145,-1225.752797
59297.920699,-962.267725,-14211.954086,-76.609550
59297.921009,-5921.647536,-12509.480420,-2451.505594
59297.921319,-4367.215058,-14582.057057,-2068.457845
59297.921629,-3330.926739,-11325.150913,0.000000
59297.921938,-222.061783,-5625.565159,1378.971896
59297.922248,2516.700203,-3404.947333,3677.258390
59297.922558,4737.318029,-4219.173869,7277.907231
59297.922867,6439.791695,-6809.894666,5515.887586
59297.923177,4663.297435,-11843.295072,4826.401637
59297.923487,-1406.391290,-9548.656652,0.000000
59297.923796,-444.123565,-12657.521608,3524.039291
59297.924106,-1850.514855,-7624.121203,-2451.505594
59297.924416,-74.020594,-7994.224174,-689.485948
59297.924725,-740.205942,-9030.512492,-1532.190996
59297.925035,-2368.659014,-12213.398043,-2451.505594
59297.925345,-4589.276840,-15544.324782,-2911.162892
59297.925655,-5921.647536,-15470.304188,-1532.190996
59297.925964,-3182.885551,-13101.645173,0.000000
59297.926274,-74.020594,-9474.636058,2987.772442
59297.926584,0.000000,-1554.432478,2451.505594
59297.926893,5847.626942,-3404.947333,7277.907231
59297.927203,5847.626942,-296.082377,2374.896044
59297.927513,5255.462188,-7105.977043,5286.058936
59297.927822,1406.391290,-9696.697840,2681.334243
59297.928132,-1628.453072,-11325.150913,689.485948
59297.928442,-2146.597232,-9696.697840,-995.924147
59297.928751,-3552.988522,-7179.997637,0.000000
59297.929061,-2368.659014,-7179.997637,-4903.011187
59297.929371,-74.020594,-12731.542202,-76.609550
59297.929680,-1258.350101,-15100.201217,-1915.238745
59297.929990,-4441.235652,-14285.974681,-4903.011187
59297.930300,-1258.350101,-15396.283594,-689.485948
59297.930610,-74.020594,-9474.636058,2068.457845
59297.930919,2146.597232,-4737.318029,2911.162892
59297.931229,3849.070898,-1998.556043,4749.792088
59297.931539,5033.400406,-2368.659014,4519.963438
59297.931848,1184.329507,-4811.338623,1225.752797
59297.932158,0.000000,-7179.997637,0.000000
59297.932468,-2368.659014,-10732.986159,1225.752797
59297.932777,-74.020594,-13027.624579,1149.143247
59297.933087,-2368.659014,-7179.997637,-3983.696590
59297.933397,-74.020594,-9474.636058,-76.609550
59297.933706,-1776.494261,-10140.821405,-1685.410096
59297.934016,-4071.132681,-13915.871710,-2834.553343
59297.934326,-4589.276840,-15174.221811,-2757.943793
59297.934635,-5033.400406,-14582.057057,-1608.800546
59297.934945,-5107.421000,-8734.430116,-1302.362347
59297.935255,-1998.556043,-3849.070898,1149.143247
59297.935565,1184.329507,-1258.350101,4903.011187
59297.935874,6439.791695,-2368.659014,6052.154434
59297.936184,4737.318029,-3701.029710,6894.859482
59297.936494,5255.462188,-9474.636058,6052.154434
59297.936803,0.000000,-10436.903782,1991.848295
59297.937113,-1554.432478,-11991.336260,919.314598
59297.937423,-962.267725,-9918.759623,-459.657299
59297.937732,-1184.329507,-8290.306550,-1378.971896
59297.938042,-666.185348,-7698.141797,-2528.115143
59297.938352,-1406.391290,-12731.542202,-1302.362347
59297.938661,-5255.462188,-13101.645173,-3447.429741
59297.938971,-4737.318029,-13693.809927,-2451.505594
59297.939281,-1850.514855,-16580.613101,-76.609550
59297.939590,-592.164754,-8512.368333,2451.505594
59297.939900,1184.329507,-3034.844362,2911.162892
59297.940210,4515.256246,-1998.556043,4749.792088
59297.940520,5107.421000,-2812.782580,4290.134789
59297.940829,3108.864956,-7328.038826,3447.429741
59297.941139,2294.638420,-11251.130318,3294.210641
59297.941449,-74.020594,-14211.954086,2374.896044
59297.941758,-2590.720797,-8364.327145,-2374.896044
59297.942068,-1184.329507,-9548.656652,0.000000
59297.942378,-74.020594,-10658.965565,-76.609550
59297.942687,-2072.576638,-10140.821405,-2145.067394
59297.942997,-4293.194464,-13841.851115,-2757.943793
59297.943307,-4737.318029,-15322.262999,-2451.505594
59297.943616,-4367.215058,-14137.933492,-1532.190996
59297.943926,-2146.597232,-9400.615463,689.485948
59297.944236,4071.132681,-7105.977043,4826.401637
59297.944545,7031.956449,-4737.318029,8197.221829
59297.944855,5847.626942,-1480.411884,4826.401637
59297.945165,3552.988522,-4811.338623,4903.011187
59297.945475,2886.803174,-9474.636058,4213.525239
59297.945784,-2368.659014,-9548.656652,612.876398
59297.946094,-1850.514855,-10214.842000,-229.828649
59297.946404,-1776.494261,-8734.430116,-1149.143247
59297.946713,-1258.350101,-7550.100608,-1608.800546
59297.947023,-1554.432478,-9622.677246,-2451.505594
59297.947333,-592.164754,-14211.954086,-612.876398
59297.947642,-2220.617826,-16210.510130,0.000000
59297.947952,-2442.679609,-15396.283594,-1302.362347
59297.948262,-4441.235652,-10732.986159,0.000000
59297.948571,1702.473667,-9474.636058,4213.525239
59297.948881,592.164754,-74.020594,2451.505594
59297.949191,4959.379811,-2886.803174,4826.401637
59297.949500,3997.112087,-4219.173869,3830.477490
59297.949810,2220.617826,-8438.347739,2757.943793
59297.950120,0.000000,-11177.109724,1991.848295
59297.950430,-1184.329507,-10881.027347,612.876398
59297.950739,-2368.659014,-9548.656652,0.000000
59297.951049,1406.391290,-9474.636058,-76.609550
59297.951359,-1258.350101,-7402.059420,-2834.553343
59297.951668,-3552.988522,-10732.986159,0.000000
59297.951978,-4811.338623,-14211.954086,-4213.525239
59297.952288,-4737.318029,-15396.283594,-2221.676944
59297.952597,-4811.338623,-13027.624579,-995.924147
59297.952907,-1998.556043,-8290.306550,689.485948
59297.953217,1924.535449,-3627.009116,3830.477490
59297.953526,2960.823768,-74.020594,4903.011187
59297.953836,1184.329507,-74.020594,4903.011187
59297.954146,5699.585753,-7994.224174,6052.154434
59297.954456,1110.308913,-9178.553681,2374.896044
59297.954765,-1776.494261,-10732.986159,2451.505594
59297.955075,-74.020594,-10658.965565,-689.485948
59297.955385,-888.247130,-8364.327145,-459.657299
59297.955694,-444.123565,-7550.100608,-1608.800546
59297.956004,-1480.411884,-10214.842000,-2374.896044
59297.956314,-3404.947333,-13545.768739,-2298.286494
59297.956624,-4737.318029,-14285.974681,-3600.648841
59297.956933,-4737.318029,-11917.315666,-4596.572988
59297.957243,-2368.659014,-11325.150913,1838.629195
59297.957553,1998.556043,-4737.318029,1762.019645
59297.957862,2368.659014,-2442.679609,4903.011187
59297.958172,6439.791695,-4145.153275,5745.716235
59297.958482,3627.009116,-4811.338623,3677.258390
59297.958792,1480.411884,-9844.739029,3370.820191
59297.959101,518.144159,-11473.192101,2068.457845
59297.959411,-444.123565,-10807.006753,842.705048
59297.959721,-2368.659014,-6587.832884,-2451.505594
59297.960031,0.000000,-5995.668130,-3677.258390
59297.960340,-2368.659014,-9548.656652,-1838.629195
59297.960650,-1850.514855,-14804.118840,-2528.115143
59297.960960,-6809.894666,-14285.974681,-5975.544884
59297.961269,-3034.844362,-16580.613101,-689.485948
59297.961579,-3034.844362,-12953.603985,459.657299
59297.961889,-74.020594,-6365.771101,2298.286494
59297.962199,2516.700203,-3478.967927,4290.134789
59297.962508,4663.297435,-1924.535449,5822.325785
59297.962818,2960.823768,-1258.350101,3983.696590
59297.963128,1184.329507,-4811.338623,1762.019645
59297.963438,0.000000,-9548.656652,3064.381992
59297.963747,-74.020594,-11843.295072,2374.896044
59297.964057,-2146.597232,-7179.997637,-3294.210641
59297.964367,-74.020594,-9474.636058,-76.609550
59297.964677,-2368.659014,-8364.327145,-1838.629195
59297.964986,-2590.720797,-11843.295072,-2834.553343
59297.965296,-3997.112087,-15470.304188,-2374.896044
59297.965606,-4219.173869,-15914.427753,-2374.896044
59297.965915,-3627.009116,-12879.583391,-1915.238745
59297.966225,-2146.597232,-6809.894666,-76.609550
59297.966535,0.000000,-1258.350101,1225.752797
59297.966845,5551.544565,-3256.906145,6511.811733
59297.967154,4071.132681,-1998.556043,1838.629195
59297.967464,4441.235652,-8734.430116,6052.154434
59297.967774,0.000000,-10140.821405,2145.067394
59297.968084,-74.020594,-12139.377449,1608.800546
59297.968393,-814.226536,-10214.842000,229.828649
59297.968703,0.000000,-7550.100608,-766.095498
59297.969013,-74.020594,-7994.224174,-1915.238745
59297.969323,-1258.350101,-10658.965565,-2528.115143
59297.969632,-6513.812290,-13101.645173,-4903.011187
59297.969942,-5921.647536,-17246.798449,-2451.505594
59297.970252,-3627.009116,-15988.448347,-1302.362347
59297.970561,-4441.235652,-10140.821405,1991.848295
59297.970871,296.082377,-4219.173869,2451.505594
59297.971181,4071.132681,-2220.617826,5439.278036
59297.971491,5625.565159,-1554.432478,6435.202183
59297.971800,4589.276840,-3701.029710,4979.620737
59297.972110,4663.297435,-9474.636058,4826.401637
59297.972420,-74.020594,-14211.954086,3600.648841
59297.972730,-1850.514855,-9474.636058,-689.485948
59297.973039,-2368.659014,-8956.491898,0.000000
59297.973349,-74.020594,-9474.636058,-76.609550
59297.973659,-2368.659014,-6587.832884,-2451.505594
59297.973969,-2442.679609,-12657.521608,-2374.896044
59297.974278,-4515.256246,-16062.468941,-2374.896044
59297.974588,-3627.009116,-15692.365970,-2145.067394
59297.974898,-2886.803174,-12213.398043,-459.657299
59297.975207,1406.391290,-8882.471304,2987.772442
59297.975517,4663.297435,-5181.441594,6588.421283
59297.975827,5847.626942,-2368.659014,4519.963438
59297.976137,2960.823768,-2738.761985,4903.011187
59297.976446,3478.967927,-9474.636058,4826.401637
59297.976756,0.000000,-8364.327145,612.876398
59297.977066,-74.020594,-11251.130318,1149.143247
59297.977376,-740.205942,-8808.450710,76.609550
59297.977685,-444.123565,-8142.265362,-842.705048
59297.977995,-1406.391290,-8290.306550,-1991.848295
59297.978305,-2960.823768,-12213.398043,-2451.505594
59297.978615,-6513.812290,-15470.304188,-2451.505594
59297.978924,-4959.379811,-18875.251521,-2528.115143
59297.979234,-4811.338623,-14211.954086,-2528.115143
59297.979544,-4737.318029,-7179.997637,0.000000
59297.979853,1110.308913,-2442.679609,1838.629195
59297.980163,5255.462188,-1776.494261,6052.154434
59297.980473,5773.606348,-1554.432478,6128.763984
59297.980783,4811.338623,-5255.462188,4979.620737
59297.981092,1628.453072,-9326.594869,3140.991542
59297.981402,-1776.494261,-10732.986159,1225.752797
59297.981712,-4737.318029,-7179.997637,0.000000
59297.982022,-74.020594,-9474.636058,-76.609550
59297.982331,-74.020594,-7105.977043,-1915.238745
59297.982641,-2368.659014,-9548.656652,0.000000
59297.982951,-2442.679609,-13619.789333,-3140.991542
59297.983261,-4811.338623,-17468.860231,-2221.676944
59297.983570,-4737.318029,-14508.036463,-1915.238745
59297.983880,-3182.885551,-10807.006753,153.219100
59297.984190,148.041188,-5403.503377,1838.629195
59297.984499,1184.329507,-74.020594,2451.505594
59297.984809,1184.329507,-74.020594,2451.505594
59297.985119,5921.647536,-6217.729913,6052.154434
59297.985429,2886.803174,-7920.203579,2374.896044
59297.985738,2294.638420,-13249.686362,4596.572988
59297.986048,-74.020594,-11251.130318,-76.609550
59297.986358,-592.164754,-9104.533087,-153.219100
59297.986668,518.144159,-8290.306550,-995.924147
59297.986977,-740.205942,-9178.553681,-2068.457845
59297.987287,-2960.823768,-12953.603985,-2834.553343
59297.987597,-6735.874072,-15470.304188,-4366.744339
59297.987907,-7105.977043,-12509.480420,-4903.011187
59297.988216,-3552.988522,-13101.645173,919.314598
59297.988526,1110.308913,-7698.141797,2987.772442
59297.988836,2960.823768,-2442.679609,5515.887586
59297.989145,8216.285956,-4737.318029,8503.660028
59297.989455,5329.482782,-1850.514855,5515.887586
59297.989765,3108.864956,-6809.894666,3677.258390
59297.990075,0.000000,-9474.636058,1991.848295
59297.990384,-2368.659014,-10881.027347,0.000000
59297.990694,-1850.514855,-9474.636058,-689.485948
59297.991004,-1258.350101,-8882.471304,-2528.115143
59297.991314,-2368.659014,-7179.997637,-2451.505594
59297.991623,-1036.288319,-12065.356855,-76.609550
59297.991933,-1850.514855,-15396.283594,-2528.115143
59297.992243,-2960.823768,-15988.448347,-383.047749
59297.992553,-3552.988522,-12435.459826,-383.047749
59297.992862,-592.164754,-7846.182985,1532.190996
59297.993172,2590.720797,-3701.029710,3447.429741
59297.993482,4663.297435,-1480.411884,4979.620737
59297.993791,6735.874072,-4145.153275,6052.154434
59297.994101,4663.297435,-8290.306550,3600.648841
59297.994411,-2368.659014,-8364.327145,0.000000
59297.994721,-74.020594,-13027.624579,2374.896044
59297.995030,-4293.194464,-8364.327145,-2451.505594
59297.995340,-1184.329507,-8660.409521,612.876398
59297.995650,296.082377,-7698.141797,-1302.362347
59297.995960,-1332.370696,-10584.944971,-2221.676944
59297.996269,-3330.926739,-13915.871710,-2221.676944
59297.996579,-5329.482782,-15988.448347,-2604.724693
59297.996889,-2738.761985,-15692.365970,-1072.533697
59297.997199,-74.020594,-13027.624579,2374.896044
59297.997508,518.144159,-4737.318029,2068.457845
59297.997818,2368.659014,-1850.514855,5515.887586
59297.998128,4663.297435,-2072.576638,4213.525239
59297.998437,2368.659014,-2442.679609,4903.011187
59297.998747,1110.308913,-8660.409521,2987.772442
59297.999057,-1406.391290,-11251.130318,1685.410096
59297.999367,-3330.926739,-11103.089130,306.438199
59297.999676,-1702.473667,-9622.677246,-689.485948
59297.999986,0.000000,-8660.409521,0.000000
59298.000296,1184.329507,-10066.800811,1149.143247
59298.000606,-74.020594,-12879.583391,-689.485948
59298.000915,-4737.318029,-13101.645173,-4596.572988
59298.001225,-2220.617826,-15174.221811,689.485948
59298.001535,-3552.988522,-11029.068536,0.000000
59298.001845,-74.020594,-6809.894666,2068.457845
59298.002154,1998.556043,-3256.906145,2681.334243
59298.002464,3849.070898,-2442.679609,4213.525239
59298.002774,3330.926739,-4589.276840,3524.039291
59298.003083,1184.329507,-7772.162391,2451.505594
59298.003393,0.000000,-11917.315666,2757.943793
59298.003703,-74.020594,-13619.789333,1149.143247
59298.004013,-1406.391290,-8956.491898,0.000000
59298.004322,2294.638420,-10066.800811,2298.286494
59298.004632,222.061783,-5403.503377,-1838.629195
59298.004942,0.000000,-11399.171507,-995.924147
59298.005252,-2960.823768,-14211.954086,-2221.676944
59298.005561,-4145.153275,-15470.304188,-1685.410096
59298.005871,-3923.091493,-13249.686362,-306.438199
59298.006181,-1776.494261,-6587.832884,0.000000
59298.006491,0.000000,-2442.679609,1225.752797
59298.006800,4589.276840,-3849.070898,5975.544884
59298.007110,4663.297435,-2072.576638,1762.019645
59298.007420,2368.659014,-6291.750507,3677.258390
59298.007729,1110.308913,-10066.800811,612.876398
59298.008039,-1480.411884,-11325.150913,1225.752797
59298.008349,-1850.514855,-10288.862594,-612.876398
59298.008659,-1036.288319,-7402.059420,-1072.533697
59298.008968,-296.082377,-7254.018232,-76.609550
59298.009278,-1776.494261,-8586.388927,-1608.800546
59298.009588,-4737.318029,-11917.315666,-3983.696590
59298.009898,-4145.153275,-15840.407159,-919.314598
59298.010207,-3182.885551,-13027.624579,-2528.115143
59298.010517,-3552.988522,-9844.739029,1225.752797
59298.010827,1702.473667,-5773.606348,1149.143247
59298.011137,2072.576638,-2220.617826,3753.867940
59298.011446,3701.029710,-3034.844362,3983.696590
59298.011756,2960.823768,-5773.606348,3677.258390
59298.012066,1184.329507,-9918.759623,3907.087040
59298.012375,-1406.391290,-11843.295072,2068.457845
59298.012685,-1850.514855,-10362.883188,-689.485948
59298.012995,-2072.576638,-7772.162391,0.000000
59298.013305,1702.473667,-9474.636058,-76.609550
59298.013614,-1406.391290,-6291.750507,-2987.772442
59298.013924,-1850.514855,-13027.624579,-2528.115143
59298.014234,-5477.523971,-15026.180623,-2911.162892
59298.014544,-5033.400406,-15692.365970,-2221.676944
59298.014853,-3849.070898,-13175.665768,153.219100
59298.015163,-444.123565,-6587.832884,2451.505594
59298.015473,3478.967927,-4737.318029,4826.401637
59298.015782,5847.626942,-2960.823768,5745.716235
59298.016092,2516.700203,-2442.679609,3983.696590
59298.016402,4663.297435,-9474.636058,6665.030833
59298.016712,-1850.514855,-8882.471304,76.609550
59298.017021,-1850.514855,-10140.821405,-76.609550
59298.017331,-2886.803174,-8882.471304,-1149.143247
59298.017641,-814.226536,-7179.997637,-1762.019645
59298.017951,74.020594,-6809.894666,-1302.362347
59298.018260,-1332.370696,-10288.862594,-1838.629195
59298.018570,-1258.350101,-15248.242405,-1302.362347
59298.018880,-1258.350101,-17764.942608,-689.485948
59298.019190,-3923.091493,-13397.727550,-842.705048
59298.019499,592.164754,-11325.150913,4903.011187
59298.019809,2294.638420,-4145.153275,2068.457845
59298.020119,4737.318029,-3552.988522,6052.154434
59298.020428,4663.297435,-3034.844362,4826.401637
59298.020738,3552.988522,-6587.832884,3370.820191
59298.021048,666.185348,-9696.697840,1915.238745
59298.021358,-1258.350101,-10732.986159,0.000000
59298.021667,-444.123565,-10584.944971,306.438199
59298.021977,1850.514855,-9474.636058,-76.609550
59298.022287,-74.020594,-6365.771101,-2221.676944
59298.022597,-4737.318029,-5995.668130,-4290.134789
59298.022906,-2368.659014,-14582.057057,-1225.752797
59298.023216,-3256.906145,-17172.777854,-1149.143247
59298.023526,-3256.906145,-15988.448347,-1072.533697
59298.023836,-2368.659014,-11769.274478,842.705048
59298.024145,1480.411884,-5699.585753,2221.676944
59298.024455,3108.864956,-2738.761985,2451.505594
59298.024765,3849.070898,-1850.514855,3677.258390
59298.025074,6365.771101,-6365.771101,5669.106685
59298.025384,2886.803174,-8290.306550,3294.210641
59298.025694,-3552.988522,-7772.162391,0.000000
59298.026004,-1184.329507,-11843.295072,-76.609550
59298.026313,-1702.473667,-9548.656652,0.000000
59298.026623,-74.020594,-7105.977043,-995.924147
59298.026933,-74.020594,-7550.100608,-1685.410096
59298.027243,-1998.556043,-11843.295072,-1915.238745
59298.027552,-3775.050304,-14804.118840,-2528.115143
59298.027862,-4441.235652,-15470.304188,-2451.505594
59298.028172,-3552.988522,-13693.809927,1225.752797
59298.028482,-74.020594,-8660.409521,3600.648841
59298.028791,-370.102971,-1924.535449,1455.581446
59298.029101,2368.659014,-2442.679609,6741.640382
59298.029411,2960.823768,-2442.679609,4903.011187
59298.029720,2294.638420,-7994.224174,3524.039291
59298.030030,-370.102971,-11029.068536,1838.629195
59298.030340,-1850.514855,-10807.006753,536.266849
59298.030650,-666.185348,-9474.636058,-76.609550
59298.030959,0.000000,-5995.668130,-1608.800546
59298.031269,0.000000,-5995.668130,0.000000
59298.031579,-74.020594,-11843.295072,-689.485948
59298.031889,-5921.647536,-11917.315666,-4903.011187
59298.032198,-4737.318029,-16654.633695,0.000000
59298.032508,-4737.318029,-13397.727550,-1225.752797
59298.032818,-1850.514855,-9844.739029,1225.752797
59298.033128,962.267725,-4811.338623,3294.210641
59298.033437,2812.782580,-3330.926739,4596.572988
59298.033747,4811.338623,-4737.318029,6665.030833
59298.034057,3404.947333,-4737.318029,3600.648841
59298.034366,0.000000,-7476.080014,919.314598
59298.034676,-2368.659014,-11473.192101,1225.752797
59298.034986,-1258.350101,-9474.636058,-1915.238745
59298.035296,-2368.659014,-7179.997637,0.000000
59298.035605,-666.185348,-6217.729913,-2528.115143
59298.035915,-888.247130,-9474.636058,-1378.971896
59298.036225,-1628.453072,-12953.603985,-1378.971896
59298.036535,-3330.926739,-15174.221811,-1608.800546
59298.036844,-1850.514855,-16210.510130,1455.581446
59298.037154,-1850.514855,-11843.295072,2374.896044
59298.037464,-962.267725,-4811.338623,842.705048
59298.037774,1776.494261,-3182.885551,5669.106685
59298.038083,2294.638420,-148.041188,2221.676944
59298.038393,1776.494261,-3627.009116,1225.752797
59298.038703,2294.638420,-9474.636058,2068.457845
59298.039012,-1998.556043,-10881.027347,306.438199
59298.039322,-1998.556043,-11621.233289,-689.485948
59298.039632,-1332.370696,-9400.615463,-536.266849
59298.039942,592.164754,-7179.997637,612.876398
59298.040251,2294.638420,-9474.636058,-76.609550
59298.040561,-666.185348,-11843.295072,-1915.238745
59298.040871,-3552.988522,-11917.315666,-4903.011187
59298.041181,-2960.823768,-16654.633695,612.876398
59298.041490,-666.185348,-12435.459826,-76.609550
59298.041800,-74.020594,-8290.306550,2374.896044
59298.042110,1480.411884,-4219.173869,3753.867940
59298.042420,3627.009116,-2812.782580,4596.572988
59298.042729,4515.256246,-3330.926739,3907.087040
59298.043039,1776.494261,-5995.668130,2451.505594
59298.043349,-74.020594,-11917.315666,2911.162892
59298.043658,-1258.350101,-11843.295072,-76.609550
59298.043968,-3108.864956,-9548.656652,-2451.505594
59298.044278,-74.020594,-9474.636058,-76.609550
59298.044588,-2368.659014,-5329.482782,-2528.115143
59298.044897,-74.020594,-11843.295072,-76.609550
59298.045207,-2368.659014,-14211.954086,-1455.581446
59298.045517,-3256.906145,-15396.283594,-536.266849
59298.045827,-2960.823768,-14063.912898,612.876398
59298.046136,-2368.659014,-7179.997637,0.000000
59298.046446,2368.659014,-4811.338623,4903.011187
59298.046756,4663.297435,-3997.112087,4826.401637
59298.047066,4071.132681,-1258.350101,1455.581446
59298.047375,3849.070898,-7179.997637,5515.887586
59298.047685,1110.308913,-10658.965565,2374.896044
59298.047995,-2072.576638,-12509.480420,1225.752797
59298.048304,-2442.679609,-11547.212695,-1149.143247
59298.048614,-1332.370696,-8734.430116,-1302.362347
59298.048924,-592.164754,-6809.894666,-1608.800546
59298.049234,-2590.720797,-7328.038826,-3677.258390
59298.049543,-4737.318029,-10732.986159,-2451.505594
59298.049853,-1628.453072,-16506.592507,-76.609550
59298.050163,-3034.844362,-14285.974681,-3370.820191
59298.050473,-74.020594,-13619.789333,3294.210641
59298.050782,1110.308913,-5921.647536,3294.210641
59298.051092,3552.988522,-3627.009116,5209.449386
59298.051402,4885.359217,-2368.659014,5362.668486
59298.051712,4441.235652,-4589.276840,3907.087040
59298.052021,1554.432478,-8660.409521,2298.286494
59298.052331,-1850.514855,-10658.965565,-689.485948
59298.052641,-4737.318029,-10140.821405,-2451.505594
59298.052950,-3552.988522,-10140.821405,-1685.410096
59298.053260,-74.020594,-9474.636058,-76.609550
59298.053570,-2812.782580,-6143.709319,-3064.381992
59298.053880,-148.041188,-12213.398043,1225.752797
59298.054189,-3552.988522,-13101.645173,-2145.067394
59298.054499,-2812.782580,-15470.304188,-153.219100
59298.054809,-2072.576638,-12287.418637,1225.752797
59298.055119,0.000000,-7179.997637,2451.505594
59298.055429,2294.638420,-4737.318029,3600.648841
59298.055738,1702.473667,-222.061783,2987.772442
59298.056048,2368.659014,-3034.844362,3677.258390
59298.056358,4663.297435,-10658.965565,6052.154434
59298.056668,-2442.679609,-9104.533087,0.000000
59298.056978,-3552.988522,-11917.315666,1225.752797
59298.057288,-2368.659014,-11547.212695,-76.609550
59298.057598,-74.020594,-7994.224174,-689.485948
59298.057907,296.082377,-7624.121203,-766.095498
59298.058217,-1480.411884,-9622.677246,-2298.286494
59298.058527,-2146.597232,-14804.118840,-1302.362347
59298.058837,-4145.153275,-14582.057057,-1608.800546
59298.059147,-4737.318029,-12509.480420,0.000000
59298.059457,-74.020594,-10214.842000,3294.210641
59298.059766,0.000000,-2442.679609,1225.752797
59298.060076,5551.544565,-4737.318029,6128.763984
59298.060386,3256.906145,-1258.350101,2528.115143
59298.060696,3182.885551,-6291.750507,3294.210641
59298.061006,444.123565,-10066.800811,1762.019645
59298.061316,-1998.556043,-12065.356855,383.047749
59298.061625,-2442.679609,-13027.624579,-76.609550
59298.061935,-1554.432478,-8290.306550,-76.609550
59298.062245,-2072.576638,-5403.503377,-2145.067394
59298.062555,0.000000,-8512.368333,0.000000
59298.062865,-74.020594,-14211.954086,-1302.362347
59298.063175,-4737.318029,-13101.645173,-3677.258390
59298.063485,-3627.009116,-14211.954086,-1149.143247
59298.063794,-2368.659014,-11325.150913,995.924147
59298.064104,-444.123565,-5699.585753,2298.286494
59298.064414,1998.556043,-3034.844362,3830.477490
59298.064724,5033.400406,-3034.844362,5515.887586
59298.065034,4663.297435,-6513.812290,4826.401637
59298.065344,518.144159,-7994.224174,1149.143247
59298.065653,-2368.659014,-11325.150913,0.000000
59298.065963,-74.020594,-13619.789333,-689.485948
59298.066273,-3552.988522,-8364.327145,-3677.258390
59298.066583,-74.020594,-7105.977043,-995.924147
59298.066893,-444.123565,-7254.018232,-2068.457845
59298.067203,-1480.411884,-11251.130318,-1608.800546
59298.067512,-2664.741391,-14508.036463,-1915.238745
59298.067822,-2960.823768,-15174.221811,612.876398
59298.068132,-74.020594,-15100.201217,2987.772442
59298.068442,-74.020594,-7105.977043,1762.019645
59298.068752,1184.329507,-3034.844362,2451.505594
59298.069062,7031.956449,-3552.988522,4826.401637
59298.069372,2812.782580,-222.061783,2221.676944
59298.069681,4071.132681,-8290.306550,4519.963438
59298.069991,-518.144159,-10658.965565,536.266849
59298.070301,-2664.741391,-12287.418637,-612.876398
59298.070611,-3330.926739,-11621.233289,-1685.410096
59298.070921,-2960.823768,-7179.997637,0.000000
59298.071231,1332.370696,-7772.162391,612.876398
59298.071540,-74.020594,-10658.965565,-76.609550
59298.071850,-2146.597232,-12139.377449,-2528.115143
59298.072160,-4737.318029,-14285.974681,0.000000
59298.072470,-1258.350101,-14211.954086,-76.609550
59298.072780,-74.020594,-11251.130318,2681.334243
59298.073090,0.000000,-4737.318029,2528.115143
59298.073399,2220.617826,-2072.576638,3524.039291
59298.073709,3627.009116,-2368.659014,3753.867940
59298.074019,592.164754,-4811.338623,1532.190996
59298.074329,0.000000,-9548.656652,2451.505594
59298.074639,-962.267725,-13619.789333,1149.143247
59298.074949,-2442.679609,-11547.212695,-2528.115143
59298.075259,-592.164754,-10140.821405,612.876398
59298.075568,-74.020594,-8290.306550,-1302.362347
59298.075878,0.000000,-8956.491898,-766.095498
59298.076188,-1258.350101,-12435.459826,-1608.800546
59298.076498,-2072.576638,-14952.160028,-766.095498
59298.076808,-2072.576638,-14656.077652,306.438199
59298.077118,-1850.514855,-9844.739029,229.828649
59298.077427,0.000000,-4811.338623,1532.190996
59298.077737,3552.988522,-4811.338623,5056.230287
59298.078047,4367.215058,-962.267725,2068.457845
59298.078357,3552.988522,-4811.338623,4903.011187
59298.078667,3478.967927,-11251.130318,4519.963438
59298.078977,-2368.659014,-10436.903782,612.876398
59298.079286,-2664.741391,-12065.356855,-153.219100
59298.079596,-1998.556043,-9770.718434,-1225.752797
59298.079906,-740.205942,-7550.100608,-766.095498
59298.080216,814.226536,-6957.935855,-1302.362347
59298.080526,-2960.823768,-8364.327145,-2757.943793
59298.080836,-3256.906145,-14285.974681,-1072.533697
59298.081146,-2442.679609,-16580.613101,-76.609550
59298.081455,-4737.318029,-11917.315666,0.000000
59298.081765,-74.020594,-10584.944971,4213.525239
59298.082075,0.000000,-3034.844362,1838.629195
59298.082385,3108.864956,-3108.864956,4213.525239
59298.082695,3849.070898,-3701.029710,3983.696590
59298.083005,2368.659014,-7328.038826,3217.601092
59298.083314,-74.020594,-11843.295072,2374.896044
59298.083624,-2442.679609,-10658.965565,-766.095498
59298.083934,-3997.112087,-9548.656652,-1685.410096
59298.084244,888.247130,-9400.615463,2451.505594
59298.084554,-74.020594,-6513.812290,-1302.362347
59298.084864,0.000000,-7772.162391,0.000000
59298.085173,-3775.050304,-11917.315666,-2757.943793
59298.085483,-3775.050304,-15322.262999,-1532.190996
59298.085793,-3404.947333,-14656.077652,-306.438199
59298.086103,-1998.556043,-10584.944971,995.924147
59298.086413,1998.556043,-8290.306550,4519.963438
59298.086723,4663.297435,-4441.235652,3600.648841
59298.087033,3182.885551,-1850.514855,3370.820191
59298.087342,5921.647536,-7476.080014,6588.421283
59298.087652,2294.638420,-9178.553681,2374.896044
59298.087962,-3552.988522,-9548.656652,0.000000
59298.088272,-2442.679609,-10362.883188,-1149.143247
59298.088582,-1480.411884,-8586.388927,-766.095498
59298.088892,0.000000,-6661.853478,-612.876398
59298.089201,0.000000,-8142.265362,-1072.533697
59298.089511,-888.247130,-13397.727550,-76.609550
59298.089821,-2442.679609,-15396.283594,-1608.800546
59298.090131,-6513.812290,-14285.974681,-2145.067394
59298.090441,-1776.494261,-13397.727550,3064.381992
59298.090751,-74.020594,-6809.894666,-76.609550
59298.091060,0.000000,-2442.679609,2451.505594
59298.091370,3182.885551,-1776.494261,3600.648841
59298.091680,3404.947333,-4737.318029,3600.648841
59298.091990,1924.535449,-7698.141797,2374.896044
59298.092300,-1184.329507,-11103.089130,1225.752797
59298.092610,-148.041188,-12879.583391,2374.896044
59298.092920,-74.020594,-9474.636058,-76.609550
59298.093229,0.000000,-5403.503377,-1225.752797
59298.093539,2294.638420,-11251.130318,-76.609550
59298.093849,-2294.638420,-8956.491898,-2987.772442
59298.094159,-4737.318029,-14285.974681,0.000000
59298.094469,-3701.029710,-14656.077652,-1991.848295
59298.094779,-3182.885551,-13545.768739,0.000000
59298.095088,-1036.288319,-8290.306550,1608.800546
59298.095398,1332.370696,-4663.297435,2987.772442
59298.095708,5255.462188,-4737.318029,6052.154434
59298.096018,5551.544565,-2960.823768,3600.648841
59298.096328,1332.370696,-5403.503377,2451.505594
59298.096638,1628.453072,-11843.295072,2374.896044
59298.096947,-4737.318029,-9548.656652,0.000000
59298.097257,-1776.494261,-10288.862594,0.000000
59298.097567,-1776.494261,-6587.832884,-3677.258390
59298.097877,0.000000,-6883.915261,-919.314598
59298.098187,-370.102971,-10140.821405,-1072.533697
59298.098497,-2072.576638,-13323.706956,-1149.143247
59298.098807,-1850.514855,-15396.283594,-1302.362347
59298.099116,-3330.926739,-13619.789333,-383.047749
59298.099426,-3552.988522,-8364.327145,306.438199
59298.099736,1702.473667,-8290.306550,4826.401637
59298.100046,0.000000,-222.061783,2451.505594
59298.100356,5625.565159,-4219.173869,5822.325785
59298.100666,1776.494261,-3627.009116,919.314598
59298.100975,148.041188,-9844.739029,1685.410096
59298.101285,-2368.659014,-11843.295072,229.828649
59298.101595,-2516.700203,-11325.150913,-459.657299
59298.101905,-74.020594,-11547.212695,2374.896044
59298.102215,1702.473667,-7698.141797,-76.609550
59298.102525,-1480.411884,-7179.997637,-2145.067394
59298.102834,-4737.318029,-10732.986159,0.000000
59298.103144,-666.185348,-16580.613101,-76.609550
59298.103454,-5921.647536,-11917.315666,0.000000
59298.103764,-3478.967927,-10436.903782,76.609550
59298.104074,0.000000,-6069.688724,1991.848295
59298.104384,2220.617826,-3849.070898,3677.258390
59298.104694,3997.112087,-3552.988522,4366.744339
59298.105003,4663.297435,-6513.812290,4826.401637
59298.105313,2294.638420,-8290.306550,1762.019645
59298.105623,-2960.823768,-10732.986159,0.000000
59298.105933,-3256.906145,-11917.315666,1225.752797
59298.106243,-666.185348,-10658.965565,-689.485948
59298.106553,-3552.988522,-5107.421000,0.000000
59298.106862,2220.617826,-8808.450710,766.095498
59298.107172,-666.185348,-10214.842000,-995.924147
59298.107482,-2886.803174,-14211.954086,-1608.800546
59298.107792,-3849.070898,-14582.057057,-612.876398
59298.108102,-4737.318029,-11029.068536,0.000000
59298.108412,-888.247130,-8364.327145,2604.724693
59298.108721,2294.638420,-5329.482782,3600.648841
59298.109031,2442.679609,-1406.391290,1225.752797
59298.109341,6439.791695,-5921.647536,5745.716235
59298.109651,1702.473667,-7105.977043,2374.896044
59298.109961,518.144159,-12213.398043,2068.457845
59298.110271,-1998.556043,-12287.418637,383.047749
59298.110581,-1998.556043,-10955.047942,-76.609550
59298.110890,-370.102971,-8068.244768,-306.438199
59298.111200,0.000000,-5403.503377,-2451.505594
59298.111510,0.000000,-7772.162391,0.000000
59298.111820,-888.247130,-14211.954086,-76.609550
59298.112130,-2442.679609,-15396.283594,-689.485948
59298.112440,-5921.647536,-13101.645173,0.000000
59298.112749,-148.041188,-13027.624579,3600.648841
59298.113059,888.247130,-6587.832884,2911.162892
59298.113369,3701.029710,-3701.029710,3830.477490
59298.113679,4589.276840,-2812.782580,4213.525239
59298.113989,4589.276840,-5403.503377,3983.696590
59298.114299,1406.391290,-8438.347739,1762.019645
59298.114608,-2960.823768,-9548.656652,0.000000
59298.114918,-2368.659014,-11325.150913,306.438199
59298.115228,-74.020594,-9474.636058,-76.609550
59298.115538,0.000000,-5995.668130,0.000000
59298.115848,3478.967927,-11251.130318,-76.609550
59298.116158,-2368.659014,-10732.986159,-2451.505594
59298.116468,-2516.700203,-15396.283594,-919.314598
59298.116777,-4219.173869,-15100.201217,-1302.362347
59298.117087,-3627.009116,-12139.377449,-842.705048
59298.117397,-74.020594,-6809.894666,-76.609550
59298.117707,370.102971,-2442.679609,1762.019645
59298.118017,2960.823768,-2590.720797,4290.134789
59298.118327,4663.297435,-5921.647536,4826.401637
59298.118636,0.000000,-5995.668130,2451.505594
59298.118946,-74.020594,-12731.542202,4290.134789
59298.119256,-3552.988522,-9548.656652,0.000000
59298.119566,-1776.494261,-9622.677246,0.000000
59298.119876,-222.061783,-7254.018232,0.000000
59298.120186,-148.041188,-7476.080014,-995.924147
59298.120495,-74.020594,-11843.295072,-76.609550
59298.120805,-2442.679609,-13619.789333,-2528.115143
59298.121115,-5625.565159,-14285.974681,-2451.505594
59298.121425,-3552.988522,-13693.809927,1838.629195
59298.121735,-1850.514855,-7994.224174,-689.485948
59298.122045,0.000000,-3627.009116,3677.258390
59298.122355,2368.659014,-1850.514855,2757.943793
59298.122664,4515.256246,-3182.885551,4213.525239
59298.122974,3701.029710,-6883.915261,4060.306139
59298.123284,962.267725,-10214.842000,2298.286494
59298.123594,-74.020594,-13619.789333,2987.772442
59298.123904,-74.020594,-10658.965565,-383.047749
59298.124214,-1554.432478,-6587.832884,-1608.800546
59298.124523,1110.308913,-9474.636058,-76.609550
59298.124833,-2368.659014,-7476.080014,-2911.162892
59298.125143,-4737.318029,-12509.480420,-2451.505594
59298.125453,-4219.173869,-15248.242405,-2528.115143
59298.125763,-5107.421000,-14359.995275,-1838.629195
59298.126073,-2886.803174,-10807.006753,689.485948
59298.126382,-74.020594,-5847.626942,2068.457845
59298.126692,3256.906145,-4071.132681,5975.544884
59298.127002,5847.626942,-4737.318029,6052.154434
59298.127312,2738.761985,-4293.194464,2987.772442
59298.127622,0.000000,-7772.162391,3064.381992
59298.127932,-74.020594,-13619.789333,3294.210641
59298.128242,-3923.091493,-8364.327145,-2451.505594
59298.128551,-74.020594,-8586.388927,-689.485948
59298.128861,0.000000,-7179.997637,-612.876398
59298.129171,0.000000,-8660.409521,-1225.752797
59298.129481,-2294.638420,-12287.418637,-1838.629195
59298.129791,-4145.153275,-15470.304188,-1225.752797
59298.130101,-2442.679609,-16876.695478,-76.609550
59298.130410,-1850.514855,-12731.542202,-76.609550
59298.130720,-3552.988522,-4811.338623,0.000000
59298.131030,4145.153275,-4737.318029,5209.449386
59298.131340,4367.215058,-1184.329507,2374.896044
59298.131650,5847.626942,-4737.318029,4826.401637
59298.131960,3182.885551,-7402.059420,3294.210641
59298.132269,444.123565,-10732.986159,1838.629195
59298.132579,-888.247130,-11621.233289,766.095498
59298.132889,-2368.659014,-8364.327145,0.000000
59298.133199,592.164754,-7476.080014,153.219100
59298.133509,1702.473667,-9178.553681,-76.609550
59298.133819,-2590.720797,-8364.327145,-3907.087040
59298.134129,-2368.659014,-16506.592507,-459.657299
59298.134438,-2442.679609,-16580.613101,-2528.115143
59298.134748,-3627.009116,-14656.077652,-383.047749
59298.135058,-2442.679609,-9622.677246,229.828649
59298.135368,1036.288319,-4663.297435,1991.848295
59298.135678,3182.885551,-2960.823768,4060.306139
59298.135988,1776.494261,-1258.350101,2451.505594
59298.136297,1776.494261,-5995.668130,3677.258390
59298.136607,1702.473667,-10658.965565,4826.401637
59298.136917,-2442.679609,-8586.388927,0.000000
59298.137227,-592.164754,-9844.739029,1532.190996
59298.137537,-74.020594,-9474.636058,-76.609550
59298.137847,0.000000,-7179.997637,-995.924147
59298.138156,-888.247130,-9474.636058,-2068.457845
59298.138466,-3552.988522,-13693.809927,-2145.067394
59298.138776,-4737.318029,-15692.365970,-2604.724693
59298.139086,-5995.668130,-13249.686362,-4290.134789
59298.139396,-4737.318029,-9548.656652,0.000000
59298.139706,296.082377,-5995.668130,3677.258390
59298.140016,4663.297435,-2368.659014,3600.648841
59298.140325,4145.153275,-1258.350101,5209.449386
59298.140635,8216.285956,-7105.977043,7277.907231
59298.140945,1480.411884,-8364.327145,3677.258390
59298.141255,-74.020594,-11399.171507,2374.896044
59298.141565,-1406.391290,-10584.944971,383.047749
59298.141875,-592.164754,-8734.430116,0.000000
59298.142184,-74.020594,-5921.647536,-1302.362347
59298.142494,-2072.576638,-7476.080014,-2221.676944
59298.142804,-2368.659014,-12509.480420,0.000000
59298.143114,-1258.350101,-18949.272115,-689.485948
59298.143424,-7105.977043,-14285.974681,-3677.258390
59298.143734,-3552.988522,-13693.809927,1532.190996
59298.144043,-2368.659014,-6587.832884,1225.752797
59298.144353,2368.659014,-3404.947333,3753.867940
59298.144663,4145.153275,-2146.597232,4903.011187
59298.144973,3997.112087,-3478.967927,4366.744339
59298.145283,4663.297435,-7105.977043,3600.648841
59298.145593,-74.020594,-9474.636058,1455.581446
59298.145902,-2812.782580,-9548.656652,0.000000
59298.146212,-74.020594,-11843.295072,2374.896044
59298.146522,-1258.350101,-6587.832884,-1608.800546
59298.146832,0.000000,-8364.327145,0.000000
59298.147142,-3256.906145,-10732.986159,-2604.724693
59298.147452,-4145.153275,-14285.974681,-2681.334243
59298.147762,-4737.318029,-15914.427753,-2298.286494
59298.148071,-4515.256246,-13767.830521,-1225.752797
59298.148381,-74.020594,-10658.965565,2374.896044
59298.148691,2886.803174,-4441.235652,3600.648841
59298.149001,3923.091493,-74.020594,1685.410096
59298.149311,8216.285956,-3849.070898,7584.345430
59298.149621,3627.009116,-4145.153275,2987.772442
59298.149930,0.000000,-7772.162391,2451.505594
59298.150240,-666.185348,-11251.130318,536.266849
59298.150550,-1332.370696,-10362.883188,0.000000
59298.150860,-370.102971,-8882.471304,-689.485948
59298.151170,370.102971,-7179.997637,-1455.581446
59298.151480,1110.308913,-11843.295072,-76.609550
59298.151789,-1258.350101,-15396.283594,-1915.238745
59298.152099,-4811.338623,-16580.613101,-3140.991542
59298.152409,-5921.647536,-14285.974681,0.000000
59298.152719,-1258.350101,-11843.295072,-76.609550
59298.153029,-3256.906145,-1850.514855,0.000000
59298.153339,3182.885551,-2368.659014,4060.306139
59298.153649,3997.112087,-1480.411884,4673.182538
59298.153958,3849.070898,-3997.112087,3677.258390
59298.154268,1332.370696,-8734.430116,2604.724693
59298.154578,-1184.329507,-11917.315666,2451.505594
59298.154888,-888.247130,-12065.356855,1532.190996
59298.155198,-74.020594,-9474.636058,-76.609550
59298.155507,-2960.823768,-4811.338623,-2451.505594
59298.155817,-74.020594,-9918.759623,-689.485948
59298.156127,-3034.844362,-11103.089130,-4366.744339
59298.156437,-3923.091493,-16284.530724,-2221.676944
59298.156747,-4441.235652,-14878.139434,-2298.286494
59298.157056,-3182.885551,-12583.501014,0.000000
59298.157366,-148.041188,-7105.977043,1991.848295
59298.157676,1480.411884,-2442.679609,3983.696590
59298.157986,6439.791695,-1776.494261,5439.278036
59298.158296,4737.318029,-1554.432478,4903.011187
59298.158606,296.082377,-4811.338623,2451.505594
59298.158915,2886.803174,-12435.459826,4519.963438
59298.159225,-666.185348,-9474.636058,-76.609550
59298.159535,-814.226536,-10140.821405,306.438199
59298.159845,296.082377,-7624.121203,-919.314598
59298.160155,-296.082377,-7846.182985,-1532.190996
59298.160464,-1850.514855,-11251.130318,-2221.676944
59298.160774,-4145.153275,-15470.304188,-919.314598
59298.161084,-2442.679609,-17172.777854,-689.485948
59298.161394,-3627.009116,-15100.201217,-995.924147
59298.161704,-4737.318029,-9548.656652,0.000000
59298.162013,2294.638420,-5921.647536,3600.648841
59298.162323,1554.432478,-74.020594,1838.629195
59298.162633,4663.297435,-3552.988522,4826.401637
59298.162943,1776.494261,-5255.462188,3370.820191
59298.163253,0.000000,-9400.615463,2528.115143
59298.163563,-962.267725,-10881.027347,2145.067394
59298.163872,-2368.659014,-9548.656652,1838.629195
59298.164182,0.000000,-8660.409521,1225.752797
59298.164492,-74.020594,-8290.306550,-76.609550
59298.164802,-3997.112087,-6587.832884,-4519.963438
59298.165112,-2368.659014,-14285.974681,-612.876398
59298.165421,-3034.844362,-16580.613101,-2528.115143
59298.165731,-3330.926739,-16580.613101,-1302.362347
59298.166041,-3256.906145,-12583.501014,-383.047749
59298.166351,148.041188,-5477.523971,1762.019645
59298.166661,2812.782580,-2738.761985,3600.648841
59298.166970,2368.659014,-74.020594,4903.011187
59298.167280,4737.318029,-3627.009116,4903.011187
59298.167590,4367.215058,-9474.636058,4826.401637
59298.167900,-1258.350101,-7846.182985,76.609550
59298.168210,-74.020594,-11843.295072,2757.943793
59298.168520,-74.020594,-8882.471304,-76.609550
59298.168829,1480.411884,-7402.059420,-153.219100
59298.169139,518.144159,-8068.244768,-1915.238745
59298.169449,-1850.514855,-12509.480420,-2451.505594
59298.169759,-4441.235652,-16654.633695,-2757.943793
59298.170069,-5921.647536,-15470.304188,-5515.887586
59298.170378,-5921.647536,-13101.645173,-2145.067394
59298.170688,-814.226536,-9474.636058,2145.067394
59298.170998,1110.308913,-2368.659014,1149.143247
59298.171308,5033.400406,-3849.070898,5745.716235
59298.171618,5847.626942,-4737.318029,6052.154434
59298.171927,1776.494261,-5699.585753,3830.477490
59298.172237,-222.061783,-9622.677246,2528.115143
59298.172547,-888.247130,-9548.656652,1838.629195
59298.172857,-1332.370696,-8808.450710,612.876398
59298.173167,-74.020594,-6809.894666,-2068.457845
59298.173476,-1776.494261,-5477.523971,-3064.381992
59298.173786,-2960.823768,-10288.862594,-2451.505594
59298.174096,-1258.350101,-17764.942608,-1302.362347
59298.174406,-7994.224174,-14434.015869,-4903.011187
59298.174716,-3552.988522,-16358.551318,1378.971896
59298.175026,-3552.988522,-9548.656652,0.000000
59298.175335,1998.556043,-4737.318029,3064.381992
59298.175645,4441.235652,-2146.597232,4979.620737
59298.175955,6365.771101,-1850.514855,5745.716235
59298.176265,6439.791695,-5921.647536,4826.401637
59298.176575,1702.473667,-8364.327145,2604.724693
59298.176884,0.000000,-9696.697840,0.000000
59298.177194,1924.535449,-13027.624579,2987.772442
59298.177504,-74.020594,-7402.059420,-1302.362347
59298.177814,0.000000,-6587.832884,306.438199
59298.178124,-1776.494261,-8586.388927,-2145.067394
59298.178433,-2812.782580,-14804.118840,-2068.457845
59298.178743,-5551.544565,-17542.880825,-2604.724693
59298.179053,-5403.503377,-15470.304188,-2298.286494
59298.179363,-1850.514855,-13619.789333,-76.609550
59298.179673,-74.020594,-7105.977043,1149.143247
59298.179983,740.205942,-1258.350101,0.000000
59298.180292,6883.915261,-4589.276840,7277.907231
59298.180602,1332.370696,-1554.432478,2757.943793
59298.180912,296.082377,-7179.997637,4903.011187
59298.181222,-518.144159,-9992.780217,1532.190996
59298.181532,-1036.288319,-9696.697840,1225.752797
59298.181841,-888.247130,-9178.553681,76.609550
59298.182151,0.000000,-7179.997637,-689.485948
59298.182461,-74.020594,-10658.965565,-76.609550
59298.182771,-1258.350101,-13619.789333,-1608.800546
59298.183081,-5107.421000,-15692.365970,-4060.306139
59298.183390,-6513.812290,-14878.139434,-1838.629195
59298.183700,-2442.679609,-13915.871710,-689.485948
59298.184010,-4145.153275,-4811.338623,0.000000
59298.184320,2294.638420,-3552.988522,3447.429741
59298.184630,4737.318029,-1406.391290,5362.668486
59298.184940,5181.441594,-2368.659014,5362.668486
59298.185249,4071.132681,-5847.626942,4596.572988
59298.185559,2368.659014,-11843.295072,5209.449386
59298.185869,1702.473667,-12435.459826,3524.039291
59298.186179,-74.020594,-7476.080014,-1455.581446
59298.186489,592.164754,-7476.080014,306.438199
59298.186798,2294.638420,-8290.306550,-1302.362347
59298.187108,-2368.659014,-8142.265362,-5515.887586
59298.187418,-3330.926739,-16580.613101,-2528.115143
59298.187728,-7105.977043,-16654.633695,-3983.696590
59298.188038,-5181.441594,-15470.304188,-2451.505594
59298.188347,-3034.844362,-11251.130318,-766.095498
59298.188657,0.000000,-5403.503377,2757.943793
59298.188967,4737.318029,-3701.029710,5515.887586
59298.189277,5699.585753,-4145.153275,6052.154434
59298.189587,0.000000,-2442.679609,1838.629195
59298.189897,1184.329507,-10436.903782,4290.134789
59298.190206,-1258.350101,-9474.636058,229.828649
59298.190516,-666.185348,-9474.636058,1762.019645
59298.190826,-666.185348,-7328.038826,-383.047749
59298.191136,296.082377,-6069.688724,-383.047749
59298.191446,-370.102971,-8882.471304,-995.924147
59298.191755,-3552.988522,-11917.315666,-2451.505594
59298.192065,-5773.606348,-16358.551318,-2145.067394
59298.192375,-2442.679609,-18357.107362,-76.609550
59298.192685,-4737.318029,-9844.739029,-2374.896044
59298.192995,592.164754,-7179.997637,2451.505594
59298.193304,4663.297435,-3552.988522,3600.648841
59298.193614,5033.400406,-2886.803174,4979.620737
59298.193924,4441.235652,-4293.194464,4519.963438
59298.194234,2368.659014,-8438.347739,3447.429741
59298.194544,222.061783,-11103.089130,2221.676944
59298.194853,-2368.659014,-9548.656652,0.000000
59298.195163,-1776.494261,-7179.997637,0.000000
59298.195473,3404.947333,-8660.409521,3217.601092
59298.195783,2294.638420,-6513.812290,-1302.362347
59298.196093,-2368.659014,-11325.150913,-1838.629195
59298.196403,-1258.350101,-17764.942608,-689.485948
59298.196712,-5921.647536,-16506.592507,-2145.067394
59298.197022,-3849.070898,-13767.830521,-1225.752797
59298.197332,-2442.679609,-9326.594869,536.266849
59298.197642,518.144159,-4293.194464,2068.457845
59298.197952,1998.556043,-592.164754,1532.190996
59298.198261,1776.494261,-3034.844362,2604.724693
59298.198571,1776.494261,-7772.162391,5515.887586
59298.198881,-74.020594,-9474.636058,1149.143247
59298.199191,-2368.659014,-10140.821405,1378.971896
59298.199501,-74.020594,-11843.295072,3600.648841
59298.199810,0.000000,-6587.832884,0.000000
59298.200120,1776.494261,-6291.750507,-76.609550
59298.200430,-222.061783,-9622.677246,-1225.752797
59298.200740,-2368.659014,-13915.871710,-1608.800546
59298.201050,-4811.338623,-15396.283594,-3140.991542
59298.201360,-5107.421000,-13841.851115,-2681.334243
59298.201669,-4737.318029,-9548.656652,0.000000
59298.201979,2294.638420,-6513.812290,2374.896044
59298.202289,1184.329507,-1850.514855,2451.505594
59298.202599,5921.647536,-5403.503377,7660.954980
59298.202909,3552.988522,-4811.338623,3677.258390
59298.203218,2368.659014,-9178.553681,2987.772442
59298.203528,0.000000,-10658.965565,1608.800546
59298.203838,-1776.494261,-10436.903782,612.876398
59298.204148,2294.638420,-9178.553681,-76.609550
59298.204458,1702.473667,-6513.812290,-76.609550
59298.204767,0.000000,-5995.668130,0.000000
59298.205077,-74.020594,-15322.262999,-153.219100
59298.205387,-5847.626942,-16654.633695,-3447.429741
59298.205697,-6513.812290,-15470.304188,-1838.629195
59298.206007,-4737.318029,-12435.459826,-1302.362347
59298.206317,-888.247130,-7105.977043,919.314598
59298.206626,2294.638420,-3256.906145,2987.772442
59298.206936,4071.132681,-3330.926739,4826.401637
59298.207246,6439.791695,-5921.647536,6052.154434
59298.207556,2294.638420,-7994.224174,3600.648841
59298.207866,-3552.988522,-7179.997637,0.000000
59298.208175,-222.061783,-12213.398043,3140.991542
59298.208485,-1702.473667,-7179.997637,-536.266849
59298.208795,1998.556043,-8290.306550,-536.266849
59298.209105,1628.453072,-8142.265362,-76.609550
59298.209415,-1184.329507,-11177.109724,-1302.362347
59298.209724,-4071.132681,-15248.242405,-2221.676944
59298.210034,-5773.606348,-15766.386565,-2298.286494
59298.210344,-6809.894666,-13101.645173,-1838.629195
59298.210654,-2812.782580,-8364.327145,0.000000
59298.210964,4071.132681,-7105.977043,4826.401637
59298.211274,2368.659014,-370.102971,2451.505594
59298.211583,6069.688724,-4367.215058,7890.783629
59298.211893,3849.070898,-6809.894666,5439.278036
59298.212203,1110.308913,-9844.739029,3064.381992
59298.212513,-444.123565,-10658.965565,1762.019645
59298.212823,-1554.432478,-8882.471304,689.485948
59298.213132,666.185348,-7105.977043,-536.266849
59298.213442,2886.803174,-6957.935855,-76.609550
59298.213752,-74.020594,-11843.295072,-76.609550
59298.214062,-4219.173869,-13841.851115,-3907.087040
59298.214372,-7105.977043,-16654.633695,-3064.381992
59298.214681,-4811.338623,-15396.283594,-2528.115143
59298.214991,-3923.091493,-10584.944971,-2451.505594
59298.215301,444.123565,-5995.668130,2145.067394
59298.215611,3627.009116,-3256.906145,4136.915689
59298.215921,4589.276840,-3404.947333,5056.230287
59298.216230,3182.885551,-5033.400406,4826.401637
59298.216540,444.123565,-7846.182985,2451.505594
59298.216850,-2368.659014,-9548.656652,2451.505594
59298.217160,-666.185348,-10658.965565,-76.609550
59298.217470,-2960.823768,-6883.915261,-1225.752797
59298.217780,1110.308913,-9474.636058,2145.067394
59298.218089,296.082377,-9474.636058,-76.609550
59298.218399,-2590.720797,-12731.542202,-1762.019645
59298.218709,-6217.729913,-16062.468941,-2681.334243
59298.219019,-5699.585753,-15174.221811,-2528.115143
59298.219329,-3552.988522,-12213.398043,-1838.629195
59298.219638,1110.308913,-7105.977043,2987.772442
