#time,accel_x,accel_y,accel_z
163534.956995,444.123565,-9178.553681,919.314598
163534.957315,1702.473667,-11843.295072,-76.609550
163534.957635,-74.020594,-9474.636058,-76.609550
163534.957955,-2368.659014,-7179.997637,0.000000
163534.958275,518.144159,-9252.574275,-76.609550
163534.958595,-370.102971,-9104.533087,229.828649
163534.958915,-222.061783,-9252.574275,0.000000
163534.959235,-814.226536,-8586.388927,-995.924147
163534.959555,-370.102971,-8734.430116,-76.609550
163534.959875,-222.061783,-9474.636058,-76.609550
163534.960195,-1850.514855,-7328.038826,-2145.067394
163534.960515,-592.164754,-9844.739029,612.876398
163534.960835,-74.020594,-10140.821405,2298.286494
163534.961155,-3404.947333,-7772.162391,0.000000
163534.961475,-222.061783,-9918.759623,-383.047749
163534.961794,-592.164754,-9622.677246,-766.095498
163534.962114,-888.247130,-8956.491898,-383.047749
163534.962434,-74.020594,-9474.636058,-689.485948
163534.962754,1110.308913,-10584.944971,0.000000
163534.963074,2294.638420,-11251.130318,-76.609550
163534.963394,222.061783,-8216.285956,-995.924147
163534.963714,0.000000,-7179.997637,-3064.381992
163534.964034,0.000000,-9548.656652,0.000000
163534.964354,-814.226536,-8586.388927,-1072.533697
163534.964674,74.020594,-9474.636058,153.219100
163534.964994,-148.041188,-9326.594869,-153.219100
163534.965314,-74.020594,-9400.615463,306.438199
163534.965634,1110.308913,-10658.965565,1149.143247
163534.965954,-1702.473667,-7179.997637,0.000000
163534.966274,0.000000,-8512.368333,306.438199
163534.966594,148.041188,-9548.656652,1838.629195
163534.966914,518.144159,-10362.883188,-76.609550
163534.967234,-2368.659014,-7179.997637,0.000000
163534.967554,-592.164754,-9326.594869,-306.438199
163534.967874,-592.164754,-9844.739029,-383.047749
163534.968194,-1258.350101,-9992.780217,-536.266849
163534.968513,-666.185348,-7994.224174,-1302.362347
163534.968833,-666.185348,-8882.471304,-689.485948
163534.969153,-1184.329507,-8660.409521,-1302.362347
163534.969473,-2368.659014,-7772.162391,0.000000
163534.969793,666.185348,-10658.965565,-76.609550
163534.970113,444.123565,-10288.862594,1378.971896
163534.970433,0.000000,-7772.162391,-1838.629195
163534.970753,222.061783,-9696.697840,-689.485948
163534.971073,148.041188,-8956.491898,-306.438199
163534.971393,222.061783,-9400.615463,-383.047749
163534.971713,-74.020594,-9474.636058,-1302.362347
163534.972033,148.041188,-9770.718434,0.000000
163534.972353,1998.556043,-10066.800811,1149.143247
163534.972673,814.226536,-9178.553681,-76.609550
163534.972993,0.000000,-7772.162391,-689.485948
163534.973313,-2072.576638,-7179.997637,0.000000
163534.973633,222.061783,-9104.533087,-76.609550
163534.973953,-370.102971,-8882.471304,0.000000
163534.974273,-666.185348,-9400.615463,76.609550
163534.974593,-740.205942,-9474.636058,-76.609550
163534.974913,-1184.329507,-9548.656652,0.000000
163534.975232,-2294.638420,-8216.285956,-1838.629195
163534.975552,-1184.329507,-9844.739029,-383.047749
163534.975872,-74.020594,-11251.130318,1532.190996
163534.976192,-666.185348,-8586.388927,-1608.800546
163534.976512,1998.556043,-10658.965565,-76.609550
163534.976832,-962.267725,-9030.512492,-383.047749
163534.977152,-666.185348,-9770.718434,-689.485948
163534.977472,-1184.329507,-9030.512492,-919.314598
163534.977792,0.000000,-9548.656652,0.000000
163534.978112,0.000000,-9548.656652,-919.314598
163534.978432,222.061783,-10140.821405,-153.219100
163534.978752,2294.638420,-10658.965565,-76.609550
163534.979072,0.000000,-7624.121203,-1838.629195
163534.979392,2294.638420,-11251.130318,1762.019645
163534.979712,740.205942,-7920.203579,-612.876398
163534.980032,2146.597232,-8586.388927,306.438199
163534.980352,1998.556043,-8808.450710,306.438199
163534.980672,1850.514855,-9030.512492,0.000000
163534.980992,222.061783,-7476.080014,-2451.505594
163534.981312,2294.638420,-9474.636058,0.000000
163534.981631,2368.659014,-9326.594869,153.219100
163534.981951,2886.803174,-9622.677246,536.266849
163534.982271,3775.050304,-10066.800811,-76.609550
163534.982591,3478.967927,-9474.636058,-76.609550
163534.982911,5033.400406,-10658.965565,1455.581446
163534.983231,4071.132681,-8586.388927,842.705048
163534.983551,4663.297435,-7698.141797,-689.485948
163534.983871,3552.988522,-7772.162391,612.876398
163534.984191,4071.132681,-8216.285956,-919.314598
163534.984511,4663.297435,-9696.697840,-995.924147
163534.984831,3775.050304,-9844.739029,-1225.752797
163534.985151,4071.132681,-9918.759623,-1302.362347
163534.985471,4663.297435,-8660.409521,-2451.505594
163534.985791,6439.791695,-9474.636058,-1455.581446
163534.986111,8216.285956,-10658.965565,995.924147
163534.986431,9400.615463,-10658.965565,-76.609550
163534.986751,5921.647536,-9252.574275,-1532.190996
163534.987071,4737.318029,-10732.986159,919.314598
163534.987391,2960.823768,-11917.315666,0.000000
163534.987711,3034.844362,-11769.274478,306.438199
163534.988031,3182.885551,-10732.986159,919.314598
163534.988350,4219.173869,-8290.306550,612.876398
163534.988670,4959.379811,-5181.441594,0.000000
163534.988990,5921.647536,-4145.153275,-76.609550
163534.989310,3701.029710,-3034.844362,-1225.752797
163534.989630,4441.235652,-5995.668130,-1225.752797
163534.989950,4367.215058,-8290.306550,-1302.362347
163534.990270,2368.659014,-10140.821405,-1838.629195
163534.990590,2294.638420,-13841.851115,-2681.334243
163534.990910,2146.597232,-16432.571912,-919.314598
163534.991230,1554.432478,-16654.633695,842.705048
163534.991550,1406.391290,-11621.233289,842.705048
163534.991870,2368.659014,-8068.244768,2451.505594
163534.992190,4515.256246,-6809.894666,-76.609550
163534.992510,2294.638420,-3552.988522,-842.705048
163534.992830,518.144159,-2442.679609,-1838.629195
163534.993150,4293.194464,-8216.285956,2068.457845
163534.993470,0.000000,-7179.997637,0.000000
163534.993790,-2220.617826,-9548.656652,-2298.286494
163534.994110,-3627.009116,-10658.965565,-1838.629195
163534.994430,-1998.556043,-11399.171507,-766.095498
163534.994750,1702.473667,-10658.965565,-1225.752797
163534.995069,592.164754,-9844.739029,0.000000
163534.995389,1406.391290,-10066.800811,0.000000
163534.995709,2664.741391,-11029.068536,2451.505594
163534.996029,3478.967927,-9326.594869,1455.581446
163534.996349,1998.556043,-9474.636058,2068.457845
163534.996669,-888.247130,-6069.688724,-3677.258390
163534.996989,-962.267725,-8512.368333,-3983.696590
163534.997309,814.226536,-11251.130318,-1302.362347
163534.997629,148.041188,-11917.315666,306.438199
163534.997949,0.000000,-8660.409521,1225.752797
163534.998269,-740.205942,-8660.409521,0.000000
163534.998589,0.000000,-6587.832884,0.000000
163534.998909,3182.885551,-8882.471304,1149.143247
163534.999229,7031.956449,-8882.471304,4213.525239
163534.999549,8290.306550,-7328.038826,6435.202183
163534.999869,4885.359217,-4737.318029,1915.238745
163535.000189,740.205942,-5995.668130,-4673.182538
163535.000509,-2516.700203,-10881.027347,-7048.078582
163535.000829,-4737.318029,-13101.645173,-7354.516781
163535.001149,-1036.288319,-17172.777854,-2298.286494
163535.001469,-1258.350101,-14211.954086,-3753.867940
163535.001788,-888.247130,-11325.150913,-3064.381992
163535.002108,6217.729913,-10732.986159,2451.505594
163535.002428,13545.768739,-9474.636058,7277.907231
163535.002748,12583.501014,-3330.926739,8580.269578
163535.003068,10362.883188,0.000000,5515.887586
163535.003388,6735.874072,-2738.761985,995.924147
163535.003708,5403.503377,-7920.203579,459.657299
163535.004028,5255.462188,-11251.130318,306.438199
163535.004348,1628.453072,-13841.851115,-459.657299
163535.004668,-1850.514855,-14211.954086,-4366.744339
163535.004988,-1258.350101,-16580.613101,-7431.126331
163535.005308,-740.205942,-13323.706956,-6818.249932
163535.005628,4663.297435,-14211.954086,-76.609550
163535.005948,5033.400406,-9326.594869,1532.190996
163535.006268,7031.956449,-6513.812290,3064.381992
163535.006588,7994.224174,-4959.379811,4519.963438
163535.006908,5921.647536,-2442.679609,5515.887586
163535.007228,5921.647536,-4811.338623,5209.449386
163535.007548,6957.935855,-6587.832884,3064.381992
163535.007868,6217.729913,-8068.244768,2757.943793
163535.008188,2590.720797,-10066.800811,-1915.238745
163535.008507,-74.020594,-13027.624579,-4979.620737
163535.008827,-3256.906145,-15026.180623,-5822.325785
163535.009147,-3182.885551,-15988.448347,-6128.763984
163535.009467,-1406.391290,-13989.892304,-5209.449386
163535.009787,-592.164754,-11695.253884,-3370.820191
163535.010107,0.000000,-7179.997637,0.000000
163535.010427,5551.544565,-6513.812290,2374.896044
163535.010747,5329.482782,-3627.009116,3217.601092
163535.011067,8734.430116,-5329.482782,5439.278036
163535.011387,8216.285956,-6513.812290,6971.469032
163535.011707,4737.318029,-7476.080014,4903.011187
163535.012027,2442.679609,-8808.450710,0.000000
163535.012347,-592.164754,-10362.883188,-2757.943793
163535.012667,-3034.844362,-12361.439231,-5056.230287
163535.012987,-5329.482782,-11917.315666,-6741.640382
163535.013307,-2368.659014,-12509.480420,-3677.258390
163535.013627,296.082377,-12509.480420,0.000000
163535.013947,4071.132681,-10288.862594,3677.258390
163535.014267,7031.956449,-7105.977043,2987.772442
163535.014587,3552.988522,-3627.009116,3677.258390
163535.014907,4737.318029,-4811.338623,2221.676944
163535.015226,3182.885551,-6957.935855,2298.286494
163535.015546,888.247130,-8142.265362,-459.657299
163535.015866,-296.082377,-9474.636058,-1685.410096
163535.016186,-74.020594,-11843.295072,-3140.991542
163535.016506,-2072.576638,-11621.233289,-5209.449386
163535.016826,-1258.350101,-12287.418637,-4443.353888
163535.017146,740.205942,-12361.439231,-2604.724693
163535.017466,3182.885551,-11547.212695,306.438199
163535.017786,2664.741391,-9548.656652,1225.752797
163535.018106,5847.626942,-8142.265362,2374.896044
163535.018426,6217.729913,-6069.688724,4903.011187
163535.018746,8734.430116,-6957.935855,6435.202183
163535.019066,5403.503377,-4145.153275,2834.553343
163535.019386,4663.297435,-8290.306550,-76.609550
163535.019706,-1184.329507,-7476.080014,-4136.915689
163535.020026,-1332.370696,-10881.027347,-5439.278036
163535.020346,-370.102971,-12731.542202,-4979.620737
163535.020666,0.000000,-11917.315666,-3907.087040
163535.020986,2368.659014,-13101.645173,-612.876398
163535.021306,4071.132681,-11177.109724,-383.047749
163535.021625,5847.626942,-13027.624579,4826.401637
163535.021945,6735.874072,-8290.306550,4826.401637
163535.022265,9400.615463,-7105.977043,6052.154434
163535.022585,6513.812290,-5625.565159,4596.572988
163535.022905,2664.741391,-4737.318029,612.876398
163535.023225,1850.514855,-6957.935855,-1685.410096
163535.023545,666.185348,-8734.430116,-3064.381992
163535.023865,0.000000,-11029.068536,-3677.258390
163535.024185,-1184.329507,-12509.480420,-4903.011187
163535.024505,-296.082377,-14285.974681,-3677.258390
163535.024825,2294.638420,-14211.954086,-1302.362347
163535.025145,3330.926739,-11917.315666,383.047749
163535.025465,7031.956449,-9474.636058,3600.648841
163535.025785,3701.029710,-6291.750507,1608.800546
163535.026105,3330.926739,-5477.523971,2221.676944
163535.026425,4885.359217,-5995.668130,2068.457845
163535.026745,6809.894666,-6883.915261,4673.182538
163535.027065,4737.318029,-5995.668130,2451.505594
163535.027385,4071.132681,-9474.636058,-76.609550
163535.027705,444.123565,-9548.656652,-3064.381992
163535.028025,1184.329507,-12509.480420,-3677.258390
163535.028345,-2368.659014,-10732.986159,-4290.134789
163535.028665,-814.226536,-12287.418637,-3447.429741
163535.028985,-74.020594,-12731.542202,-1302.362347
163535.029305,1998.556043,-9622.677246,-1072.533697
163535.029625,4441.235652,-9178.553681,1149.143247
163535.029945,5329.482782,-8068.244768,3064.381992
163535.030265,2960.823768,-7476.080014,2451.505594
163535.030585,2368.659014,-6143.709319,3677.258390
163535.030905,3404.947333,-6735.874072,612.876398
163535.031225,-666.185348,-10658.965565,1685.410096
163535.031545,0.000000,-8068.244768,-2451.505594
163535.031865,814.226536,-10066.800811,-1915.238745
163535.032185,-1480.411884,-10510.924376,-3447.429741
163535.032505,-3627.009116,-11177.109724,-4519.963438
163535.032825,-3923.091493,-13175.665768,-3830.477490
163535.033145,-3849.070898,-12731.542202,-1302.362347
163535.033465,-2886.803174,-10510.924376,-2528.115143
163535.033785,-5921.647536,-9474.636058,-1302.362347
163535.034105,-3256.906145,-7179.997637,612.876398
163535.034425,2442.679609,-7402.059420,4290.134789
163535.034745,1702.473667,-3034.844362,1838.629195
163535.035065,814.226536,-6069.688724,3370.820191
163535.035385,0.000000,-8586.388927,1915.238745
163535.035705,-1258.350101,-10436.903782,459.657299
163535.036025,-2442.679609,-11843.295072,-76.609550
163535.036345,-7179.997637,-12435.459826,-2528.115143
163535.036665,-8438.347739,-11325.150913,-3064.381992
163535.036985,-5033.400406,-11177.109724,-3447.429741
163535.037305,-3034.844362,-10955.047942,-76.609550
163535.037625,-3552.988522,-6587.832884,0.000000
163535.037945,-1554.432478,-7846.182985,536.266849
163535.038265,-296.082377,-9104.533087,3600.648841
163535.038585,148.041188,-6735.874072,2374.896044
163535.038905,-3034.844362,-7476.080014,1455.581446
163535.039225,-666.185348,-8882.471304,-76.609550
163535.039545,-4145.153275,-7772.162391,0.000000
163535.039865,962.267725,-11547.212695,-76.609550
163535.040185,-2516.700203,-8586.388927,-3294.210641
163535.040505,-3923.091493,-11843.295072,-4979.620737
163535.040825,-7105.977043,-13101.645173,-2451.505594
163535.041145,2960.823768,-11843.295072,-76.609550
163535.041465,-888.247130,-7476.080014,-766.095498
163535.041785,-1332.370696,-9844.739029,0.000000
163535.042105,592.164754,-6735.874072,-76.609550
163535.042425,5995.668130,-7476.080014,3600.648841
163535.042745,3552.988522,-4811.338623,1225.752797
163535.043065,3108.864956,-9548.656652,0.000000
163535.043385,2368.659014,-10140.821405,2451.505594
163535.043705,5847.626942,-11547.212695,2987.772442
163535.044025,0.000000,-9548.656652,-2451.505594
163535.044345,-2738.761985,-11695.253884,-3140.991542
163535.044665,-2516.700203,-11917.315666,-3524.039291
163535.044985,1110.308913,-9622.677246,-1302.362347
163535.045305,5847.626942,-8882.471304,-1302.362347
163535.045625,3478.967927,-9178.553681,842.705048
163535.045945,2886.803174,-9474.636058,2374.896044
163535.046265,3330.926739,-6587.832884,1225.752797
163535.046585,962.267725,-7254.018232,153.219100
163535.046905,-3552.988522,-9696.697840,919.314598
163535.047225,-3552.988522,-8660.409521,-3064.381992
163535.047545,740.205942,-9992.780217,-689.485948
163535.047865,2294.638420,-9548.656652,-1608.800546
163535.048185,1554.432478,-10288.862594,-536.266849
163535.048505,2294.638420,-11843.295072,-1302.362347
163535.048825,1332.370696,-10732.986159,0.000000
163535.049145,-74.020594,-10658.965565,-1915.238745
163535.049465,-3330.926739,-10214.842000,-1915.238745
163535.049785,-4071.132681,-9548.656652,-1838.629195
163535.050105,666.185348,-6291.750507,0.000000
163535.050425,4663.297435,-7031.956449,2528.115143
163535.050745,1850.514855,-6217.729913,1532.190996
163535.051065,1110.308913,-9400.615463,1072.533697
163535.051385,2294.638420,-11843.295072,2374.896044
163535.051705,-370.102971,-10362.883188,-306.438199
163535.052025,-5921.647536,-8364.327145,-2451.505594
163535.052345,-5625.565159,-10732.986159,-4596.572988
163535.052665,-2368.659014,-10436.903782,995.924147
163535.052985,-74.020594,-7698.141797,-1608.800546
163535.053305,-370.102971,-8882.471304,1072.533697
163535.053625,-1110.308913,-8882.471304,-306.438199
163535.053945,222.061783,-9696.697840,1455.581446
163535.054265,-814.226536,-7920.203579,0.000000
163535.054585,-5921.647536,-8364.327145,-1838.629195
163535.054905,-4885.359217,-9918.759623,-2451.505594
163535.055225,-2146.597232,-10214.842000,306.438199
163535.055545,2072.576638,-9326.594869,995.924147
163535.055865,296.082377,-7476.080014,0.000000
163535.056185,-74.020594,-10066.800811,-689.485948
163535.056505,2294.638420,-9474.636058,-76.609550
163535.056825,0.000000,-7772.162391,-1225.752797
163535.057145,-3552.988522,-9178.553681,-1302.362347
163535.057465,-3627.009116,-10955.047942,-1302.362347
163535.057785,-3552.988522,-9548.656652,0.000000
163535.058105,962.267725,-8586.388927,536.266849
163535.058425,592.164754,-7698.141797,766.095498
163535.058745,1110.308913,-8882.471304,1302.362347
163535.059065,2294.638420,-9770.718434,459.657299
163535.059385,2664.741391,-10584.944971,1838.629195
163535.059705,-370.102971,-11695.253884,-76.609550
163535.060025,-3330.926739,-10658.965565,-1915.238745
163535.060345,-4737.318029,-8364.327145,-1838.629195
163535.060665,1480.411884,-9844.739029,2604.724693
163535.060985,0.000000,-6587.832884,0.000000
163535.061305,1628.453072,-7402.059420,919.314598
163535.061625,2146.597232,-8216.285956,1685.410096
163535.061945,1628.453072,-7698.141797,612.876398
163535.062265,-2146.597232,-8364.327145,-2451.505594
163535.062585,-4737.318029,-10807.006753,-2374.896044
163535.062905,-4441.235652,-11917.315666,-919.314598
163535.063225,-74.020594,-10658.965565,-689.485948
163535.063545,-296.082377,-7920.203579,-1149.143247
163535.063865,1184.329507,-11325.150913,1838.629195
163535.064185,1110.308913,-8808.450710,-1302.362347
163535.064505,2442.679609,-9326.594869,383.047749
163535.064825,888.247130,-9548.656652,-995.924147
163535.065145,-2812.782580,-9548.656652,-2451.505594
163535.065465,-2368.659014,-9548.656652,-1915.238745
163535.065785,2294.638420,-9474.636058,-76.609550
163535.066105,1480.411884,-7920.203579,0.000000
163535.066425,3404.947333,-8586.388927,0.000000
163535.066745,4663.297435,-11843.295072,3600.648841
163535.067065,2664.741391,-8364.327145,2451.505594
163535.067385,-74.020594,-9178.553681,-995.924147
163535.067705,-3849.070898,-10288.862594,-1915.238745
163535.068025,-4737.318029,-10362.883188,-2451.505594
163535.068345,-1554.432478,-9770.718434,-229.828649
163535.068665,-74.020594,-8808.450710,-76.609550
163535.068985,-74.020594,-7994.224174,229.828649
163535.069305,0.000000,-7476.080014,-689.485948
163535.069625,0.000000,-7179.997637,1225.752797
163535.069945,2294.638420,-11251.130318,-76.609550
163535.070265,-4145.153275,-9548.656652,-1762.019645
163535.070585,-3923.091493,-10881.027347,-2221.676944
163535.070905,-1998.556043,-10436.903782,0.000000
163535.071225,222.061783,-9844.739029,0.000000
163535.071545,0.000000,-8364.327145,0.000000
163535.071865,1036.288319,-9178.553681,0.000000
163535.072185,3478.967927,-9474.636058,1762.019645
163535.072505,962.267725,-9326.594869,-1302.362347
163535.072825,-3552.988522,-9030.512492,-2221.676944
163535.073145,-4071.132681,-9548.656652,-2451.505594
163535.073465,-1406.391290,-10658.965565,766.095498
163535.073785,444.123565,-8364.327145,0.000000
163535.074105,1110.308913,-7920.203579,1838.629195
163535.074425,3849.070898,-9400.615463,3600.648841
163535.074745,3108.864956,-8364.327145,3064.381992
163535.075065,0.000000,-7772.162391,0.000000
163535.075385,-1258.350101,-11473.192101,-76.609550
163535.075705,-4737.318029,-10732.986159,-3064.381992
163535.076025,-5625.565159,-9548.656652,-3677.258390
163535.076345,-1554.432478,-10362.883188,-1915.238745
163535.076665,-1924.535449,-9474.636058,-689.485948
163535.076985,1110.308913,-9030.512492,153.219100
163535.077305,2146.597232,-7105.977043,1991.848295
163535.077625,2368.659014,-6883.915261,1532.190996
163535.077945,-3552.988522,-5403.503377,-2451.505594
163535.078265,-2072.576638,-10510.924376,-612.876398
163535.078585,-1258.350101,-10658.965565,-383.047749
163535.078905,-1702.473667,-7920.203579,-1838.629195
163535.079225,-2146.597232,-7772.162391,-3677.258390
163535.079545,592.164754,-10807.006753,-689.485948
163535.079865,1258.350101,-8956.491898,-536.266849
163535.080185,2442.679609,-8660.409521,-536.266849
163535.080505,-222.061783,-9474.636058,-76.609550
163535.080825,-1110.308913,-10658.965565,-76.609550
163535.081145,222.061783,-9474.636058,-76.609550
163535.081465,1776.494261,-7772.162391,0.000000
163535.081785,2590.720797,-9252.574275,2221.676944
163535.082105,1184.329507,-7772.162391,1532.190996
163535.082425,1110.308913,-7698.141797,0.000000
163535.082745,3404.947333,-10140.821405,919.314598
163535.083065,-370.102971,-9992.780217,-1302.362347
163535.083385,-2812.782580,-10510.924376,-1762.019645
163535.083705,-666.185348,-13027.624579,-689.485948
163535.084025,-74.020594,-10288.862594,-229.828649
163535.084345,-74.020594,-10288.862594,1685.410096
163535.084665,814.226536,-7994.224174,-689.485948
163535.084985,0.000000,-8438.347739,153.219100
163535.085305,0.000000,-5403.503377,0.000000
163535.085625,-1554.432478,-7846.182985,-2681.334243
163535.085945,-4885.359217,-10807.006753,-919.314598
163535.086265,148.041188,-9918.759623,-919.314598
163535.086585,0.000000,-9326.594869,-383.047749
163535.086905,1406.391290,-11843.295072,1072.533697
163535.087225,-2368.659014,-8364.327145,0.000000
163535.087545,-296.082377,-10362.883188,-76.609550
163535.087865,1110.308913,-9178.553681,-306.438199
163535.088185,1702.473667,-11547.212695,-459.657299
163535.088505,-74.020594,-9474.636058,-689.485948
163535.088825,-1184.329507,-9474.636058,306.438199
163535.089145,518.144159,-9178.553681,1915.238745
163535.089465,962.267725,-7698.141797,919.314598
163535.089785,2220.617826,-8586.388927,2757.943793
163535.090105,1110.308913,-8586.388927,1302.362347
163535.090425,2294.638420,-7994.224174,842.705048
163535.090745,0.000000,-8734.430116,-842.705048
163535.091065,-4737.318029,-9548.656652,0.000000
163535.091385,-1554.432478,-11843.295072,-689.485948
163535.091705,-3256.906145,-10881.027347,-919.314598
163535.092025,-2516.700203,-9252.574275,-1532.190996
163535.092345,-1702.473667,-9326.594869,306.438199
163535.092665,-814.226536,-8142.265362,-766.095498
163535.092985,0.000000,-5995.668130,0.000000
163535.093305,1406.391290,-7698.141797,306.438199
163535.093625,-888.247130,-8660.409521,-383.047749
163535.093945,-1332.370696,-9622.677246,-1378.971896
163535.094265,-1628.453072,-9474.636058,-76.609550
163535.094585,-74.020594,-10658.965565,-2451.505594
163535.094905,-74.020594,-12435.459826,-76.609550
163535.095225,-370.102971,-10066.800811,-1915.238745
163535.095545,1480.411884,-9844.739029,0.000000
163535.095865,4145.153275,-8660.409521,2451.505594
163535.096185,-1184.329507,-6291.750507,0.000000
163535.096505,-740.205942,-8512.368333,-2374.896044
163535.096825,-1036.288319,-9696.697840,-229.828649
163535.097145,1406.391290,-9326.594869,842.705048
163535.097465,1702.473667,-8660.409521,766.095498
163535.097785,1702.473667,-8882.471304,536.266849
163535.098105,3108.864956,-10362.883188,2374.896044
163535.098425,3478.967927,-9474.636058,-76.609550
163535.098745,-2294.638420,-7772.162391,-2298.286494
163535.099065,-2960.823768,-9548.656652,0.000000
163535.099385,-3256.906145,-11177.109724,-2221.676944
163535.099705,-592.164754,-11103.089130,-689.485948
163535.100025,-1628.453072,-9548.656652,-995.924147
163535.100345,-592.164754,-9400.615463,-229.828649
163535.100665,2294.638420,-8586.388927,229.828649
163535.100985,2442.679609,-6735.874072,995.924147
163535.101305,0.000000,-6587.832884,0.000000
163535.101625,-74.020594,-10658.965565,-383.047749
163535.101945,-2590.720797,-10140.821405,-1302.362347
163535.102265,-2368.659014,-9548.656652,0.000000
163535.102585,-1480.411884,-11769.274478,-1915.238745
163535.102905,-962.267725,-10436.903782,-995.924147
163535.103225,0.000000,-10288.862594,-229.828649
163535.103545,1480.411884,-7550.100608,-689.485948
163535.103865,-74.020594,-7698.141797,-689.485948
163535.104185,-74.020594,-9474.636058,-383.047749
163535.104505,-1184.329507,-8956.491898,0.000000
163535.104825,0.000000,-7476.080014,1225.752797
163535.105145,3478.967927,-9474.636058,4213.525239
163535.105465,-1628.453072,-7179.997637,0.000000
163535.105785,0.000000,-7920.203579,1225.752797
163535.106105,2072.576638,-8882.471304,1532.190996
163535.106425,-296.082377,-7920.203579,-76.609550
163535.106745,-1850.514855,-9474.636058,-1302.362347
163535.107065,-3627.009116,-13027.624579,-76.609550
163535.107385,-1258.350101,-11843.295072,-1608.800546
163535.107705,-3478.967927,-10140.821405,-2145.067394
163535.108025,-4219.173869,-9178.553681,-1838.629195
163535.108345,0.000000,-7179.997637,0.000000
163535.108665,0.000000,-5995.668130,612.876398
163535.108985,2590.720797,-7994.224174,153.219100
163535.109305,-740.205942,-7698.141797,612.876398
163535.109625,-962.267725,-8808.450710,0.000000
163535.109945,1110.308913,-11399.171507,766.095498
163535.110265,-74.020594,-11251.130318,-2528.115143
163535.110585,-4737.318029,-9548.656652,-2451.505594
163535.110905,-2442.679609,-11843.295072,-2528.115143
163535.111225,0.000000,-9548.656652,0.000000
163535.111545,1184.329507,-8882.471304,995.924147
163535.111865,-1776.494261,-5995.668130,-1225.752797
163535.112185,-74.020594,-9548.656652,-76.609550
163535.112505,2368.659014,-9548.656652,2604.724693
163535.112825,3701.029710,-6957.935855,2374.896044
163535.113145,0.000000,-7772.162391,2451.505594
163535.113465,0.000000,-8364.327145,612.876398
163535.113785,1184.329507,-9326.594869,3600.648841
163535.114105,1110.308913,-7550.100608,-1302.362347
163535.114425,-3552.988522,-7254.018232,-1532.190996
163535.114745,-370.102971,-10066.800811,-3370.820191
163535.115065,-1628.453072,-10066.800811,-76.609550
163535.115385,-592.164754,-9474.636058,-1762.019645
163535.115705,-3182.885551,-9326.594869,-229.828649
163535.116025,-1258.350101,-10140.821405,-842.705048
163535.116345,-2368.659014,-8660.409521,612.876398
163535.116665,2146.597232,-9474.636058,612.876398
163535.116985,3478.967927,-10362.883188,2145.067394
163535.117305,-1110.308913,-7772.162391,-1072.533697
163535.117625,-1480.411884,-8364.327145,0.000000
163535.117945,2294.638420,-11251.130318,-689.485948
163535.118265,-1628.453072,-10288.862594,-1225.752797
163535.118585,-962.267725,-10362.883188,-1532.190996
163535.118905,-1110.308913,-11621.233289,0.000000
163535.119225,2516.700203,-8956.491898,2451.505594
163535.119545,1480.411884,-7179.997637,0.000000
163535.119865,0.000000,-6587.832884,0.000000
163535.120185,740.205942,-9474.636058,536.266849
163535.120505,2294.638420,-10658.965565,2374.896044
163535.120825,-1258.350101,-7846.182985,-2451.505594
163535.121145,-74.020594,-10658.965565,-842.705048
163535.121465,-814.226536,-10436.903782,842.705048
163535.121785,1110.308913,-8956.491898,689.485948
163535.122105,-1110.308913,-7476.080014,229.828649
163535.122425,-3552.988522,-7772.162391,-1225.752797
163535.122745,-1850.514855,-9326.594869,-1302.362347
163535.123065,814.226536,-8068.244768,0.000000
163535.123385,0.000000,-7772.162391,612.876398
163535.123705,-74.020594,-10658.965565,-536.266849
163535.124025,-1258.350101,-9178.553681,-1225.752797
163535.124345,370.102971,-9104.533087,0.000000
163535.124665,-2368.659014,-9844.739029,-1072.533697
163535.124985,-2368.659014,-9918.759623,-1225.752797
163535.125305,-74.020594,-11843.295072,-76.609550
163535.125624,1776.494261,-10510.924376,995.924147
163535.125944,-74.020594,-9474.636058,-153.219100
163535.126264,-666.185348,-9474.636058,-1302.362347
163535.126584,-3404.947333,-9548.656652,-1225.752797
163535.126903,0.000000,-9548.656652,0.000000
163535.127223,1110.308913,-8882.471304,-383.047749
163535.127543,370.102971,-7846.182985,1149.143247
163535.127863,1036.288319,-8808.450710,689.485948
163535.128183,2294.638420,-8882.471304,1149.143247
163535.128502,1776.494261,-11251.130318,2068.457845
163535.128822,-2368.659014,-10732.986159,0.000000
163535.129142,-1332.370696,-11251.130318,-76.609550
163535.129462,-1258.350101,-9474.636058,-536.266849
163535.129781,-1776.494261,-8290.306550,-1915.238745
163535.130101,-74.020594,-8882.471304,-1302.362347
163535.130421,-592.164754,-8512.368333,-536.266849
163535.130741,518.144159,-8512.368333,1225.752797
163535.131060,-74.020594,-8364.327145,-306.438199
163535.131380,-666.185348,-10881.027347,1991.848295
163535.131700,-2072.576638,-9474.636058,-76.609550
163535.132020,2294.638420,-9474.636058,1762.019645
163535.132340,0.000000,-7772.162391,0.000000
163535.132659,-2368.659014,-7179.997637,0.000000
163535.132979,-74.020594,-11843.295072,-689.485948
163535.133299,0.000000,-10732.986159,-306.438199
163535.133619,0.000000,-9548.656652,-2528.115143
163535.133938,-1924.535449,-10955.047942,-1378.971896
163535.134258,-2072.576638,-10288.862594,-1915.238745
163535.134578,-2368.659014,-8660.409521,-3064.381992
163535.134898,1110.308913,-9474.636058,-689.485948
163535.135217,-740.205942,-8808.450710,229.828649
163535.135537,1332.370696,-8586.388927,919.314598
163535.135857,4219.173869,-8660.409521,2681.334243
163535.136177,6439.791695,-8882.471304,3600.648841
163535.136496,518.144159,-11251.130318,2374.896044
163535.136816,-2368.659014,-8660.409521,-2451.505594
163535.137136,-962.267725,-11547.212695,-842.705048
163535.137456,-666.185348,-10658.965565,-1685.410096
163535.137776,-4737.318029,-7772.162391,-4136.915689
163535.138095,-2072.576638,-10288.862594,-2528.115143
163535.138415,-740.205942,-9252.574275,-459.657299
163535.138735,2960.823768,-9400.615463,153.219100
163535.139055,2886.803174,-9326.594869,1149.143247
163535.139374,-74.020594,-9178.553681,-76.609550
163535.139694,0.000000,-8512.368333,1532.190996
163535.140014,1998.556043,-8734.430116,1225.752797
163535.140334,1702.473667,-10658.965565,1149.143247
163535.140653,-2368.659014,-7772.162391,0.000000
163535.140973,-1406.391290,-9252.574275,-1915.238745
163535.141293,-370.102971,-10140.821405,-1608.800546
163535.141613,-1628.453072,-10436.903782,-2681.334243
163535.141932,-2516.700203,-11251.130318,-2451.505594
163535.142252,-1258.350101,-10955.047942,-689.485948
163535.142572,-370.102971,-9474.636058,-76.609550
163535.142892,-2664.741391,-7179.997637,-2298.286494
163535.143212,0.000000,-8512.368333,1532.190996
163535.143531,1702.473667,-7402.059420,1149.143247
163535.143851,2368.659014,-5995.668130,2451.505594
163535.144171,2442.679609,-8586.388927,1762.019645
163535.144491,962.267725,-9474.636058,1532.190996
163535.144810,-444.123565,-10436.903782,76.609550
163535.145130,-444.123565,-9548.656652,-1455.581446
163535.145450,-2738.761985,-10362.883188,-2528.115143
163535.145770,-3404.947333,-9474.636058,-1302.362347
163535.146089,-3627.009116,-8364.327145,-2145.067394
163535.146409,0.000000,-7772.162391,306.438199
163535.146729,2072.576638,-9252.574275,919.314598
163535.147049,-3552.988522,-6587.832884,0.000000
163535.147368,-1258.350101,-9104.533087,-383.047749
163535.147688,-518.144159,-8882.471304,153.219100
163535.148008,-2220.617826,-9030.512492,-1455.581446
163535.148328,-666.185348,-9474.636058,-995.924147
163535.148648,-370.102971,-11029.068536,-76.609550
163535.148967,2294.638420,-10955.047942,842.705048
163535.149287,1332.370696,-9252.574275,-383.047749
163535.149607,-74.020594,-8882.471304,-2528.115143
163535.149927,-1184.329507,-10732.986159,1378.971896
163535.150246,-888.247130,-9548.656652,0.000000
163535.150566,0.000000,-8882.471304,-383.047749
163535.150886,0.000000,-7994.224174,153.219100
163535.151206,444.123565,-8364.327145,0.000000
163535.151525,4071.132681,-8438.347739,1225.752797
163535.151845,2368.659014,-7772.162391,612.876398
163535.152165,370.102971,-10362.883188,2374.896044
163535.152485,-74.020594,-11251.130318,-2528.115143
163535.152804,-1554.432478,-11251.130318,-689.485948
163535.153124,-2368.659014,-11029.068536,-612.876398
163535.153444,-3923.091493,-10362.883188,-1532.190996
163535.153764,-2738.761985,-9104.533087,-2145.067394
163535.154084,0.000000,-8882.471304,1378.971896
163535.154403,1184.329507,-4959.379811,0.000000
163535.154723,-444.123565,-5699.585753,76.609550
163535.155043,0.000000,-6587.832884,0.000000
163535.155363,2072.576638,-10658.965565,3217.601092
163535.155682,-1554.432478,-7846.182985,-1915.238745
163535.156002,-3404.947333,-11695.253884,1149.143247
163535.156322,-5329.482782,-9844.739029,-3370.820191
163535.156642,-2146.597232,-11029.068536,-1302.362347
163535.156961,666.185348,-9548.656652,-2145.067394
163535.157281,-370.102971,-10214.842000,-995.924147
163535.157601,-74.020594,-9178.553681,-2221.676944
163535.157921,2294.638420,-11843.295072,2374.896044
163535.158241,3182.885551,-9474.636058,-76.609550
163535.158560,-2220.617826,-7920.203579,306.438199
163535.158880,0.000000,-7179.997637,0.000000
163535.159200,3182.885551,-11251.130318,4213.525239
163535.159520,4441.235652,-7772.162391,1455.581446
163535.159839,2368.659014,-8438.347739,2298.286494
163535.160159,1036.288319,-8512.368333,229.828649
163535.160479,-1702.473667,-10807.006753,0.000000
163535.160799,-370.102971,-10288.862594,-3064.381992
163535.161118,-4145.153275,-11621.233289,-1532.190996
163535.161438,-3034.844362,-10658.965565,-1685.410096
163535.161758,-74.020594,-11843.295072,-689.485948
163535.162078,1554.432478,-7105.977043,-76.609550
163535.162397,2516.700203,-9178.553681,2374.896044
163535.162717,592.164754,-8068.244768,76.609550
163535.163037,814.226536,-9474.636058,383.047749
163535.163357,1406.391290,-9696.697840,689.485948
163535.163677,-4737.318029,-7179.997637,0.000000
163535.163996,-3849.070898,-9696.697840,-1838.629195
163535.164316,-1480.411884,-10214.842000,0.000000
163535.164636,4663.297435,-10658.965565,1149.143247
163535.164956,-74.020594,-9474.636058,-459.657299
163535.165275,-74.020594,-9474.636058,-1302.362347
163535.165595,-592.164754,-10658.965565,-306.438199
163535.165915,1628.453072,-9770.718434,-306.438199
163535.166235,-1998.556043,-9104.533087,-1685.410096
163535.166554,-3108.864956,-10066.800811,-1072.533697
163535.166874,-4441.235652,-7179.997637,-2451.505594
163535.167194,3478.967927,-8290.306550,2374.896044
163535.167514,0.000000,-5995.668130,0.000000
163535.167833,1850.514855,-10066.800811,2068.457845
163535.168153,1702.473667,-11473.192101,3294.210641
163535.168473,1184.329507,-11325.150913,3064.381992
163535.168793,-3256.906145,-9252.574275,-2298.286494
163535.169113,-4737.318029,-9918.759623,-2068.457845
163535.169432,-4145.153275,-10288.862594,-2221.676944
163535.169752,0.000000,-7476.080014,0.000000
163535.170072,1184.329507,-5995.668130,-1225.752797
163535.170392,-1776.494261,-7920.203579,612.876398
163535.170711,-222.061783,-10066.800811,0.000000
163535.171031,2294.638420,-9474.636058,-76.609550
163535.171351,-4737.318029,-7772.162391,-2451.505594
163535.171671,-5847.626942,-9770.718434,-2451.505594
163535.171990,-3627.009116,-9844.739029,-2221.676944
163535.172310,1332.370696,-9326.594869,1225.752797
163535.172630,2664.741391,-7846.182985,-766.095498
163535.172950,2886.803174,-9474.636058,-76.609550
163535.173269,1184.329507,-9844.739029,-229.828649
163535.173589,3108.864956,-11325.150913,1455.581446
163535.173909,1184.329507,-9696.697840,-842.705048
163535.174229,-2368.659014,-11325.150913,2374.896044
163535.174549,-3552.988522,-9548.656652,-2145.067394
163535.174868,0.000000,-7179.997637,612.876398
163535.175188,3701.029710,-7179.997637,1378.971896
163535.175508,1406.391290,-8882.471304,2374.896044
163535.175828,74.020594,-7179.997637,-2145.067394
163535.176147,3478.967927,-10658.965565,-76.609550
163535.176467,-2220.617826,-9696.697840,-2221.676944
163535.176787,-5329.482782,-10510.924376,-1455.581446
163535.177107,-4145.153275,-10732.986159,-2604.724693
163535.177426,-2072.576638,-9696.697840,306.438199
163535.177746,2368.659014,-7920.203579,-1149.143247
163535.178066,-1184.329507,-7476.080014,-919.314598
163535.178386,148.041188,-8956.491898,-3064.381992
163535.178705,1480.411884,-11325.150913,1838.629195
163535.179025,-666.185348,-8882.471304,-3753.867940
163535.179345,-3034.844362,-11843.295072,-1302.362347
163535.179665,-3552.988522,-11843.295072,-2221.676944
163535.179985,518.144159,-10584.944971,995.924147
163535.180304,3182.885551,-8068.244768,76.609550
163535.180624,1332.370696,-7476.080014,2374.896044
163535.180944,2442.679609,-7920.203579,-383.047749
163535.181264,2294.638420,-9474.636058,2374.896044
163535.181583,518.144159,-8142.265362,-2145.067394
163535.181903,-5329.482782,-9844.739029,-2221.676944
163535.182223,-4219.173869,-10362.883188,-4979.620737
163535.182543,-2146.597232,-10436.903782,-689.485948
163535.182862,2072.576638,-7624.121203,0.000000
163535.183182,814.226536,-8364.327145,1838.629195
163535.183502,3478.967927,-8290.306550,2374.896044
163535.183822,1776.494261,-9474.636058,3140.991542
163535.184142,0.000000,-7772.162391,612.876398
163535.184461,-2146.597232,-10510.924376,-76.609550
163535.184781,-2590.720797,-10658.965565,-76.609550
163535.185101,-4737.318029,-9548.656652,-2451.505594
163535.185421,-74.020594,-8882.471304,-383.047749
163535.185740,-296.082377,-7846.182985,76.609550
163535.186060,2072.576638,-8660.409521,-689.485948
163535.186380,1036.288319,-9622.677246,0.000000
163535.186700,740.205942,-10881.027347,0.000000
163535.187019,-6217.729913,-8512.368333,-3983.696590
163535.187339,-5921.647536,-11325.150913,-3064.381992
163535.187659,-2886.803174,-12731.542202,-76.609550
163535.187979,-74.020594,-9474.636058,-689.485948
163535.188298,-1332.370696,-4811.338623,0.000000
163535.188618,3923.091493,-8586.388927,1762.019645
163535.188938,4293.194464,-7476.080014,1838.629195
163535.189258,4515.256246,-8660.409521,2221.676944
163535.189578,-444.123565,-9326.594869,-76.609550
163535.189897,-4219.173869,-11843.295072,-76.609550
163535.190217,-4219.173869,-10658.965565,-2681.334243
163535.190537,-1776.494261,-8956.491898,-2068.457845
163535.190857,0.000000,-9548.656652,612.876398
163535.191176,3108.864956,-9548.656652,2451.505594
163535.191496,518.144159,-6883.915261,-1685.410096
163535.191816,2664.741391,-9030.512492,1915.238745
163535.192136,-2368.659014,-7846.182985,-1532.190996
163535.192455,-4663.297435,-10658.965565,-1072.533697
163535.192775,-3034.844362,-11843.295072,-1302.362347
163535.193095,-74.020594,-11843.295072,2374.896044
163535.193415,2294.638420,-9474.636058,2374.896044
163535.193734,2294.638420,-7402.059420,1149.143247
163535.194054,1332.370696,-7179.997637,0.000000
163535.194374,0.000000,-7179.997637,612.876398
163535.194694,-2886.803174,-9030.512492,-3753.867940
163535.195014,-5477.523971,-11843.295072,-2911.162892
163535.195333,-4737.318029,-12139.377449,-3907.087040
163535.195653,-2220.617826,-10881.027347,-842.705048
163535.195973,2294.638420,-10362.883188,-76.609550
163535.196293,0.000000,-5995.668130,0.000000
163535.196612,3552.988522,-8660.409521,612.876398
163535.196932,4367.215058,-9770.718434,3600.648841
163535.197252,3478.967927,-7994.224174,-689.485948
163535.197572,-3552.988522,-7476.080014,0.000000
163535.197891,-1850.514855,-9474.636058,-995.924147
163535.198211,740.205942,-9770.718434,2145.067394
163535.198531,2886.803174,-7105.977043,0.000000
163535.198851,518.144159,-8142.265362,536.266849
163535.199170,148.041188,-7179.997637,-689.485948
163535.199490,-1628.453072,-8586.388927,-1072.533697
163535.199810,0.000000,-7179.997637,-3753.867940
163535.200130,-4145.153275,-11325.150913,-459.657299
163535.200450,-2442.679609,-11325.150913,-1302.362347
163535.200769,-5329.482782,-8364.327145,0.000000
163535.201089,1702.473667,-8290.306550,459.657299
163535.201409,1554.432478,-8142.265362,1302.362347
163535.201729,2812.782580,-8364.327145,842.705048
163535.202048,4663.297435,-9474.636058,3600.648841
163535.202368,3923.091493,-8882.471304,995.924147
163535.202688,-1258.350101,-9474.636058,-1302.362347
163535.203008,-4737.318029,-11029.068536,-2145.067394
163535.203327,-3182.885551,-11029.068536,-995.924147
163535.203647,-2368.659014,-9548.656652,-1838.629195
163535.203967,-2368.659014,-9252.574275,-1991.848295
163535.204287,444.123565,-9252.574275,-1915.238745
163535.204606,888.247130,-9548.656652,612.876398
163535.204926,1110.308913,-8808.450710,0.000000
163535.205246,-74.020594,-9474.636058,-76.609550
163535.205566,-2368.659014,-10140.821405,0.000000
163535.205886,-1258.350101,-10658.965565,1149.143247
163535.206205,0.000000,-7179.997637,612.876398
163535.206525,0.000000,-5995.668130,1225.752797
163535.206845,222.061783,-6957.935855,-1762.019645
163535.207165,1110.308913,-9326.594869,766.095498
163535.207484,1554.432478,-9622.677246,76.609550
163535.207804,-1702.473667,-10214.842000,-766.095498
163535.208124,-666.185348,-13619.789333,-76.609550
163535.208444,-3775.050304,-10214.842000,-1685.410096
163535.208763,-3034.844362,-8660.409521,-2298.286494
163535.209083,-2072.576638,-8586.388927,-919.314598
163535.209403,3478.967927,-9178.553681,1149.143247
163535.209723,-74.020594,-6809.894666,-1302.362347
163535.210043,3478.967927,-9474.636058,1762.019645
163535.210362,-888.247130,-7920.203579,-1532.190996
163535.210682,-1480.411884,-10066.800811,-766.095498
163535.211002,-2516.700203,-10584.944971,-2374.896044
163535.211322,-3256.906145,-9548.656652,0.000000
163535.211641,-74.020594,-9474.636058,-1302.362347
163535.211961,1776.494261,-9104.533087,76.609550
163535.212281,1628.453072,-8512.368333,-689.485948
163535.212601,2516.700203,-8364.327145,0.000000
163535.212920,-74.020594,-8586.388927,-1915.238745
163535.213240,-74.020594,-11843.295072,-76.609550
163535.213560,-1554.432478,-10658.965565,-689.485948
163535.213880,592.164754,-11251.130318,2987.772442
163535.214199,2886.803174,-8586.388927,2374.896044
163535.214519,592.164754,-7179.997637,1838.629195
163535.214839,1776.494261,-7772.162391,-76.609550
163535.215159,740.205942,-9548.656652,76.609550
163535.215479,-1998.556043,-9844.739029,-3217.601092
163535.215798,-3627.009116,-12731.542202,-2681.334243
163535.216118,-4811.338623,-11917.315666,-3370.820191
163535.216438,-1258.350101,-12361.439231,689.485948
163535.216758,-222.061783,-9474.636058,-76.609550
163535.217077,-1480.411884,-6587.832884,0.000000
163535.217397,592.164754,-8068.244768,1838.629195
163535.217717,1184.329507,-6587.832884,1532.190996
163535.218037,2664.741391,-8142.265362,919.314598
163535.218356,370.102971,-9844.739029,153.219100
163535.218676,-2812.782580,-9548.656652,-1455.581446
163535.218996,-2368.659014,-10732.986159,-2145.067394
163535.219316,-1332.370696,-10140.821405,-1762.019645
163535.219635,-444.123565,-12213.398043,1838.629195
163535.219955,-74.020594,-9474.636058,-1915.238745
163535.220275,-74.020594,-9474.636058,153.219100
163535.220595,3552.988522,-10436.903782,1838.629195
163535.220915,0.000000,-9844.739029,612.876398
163535.221234,-370.102971,-8660.409521,-536.266849
163535.221554,-1036.288319,-9696.697840,1915.238745
163535.221874,0.000000,-6587.832884,0.000000
163535.222194,-1850.514855,-6291.750507,536.266849
163535.222513,-74.020594,-6957.935855,0.000000
163535.222833,0.000000,-8660.409521,2757.943793
163535.223153,3775.050304,-8512.368333,0.000000
163535.223473,-74.020594,-11843.295072,1762.019645
163535.223792,-4737.318029,-10288.862594,-2451.505594
163535.224112,-5403.503377,-11843.295072,-2221.676944
163535.224432,-2294.638420,-10584.944971,-2221.676944
163535.224751,-2664.741391,-9696.697840,-1762.019645
163535.225071,-74.020594,-8882.471304,-919.314598
163535.225391,2886.803174,-10362.883188,2221.676944
163535.225710,3775.050304,-7550.100608,-383.047749
163535.226030,0.000000,-6143.709319,-2221.676944
163535.226350,-2368.659014,-8660.409521,-1225.752797
163535.226669,1110.308913,-13619.789333,2374.896044
163535.226989,666.185348,-8660.409521,-1149.143247
163535.227309,-74.020594,-9178.553681,76.609550
163535.227629,-370.102971,-9104.533087,-612.876398
163535.227948,1406.391290,-9696.697840,0.000000
163535.228268,3478.967927,-7994.224174,-1838.629195
163535.228588,-1480.411884,-7698.141797,-2834.553343
163535.228907,-1554.432478,-11103.089130,-2528.115143
163535.229227,-3849.070898,-10214.842000,-2374.896044
163535.229547,0.000000,-8808.450710,0.000000
163535.229866,1110.308913,-9474.636058,-76.609550
163535.230186,370.102971,-10436.903782,1532.190996
163535.230506,1258.350101,-9252.574275,2451.505594
163535.230825,5033.400406,-7550.100608,3217.601092
163535.231145,2368.659014,-6883.915261,1838.629195
163535.231465,-2368.659014,-9548.656652,1225.752797
163535.231784,-4145.153275,-9548.656652,-2451.505594
163535.232104,-1554.432478,-11843.295072,-76.609550
163535.232424,-4219.173869,-9474.636058,-3753.867940
163535.232743,-4811.338623,-9326.594869,-3447.429741
163535.233063,-666.185348,-11769.274478,-76.609550
163535.233383,0.000000,-8808.450710,612.876398
163535.233703,-518.144159,-7105.977043,-842.705048
163535.234022,-1924.535449,-7550.100608,-153.219100
163535.234342,0.000000,-7476.080014,0.000000
163535.234662,740.205942,-8364.327145,229.828649
163535.234981,0.000000,-7772.162391,0.000000
163535.235301,-888.247130,-11251.130318,1838.629195
163535.235621,-74.020594,-11843.295072,-76.609550
163535.235940,3478.967927,-10658.965565,-76.609550
163535.236260,1184.329507,-8734.430116,-995.924147
163535.236580,-1332.370696,-10658.965565,306.438199
163535.236899,-1036.288319,-10214.842000,-1762.019645
163535.237219,518.144159,-10214.842000,1149.143247
163535.237539,-1924.535449,-7179.997637,-766.095498
163535.237858,-1258.350101,-8882.471304,536.266849
163535.238178,-2368.659014,-6587.832884,0.000000
163535.238498,2368.659014,-9548.656652,3677.258390
163535.238817,2886.803174,-7698.141797,-1302.362347
163535.239137,-74.020594,-9474.636058,-76.609550
163535.239457,-2220.617826,-9548.656652,-1455.581446
163535.239777,-666.185348,-11103.089130,0.000000
163535.240096,-1702.473667,-10066.800811,-2834.553343
163535.240416,-2812.782580,-11843.295072,-76.609550
163535.240736,-2960.823768,-10584.944971,-2145.067394
163535.241055,1702.473667,-11843.295072,2451.505594
163535.241375,4663.297435,-9474.636058,-76.609550
163535.241695,-1850.514855,-7772.162391,-919.314598
163535.242014,-2146.597232,-5995.668130,-3677.258390
163535.242334,2294.638420,-9474.636058,1762.019645
163535.242654,2960.823768,-8142.265362,459.657299
163535.242973,0.000000,-9696.697840,536.266849
163535.243293,-888.247130,-9918.759623,-1302.362347
163535.243613,296.082377,-10732.986159,2145.067394
163535.243932,1480.411884,-8364.327145,-4903.011187
163535.244252,-3552.988522,-9548.656652,-1225.752797
163535.244572,-1628.453072,-11029.068536,-1991.848295
163535.244891,-74.020594,-13619.789333,-76.609550
163535.245211,4071.132681,-9474.636058,-76.609550
163535.245531,0.000000,-8216.285956,1225.752797
163535.245851,962.267725,-7994.224174,689.485948
163535.246170,1924.535449,-8956.491898,2528.115143
163535.246490,2960.823768,-6587.832884,2451.505594
163535.246810,-1554.432478,-8290.306550,-76.609550
163535.247129,-1258.350101,-10362.883188,-1302.362347
163535.247449,-3108.864956,-9548.656652,-1225.752797
163535.247769,-2368.659014,-8364.327145,-2451.505594
163535.248088,-1332.370696,-11177.109724,-76.609550
163535.248408,-4737.318029,-9548.656652,-2451.505594
163535.248728,-2442.679609,-10288.862594,-1302.362347
163535.249047,2886.803174,-9474.636058,-689.485948
163535.249367,-1924.535449,-8808.450710,-459.657299
163535.249687,-666.185348,-7920.203579,-2834.553343
163535.250006,-74.020594,-9770.718434,919.314598
163535.250326,2738.761985,-8882.471304,2068.457845
163535.250646,1184.329507,-7994.224174,1532.190996
163535.250965,74.020594,-9992.780217,1762.019645
163535.251285,592.164754,-11251.130318,2374.896044
163535.251605,1184.329507,-9548.656652,1838.629195
163535.251925,-74.020594,-9178.553681,-1378.971896
163535.252244,-1850.514855,-9918.759623,-2068.457845
163535.252564,0.000000,-10140.821405,0.000000
163535.252884,1702.473667,-9178.553681,-689.485948
163535.253203,-222.061783,-8956.491898,0.000000
163535.253523,-1554.432478,-9770.718434,-153.219100
163535.253843,-1036.288319,-10362.883188,-383.047749
163535.254162,3478.967927,-9992.780217,2145.067394
163535.254482,1110.308913,-8290.306550,1149.143247
163535.254802,0.000000,-8364.327145,1225.752797
163535.255121,1406.391290,-9326.594869,2068.457845
163535.255441,3478.967927,-9474.636058,1149.143247
163535.255761,-3552.988522,-4959.379811,-3677.258390
163535.256080,-1554.432478,-10658.965565,-2528.115143
163535.256400,-2146.597232,-10140.821405,-3064.381992
163535.256720,-666.185348,-12065.356855,0.000000
163535.257039,-1258.350101,-9104.533087,-1149.143247
163535.257359,-1110.308913,-9474.636058,1149.143247
163535.257679,1110.308913,-8142.265362,-1302.362347
163535.257999,1776.494261,-7179.997637,0.000000
163535.258318,1184.329507,-7772.162391,0.000000
163535.258638,0.000000,-9844.739029,919.314598
163535.258958,0.000000,-8364.327145,-2451.505594
163535.259277,3034.844362,-10955.047942,2604.724693
163535.259597,1554.432478,-8438.347739,0.000000
163535.259917,-592.164754,-9178.553681,919.314598
163535.260236,-666.185348,-8290.306550,-1302.362347
163535.260556,1998.556043,-10658.965565,2374.896044
163535.260876,-74.020594,-9474.636058,-76.609550
163535.261195,-1258.350101,-10658.965565,-76.609550
163535.261515,-3182.885551,-8512.368333,-1762.019645
163535.261835,0.000000,-9548.656652,2451.505594
163535.262154,-2368.659014,-5995.668130,-2451.505594
163535.262474,-3330.926739,-8586.388927,153.219100
163535.262794,-3034.844362,-8808.450710,-2528.115143
163535.263113,-592.164754,-9918.759623,306.438199
163535.263433,3478.967927,-10510.924376,-76.609550
163535.263753,-1184.329507,-10732.986159,1225.752797
163535.264073,-296.082377,-11843.295072,-1302.362347
163535.264392,-2146.597232,-11103.089130,-76.609550
163535.264712,-2442.679609,-5995.668130,-2451.505594
163535.265032,-2368.659014,-8364.327145,1225.752797
163535.265351,1406.391290,-8808.450710,-536.266849
163535.265671,2738.761985,-8438.347739,2298.286494
163535.265991,2368.659014,-7105.977043,1225.752797
163535.266310,-518.144159,-8364.327145,-153.219100
163535.266630,-1258.350101,-9474.636058,-3447.429741
163535.266950,-3552.988522,-10732.986159,0.000000
163535.267269,-592.164754,-9548.656652,-4290.134789
163535.267589,-2368.659014,-10955.047942,612.876398
163535.267909,-666.185348,-10066.800811,-689.485948
163535.268228,-2368.659014,-7179.997637,0.000000
163535.268548,2368.659014,-8068.244768,0.000000
163535.268868,0.000000,-8290.306550,1378.971896
163535.269187,592.164754,-9844.739029,995.924147
163535.269507,-74.020594,-7698.141797,1149.143247
163535.269827,1702.473667,-8216.285956,536.266849
163535.270147,-1850.514855,-8290.306550,-76.609550
163535.270466,-3404.947333,-7179.997637,-1838.629195
163535.270786,-1702.473667,-9400.615463,0.000000
163535.271106,1332.370696,-9844.739029,1225.752797
163535.271425,-2368.659014,-8956.491898,-1685.410096
163535.271745,-444.123565,-10732.986159,-2145.067394
163535.272065,-2442.679609,-10955.047942,-1532.190996
163535.272384,-2442.679609,-10881.027347,-2068.457845
163535.272704,-2442.679609,-9474.636058,-2528.115143
163535.273024,-592.164754,-10732.986159,-76.609550
163535.273343,1110.308913,-8438.347739,-383.047749
163535.273663,3552.988522,-7179.997637,2451.505594
163535.273983,1184.329507,-7179.997637,1225.752797
163535.274302,3552.988522,-9844.739029,3907.087040
163535.274622,592.164754,-9252.574275,0.000000
163535.274942,-666.185348,-9770.718434,0.000000
163535.275261,-4071.132681,-9474.636058,-2834.553343
163535.275581,-3330.926739,-10732.986159,-3064.381992
163535.275901,-296.082377,-9474.636058,-2987.772442
163535.276221,0.000000,-9548.656652,1225.752797
163535.276540,370.102971,-7328.038826,0.000000
163535.276860,1998.556043,-9474.636058,1762.019645
163535.277180,-74.020594,-9474.636058,1762.019645
163535.277499,2960.823768,-9548.656652,4903.011187
163535.277819,518.144159,-7920.203579,1149.143247
163535.278139,-1776.494261,-8290.306550,306.438199
163535.278458,-2738.761985,-8512.368333,-2451.505594
163535.278778,-2294.638420,-8364.327145,-2451.505594
163535.279098,-1110.308913,-8364.327145,-3294.210641
163535.279417,-2072.576638,-10807.006753,-3140.991542
163535.279737,-3552.988522,-9844.739029,-2145.067394
163535.280057,1554.432478,-12435.459826,2374.896044
163535.280376,1998.556043,-9178.553681,-76.609550
163535.280696,0.000000,-7476.080014,306.438199
163535.281016,518.144159,-8734.430116,-842.705048
163535.281335,2738.761985,-7698.141797,2451.505594
163535.281655,3627.009116,-7698.141797,919.314598
163535.281975,0.000000,-8364.327145,0.000000
163535.282295,-2294.638420,-10807.006753,-2528.115143
163535.282614,-3552.988522,-10732.986159,0.000000
163535.282934,-296.082377,-10955.047942,-2451.505594
163535.283254,-1776.494261,-11325.150913,0.000000
163535.283573,-148.041188,-10732.986159,-459.657299
163535.283893,1184.329507,-10436.903782,1149.143247
163535.284213,3330.926739,-5921.647536,-383.047749
163535.284532,592.164754,-7994.224174,766.095498
163535.284852,0.000000,-8364.327145,0.000000
163535.285172,2294.638420,-9474.636058,2221.676944
163535.285491,814.226536,-9252.574275,2681.334243
163535.285811,-4293.194464,-7328.038826,-766.095498
163535.286131,-5033.400406,-8364.327145,-4290.134789
163535.286450,-148.041188,-10436.903782,2987.772442
163535.286770,0.000000,-7179.997637,-76.609550
163535.287090,-1554.432478,-10066.800811,-1608.800546
163535.287409,-1406.391290,-10955.047942,-2145.067394
163535.287729,-814.226536,-12287.418637,612.876398
163535.288049,-1258.350101,-7328.038826,-2451.505594
163535.288369,-148.041188,-9474.636058,1149.143247
163535.288688,-148.041188,-7772.162391,-383.047749
163535.289008,888.247130,-7846.182985,766.095498
163535.289328,2294.638420,-7179.997637,1378.971896
163535.289647,1554.432478,-9474.636058,2987.772442
163535.289967,222.061783,-10658.965565,-76.609550
163535.290287,-3108.864956,-9548.656652,-1838.629195
163535.290606,-1776.494261,-10140.821405,-1072.533697
163535.290926,-4737.318029,-10732.986159,-1225.752797
163535.291246,-5329.482782,-8364.327145,-4290.134789
163535.291565,-814.226536,-9474.636058,-459.657299
163535.291885,3478.967927,-7846.182985,1762.019645
163535.292205,2368.659014,-7920.203579,1302.362347
163535.292524,2886.803174,-10362.883188,1762.019645
163535.292844,-444.123565,-9474.636058,-689.485948
163535.293164,0.000000,-9844.739029,612.876398
163535.293483,-2442.679609,-10658.965565,-153.219100
163535.293803,-1258.350101,-11251.130318,-1302.362347
163535.294123,-3552.988522,-7772.162391,0.000000
163535.294443,1702.473667,-7920.203579,0.000000
163535.294762,1332.370696,-7920.203579,-1072.533697
163535.295082,518.144159,-9252.574275,-1072.533697
163535.295402,-1332.370696,-10732.986159,-1149.143247
163535.295721,-74.020594,-10658.965565,-76.609550
163535.296041,-4145.153275,-8956.491898,-2528.115143
163535.296361,-7105.977043,-7179.997637,-4903.011187
163535.296680,-2960.823768,-8956.491898,-2451.505594
163535.297000,1998.556043,-9326.594869,1915.238745
163535.297320,1184.329507,-5995.668130,0.000000
163535.297639,3182.885551,-9326.594869,2221.676944
163535.297959,2072.576638,-8364.327145,459.657299
163535.298279,1776.494261,-9548.656652,383.047749
163535.298598,-1998.556043,-9548.656652,-2528.115143
163535.298918,-1850.514855,-11251.130318,-1302.362347
163535.299238,-2516.700203,-10658.965565,-1302.362347
163535.299557,148.041188,-7179.997637,229.828649
163535.299877,1480.411884,-7179.997637,0.000000
163535.300197,3108.864956,-10066.800811,3830.477490
163535.300517,0.000000,-7179.997637,0.000000
163535.300836,296.082377,-9474.636058,1149.143247
163535.301156,-2368.659014,-8216.285956,-1838.629195
163535.301476,-4145.153275,-10807.006753,-612.876398
163535.301795,-2442.679609,-8882.471304,-1915.238745
163535.302115,2294.638420,-10510.924376,3294.210641
163535.302435,2590.720797,-7402.059420,-1302.362347
163535.302754,0.000000,-8364.327145,0.000000
163535.303074,-2368.659014,-7772.162391,-3370.820191
163535.303394,888.247130,-12287.418637,2374.896044
163535.303713,-2960.823768,-9548.656652,-2451.505594
163535.304033,-3701.029710,-11473.192101,-1608.800546
163535.304353,-2442.679609,-10436.903782,-2374.896044
163535.304672,1110.308913,-8882.471304,1378.971896
163535.304992,3182.885551,-6809.894666,-1455.581446
163535.305312,1924.535449,-9104.533087,1915.238745
163535.305631,2294.638420,-9474.636058,-76.609550
163535.305951,3478.967927,-10658.965565,1762.019645
163535.306271,0.000000,-8956.491898,-1225.752797
163535.306591,-2812.782580,-12213.398043,3830.477490
163535.306910,-3478.967927,-8734.430116,-2451.505594
163535.307230,-1998.556043,-9622.677246,1225.752797
163535.307550,666.185348,-7105.977043,-612.876398
163535.307869,-1776.494261,-6587.832884,0.000000
163535.308189,0.000000,-7179.997637,-2451.505594
163535.308509,1184.329507,-9548.656652,153.219100
163535.308828,0.000000,-8364.327145,0.000000
163535.309148,-3108.864956,-10807.006753,-383.047749
163535.309468,-3627.009116,-11843.295072,-2528.115143
163535.309787,-3256.906145,-10732.986159,1225.752797
163535.310107,222.061783,-9104.533087,-612.876398
163535.310427,370.102971,-8660.409521,383.047749
163535.310746,666.185348,-7994.224174,-766.095498
163535.311066,-1776.494261,-7476.080014,0.000000
163535.311386,3478.967927,-10658.965565,-76.609550
163535.311705,-2146.597232,-9474.636058,-2068.457845
163535.312025,-4441.235652,-10140.821405,-2987.772442
163535.312345,-296.082377,-11843.295072,1685.410096
163535.312665,4071.132681,-10658.965565,2068.457845
163535.312984,1776.494261,-7179.997637,76.609550
163535.313304,1776.494261,-7994.224174,-153.219100
163535.313624,1628.453072,-9104.533087,1378.971896
163535.313943,2516.700203,-8956.491898,306.438199
163535.314263,-1258.350101,-9474.636058,-766.095498
163535.314583,-1850.514855,-10955.047942,-1302.362347
163535.314902,-2812.782580,-9252.574275,-1302.362347
163535.315222,0.000000,-6587.832884,0.000000
163535.315542,888.247130,-5699.585753,-842.705048
163535.315861,4663.297435,-11843.295072,2987.772442
163535.316181,2072.576638,-8956.491898,1302.362347
163535.316501,3627.009116,-9622.677246,1685.410096
163535.316820,-296.082377,-9326.594869,-76.609550
163535.317140,-4145.153275,-9548.656652,0.000000
163535.317460,-4737.318029,-8364.327145,-2911.162892
163535.317779,-888.247130,-10140.821405,0.000000
163535.318099,-74.020594,-9474.636058,-76.609550
163535.318419,-666.185348,-9474.636058,-383.047749
163535.318739,-74.020594,-9474.636058,-689.485948
163535.319058,2368.659014,-10955.047942,1762.019645
163535.319378,-888.247130,-8586.388927,-1838.629195
163535.319698,-3849.070898,-9548.656652,-919.314598
163535.320017,-4293.194464,-10214.842000,-2528.115143
163535.320337,-3552.988522,-9548.656652,0.000000
163535.320657,666.185348,-8586.388927,-1302.362347
163535.320976,0.000000,-9548.656652,1838.629195
163535.321296,4071.132681,-9474.636058,2221.676944
163535.321616,4663.297435,-11251.130318,4213.525239
163535.321935,1184.329507,-9474.636058,1532.190996
163535.322255,-2664.741391,-9696.697840,-1455.581446
163535.322575,-2368.659014,-10140.821405,-1915.238745
163535.322894,0.000000,-11325.150913,536.266849
163535.323214,-1776.494261,-6587.832884,0.000000
163535.323534,0.000000,-8734.430116,2145.067394
163535.323853,888.247130,-8216.285956,919.314598
163535.324173,1406.391290,-8586.388927,2987.772442
163535.324493,-74.020594,-8290.306550,-2528.115143
163535.324812,-7105.977043,-9548.656652,0.000000
163535.325132,-6513.812290,-9548.656652,-3600.648841
163535.325452,-3182.885551,-9844.739029,383.047749
163535.325772,296.082377,-6957.935855,-919.314598
163535.326091,1628.453072,-8142.265362,1838.629195
163535.326411,4663.297435,-8882.471304,-76.609550
163535.326730,1776.494261,-9548.656652,1685.410096
163535.327050,444.123565,-8956.491898,-1762.019645
163535.327370,-3849.070898,-11621.233289,-1762.019645
163535.327689,-4071.132681,-10584.944971,-2528.115143
163535.328009,-4145.153275,-10732.986159,0.000000
163535.328329,0.000000,-7476.080014,0.000000
163535.328648,4071.132681,-9474.636058,2374.896044
163535.328968,3775.050304,-7698.141797,1225.752797
163535.329288,5551.544565,-8586.388927,536.266849
163535.329607,2590.720797,-6809.894666,-1302.362347
163535.329927,-1702.473667,-9474.636058,-76.609550
163535.330246,-2738.761985,-9770.718434,-2911.162892
163535.330566,-3182.885551,-12435.459826,-689.485948
163535.330886,2220.617826,-9992.780217,0.000000
163535.331205,1702.473667,-9474.636058,1149.143247
163535.331525,1184.329507,-8364.327145,459.657299
163535.331845,2886.803174,-9474.636058,0.000000
163535.332164,1480.411884,-9104.533087,612.876398
163535.332484,-4145.153275,-7179.997637,-2451.505594
163535.332803,-3034.844362,-10066.800811,-2528.115143
163535.333123,-3552.988522,-11769.274478,-383.047749
163535.333443,0.000000,-8364.327145,-306.438199
163535.333762,-444.123565,-8068.244768,689.485948
163535.334082,1406.391290,-8290.306550,1149.143247
163535.334402,814.226536,-8734.430116,-76.609550
163535.334721,0.000000,-7476.080014,-3294.210641
163535.335041,-4737.318029,-9548.656652,-3524.039291
163535.335361,-3256.906145,-11843.295072,-1915.238745
163535.335680,-5329.482782,-9622.677246,-3677.258390
163535.336000,222.061783,-10066.800811,1149.143247
163535.336319,0.000000,-7550.100608,536.266849
163535.336639,2072.576638,-6809.894666,919.314598
163535.336959,2886.803174,-8290.306550,1149.143247
163535.337278,5847.626942,-9474.636058,3600.648841
163535.337598,814.226536,-11251.130318,2374.896044
163535.337918,-2294.638420,-9548.656652,-1225.752797
163535.338237,-3552.988522,-11029.068536,-1838.629195
163535.338557,-1184.329507,-10732.986159,1225.752797
163535.338877,-3478.967927,-7402.059420,-2145.067394
163535.339196,0.000000,-9178.553681,1302.362347
163535.339516,814.226536,-8068.244768,459.657299
163535.339835,2368.659014,-8734.430116,1455.581446
163535.340155,2886.803174,-9474.636058,-76.609550
163535.340475,-2368.659014,-8364.327145,0.000000
163535.340794,-1628.453072,-10658.965565,-229.828649
163535.341114,-1258.350101,-10362.883188,-76.609550
163535.341434,-2442.679609,-7105.977043,-3907.087040
163535.341753,-3552.988522,-8364.327145,0.000000
163535.342073,-666.185348,-9474.636058,-2068.457845
163535.342393,2368.659014,-10807.006753,766.095498
163535.342712,296.082377,-8956.491898,-1378.971896
163535.343032,-1776.494261,-9844.739029,-842.705048
163535.343351,-2664.741391,-9326.594869,-4060.306139
163535.343671,-1776.494261,-9844.739029,0.000000
163535.343991,1480.411884,-7772.162391,0.000000
163535.344310,4663.297435,-9474.636058,3907.087040
163535.344630,2886.803174,-6957.935855,536.266849
163535.344950,2368.659014,-7772.162391,3677.258390
163535.345269,3478.967927,-7105.977043,612.876398
163535.345589,0.000000,-9548.656652,1149.143247
163535.345908,-2072.576638,-9770.718434,-2604.724693
163535.346228,-1998.556043,-9770.718434,-2528.115143
163535.346548,-1258.350101,-9474.636058,-1915.238745
163535.346867,-3034.844362,-10066.800811,-76.609550
163535.347187,-2368.659014,-7179.997637,-2451.505594
163535.347507,0.000000,-8512.368333,766.095498
163535.347826,740.205942,-7476.080014,919.314598
163535.348146,-4737.318029,-7772.162391,0.000000
163535.348466,-2886.803174,-9474.636058,-1302.362347
163535.348785,-2442.679609,-10807.006753,1072.533697
163535.349105,-1258.350101,-8586.388927,-1455.581446
163535.349424,-1258.350101,-9474.636058,-76.609550
163535.349744,888.247130,-9992.780217,306.438199
163535.350064,1702.473667,-9474.636058,-76.609550
163535.350383,0.000000,-7698.141797,-1991.848295
163535.350703,-4071.132681,-9548.656652,-1838.629195
163535.351023,-1184.329507,-11325.150913,-766.095498
163535.351342,-1036.288319,-11325.150913,0.000000
163535.351662,-444.123565,-8882.471304,-612.876398
163535.351982,-1110.308913,-9104.533087,0.000000
163535.352301,0.000000,-7402.059420,0.000000
163535.352621,1998.556043,-8068.244768,459.657299
163535.352940,1184.329507,-7179.997637,1225.752797
163535.353260,-666.185348,-8882.471304,2221.676944
163535.353580,-74.020594,-10658.965565,-383.047749
163535.353899,-2072.576638,-10362.883188,-76.609550
163535.354219,0.000000,-9548.656652,612.876398
163535.354539,-1258.350101,-9178.553681,-766.095498
163535.354858,-444.123565,-9696.697840,-842.705048
163535.355178,518.144159,-10066.800811,229.828649
163535.355498,444.123565,-7179.997637,-2145.067394
163535.355817,-666.185348,-8882.471304,-995.924147
163535.356137,-1184.329507,-8364.327145,-3677.258390
163535.356456,-592.164754,-12361.439231,1225.752797
163535.356776,-74.020594,-9474.636058,-76.609550
163535.357096,-74.020594,-11251.130318,1762.019645
163535.357415,-1480.411884,-8364.327145,0.000000
163535.357735,-148.041188,-8512.368333,-1302.362347
163535.358055,1924.535449,-8290.306550,995.924147
163535.358374,296.082377,-8068.244768,-1378.971896
163535.358694,-962.267725,-8142.265362,-2374.896044
163535.359013,-1554.432478,-13027.624579,-689.485948
163535.359333,-962.267725,-10140.821405,-2145.067394
163535.359653,-2220.617826,-8956.491898,-1838.629195
163535.359972,0.000000,-9548.656652,689.485948
163535.360292,0.000000,-7179.997637,0.000000
163535.360612,3923.091493,-8290.306550,2451.505594
163535.360931,1332.370696,-7254.018232,229.828649
163535.361251,-592.164754,-9474.636058,766.095498
163535.361571,-1554.432478,-8290.306550,-2528.115143
163535.361890,-1184.329507,-9104.533087,153.219100
163535.362210,-2368.659014,-8364.327145,-1225.752797
163535.362529,-370.102971,-10658.965565,1532.190996
163535.362849,-74.020594,-10584.944971,-76.609550
163535.363169,0.000000,-6291.750507,0.000000
163535.363488,-74.020594,-7994.224174,-1915.238745
163535.363808,-2960.823768,-10732.986159,-842.705048
163535.364128,-3552.988522,-9770.718434,-2757.943793
163535.364447,-1776.494261,-10436.903782,842.705048
163535.364767,-1480.411884,-10436.903782,1455.581446
163535.365087,-2886.803174,-9548.656652,0.000000
163535.365406,0.000000,-8512.368333,-1302.362347
163535.365726,2886.803174,-8216.285956,2374.896044
163535.366045,1776.494261,-7254.018232,0.000000
163535.366365,-3404.947333,-8660.409521,-1225.752797
163535.366685,-4367.215058,-8660.409521,-4519.963438
163535.367004,-1184.329507,-12213.398043,1532.190996
163535.367324,814.226536,-9474.636058,-76.609550
163535.367644,-1554.432478,-10658.965565,-76.609550
163535.367963,-148.041188,-9474.636058,842.705048
163535.368283,962.267725,-8216.285956,995.924147
163535.368603,1258.350101,-7179.997637,0.000000
163535.368922,-296.082377,-9326.594869,0.000000
163535.369242,-3108.864956,-7772.162391,-1378.971896
163535.369561,-2442.679609,-10955.047942,1149.143247
163535.369881,-1554.432478,-10658.965565,-842.705048
163535.370201,-5995.668130,-9474.636058,-76.609550
163535.370520,-6513.812290,-8364.327145,-1838.629195
163535.370840,-74.020594,-9474.636058,2987.772442
163535.371160,148.041188,-6439.791695,1225.752797
163535.371479,-3552.988522,-7476.080014,459.657299
163535.371799,-4589.276840,-9030.512492,-1762.019645
163535.372118,-5625.565159,-10140.821405,-1991.848295
163535.372438,-5921.647536,-9548.656652,-1532.190996
163535.372758,-8438.347739,-10362.883188,-2528.115143
163535.373077,-5995.668130,-14211.954086,-76.609550
163535.373397,-8216.285956,-8364.327145,-2604.724693
163535.373717,-3552.988522,-8956.491898,0.000000
163535.374036,-666.185348,-8882.471304,3600.648841
163535.374356,-3552.988522,-6587.832884,1149.143247
163535.374676,-4219.173869,-7254.018232,229.828649
163535.374995,-2812.782580,-8438.347739,1149.143247
163535.375315,-3552.988522,-8364.327145,2451.505594
163535.375634,-8882.471304,-7772.162391,0.000000
163535.375954,-9474.636058,-8364.327145,-3677.258390
163535.376274,-6439.791695,-11251.130318,-1455.581446
163535.376593,-3923.091493,-11991.336260,1302.362347
163535.376913,-4219.173869,-7105.977043,-1915.238745
163535.377233,-3923.091493,-9474.636058,-76.609550
163535.377552,-6661.853478,-7031.956449,-2757.943793
163535.377872,-5699.585753,-10584.944971,-612.876398
163535.378192,-4071.132681,-9992.780217,1455.581446
163535.378511,-4737.318029,-8364.327145,1225.752797
163535.378831,-3034.844362,-9474.636058,2987.772442
163535.379150,-4737.318029,-5477.523971,-612.876398
163535.379470,-3701.029710,-7179.997637,0.000000
163535.379790,-1480.411884,-8438.347739,2145.067394
163535.380109,-74.020594,-8882.471304,-1915.238745
163535.380429,-5181.441594,-10140.821405,-2068.457845
163535.380749,-7550.100608,-10362.883188,-5056.230287
163535.381068,-7105.977043,-12731.542202,-4673.182538
163535.381388,-4219.173869,-12287.418637,-1302.362347
163535.381708,-2220.617826,-11251.130318,-76.609550
163535.382027,-518.144159,-9918.759623,1455.581446
163535.382347,-74.020594,-9178.553681,2374.896044
163535.382666,-666.185348,-5921.647536,0.000000
163535.382986,1036.288319,-6883.915261,1225.752797
163535.383306,4663.297435,-7105.977043,2374.896044
163535.383625,1258.350101,-7328.038826,2298.286494
163535.383945,-592.164754,-7328.038826,-459.657299
163535.384265,-3330.926739,-10584.944971,-3600.648841
163535.384584,-2664.741391,-13767.830521,-1532.190996
163535.384904,-4145.153275,-12805.562797,-1838.629195
163535.385223,-7105.977043,-11917.315666,0.000000
163535.385543,-4145.153275,-10732.986159,-612.876398
163535.385863,-1850.514855,-10658.965565,1225.752797
163535.386182,-2146.597232,-6291.750507,0.000000
163535.386502,2886.803174,-5921.647536,3140.991542
163535.386822,1036.288319,-5403.503377,3140.991542
163535.387141,1036.288319,-5329.482782,3140.991542
163535.387461,-444.123565,-6957.935855,919.314598
163535.387781,-3256.906145,-8068.244768,76.609550
163535.388100,-3627.009116,-9178.553681,-4443.353888
163535.388420,-7994.224174,-11917.315666,-5362.668486
163535.388739,-7994.224174,-12509.480420,-7967.393179
163535.389059,-7105.977043,-13693.809927,-3524.039291
163535.389379,-4811.338623,-11325.150913,-4136.915689
163535.389698,-2072.576638,-10732.986159,1455.581446
163535.390018,-1924.535449,-7994.224174,1225.752797
163535.390338,-2146.597232,-5477.523971,1762.019645
163535.390657,-592.164754,-7105.977043,4213.525239
163535.390977,-1184.329507,-7105.977043,4826.401637
163535.391297,-1258.350101,-5921.647536,2374.896044
163535.391616,-2960.823768,-7031.956449,76.609550
163535.391936,-5921.647536,-9548.656652,0.000000
163535.392255,-7105.977043,-9548.656652,-2451.505594
163535.392575,-8512.368333,-9252.574275,-6358.592633
163535.392895,-9474.636058,-13101.645173,-5745.716235
163535.393214,-7476.080014,-12805.562797,-3524.039291
163535.393534,-6365.771101,-11917.315666,0.000000
163535.393854,-3034.844362,-12435.459826,4060.306139
163535.394173,-1258.350101,-7772.162391,3294.210641
163535.394493,2146.597232,-8882.471304,6665.030833
163535.394813,518.144159,-3849.070898,2834.553343
163535.395132,-3552.988522,-4293.194464,919.314598
163535.395452,-7105.977043,-5107.421000,-2451.505594
163535.395771,-5403.503377,-10955.047942,-2834.553343
163535.396091,-6957.935855,-12287.418637,-3217.601092
163535.396411,-8364.327145,-13027.624579,-2757.943793
163535.396730,-8142.265362,-12731.542202,-3600.648841
163535.397050,-2516.700203,-14063.912898,-76.609550
163535.397370,-4737.318029,-7179.997637,0.000000
163535.397689,-2294.638420,-6661.853478,1991.848295
163535.398009,-2146.597232,-4737.318029,1072.533697
163535.398328,-74.020594,-7105.977043,-995.924147
163535.398648,-74.020594,-9474.636058,2374.896044
163535.398968,-1776.494261,-9104.533087,2911.162892
163535.399287,-3997.112087,-9326.594869,459.657299
163535.399607,-5403.503377,-10214.842000,-3830.477490
163535.399927,-2812.782580,-13693.809927,-1302.362347
163535.400246,-1850.514855,-12435.459826,-153.219100
163535.400566,-74.020594,-9474.636058,1455.581446
163535.400886,-1184.329507,-7698.141797,-76.609550
163535.401205,-3256.906145,-3923.091493,-3983.696590
163535.401525,-370.102971,-10658.965565,-1302.362347
163535.401844,-1184.329507,-10732.986159,919.314598
163535.402164,-2516.700203,-10807.006753,2451.505594
163535.402484,-3552.988522,-10140.821405,3524.039291
163535.402803,-4811.338623,-7624.121203,-536.266849
163535.403123,-6513.812290,-7179.997637,-3677.258390
163535.403443,-1258.350101,-9474.636058,-306.438199
163535.403762,0.000000,-9548.656652,1378.971896
163535.404082,-444.123565,-8956.491898,2068.457845
163535.404402,-3034.844362,-7105.977043,-689.485948
163535.404721,-3034.844362,-9474.636058,-4060.306139
163535.405041,-4145.153275,-9252.574275,-3983.696590
163535.405360,-1850.514855,-10362.883188,-4366.744339
163535.405680,-3552.988522,-11843.295072,-1302.362347
163535.406000,-3552.988522,-10732.986159,0.000000
163535.406319,-5847.626942,-11029.068536,0.000000
163535.406639,-1628.453072,-12879.583391,2987.772442
163535.406959,-962.267725,-9770.718434,4060.306139
163535.407278,-518.144159,-7105.977043,3677.258390
163535.407598,-74.020594,-4441.235652,2987.772442
163535.407918,-518.144159,-4737.318029,2374.896044
163535.408237,-814.226536,-7328.038826,1532.190996
163535.408557,-1850.514855,-11251.130318,-76.609550
163535.408876,-4219.173869,-11473.192101,-1838.629195
163535.409196,-8290.306550,-10140.821405,-2451.505594
163535.409516,-8882.471304,-10732.986159,-4596.572988
163535.409835,-8956.491898,-11621.233289,-4290.134789
163535.410155,-6439.791695,-10214.842000,-2987.772442
163535.410475,-4515.256246,-8364.327145,-1608.800546
163535.410794,-666.185348,-7105.977043,-842.705048
163535.411114,-2368.659014,-7031.956449,76.609550
163535.411433,-4219.173869,-7179.997637,0.000000
163535.411753,-4737.318029,-9548.656652,1838.629195
163535.412073,-2812.782580,-11399.171507,4213.525239
163535.412392,-3552.988522,-9548.656652,3677.258390
163535.412712,-1998.556043,-9104.533087,2987.772442
163535.413032,-2812.782580,-6883.915261,612.876398
163535.413351,-4219.173869,-5699.585753,-2987.772442
163535.413671,-5699.585753,-6069.688724,-5898.935335
163535.413991,-5995.668130,-8290.306550,-5592.497135
163535.414310,-5995.668130,-11843.295072,-6205.373534
163535.414630,-7179.997637,-11399.171507,-4366.744339
163535.414949,-5329.482782,-11843.295072,-1915.238745
163535.415269,-1110.308913,-12213.398043,3677.258390
163535.415589,0.000000,-7772.162391,3064.381992
163535.415908,3034.844362,-7698.141797,5286.058936
163535.416228,3330.926739,-7476.080014,5898.935335
163535.416548,1850.514855,-7254.018232,4366.744339
163535.416867,-74.020594,-8882.471304,2374.896044
163535.417187,-4145.153275,-10955.047942,383.047749
163535.417507,-7179.997637,-11695.253884,-3140.991542
163535.417826,-7920.203579,-13027.624579,-2911.162892
163535.418146,-8364.327145,-11843.295072,-4979.620737
163535.418465,-6513.812290,-10881.027347,-2145.067394
163535.418785,-3034.844362,-8660.409521,-1455.581446
163535.419105,222.061783,-8142.265362,1685.410096
163535.419424,1036.288319,-7402.059420,2987.772442
163535.419744,1628.453072,-7179.997637,3064.381992
163535.420064,1184.329507,-8068.244768,1225.752797
163535.420383,296.082377,-9548.656652,3294.210641
163535.420703,0.000000,-9548.656652,3677.258390
163535.421023,-74.020594,-11251.130318,2374.896044
163535.421342,962.267725,-11843.295072,1149.143247
163535.421662,1184.329507,-10732.986159,1532.190996
163535.421981,1924.535449,-10436.903782,153.219100
163535.422301,2368.659014,-10732.986159,1225.752797
163535.422621,2368.659014,-10436.903782,2068.457845
163535.422940,2072.576638,-7772.162391,1532.190996
163535.423260,2442.679609,-7772.162391,3600.648841
163535.423580,2886.803174,-6809.894666,4443.353888
163535.423899,1776.494261,-7772.162391,6741.640382
163535.424219,3034.844362,-8808.450710,7584.345430
163535.424538,2294.638420,-11251.130318,7890.783629
163535.424858,-1628.453072,-9548.656652,4903.011187
163535.425178,-2442.679609,-9770.718434,3600.648841
163535.425497,-3849.070898,-10881.027347,2068.457845
163535.425817,-4145.153275,-11473.192101,1762.019645
163535.426137,-2738.761985,-10955.047942,3294.210641
163535.426456,-74.020594,-11843.295072,6665.030833
163535.426776,1998.556043,-9474.636058,6818.249932
163535.427096,1998.556043,-5921.647536,6665.030833
163535.427415,2294.638420,-3330.926739,5209.449386
163535.427735,3478.967927,-8290.306550,7277.907231
163535.428054,740.205942,-7328.038826,4136.915689
163535.428374,-814.226536,-11029.068536,4213.525239
163535.428694,-1554.432478,-14211.954086,5898.935335
163535.429014,-3256.906145,-14878.139434,5515.887586
163535.429334,-3552.988522,-13397.727550,7354.516781
163535.429654,-4145.153275,-9548.656652,7354.516781
163535.429973,-2368.659014,-5995.668130,8120.612279
163535.430293,-592.164754,-2442.679609,3983.696590
163535.430613,1036.288319,-3552.988522,6665.030833
163535.430933,2072.576638,-4441.235652,4826.401637
163535.431253,518.144159,-8882.471304,6665.030833
163535.431572,0.000000,-10140.821405,6128.763984
163535.431892,-1554.432478,-12065.356855,5975.544884
163535.432212,-4737.318029,-11325.150913,5669.106685
163535.432532,-5329.482782,-10881.027347,4290.134789
163535.432852,-5255.462188,-8660.409521,2451.505594
163535.433171,-2368.659014,-8956.491898,3064.381992
163535.433491,1110.308913,-9992.780217,4903.011187
163535.433811,2294.638420,-10658.965565,4213.525239
163535.434131,-592.164754,-10584.944971,4979.620737
163535.434451,-2368.659014,-9474.636058,3064.381992
163535.434770,-4367.215058,-7846.182985,689.485948
163535.435090,-3627.009116,-7920.203579,1149.143247
163535.435410,-2368.659014,-7179.997637,612.876398
163535.435730,2886.803174,-7105.977043,2374.896044
163535.436050,2368.659014,-7772.162391,1838.629195
163535.436369,888.247130,-10140.821405,0.000000
163535.436689,-2368.659014,-12435.459826,919.314598
163535.437009,-2368.659014,-14211.954086,-76.609550
163535.437329,-2960.823768,-12139.377449,-459.657299
163535.437649,-1554.432478,-10214.842000,919.314598
163535.437969,518.144159,-9622.677246,1072.533697
163535.438288,0.000000,-7179.997637,0.000000
163535.438608,2442.679609,-7624.121203,2451.505594
163535.438928,2960.823768,-6069.688724,2681.334243
163535.439248,2294.638420,-7105.977043,-76.609550
163535.439568,0.000000,-7476.080014,-2298.286494
163535.439887,3552.988522,-12509.480420,3677.258390
163535.440207,2738.761985,-9548.656652,3064.381992
163535.440527,1110.308913,-9252.574275,1149.143247
163535.440847,-3849.070898,-9474.636058,-3447.429741
163535.441167,-6957.935855,-11177.109724,-5975.544884
163535.441486,-4811.338623,-13027.624579,-3753.867940
163535.441806,-3478.967927,-10732.986159,229.828649
163535.442126,-370.102971,-8734.430116,1455.581446
163535.442446,1036.288319,-6661.853478,2068.457845
163535.442766,3775.050304,-6587.832884,2757.943793
163535.443085,2368.659014,-3627.009116,612.876398
163535.443405,2960.823768,-8068.244768,1838.629195
163535.443725,1702.473667,-9474.636058,-689.485948
163535.444045,0.000000,-10066.800811,-1302.362347
163535.444365,-2368.659014,-10362.883188,-1225.752797
163535.444685,-666.185348,-13915.871710,-76.609550
163535.445004,-2072.576638,-12953.603985,612.876398
163535.445324,-666.185348,-10362.883188,1762.019645
163535.445644,-1258.350101,-7846.182985,1838.629195
163535.445964,-3256.906145,-7920.203579,1149.143247
163535.446284,-592.164754,-8882.471304,2451.505594
163535.446603,1628.453072,-7328.038826,4596.572988
163535.446923,2368.659014,-5551.544565,4060.306139
163535.447243,296.082377,-7476.080014,3677.258390
163535.447563,-1554.432478,-7698.141797,0.000000
163535.447883,-2738.761985,-11399.171507,1378.971896
163535.448202,-3330.926739,-12583.501014,919.314598
163535.448522,-3627.009116,-13027.624579,1225.752797
163535.448842,-3478.967927,-11251.130318,2221.676944
163535.449162,-1258.350101,-11251.130318,2374.896044
163535.449482,-1184.329507,-8808.450710,3600.648841
163535.449801,-74.020594,-8290.306550,4213.525239
163535.450121,-2146.597232,-5477.523971,3600.648841
163535.450441,-1332.370696,-5995.668130,3677.258390
163535.450761,518.144159,-5107.421000,2681.334243
163535.451081,4441.235652,-9548.656652,6971.469032
163535.451401,3923.091493,-8882.471304,6741.640382
163535.451720,518.144159,-10288.862594,4366.744339
163535.452040,-666.185348,-14211.954086,3907.087040
163535.452360,-2146.597232,-13989.892304,0.000000
163535.452680,-2960.823768,-13693.809927,3830.477490
163535.453000,-2442.679609,-11843.295072,2987.772442
163535.453319,-1850.514855,-11251.130318,4826.401637
163535.453639,0.000000,-5403.503377,2451.505594
163535.453959,814.226536,-4737.318029,4519.963438
163535.454279,1480.411884,-4885.359217,5669.106685
163535.454599,2590.720797,-6809.894666,6818.249932
163535.454918,4737.318029,-7550.100608,6435.202183
163535.455238,4145.153275,-7476.080014,6511.811733
163535.455558,592.164754,-11029.068536,5822.325785
163535.455878,0.000000,-12509.480420,6128.763984
163535.456198,-3552.988522,-11917.315666,3064.381992
163535.456517,-4737.318029,-11917.315666,3370.820191
163535.456837,-7105.977043,-7179.997637,0.000000
163535.457157,-5107.421000,-9104.533087,536.266849
163535.457477,-3552.988522,-6587.832884,842.705048
163535.457797,-814.226536,-6513.812290,1991.848295
163535.458117,888.247130,-6217.729913,2987.772442
163535.458436,2886.803174,-7698.141797,4213.525239
163535.458756,1110.308913,-9622.677246,4519.963438
163535.459076,814.226536,-9030.512492,3370.820191
163535.459396,1184.329507,-11917.315666,7354.516781
163535.459716,2368.659014,-12509.480420,9193.145976
163535.460035,-2812.782580,-7772.162391,2604.724693
163535.460355,-3034.844362,-10066.800811,4213.525239
163535.460675,-2886.803174,-7550.100608,995.924147
163535.460995,-2368.659014,-7994.224174,536.266849
163535.461315,-74.020594,-8882.471304,-76.609550
163535.461634,-74.020594,-7846.182985,-1225.752797
163535.461954,1702.473667,-12879.583391,2834.553343
163535.462274,1554.432478,-10362.883188,3294.210641
163535.462594,1776.494261,-11029.068536,4826.401637
163535.462914,0.000000,-9548.656652,7354.516781
163535.463233,-1850.514855,-7179.997637,3140.991542
163535.463553,-1480.411884,-8142.265362,4366.744339
163535.463873,-222.061783,-6661.853478,3064.381992
163535.464193,888.247130,-7550.100608,2374.896044
163535.464513,-74.020594,-9474.636058,459.657299
163535.464833,-4145.153275,-8660.409521,-2451.505594
163535.465152,-2368.659014,-13027.624579,306.438199
163535.465472,-74.020594,-15396.283594,2987.772442
163535.465792,-666.185348,-11843.295072,1762.019645
163535.466112,-4737.318029,-7179.997637,612.876398
163535.466432,1110.308913,-8142.265362,1455.581446
163535.466751,2664.741391,-6291.750507,2221.676944
163535.467071,3775.050304,-8438.347739,3370.820191
163535.467391,1998.556043,-6809.894666,2068.457845
163535.467711,1702.473667,-10510.924376,1685.410096
163535.468031,-1406.391290,-8956.491898,0.000000
163535.468350,-3552.988522,-10732.986159,0.000000
163535.468670,-3034.844362,-11843.295072,-1302.362347
163535.468990,-814.226536,-11621.233289,1455.581446
163535.469310,0.000000,-7179.997637,0.000000
163535.469630,1702.473667,-6513.812290,612.876398
163535.469949,296.082377,-7920.203579,-1072.533697
163535.470269,0.000000,-9622.677246,766.095498
163535.470589,3478.967927,-9474.636058,-76.609550
163535.470909,1554.432478,-9548.656652,3600.648841
163535.471229,-666.185348,-7698.141797,-1302.362347
163535.471548,-4737.318029,-7772.162391,-1225.752797
163535.471868,-370.102971,-7105.977043,-1838.629195
163535.472188,592.164754,-5403.503377,0.000000
163535.472508,1702.473667,-8364.327145,-2221.676944
163535.472828,-2368.659014,-11843.295072,-2145.067394
163535.473148,-3330.926739,-12731.542202,-3677.258390
163535.473467,-2146.597232,-13027.624579,-1915.238745
163535.473787,-2960.823768,-10732.986159,-4673.182538
163535.474107,-4737.318029,-8956.491898,-3064.381992
163535.474427,-74.020594,-5921.647536,-2987.772442
163535.474747,4589.276840,-7105.977043,1762.019645
163535.475066,4663.297435,-4589.276840,-3140.991542
163535.475386,3478.967927,-11843.295072,-76.609550
163535.475706,1554.432478,-12509.480420,0.000000
163535.476026,592.164754,-13249.686362,229.828649
163535.476346,-1776.494261,-10732.986159,-3753.867940
163535.476665,-4737.318029,-11325.150913,-1838.629195
163535.476985,-1184.329507,-8734.430116,-4213.525239
163535.477305,2886.803174,-9178.553681,-76.609550
163535.477625,5847.626942,-8290.306550,-1302.362347
163535.477945,0.000000,-8142.265362,-2068.457845
163535.478264,2294.638420,-11843.295072,-76.609550
163535.478584,0.000000,-10436.903782,229.828649
163535.478904,-74.020594,-10436.903782,-1302.362347
163535.479224,-3108.864956,-11621.233289,-612.876398
163535.479544,-1850.514855,-7179.997637,-612.876398
163535.479864,-1924.535449,-5107.421000,-2451.505594
163535.480183,2294.638420,-6365.771101,-2528.115143
163535.480503,-296.082377,-9548.656652,-2987.772442
163535.480823,-1628.453072,-12065.356855,-2451.505594
163535.481143,-74.020594,-14211.954086,-842.705048
163535.481463,-2442.679609,-11843.295072,-4060.306139
163535.481782,-7105.977043,-11029.068536,-2911.162892
163535.482102,-2738.761985,-7846.182985,-1838.629195
163535.482422,1702.473667,-7698.141797,-76.609550
163535.482742,2368.659014,-4811.338623,0.000000
163535.483062,2294.638420,-8512.368333,-995.924147
163535.483381,2664.741391,-11769.274478,2221.676944
163535.483701,1406.391290,-12953.603985,2987.772442
163535.484021,0.000000,-10288.862594,919.314598
163535.484341,-4515.256246,-9474.636058,-1915.238745
163535.484661,-3701.029710,-8068.244768,-766.095498
163535.484980,0.000000,-6291.750507,0.000000
163535.485300,3552.988522,-6587.832884,3677.258390
163535.485620,2220.617826,-7994.224174,2068.457845
163535.485940,-3552.988522,-7179.997637,2451.505594
163535.486260,-1258.350101,-9178.553681,-306.438199
163535.486580,666.185348,-9252.574275,536.266849
163535.486899,-1628.453072,-9548.656652,76.609550
163535.487219,-1850.514855,-8956.491898,2374.896044
163535.487539,1110.308913,-8734.430116,2068.457845
163535.487859,2294.638420,-7105.977043,2987.772442
163535.488179,-1110.308913,-5995.668130,-1302.362347
163535.488498,-1924.535449,-9622.677246,1225.752797
163535.488818,1110.308913,-11769.274478,1685.410096
163535.489138,0.000000,-10140.821405,612.876398
163535.489458,-2738.761985,-11399.171507,-842.705048
163535.489778,-4885.359217,-11473.192101,919.314598
163535.490097,-1850.514855,-7994.224174,153.219100
163535.490417,3478.967927,-7105.977043,2374.896044
163535.490737,3478.967927,-7179.997637,766.095498
163535.491057,2886.803174,-9474.636058,2987.772442
163535.491377,1480.411884,-8364.327145,1915.238745
163535.491696,148.041188,-9548.656652,1532.190996
163535.492016,0.000000,-11917.315666,1838.629195
163535.492336,-5773.606348,-12213.398043,0.000000
163535.492656,-3256.906145,-10584.944971,-1302.362347
163535.492976,-518.144159,-8808.450710,1608.800546
163535.493296,592.164754,-6587.832884,-689.485948
163535.493615,-74.020594,-8956.491898,766.095498
163535.493935,1184.329507,-8364.327145,1991.848295
163535.494255,2812.782580,-11621.233289,2451.505594
163535.494575,-74.020594,-11843.295072,1149.143247
163535.494895,-6291.750507,-10066.800811,-153.219100
163535.495214,-5329.482782,-7179.997637,612.876398
163535.495534,-666.185348,-6365.771101,-229.828649
163535.495854,1110.308913,-5181.441594,-1455.581446
163535.496174,0.000000,-8808.450710,612.876398
163535.496494,1628.453072,-8364.327145,0.000000
163535.496813,1110.308913,-10658.965565,459.657299
163535.497133,-1110.308913,-11843.295072,-1302.362347
163535.497453,-6291.750507,-11843.295072,-2834.553343
163535.497773,-4737.318029,-9548.656652,-3064.381992
163535.498093,2294.638420,-10658.965565,1149.143247
163535.498412,2368.659014,-5107.421000,-1838.629195
163535.498732,1036.288319,-7846.182985,-1608.800546
163535.499052,2146.597232,-9178.553681,-842.705048
163535.499372,2220.617826,-12213.398043,229.828649
163535.499692,814.226536,-10066.800811,-1915.238745
163535.500012,-3256.906145,-13693.809927,766.095498
163535.500331,-1258.350101,-10362.883188,-689.485948
163535.500651,0.000000,-5107.421000,-1838.629195
163535.500971,0.000000,-2442.679609,-3370.820191
163535.501291,2146.597232,-9474.636058,-76.609550
163535.501611,1406.391290,-11325.150913,-1608.800546
163535.501930,1702.473667,-14952.160028,689.485948
163535.502250,-740.205942,-13693.809927,-383.047749
163535.502570,-6291.750507,-11917.315666,-2451.505594
163535.502890,-4959.379811,-6809.894666,-4903.011187
163535.503210,0.000000,-5403.503377,-1378.971896
163535.503529,6291.750507,-4737.318029,-612.876398
163535.503849,5773.606348,-8882.471304,1762.019645
163535.504169,4071.132681,-10658.965565,2987.772442
163535.504489,592.164754,-11695.253884,2145.067394
163535.504809,-2886.803174,-10214.842000,-2681.334243
163535.505128,-5995.668130,-11695.253884,-4673.182538
163535.505448,-3478.967927,-9918.759623,-1991.848295
163535.505768,0.000000,-5995.668130,0.000000
163535.506088,2368.659014,-5403.503377,612.876398
163535.506408,592.164754,-6957.935855,-1915.238745
163535.506727,-2368.659014,-7772.162391,0.000000
163535.507047,1406.391290,-10658.965565,-459.657299
163535.507367,4367.215058,-11843.295072,-76.609550
163535.507687,-1776.494261,-11769.274478,-1532.190996
163535.508007,-2146.597232,-11621.233289,842.705048
163535.508327,-518.144159,-8364.327145,-536.266849
163535.508646,370.102971,-7179.997637,76.609550
163535.508966,-2368.659014,-5995.668130,-3677.258390
163535.509286,-74.020594,-10658.965565,-76.609550
163535.509606,222.061783,-10214.842000,-1302.362347
163535.509926,0.000000,-11917.315666,1838.629195
163535.510245,-666.185348,-14211.954086,-76.609550
163535.510565,-4737.318029,-9548.656652,1225.752797
163535.510885,-2220.617826,-7179.997637,-1915.238745
163535.511205,592.164754,-7031.956449,-76.609550
163535.511525,1036.288319,-6661.853478,-1302.362347
163535.511844,0.000000,-8142.265362,536.266849
163535.512164,1850.514855,-10436.903782,1149.143247
163535.512484,0.000000,-11917.315666,2451.505594
163535.512804,-1554.432478,-11473.192101,-383.047749
163535.513124,-2442.679609,-11843.295072,-76.609550
163535.513443,-4737.318029,-4811.338623,-3677.258390
163535.513763,-74.020594,-6587.832884,-612.876398
163535.514083,1406.391290,-6661.853478,-766.095498
163535.514403,2146.597232,-8882.471304,3064.381992
163535.514723,3775.050304,-8586.388927,2528.115143
163535.515043,5847.626942,-13619.789333,6052.154434
163535.515362,0.000000,-9030.512492,153.219100
163535.515682,-2960.823768,-10807.006753,1378.971896
163535.516002,-888.247130,-8142.265362,383.047749
163535.516322,1110.308913,-7254.018232,1838.629195
163535.516642,0.000000,-4811.338623,0.000000
163535.516961,-2368.659014,-7179.997637,0.000000
163535.517281,1480.411884,-10140.821405,459.657299
163535.517601,814.226536,-12805.562797,3370.820191
163535.517921,-1924.535449,-10362.883188,-689.485948
163535.518241,-3330.926739,-13915.871710,2221.676944
163535.518560,-3034.844362,-9252.574275,-995.924147
163535.518880,-1036.288319,-7698.141797,689.485948
163535.519200,962.267725,-5477.523971,-612.876398
163535.519520,-1184.329507,-6587.832884,842.705048
163535.519840,1184.329507,-8956.491898,612.876398
163535.520159,222.061783,-11029.068536,-536.266849
163535.520479,-888.247130,-11621.233289,-3677.258390
163535.520799,-2812.782580,-15766.386565,612.876398
163535.521119,-1258.350101,-13027.624579,-689.485948
163535.521439,-2664.741391,-8956.491898,-229.828649
163535.521759,-1184.329507,-5625.565159,-1991.848295
163535.522078,-1036.288319,-7105.977043,-1455.581446
163535.522398,2368.659014,-8956.491898,842.705048
163535.522718,2368.659014,-11029.068536,3370.820191
163535.523038,1628.453072,-9326.594869,2068.457845
163535.523358,-2072.576638,-9844.739029,2298.286494
163535.523677,-370.102971,-8290.306550,-383.047749
163535.523997,222.061783,-6809.894666,-1149.143247
163535.524317,4663.297435,-8290.306550,-76.609550
163535.524637,740.205942,-9548.656652,919.314598
163535.524957,814.226536,-11251.130318,1608.800546
163535.525276,0.000000,-11103.089130,0.000000
163535.525596,-1184.329507,-9844.739029,306.438199
163535.525916,-3552.988522,-9548.656652,-2145.067394
163535.526236,-2960.823768,-7179.997637,-2451.505594
163535.526556,2294.638420,-9474.636058,-76.609550
163535.526875,2146.597232,-7105.977043,1762.019645
163535.527195,-1184.329507,-5773.606348,-2681.334243
163535.527513,2294.638420,-11251.130318,-76.609550
163535.527833,814.226536,-8808.450710,-1838.629195
163535.528153,814.226536,-11103.089130,-919.314598
163535.528473,-1628.453072,-12139.377449,-2145.067394
163535.528792,-2368.659014,-11029.068536,-2451.505594
163535.529112,-740.205942,-9474.636058,-2528.115143
163535.529432,-2072.576638,-7328.038826,-2451.505594
163535.529752,-1258.350101,-8882.471304,-3447.429741
163535.530072,0.000000,-9548.656652,-1838.629195
163535.530392,4663.297435,-10658.965565,-689.485948
163535.530711,5255.462188,-12435.459826,4826.401637
163535.531031,1110.308913,-10658.965565,-76.609550
163535.531351,-1480.411884,-10510.924376,612.876398
163535.531671,-1036.288319,-7698.141797,-1302.362347
163535.531991,518.144159,-8438.347739,383.047749
163535.532310,-74.020594,-8290.306550,-1302.362347
163535.532630,-74.020594,-12435.459826,3447.429741
163535.532950,1702.473667,-9474.636058,995.924147
163535.533270,-814.226536,-6587.832884,0.000000
163535.533590,-74.020594,-7105.977043,-2528.115143
163535.533910,-3849.070898,-9696.697840,-1455.581446
163535.534229,-2294.638420,-8290.306550,-1991.848295
163535.534549,-1184.329507,-9548.656652,0.000000
163535.534869,-296.082377,-8660.409521,-76.609550
163535.535189,-2368.659014,-10732.986159,612.876398
163535.535509,592.164754,-10436.903782,1378.971896
163535.535829,2886.803174,-10658.965565,-76.609550
163535.536148,518.144159,-9400.615463,-1302.362347
163535.536468,-3330.926739,-9548.656652,-3064.381992
163535.536788,1554.432478,-10658.965565,-76.609550
163535.537108,814.226536,-8956.491898,306.438199
163535.537428,296.082377,-7179.997637,-1608.800546
163535.537747,-888.247130,-9844.739029,-536.266849
163535.538067,1184.329507,-8660.409521,0.000000
163535.538387,1702.473667,-10214.842000,0.000000
163535.538707,0.000000,-9844.739029,-1225.752797
163535.539027,-1258.350101,-12879.583391,1225.752797
163535.539347,-74.020594,-11843.295072,1762.019645
163535.539666,-370.102971,-6809.894666,-2374.896044
163535.539986,1406.391290,-7105.977043,-306.438199
163535.540306,-666.185348,-8956.491898,536.266849
163535.540626,1924.535449,-10066.800811,2298.286494
163535.540946,2590.720797,-11251.130318,4519.963438
163535.541265,296.082377,-8586.388927,2068.457845
163535.541585,-4811.338623,-8882.471304,-995.924147
163535.541905,-4145.153275,-6439.791695,-4366.744339
163535.542225,0.000000,-8956.491898,0.000000
163535.542545,592.164754,-7476.080014,0.000000
163535.542865,-1258.350101,-9326.594869,-383.047749
163535.543184,-740.205942,-9178.553681,1072.533697
163535.543504,-222.061783,-9696.697840,536.266849
163535.543824,1480.411884,-8364.327145,-536.266849
163535.544144,-74.020594,-11843.295072,-76.609550
163535.544464,0.000000,-10214.842000,1455.581446
163535.544784,518.144159,-11843.295072,2374.896044
163535.545103,1406.391290,-6661.853478,-1455.581446
163535.545423,-2812.782580,-8956.491898,-1225.752797
163535.545743,-3552.988522,-9548.656652,-2451.505594
163535.546063,-74.020594,-10362.883188,-383.047749
163535.546383,1184.329507,-9696.697840,306.438199
163535.546702,-2516.700203,-9770.718434,-1072.533697
163535.547022,-2146.597232,-9992.780217,-842.705048
163535.547342,1184.329507,-10658.965565,1225.752797
163535.547662,592.164754,-6587.832884,612.876398
163535.547982,-74.020594,-9400.615463,-76.609550
163535.548302,-962.267725,-9252.574275,842.705048
163535.548621,1110.308913,-8290.306550,-1838.629195
163535.548941,4071.132681,-10066.800811,-383.047749
163535.549261,-666.185348,-10881.027347,-229.828649
163535.549581,-3330.926739,-11029.068536,0.000000
163535.549901,-2368.659014,-8882.471304,-1378.971896
163535.550221,592.164754,-8660.409521,-76.609550
163535.550540,-1628.453072,-8586.388927,-3753.867940
163535.550860,-666.185348,-11251.130318,-229.828649
163535.551180,74.020594,-8586.388927,-76.609550
163535.551500,1776.494261,-8660.409521,2757.943793
163535.551820,2886.803174,-9474.636058,-76.609550
163535.552139,-1480.411884,-9548.656652,229.828649
163535.552459,-148.041188,-8216.285956,-995.924147
163535.552779,2072.576638,-8512.368333,1149.143247
163535.553099,1110.308913,-8808.450710,-1455.581446
163535.553419,-2368.659014,-9548.656652,0.000000
163535.553739,962.267725,-10584.944971,-459.657299
163535.554058,1184.329507,-10214.842000,0.000000
163535.554378,-814.226536,-9104.533087,-2681.334243
163535.554698,-2516.700203,-11251.130318,-689.485948
163535.555018,2146.597232,-9474.636058,-76.609550
163535.555338,4071.132681,-11547.212695,2374.896044
163535.555657,814.226536,-8438.347739,-995.924147
163535.555977,-2368.659014,-9548.656652,0.000000
163535.556297,0.000000,-8364.327145,1225.752797
163535.556617,0.000000,-6291.750507,0.000000
163535.556937,148.041188,-6735.874072,-2221.676944
163535.557257,-2590.720797,-9474.636058,-1225.752797
163535.557576,-888.247130,-9844.739029,-2374.896044
163535.557896,1036.288319,-11325.150913,-229.828649
163535.558216,-1258.350101,-11251.130318,-3140.991542
163535.558536,-4441.235652,-15026.180623,-536.266849
163535.558856,-1776.494261,-13249.686362,-76.609550
163535.559176,-74.020594,-11251.130318,1762.019645
163535.559495,0.000000,-4811.338623,0.000000
163535.559815,-1628.453072,-5847.626942,-995.924147
163535.560135,1850.514855,-5773.606348,-612.876398
163535.560455,3108.864956,-7254.018232,1378.971896
163535.560775,1776.494261,-9178.553681,-1149.143247
163535.561094,-2442.679609,-12953.603985,-76.609550
163535.561414,-2146.597232,-10584.944971,-995.924147
163535.561734,0.000000,-10732.986159,1532.190996
163535.562054,1998.556043,-8808.450710,-153.219100
163535.562374,-1850.514855,-8142.265362,-76.609550
163535.562694,0.000000,-5403.503377,0.000000
163535.563013,2738.761985,-7920.203579,536.266849
163535.563333,2146.597232,-9178.553681,-766.095498
163535.563653,-3330.926739,-11325.150913,0.000000
163535.563973,-1554.432478,-9030.512492,-1302.362347
163535.564293,1702.473667,-9474.636058,-76.609550
163535.564613,2294.638420,-7105.977043,-842.705048
163535.564932,-2516.700203,-6735.874072,-1838.629195
163535.565252,-1184.329507,-7179.997637,-2298.286494
163535.565572,1924.535449,-10732.986159,2145.067394
163535.565892,0.000000,-9548.656652,-2451.505594
163535.566212,-3627.009116,-13767.830521,-1685.410096
163535.566531,-3108.864956,-11473.192101,-1532.190996
163535.566851,-888.247130,-9770.718434,0.000000
163535.567171,2886.803174,-7994.224174,-383.047749
163535.567491,296.082377,-6587.832884,-536.266849
163535.567811,2294.638420,-7994.224174,-76.609550
163535.568131,2886.803174,-9474.636058,-76.609550
163535.568450,2220.617826,-9104.533087,-1532.190996
163535.568770,-1776.494261,-13101.645173,306.438199
163535.569090,-2368.659014,-11917.315666,-612.876398
163535.569410,-1776.494261,-10807.006753,-689.485948
163535.569730,888.247130,-8956.491898,76.609550
163535.570049,-666.185348,-8364.327145,0.000000
163535.570369,296.082377,-6143.709319,0.000000
163535.570689,1776.494261,-6291.750507,1838.629195
163535.571009,2664.741391,-7179.997637,2604.724693
163535.571329,-74.020594,-9474.636058,-76.609550
163535.571649,-1554.432478,-12731.542202,2374.896044
163535.571968,-2368.659014,-9548.656652,1532.190996
163535.572288,-518.144159,-9474.636058,842.705048
163535.572608,-2960.823768,-7920.203579,-1991.848295
163535.572928,-3330.926739,-8808.450710,-995.924147
163535.573248,-2442.679609,-7179.997637,-4443.353888
163535.573568,518.144159,-7920.203579,-689.485948
163535.573887,-74.020594,-10066.800811,-1915.238745
163535.574207,-3552.988522,-11029.068536,0.000000
163535.574527,-296.082377,-10510.924376,-76.609550
163535.574847,1702.473667,-11843.295072,3600.648841
163535.575167,-2072.576638,-7179.997637,-1838.629195
163535.575486,-962.267725,-8956.491898,-995.924147
163535.575806,740.205942,-7476.080014,-2068.457845
163535.576126,2146.597232,-10140.821405,0.000000
163535.576446,1110.308913,-10066.800811,-2068.457845
163535.576766,-74.020594,-14211.954086,1838.629195
163535.577086,814.226536,-11103.089130,-689.485948
163535.577405,222.061783,-10658.965565,-76.609550
163535.577725,-1776.494261,-6291.750507,-2451.505594
163535.578045,1110.308913,-11251.130318,3600.648841
163535.578365,2368.659014,-5847.626942,0.000000
163535.578685,3182.885551,-7476.080014,1532.190996
163535.579005,1110.308913,-8808.450710,-1302.362347
163535.579324,-2960.823768,-10732.986159,0.000000
163535.579644,-1776.494261,-9548.656652,-2451.505594
163535.579964,-1406.391290,-11917.315666,1225.752797
163535.580284,-666.185348,-10658.965565,-76.609550
163535.580604,-3034.844362,-8586.388927,-689.485948
163535.580923,-74.020594,-4737.318029,-1302.362347
163535.581243,2886.803174,-6217.729913,-76.609550
163535.581563,1776.494261,-7402.059420,-1225.752797
163535.581883,222.061783,-11917.315666,842.705048
163535.582203,1406.391290,-12213.398043,1072.533697
163535.582523,-2368.659014,-10732.986159,2451.505594
163535.582842,-2960.823768,-7254.018232,-2451.505594
163535.583162,-7994.224174,-5995.668130,-4903.011187
163535.583482,0.000000,-7179.997637,-3217.601092
163535.583802,4071.132681,-9474.636058,-612.876398
163535.584122,3478.967927,-9474.636058,-2221.676944
163535.584441,-222.061783,-13323.706956,766.095498
163535.584761,-1480.411884,-11843.295072,-919.314598
163535.585081,-2960.823768,-11621.233289,-612.876398
163535.585401,-1036.288319,-8290.306550,-1378.971896
163535.585721,-3256.906145,-7179.997637,0.000000
163535.586041,1110.308913,-4293.194464,0.000000
163535.586360,592.164754,-5699.585753,0.000000
163535.586680,1850.514855,-8660.409521,-2451.505594
163535.587000,-740.205942,-11695.253884,-2528.115143
163535.587320,-666.185348,-13619.789333,-1302.362347
163535.587640,-2960.823768,-12509.480420,-842.705048
163535.587960,-2368.659014,-10362.883188,-1762.019645
163535.588279,-4737.318029,-8512.368333,-1762.019645
163535.588599,-296.082377,-5699.585753,1532.190996
163535.588919,2294.638420,-6069.688724,76.609550
163535.589239,4663.297435,-6957.935855,383.047749
163535.589559,666.185348,-8734.430116,-76.609550
163535.589878,0.000000,-11917.315666,2451.505594
163535.590198,-74.020594,-11843.295072,-76.609550
163535.590518,-2368.659014,-12139.377449,-536.266849
163535.590838,-4219.173869,-9622.677246,-3677.258390
163535.591158,-888.247130,-9178.553681,-153.219100
163535.591478,1184.329507,-7402.059420,-919.314598
163535.591797,1406.391290,-4811.338623,0.000000
163535.592117,814.226536,-9622.677246,-689.485948
163535.592437,444.123565,-10362.883188,1072.533697
163535.592757,888.247130,-10881.027347,229.828649
163535.593077,1406.391290,-10658.965565,3600.648841
163535.593396,-74.020594,-9474.636058,1685.410096
163535.593716,814.226536,-9474.636058,2987.772442
163535.594036,1702.473667,-5477.523971,-383.047749
163535.594356,2368.659014,-7179.997637,0.000000
163535.594676,592.164754,-9548.656652,0.000000
163535.594996,-1850.514855,-10881.027347,0.000000
163535.595315,-962.267725,-13323.706956,-229.828649
163535.595635,-1702.473667,-11843.295072,766.095498
163535.595955,-3923.091493,-9474.636058,-1991.848295
163535.596275,-2738.761985,-9104.533087,612.876398
163535.596595,-74.020594,-4737.318029,-1302.362347
163535.596915,3478.967927,-6735.874072,2681.334243
163535.597234,3478.967927,-9178.553681,-76.609550
163535.597554,518.144159,-10584.944971,689.485948
163535.597874,0.000000,-10732.986159,612.876398
163535.598194,-2368.659014,-12509.480420,383.047749
163535.598514,-4293.194464,-11621.233289,-2834.553343
163535.598833,-6735.874072,-10732.986159,-1915.238745
163535.599153,-3478.967927,-7105.977043,-2221.676944
163535.599473,1702.473667,-5773.606348,-689.485948
163535.599793,2590.720797,-5107.421000,-2528.115143
163535.600113,0.000000,-8364.327145,0.000000
163535.600433,1184.329507,-11621.233289,1838.629195
163535.600752,518.144159,-13027.624579,1915.238745
163535.601072,-2368.659014,-10140.821405,1762.019645
163535.601392,-5625.565159,-8438.347739,-459.657299
163535.601712,-2146.597232,-6069.688724,-1915.238745
163535.602032,2368.659014,-6291.750507,383.047749
163535.602352,2368.659014,-5403.503377,-1838.629195
163535.602671,0.000000,-10140.821405,153.219100
163535.602991,-1110.308913,-11029.068536,-1838.629195
163535.603311,-3552.988522,-11029.068536,0.000000
163535.603631,-3256.906145,-7179.997637,-5132.839837
163535.603951,-4219.173869,-9474.636058,-1302.362347
163535.604270,-1184.329507,-8364.327145,-1532.190996
163535.604590,3701.029710,-7254.018232,459.657299
163535.604910,4663.297435,-7105.977043,383.047749
163535.605230,-444.123565,-9844.739029,0.000000
163535.605550,-2442.679609,-9548.656652,-1608.800546
163535.605870,-666.185348,-13027.624579,-1302.362347
163535.606189,-74.020594,-11251.130318,-1915.238745
163535.606509,-2146.597232,-13027.624579,-76.609550
163535.606829,814.226536,-8290.306550,-995.924147
163535.607149,4663.297435,-8882.471304,2374.896044
163535.607469,2664.741391,-5255.462188,-1532.190996
163535.607788,-370.102971,-9104.533087,-2298.286494
163535.608108,1184.329507,-10955.047942,-153.219100
163535.608428,962.267725,-11621.233289,612.876398
163535.608748,592.164754,-11029.068536,1225.752797
163535.609068,-3552.988522,-10732.986159,-766.095498
163535.609388,-370.102971,-11399.171507,1762.019645
163535.609707,1110.308913,-6513.812290,536.266849
163535.610027,2516.700203,-4515.256246,0.000000
163535.610347,-74.020594,-9474.636058,-76.609550
163535.610667,-740.205942,-10066.800811,306.438199
163535.610987,-444.123565,-11103.089130,995.924147
163535.611307,0.000000,-10732.986159,919.314598
163535.611626,-7105.977043,-7476.080014,-2451.505594
163535.611946,-8290.306550,-7179.997637,-2451.505594
163535.612266,-4219.173869,-4811.338623,-4519.963438
163535.612586,1184.329507,-7179.997637,0.000000
163535.612906,1702.473667,-9178.553681,0.000000
163535.613225,2294.638420,-11843.295072,2987.772442
163535.613545,888.247130,-11917.315666,2145.067394
163535.613865,148.041188,-11029.068536,383.047749
163535.614185,-3701.029710,-9474.636058,-2604.724693
163535.614505,-3923.091493,-9992.780217,-612.876398
163535.614825,0.000000,-5995.668130,-2145.067394
163535.615144,4663.297435,-8290.306550,1762.019645
163535.615464,1554.432478,-6883.915261,-1608.800546
163535.615784,0.000000,-9548.656652,-2451.505594
163535.616104,0.000000,-12065.356855,0.000000
163535.616424,2294.638420,-12435.459826,-76.609550
163535.616744,-2368.659014,-10732.986159,-1685.410096
163535.617063,-3849.070898,-11843.295072,536.266849
163535.617383,-148.041188,-6809.894666,-76.609550
163535.617703,4663.297435,-7328.038826,3983.696590
163535.618023,2886.803174,-4219.173869,306.438199
163535.618343,1702.473667,-9030.512492,1149.143247
163535.618662,814.226536,-13027.624579,-76.609550
163535.618982,0.000000,-10807.006753,0.000000
163535.619302,-3552.988522,-10732.986159,-3064.381992
163535.619622,-3627.009116,-13619.789333,-76.609550
163535.619942,-2812.782580,-7179.997637,-1302.362347
163535.620262,444.123565,-4811.338623,-76.609550
163535.620581,1924.535449,-4219.173869,-3140.991542
163535.620901,296.082377,-9548.656652,1838.629195
163535.621221,2368.659014,-11177.109724,612.876398
163535.621541,1184.329507,-11917.315666,2757.943793
163535.621861,-666.185348,-11843.295072,-76.609550
163535.622180,-6957.935855,-10436.903782,-2145.067394
163535.622500,-3034.844362,-6069.688724,-3753.867940
163535.622820,2738.761985,-7254.018232,842.705048
163535.623140,4145.153275,-5033.400406,-536.266849
163535.623460,962.267725,-9548.656652,536.266849
163535.623780,1628.453072,-10658.965565,-76.609550
163535.624099,0.000000,-11325.150913,0.000000
163535.624419,-2442.679609,-10362.883188,-3370.820191
163535.624739,-8290.306550,-11917.315666,-1838.629195
163535.625059,-3478.967927,-9252.574275,-306.438199
163535.625379,-74.020594,-6809.894666,-76.609550
163535.625699,5551.544565,-6957.935855,-76.609550
163535.626018,740.205942,-7846.182985,459.657299
163535.626338,2368.659014,-10140.821405,1302.362347
163535.626658,296.082377,-11843.295072,1762.019645
163535.626978,-4737.318029,-9548.656652,0.000000
163535.627298,-7994.224174,-11029.068536,-3677.258390
163535.627617,-3923.091493,-10658.965565,-2145.067394
163535.627937,-222.061783,-7105.977043,-1302.362347
163535.628257,1998.556043,-5477.523971,-1762.019645
163535.628577,0.000000,-10140.821405,1378.971896
163535.628897,0.000000,-9918.759623,0.000000
163535.629216,-74.020594,-11547.212695,0.000000
163535.629536,0.000000,-10584.944971,-612.876398
163535.629856,-3997.112087,-11251.130318,-2145.067394
163535.630176,-370.102971,-8882.471304,-383.047749
163535.630496,2072.576638,-6439.791695,842.705048
163535.630816,3552.988522,-5921.647536,2834.553343
163535.631135,222.061783,-5625.565159,-1532.190996
163535.631455,3330.926739,-10658.965565,1762.019645
163535.631775,2960.823768,-12287.418637,1149.143247
163535.632095,1480.411884,-13101.645173,1225.752797
163535.632415,-3182.885551,-13915.871710,-842.705048
163535.632734,-3478.967927,-13915.871710,-76.609550
163535.633054,-3404.947333,-5995.668130,-2451.505594
163535.633374,3478.967927,-6809.894666,536.266849
163535.633694,592.164754,-5403.503377,-766.095498
163535.634014,3108.864956,-8142.265362,2374.896044
163535.634333,3404.947333,-8956.491898,1685.410096
163535.634653,1480.411884,-11251.130318,2298.286494
163535.634973,-4071.132681,-11843.295072,-1302.362347
163535.635293,-6809.894666,-10732.986159,-1532.190996
163535.635613,-6365.771101,-6587.832884,-4903.011187
163535.635932,0.000000,-7476.080014,-919.314598
163535.636252,-1850.514855,-5995.668130,-4903.011187
163535.636572,1702.473667,-11843.295072,1149.143247
163535.636892,1406.391290,-10436.903782,536.266849
163535.637212,962.267725,-11473.192101,2221.676944
163535.637532,-4071.132681,-10584.944971,-2221.676944
163535.637851,-3627.009116,-11843.295072,-76.609550
163535.638171,-1258.350101,-6291.750507,-76.609550
163535.638491,4663.297435,-7105.977043,2374.896044
163535.638811,1184.329507,-4219.173869,-1225.752797
163535.639131,1924.535449,-10140.821405,2451.505594
163535.639450,370.102971,-9548.656652,-1991.848295
163535.639770,370.102971,-13471.748144,2757.943793
163535.640090,-3923.091493,-10807.006753,-1838.629195
163535.640410,-6291.750507,-10214.842000,-1072.533697
163535.640730,-1258.350101,-9474.636058,-1302.362347
163535.641049,3478.967927,-7772.162391,306.438199
163535.641369,2960.823768,-6291.750507,1838.629195
163535.641689,3182.885551,-9474.636058,4826.401637
163535.642009,3478.967927,-10584.944971,2987.772442
163535.642329,-3552.988522,-8364.327145,0.000000
163535.642648,-3627.009116,-10362.883188,-4060.306139
163535.642968,-4737.318029,-12509.480420,-1915.238745
163535.643288,-1480.411884,-9918.759623,-1762.019645
163535.643608,0.000000,-8956.491898,-383.047749
163535.643928,296.082377,-7772.162391,-2145.067394
163535.644248,-3256.906145,-8956.491898,-1838.629195
163535.644567,592.164754,-9178.553681,-1838.629195
163535.644887,1184.329507,-10140.821405,1225.752797
163535.645207,3256.906145,-10955.047942,-689.485948
163535.645527,-4145.153275,-7179.997637,0.000000
163535.645847,740.205942,-8586.388927,-1302.362347
163535.646166,518.144159,-8808.450710,-612.876398
163535.646486,2294.638420,-9030.512492,-1302.362347
163535.646806,148.041188,-10362.883188,-76.609550
163535.647126,2294.638420,-10807.006753,1149.143247
163535.647446,-1332.370696,-9104.533087,0.000000
163535.647765,-1258.350101,-8142.265362,-3753.867940
163535.648085,-4737.318029,-9548.656652,-2298.286494
163535.648405,0.000000,-8364.327145,1532.190996
163535.648725,-1776.494261,-6291.750507,612.876398
163535.649045,814.226536,-5477.523971,612.876398
163535.649364,-1776.494261,-7328.038826,229.828649
163535.649684,592.164754,-8068.244768,1378.971896
163535.650004,2294.638420,-9178.553681,-76.609550
163535.650324,2294.638420,-10658.965565,1532.190996
163535.650644,-2072.576638,-11843.295072,-76.609550
163535.650964,-2738.761985,-10510.924376,-1915.238745
163535.651283,-4737.318029,-7846.182985,-2834.553343
163535.651603,-2368.659014,-7772.162391,-1838.629195
163535.651923,-3034.844362,-8586.388927,-2834.553343
163535.652243,1924.535449,-9252.574275,0.000000
163535.652563,2664.741391,-9548.656652,1378.971896
163535.652882,3404.947333,-10288.862594,1532.190996
163535.653202,-74.020594,-11547.212695,-76.609550
163535.653522,-3552.988522,-9548.656652,0.000000
163535.653842,-1258.350101,-9474.636058,-1378.971896
163535.654162,444.123565,-9474.636058,-76.609550
163535.654481,-666.185348,-8734.430116,-1915.238745
163535.654801,1184.329507,-10732.986159,2451.505594
163535.655121,1702.473667,-9474.636058,536.266849
163535.655441,1628.453072,-10066.800811,1302.362347
163535.655761,-2368.659014,-8956.491898,-2451.505594
163535.656080,-2146.597232,-7920.203579,-2068.457845
163535.656400,-1258.350101,-8142.265362,-1455.581446
163535.656720,0.000000,-8512.368333,1072.533697
163535.657040,-2072.576638,-7772.162391,0.000000
163535.657360,2294.638420,-11103.089130,4213.525239
163535.657680,2442.679609,-8290.306550,2374.896044
163535.657999,0.000000,-8364.327145,1225.752797
163535.658319,-2220.617826,-8068.244768,-1608.800546
163535.658639,-3034.844362,-9474.636058,0.000000
163535.658959,-1332.370696,-7624.121203,-1991.848295
163535.659279,-74.020594,-8290.306550,-1915.238745
163535.659598,-1332.370696,-8734.430116,-1302.362347
163535.659918,-1554.432478,-9030.512492,0.000000
163535.660238,0.000000,-7476.080014,0.000000
163535.660558,1332.370696,-8660.409521,0.000000
163535.660878,-2960.823768,-4811.338623,-4290.134789
163535.661197,-1850.514855,-10362.883188,-383.047749
163535.661517,666.185348,-9474.636058,-919.314598
163535.661837,1258.350101,-11103.089130,1685.410096
163535.662157,-740.205942,-9474.636058,-995.924147
163535.662477,-2368.659014,-11029.068536,459.657299
163535.662796,-1776.494261,-5995.668130,-2451.505594
163535.663116,2146.597232,-9474.636058,842.705048
163535.663436,4071.132681,-11251.130318,-76.609550
163535.663756,-3182.885551,-8364.327145,-2451.505594
163535.664076,-74.020594,-9474.636058,-229.828649
163535.664396,-2146.597232,-9400.615463,-995.924147
163535.664715,-1332.370696,-8586.388927,-3370.820191
163535.665035,-2738.761985,-12139.377449,-459.657299
163535.665355,2368.659014,-11029.068536,3064.381992
163535.665675,2368.659014,-10955.047942,3064.381992
163535.665995,962.267725,-7698.141797,-76.609550
163535.666314,-3034.844362,-9178.553681,-2528.115143
163535.666634,-2960.823768,-7476.080014,-2451.505594
163535.666954,1998.556043,-9474.636058,-76.609550
163535.667274,1480.411884,-9030.512492,0.000000
163535.667594,-1776.494261,-9104.533087,229.828649
163535.667913,0.000000,-7994.224174,-306.438199
163535.668233,-74.020594,-8364.327145,459.657299
163535.668553,0.000000,-4811.338623,-3677.258390
163535.668873,-1702.473667,-10510.924376,-689.485948
163535.669193,0.000000,-9622.677246,-306.438199
163535.669512,-740.205942,-10658.965565,383.047749
163535.669832,2294.638420,-10955.047942,-76.609550
163535.670152,-1258.350101,-9474.636058,-689.485948
163535.670472,592.164754,-8956.491898,2451.505594
163535.670792,2886.803174,-8290.306550,2374.896044
163535.671112,4663.297435,-8882.471304,-76.609550
163535.671431,-2368.659014,-8364.327145,1225.752797
163535.671751,-962.267725,-8660.409521,153.219100
163535.672071,-962.267725,-9474.636058,0.000000
163535.672391,222.061783,-9622.677246,-383.047749
163535.672711,-3627.009116,-9474.636058,-2068.457845
163535.673030,-666.185348,-10510.924376,-76.609550
163535.673350,-74.020594,-9992.780217,229.828649
163535.673670,2738.761985,-10658.965565,1838.629195
163535.673990,-1258.350101,-11251.130318,-76.609550
163535.674310,-1258.350101,-9474.636058,-76.609550
163535.674629,-3552.988522,-5995.668130,0.000000
163535.674949,518.144159,-7994.224174,-842.705048
163535.675269,-2368.659014,-8290.306550,-1915.238745
163535.675589,0.000000,-10362.883188,1532.190996
163535.675909,1184.329507,-8438.347739,-689.485948
163535.676228,3478.967927,-10214.842000,-76.609550
163535.676548,-2738.761985,-9474.636058,-1915.238745
163535.676868,-4145.153275,-9548.656652,0.000000
163535.677188,-592.164754,-8142.265362,-536.266849
163535.677508,4071.132681,-10214.842000,3600.648841
163535.677828,-2368.659014,-5403.503377,0.000000
163535.678147,518.144159,-9252.574275,2451.505594
163535.678467,888.247130,-8660.409521,153.219100
163535.678787,1850.514855,-8956.491898,1915.238745
163535.679107,-1554.432478,-8290.306550,-1378.971896
163535.679427,-2442.679609,-9548.656652,1225.752797
163535.679746,-74.020594,-10362.883188,-383.047749
163535.680066,1702.473667,-9770.718434,1455.581446
163535.680386,-74.020594,-9474.636058,-1302.362347
163535.680706,-2368.659014,-11917.315666,3983.696590
163535.681026,-1776.494261,-7772.162391,-2145.067394
163535.681345,-222.061783,-9474.636058,766.095498
163535.681665,-1924.535449,-7846.182985,-3064.381992
163535.681985,-2664.741391,-10362.883188,306.438199
163535.682305,518.144159,-8956.491898,-2451.505594
163535.682625,1184.329507,-9548.656652,1225.752797
163535.682944,-74.020594,-8290.306550,-689.485948
163535.683264,-2442.679609,-9474.636058,-1608.800546
163535.683584,-1036.288319,-8660.409521,-2528.115143
163535.683904,1184.329507,-10140.821405,2451.505594
163535.684224,1184.329507,-9844.739029,-2528.115143
163535.684544,-1184.329507,-12805.562797,919.314598
163535.684863,740.205942,-9252.574275,-1608.800546
163535.685183,-1110.308913,-7179.997637,76.609550
163535.685503,74.020594,-6513.812290,-3370.820191
163535.685823,-2368.659014,-8068.244768,-2221.676944
163535.686143,0.000000,-7772.162391,612.876398
163535.686462,3849.070898,-9326.594869,4366.744339
163535.686782,4367.215058,-9474.636058,2374.896044
163535.687102,-3552.988522,-8364.327145,1225.752797
163535.687422,-1184.329507,-7772.162391,-1762.019645
163535.687742,-1110.308913,-8438.347739,-766.095498
163535.688061,-148.041188,-8290.306550,-2298.286494
163535.688381,-3330.926739,-10362.883188,-842.705048
163535.688701,-74.020594,-13027.624579,2374.896044
163535.689021,-74.020594,-10362.883188,995.924147
163535.689341,-1776.494261,-7772.162391,-1072.533697
163535.689660,-7105.977043,-6291.750507,-3677.258390
163535.689980,518.144159,-9474.636058,-76.609550
163535.690300,0.000000,-8142.265362,-1455.581446
163535.690620,2220.617826,-9474.636058,-766.095498
163535.690940,-2664.741391,-10066.800811,-1072.533697
163535.691260,-740.205942,-11029.068536,0.000000
163535.691579,-74.020594,-11103.089130,-2451.505594
163535.691899,592.164754,-11325.150913,-1072.533697
163535.692219,-1850.514855,-11251.130318,-919.314598
163535.692539,2294.638420,-12435.459826,-76.609550
163535.692859,1110.308913,-8882.471304,-689.485948
163535.693178,3034.844362,-9622.677246,995.924147
163535.693498,-2146.597232,-8216.285956,-2911.162892
163535.693818,0.000000,-10436.903782,-612.876398
163535.694138,222.061783,-9696.697840,76.609550
163535.694458,0.000000,-8364.327145,0.000000
163535.694777,-2960.823768,-7476.080014,-612.876398
163535.695097,-1184.329507,-7179.997637,0.000000
163535.695417,0.000000,-7179.997637,0.000000
163535.695737,3478.967927,-8882.471304,1455.581446
163535.696057,-74.020594,-9474.636058,-76.609550
163535.696376,962.267725,-10658.965565,3370.820191
163535.696696,-1258.350101,-8364.327145,612.876398
163535.697016,592.164754,-9548.656652,1991.848295
163535.697336,-2220.617826,-8216.285956,-1149.143247
163535.697656,-2368.659014,-7179.997637,612.876398
163535.697976,370.102971,-5477.523971,-1608.800546
163535.698295,0.000000,-7179.997637,612.876398
163535.698615,-888.247130,-8734.430116,-1915.238745
163535.698935,-1184.329507,-10658.965565,-76.609550
163535.699255,0.000000,-10732.986159,2451.505594
163535.699575,1110.308913,-11917.315666,2374.896044
163535.699894,-1850.514855,-9696.697840,-383.047749
163535.700214,-2886.803174,-8956.491898,689.485948
163535.700534,-1850.514855,-4811.338623,-2987.772442
163535.700854,1776.494261,-8068.244768,76.609550
163535.701174,1776.494261,-9400.615463,-689.485948
163535.701493,592.164754,-13619.789333,3140.991542
163535.701813,-74.020594,-11547.212695,-76.609550
163535.702133,-4737.318029,-9548.656652,0.000000
163535.702453,-3627.009116,-7402.059420,-2528.115143
163535.702773,-2960.823768,-8808.450710,0.000000
163535.703092,444.123565,-5773.606348,-1149.143247
163535.703412,2220.617826,-7179.997637,1302.362347
163535.703732,4071.132681,-10658.965565,-76.609550
163535.704052,-1406.391290,-12509.480420,1225.752797
163535.704372,-1628.453072,-12065.356855,-689.485948
163535.704691,-3034.844362,-12361.439231,1302.362347
163535.705011,-3404.947333,-8068.244768,-2451.505594
163535.705331,-5921.647536,-6587.832884,-2451.505594
163535.705651,-962.267725,-4811.338623,-3677.258390
163535.705971,2368.659014,-7772.162391,919.314598
163535.706291,2886.803174,-8660.409521,-76.609550
163535.706610,-888.247130,-10066.800811,-383.047749
163535.706930,1702.473667,-11843.295072,-76.609550
163535.707250,-1702.473667,-10436.903782,0.000000
163535.707570,0.000000,-9030.512492,-1532.190996
