#time,accel_x,accel_y,accel_z
59309.933363,148.041188,-9844.739029,1532.190996
59309.933672,-222.061783,-9474.636058,689.485948
59309.933982,-296.082377,-8956.491898,995.924147
59309.934292,-814.226536,-9104.533087,612.876398
59309.934602,-962.267725,-7698.141797,0.000000
59309.934911,-2368.659014,-6143.709319,0.000000
59309.935221,-1184.329507,-8364.327145,0.000000
59309.935531,2294.638420,-11843.295072,2374.896044
59309.935841,-2368.659014,-7772.162391,0.000000
59309.936150,-74.020594,-11843.295072,3600.648841
59309.936460,-1184.329507,-8364.327145,612.876398
59309.936770,-370.102971,-9178.553681,689.485948
59309.937080,-370.102971,-9252.574275,1072.533697
59309.937389,-444.123565,-8882.471304,536.266849
59309.937699,-74.020594,-8882.471304,-76.609550
59309.938009,-666.185348,-7846.182985,-689.485948
59309.938319,-962.267725,-7772.162391,-2451.505594
59309.938628,888.247130,-10881.027347,2757.943793
59309.938938,-962.267725,-8068.244768,0.000000
59309.939248,888.247130,-9844.739029,3064.381992
59309.939558,-1776.494261,-7772.162391,0.000000
59309.939868,-370.102971,-9252.574275,1149.143247
59309.940177,-296.082377,-9326.594869,995.924147
59309.940487,-296.082377,-8956.491898,995.924147
59309.940797,-74.020594,-10658.965565,2374.896044
59309.941107,-74.020594,-9474.636058,-76.609550
59309.941416,-74.020594,-8290.306550,-689.485948
59309.941726,0.000000,-9548.656652,1225.752797
59309.942036,-74.020594,-9474.636058,1149.143247
59309.942346,-2368.659014,-7179.997637,0.000000
59309.942655,-1406.391290,-8290.306550,0.000000
59309.942965,-592.164754,-9252.574275,612.876398
59309.943275,-518.144159,-9178.553681,842.705048
59309.943585,-518.144159,-8882.471304,919.314598
59309.943894,1406.391290,-10658.965565,3600.648841
59309.944204,2294.638420,-11251.130318,1762.019645
59309.944514,-74.020594,-9474.636058,-76.609550
59309.944824,-2368.659014,-7179.997637,0.000000
59309.945133,-74.020594,-10510.924376,1762.019645
59309.945443,-3552.988522,-7179.997637,0.000000
59309.945753,-74.020594,-8586.388927,-76.609550
59309.946063,-814.226536,-9030.512492,536.266849
59309.946372,0.000000,-9178.553681,766.095498
59309.946682,-370.102971,-9178.553681,919.314598
59309.946992,0.000000,-9844.739029,2757.943793
59309.947302,1924.535449,-11251.130318,2911.162892
59309.947611,1110.308913,-10658.965565,2374.896044
59309.947921,-2220.617826,-7179.997637,0.000000
59309.948231,444.123565,-9992.780217,2068.457845
59309.948541,-1406.391290,-6957.935855,-995.924147
59309.948850,-74.020594,-9474.636058,1149.143247
59309.949160,-370.102971,-9104.533087,612.876398
59309.949470,-296.082377,-9400.615463,1149.143247
59309.949780,-370.102971,-8956.491898,459.657299
59309.950090,-1776.494261,-8364.327145,1225.752797
59309.950399,0.000000,-9548.656652,2451.505594
59309.950709,1110.308913,-11843.295072,3600.648841
59309.951019,-2072.576638,-7179.997637,0.000000
59309.951329,0.000000,-9844.739029,1838.629195
59309.951638,-74.020594,-8882.471304,-76.609550
59309.951948,740.205942,-10066.800811,1762.019645
59309.952258,-518.144159,-9104.533087,842.705048
59309.952568,-592.164754,-8734.430116,383.047749
59309.952877,-592.164754,-8734.430116,689.485948
59309.953187,-2368.659014,-6291.750507,0.000000
59309.953497,-2368.659014,-7772.162391,0.000000
59309.953807,0.000000,-9844.739029,3064.381992
59309.954116,-74.020594,-8882.471304,-76.609550
59309.954426,0.000000,-8956.491898,1225.752797
59309.954736,-74.020594,-10658.965565,2374.896044
59309.955046,0.000000,-9770.718434,1838.629195
59309.955355,-370.102971,-8882.471304,612.876398
59309.955665,-222.061783,-9030.512492,842.705048
59309.955975,-74.020594,-9104.533087,766.095498
59309.956285,-962.267725,-7476.080014,0.000000
59309.956594,0.000000,-7179.997637,0.000000
59309.956904,0.000000,-7179.997637,0.000000
59309.957214,3478.967927,-10658.965565,2374.896044
59309.957524,0.000000,-7476.080014,0.000000
59309.957833,4367.215058,-11695.253884,4213.525239
59309.958143,1184.329507,-8660.409521,919.314598
59309.958453,2294.638420,-9474.636058,995.924147
59309.958763,2516.700203,-9326.594869,766.095498
59309.959072,2812.782580,-9548.656652,1072.533697
59309.959382,3478.967927,-9178.553681,536.266849
59309.959692,1702.473667,-7994.224174,-76.609550
59309.960002,0.000000,-7179.997637,0.000000
59309.960312,5255.462188,-11103.089130,2374.896044
59309.960621,2664.741391,-7920.203579,612.876398
59309.960931,5329.482782,-9548.656652,2757.943793
59309.961241,3701.029710,-7772.162391,612.876398
59309.961551,5625.565159,-8956.491898,1838.629195
59309.961860,6069.688724,-8808.450710,1378.971896
59309.962170,5107.421000,-8734.430116,1149.143247
59309.962480,7920.203579,-9474.636058,-76.609550
59309.962790,7031.956449,-9474.636058,-76.609550
59309.963099,2738.761985,-6291.750507,-2451.505594
59309.963409,6513.812290,-10140.821405,1225.752797
59309.963719,6439.791695,-9474.636058,-383.047749
59309.964029,4737.318029,-9548.656652,612.876398
59309.964338,4367.215058,-11103.089130,-689.485948
59309.964648,3404.947333,-12509.480420,0.000000
59309.964958,2368.659014,-12287.418637,76.609550
59309.965268,2146.597232,-11029.068536,153.219100
59309.965577,3997.112087,-11251.130318,2987.772442
59309.965887,4663.297435,-8290.306550,2604.724693
59309.966197,5847.626942,-5921.647536,1762.019645
59309.966507,4737.318029,-2442.679609,2451.505594
59309.966816,9400.615463,-4737.318029,4519.963438
59309.967126,6513.812290,-2442.679609,1225.752797
59309.967436,9252.574275,-6957.935855,2374.896044
59309.967746,5477.523971,-10288.862594,766.095498
59309.968055,296.082377,-16062.468941,-612.876398
59309.968365,-1406.391290,-18653.189738,-2987.772442
59309.968675,-3849.070898,-18431.127956,-1225.752797
59309.968985,-2812.782580,-14878.139434,-4903.011187
59309.969294,-1258.350101,-13027.624579,-76.609550
59309.969604,-1258.350101,-6513.812290,-1302.362347
59309.969914,2368.659014,-6291.750507,4749.792088
59309.970224,4367.215058,-5329.482782,2834.553343
59309.970534,5551.544565,-5921.647536,5439.278036
59309.970843,2146.597232,-5921.647536,4903.011187
59309.971153,1480.411884,-4515.256246,3370.820191
59309.971463,2664.741391,-4219.173869,3217.601092
59309.971773,2368.659014,-3627.009116,2451.505594
59309.972082,2368.659014,-5995.668130,0.000000
59309.972392,-2368.659014,-12509.480420,-1225.752797
59309.972702,-4811.338623,-18949.272115,-3140.991542
59309.973012,-9844.739029,-19023.292709,-7354.516781
59309.973321,-8364.327145,-18949.272115,-4979.620737
59309.973631,-5995.668130,-13027.624579,-2834.553343
59309.973941,-3330.926739,-8586.388927,-76.609550
59309.974251,1480.411884,-4811.338623,3447.429741
59309.974560,3701.029710,-3923.091493,6588.421283
59309.974870,1184.329507,-1258.350101,5515.887586
59309.975180,1184.329507,-1554.432478,4366.744339
59309.975490,2368.659014,-3627.009116,6128.763984
59309.975799,4663.297435,-4737.318029,4826.401637
59309.976109,0.000000,-3627.009116,0.000000
59309.976419,-1258.350101,-10658.965565,-76.609550
59309.976729,-7698.141797,-16062.468941,-3677.258390
59309.977038,-9696.697840,-20281.642811,-5745.716235
59309.977348,-10066.800811,-19245.354492,-5592.497135
59309.977658,-8956.491898,-13915.871710,-4519.963438
59309.977968,-5699.585753,-6291.750507,-3447.429741
59309.978277,0.000000,-3849.070898,-76.609550
59309.978587,0.000000,-2442.679609,2451.505594
59309.978897,3552.988522,-5699.585753,6205.373534
59309.979207,2886.803174,-4811.338623,2221.676944
59309.979516,5551.544565,-8290.306550,8427.050478
59309.979826,5033.400406,-4219.173869,4903.011187
59309.980136,5329.482782,-4367.215058,5209.449386
59309.980446,2516.700203,-5921.647536,1762.019645
59309.980756,-1850.514855,-11547.212695,-1838.629195
59309.981065,-5995.668130,-17764.942608,-4366.744339
59309.981375,-7772.162391,-18949.272115,-4979.620737
59309.981685,-10658.965565,-14285.974681,-6741.640382
59309.981995,-4737.318029,-9548.656652,-3064.381992
59309.982304,1110.308913,-7105.977043,-76.609550
59309.982614,2368.659014,-5551.544565,3983.696590
59309.982924,2960.823768,-5181.441594,3830.477490
59309.983234,4145.153275,-6661.853478,5132.839837
59309.983543,4811.338623,-5773.606348,4366.744339
59309.983853,6957.935855,-5033.400406,4826.401637
59309.984163,9400.615463,-4737.318029,4826.401637
59309.984473,5847.626942,-7105.977043,4136.915689
59309.984782,-74.020594,-9474.636058,-1455.581446
59309.985092,-5921.647536,-15174.221811,-4290.134789
59309.985402,-4959.379811,-23094.425390,-3140.991542
59309.985712,-8290.306550,-16062.468941,-4903.011187
59309.986021,-5625.565159,-12731.542202,-4213.525239
59309.986331,-1184.329507,-7550.100608,-1302.362347
59309.986641,2442.679609,-5921.647536,2298.286494
59309.986951,4293.194464,-4367.215058,4443.353888
59309.987260,6439.791695,-7698.141797,6511.811733
59309.987570,4737.318029,-6143.709319,5822.325785
59309.987880,5847.626942,-5625.565159,4826.401637
59309.988190,4737.318029,-3627.009116,4290.134789
59309.988499,5255.462188,-4737.318029,3600.648841
59309.988809,-2368.659014,-5995.668130,0.000000
59309.989119,-3034.844362,-14211.954086,-2528.115143
59309.989429,-6365.771101,-18135.045579,-4749.792088
59309.989738,-7994.224174,-18357.107362,-5745.716235
59309.990048,-7624.121203,-14656.077652,-4826.401637
59309.990358,-3256.906145,-10732.986159,-1532.190996
59309.990668,-2368.659014,-5403.503377,0.000000
59309.990978,4071.132681,-7846.182985,5132.839837
59309.991287,3478.967927,-5329.482782,4519.963438
59309.991597,2368.659014,-3627.009116,4903.011187
59309.991907,3478.967927,-3478.967927,3677.258390
59309.992217,6439.791695,-3552.988522,5822.325785
59309.992526,5033.400406,-3627.009116,4749.792088
59309.992836,1628.453072,-6587.832884,2451.505594
59309.993146,-4293.194464,-12139.377449,-1455.581446
59309.993456,-9178.553681,-16654.633695,-4903.011187
59309.993765,-12435.459826,-16654.633695,-7354.516781
59309.994075,-9474.636058,-16802.674883,-4903.011187
59309.994385,-5995.668130,-11843.295072,-3753.867940
59309.994695,-4737.318029,-5995.668130,0.000000
59309.995004,1702.473667,-7105.977043,1762.019645
59309.995314,1776.494261,-5551.544565,4519.963438
59309.995624,3108.864956,-5477.523971,5592.497135
59309.995934,4145.153275,-4367.215058,6205.373534
59309.996243,6143.709319,-2886.803174,6128.763984
59309.996553,4737.318029,-666.185348,3830.477490
59309.996863,2886.803174,-2516.700203,1762.019645
59309.997173,-1776.494261,-9548.656652,1225.752797
59309.997482,-3330.926739,-15988.448347,-1915.238745
59309.997792,-11843.295072,-16654.633695,-7354.516781
59309.998102,-7179.997637,-18357.107362,-6205.373534
59309.998412,-8290.306550,-13101.645173,-4903.011187
59309.998721,-2072.576638,-9474.636058,-1378.971896
59309.999031,814.226536,-7550.100608,1378.971896
59309.999341,2072.576638,-6513.812290,3140.991542
59309.999651,2590.720797,-5773.606348,2987.772442
59309.999960,4663.297435,-3849.070898,4213.525239
59310.000270,4737.318029,-3627.009116,6128.763984
59310.000580,8808.450710,-3849.070898,6665.030833
59310.000890,4663.297435,-1036.288319,2068.457845
59310.001200,4959.379811,-9474.636058,3600.648841
59310.001509,-2738.761985,-12509.480420,-2145.067394
59310.001819,-6809.894666,-17024.736666,-4596.572988
59310.002128,-8290.306550,-17987.004391,-6128.763984
59310.002438,-6513.812290,-15100.201217,-4366.744339
59310.002748,-3034.844362,-11843.295072,-2528.115143
59310.003057,-74.020594,-9474.636058,-76.609550
59310.003367,0.000000,-5403.503377,1225.752797
59310.003677,3923.091493,-8290.306550,5439.278036
59310.003986,1110.308913,-3923.091493,1838.629195
59310.004296,5329.482782,-5699.585753,7124.688131
59310.004605,7402.059420,-4441.235652,7890.783629
59310.004915,4737.318029,-2146.597232,4290.134789
59310.005225,3478.967927,-5625.565159,2987.772442
59310.005534,-1480.411884,-11029.068536,76.609550
59310.005844,-7105.977043,-14285.974681,-4903.011187
59310.006153,-8882.471304,-14285.974681,-7967.393179
59310.006463,-8290.306550,-16062.468941,-4596.572988
59310.006773,-4811.338623,-13619.789333,-2834.553343
59310.007082,-1776.494261,-10436.903782,1225.752797
59310.007392,3478.967927,-7698.141797,2374.896044
59310.007701,1702.473667,-6217.729913,2451.505594
59310.008011,3034.844362,-7105.977043,4213.525239
59310.008321,3849.070898,-5773.606348,4673.182538
59310.008630,5551.544565,-4737.318029,5439.278036
59310.008940,4737.318029,-1554.432478,3677.258390
59310.009249,2368.659014,-4811.338623,0.000000
59310.009559,-74.020594,-11769.274478,2834.553343
59310.009869,-4811.338623,-13915.871710,-3753.867940
59310.010178,-9178.553681,-17320.819043,-4903.011187
59310.010488,-7179.997637,-17764.942608,-4979.620737
59310.010797,-5625.565159,-13471.748144,-2221.676944
59310.011107,-2664.741391,-9178.553681,0.000000
59310.011417,-370.102971,-7031.956449,2298.286494
59310.011726,222.061783,-6957.935855,2987.772442
59310.012036,0.000000,-4811.338623,1225.752797
59310.012345,0.000000,-2442.679609,1225.752797
59310.012655,3552.988522,-4811.338623,6741.640382
59310.012965,5847.626942,-2368.659014,4826.401637
59310.013274,4145.153275,-3182.885551,4290.134789
59310.013584,3478.967927,-9474.636058,2374.896044
59310.013893,-4145.153275,-13693.809927,-1532.190996
59310.014203,-7179.997637,-16950.716072,-4366.744339
59310.014513,-8438.347739,-17320.819043,-4826.401637
59310.014822,-6513.812290,-12953.603985,-3830.477490
59310.015132,-4219.173869,-7698.141797,-2528.115143
59310.015441,0.000000,-5477.523971,-76.609550
59310.015751,1184.329507,-5995.668130,3064.381992
59310.016061,4071.132681,-7105.977043,4826.401637
59310.016370,3034.844362,-6143.709319,5975.544884
59310.016680,6735.874072,-7105.977043,7277.907231
59310.016989,4737.318029,-2442.679609,4290.134789
59310.017299,6513.812290,-4293.194464,4443.353888
59310.017609,2812.782580,-7328.038826,1378.971896
59310.017918,-2220.617826,-11917.315666,-1991.848295
59310.018228,-5995.668130,-16580.613101,-4979.620737
59310.018538,-7772.162391,-17764.942608,-6205.373534
59310.018847,-8882.471304,-13101.645173,-6128.763984
59310.019157,-2812.782580,-12065.356855,-1225.752797
59310.019466,1110.308913,-7105.977043,-76.609550
59310.019776,2368.659014,-8068.244768,4903.011187
59310.020086,2516.700203,-5699.585753,3217.601092
59310.020395,3256.906145,-6513.812290,4443.353888
59310.020705,4367.215058,-5181.441594,4213.525239
59310.021014,6069.688724,-3997.112087,4979.620737
59310.021324,8216.285956,-3552.988522,4826.401637
59310.021634,4663.297435,-8290.306550,4213.525239
59310.021943,-3034.844362,-8364.327145,-2298.286494
59310.022253,-6217.729913,-15470.304188,-3524.039291
59310.022562,-7179.997637,-18357.107362,-4979.620737
59310.022872,-9474.636058,-15766.386565,-4903.011187
59310.023182,-5329.482782,-11917.315666,-3600.648841
59310.023491,-1036.288319,-10214.842000,612.876398
59310.023801,2590.720797,-6735.874072,2834.553343
59310.024110,3182.885551,-6809.894666,3677.258390
59310.024420,5847.626942,-9474.636058,6052.154434
59310.024730,7031.956449,-8882.471304,7277.907231
59310.025039,4663.297435,-2960.823768,2987.772442
59310.025349,4737.318029,-3034.844362,4903.011187
59310.025658,4663.297435,-7105.977043,4826.401637
59310.025968,-2368.659014,-6587.832884,0.000000
59310.026278,-5699.585753,-13175.665768,-3600.648841
59310.026587,-8586.388927,-17838.963202,-5515.887586
59310.026897,-8142.265362,-17690.922014,-5132.839837
59310.027206,-5625.565159,-13693.809927,-2834.553343
59310.027516,-888.247130,-10732.986159,1532.190996
59310.027826,2590.720797,-9474.636058,5362.668486
59310.028135,3182.885551,-7105.977043,3600.648841
59310.028445,592.164754,-5107.421000,3677.258390
59310.028754,3182.885551,-6513.812290,4826.401637
59310.029064,0.000000,-666.185348,2528.115143
59310.029374,4663.297435,-2960.823768,4519.963438
59310.029683,3775.050304,-3849.070898,2987.772442
59310.029993,296.082377,-7031.956449,1072.533697
59310.030302,-4811.338623,-12583.501014,-2068.457845
59310.030612,-8290.306550,-16654.633695,-4903.011187
59310.030922,-9474.636058,-16654.633695,-4903.011187
59310.031231,-5403.503377,-16284.530724,-1915.238745
59310.031541,-2442.679609,-10658.965565,-689.485948
59310.031850,0.000000,-5403.503377,1225.752797
59310.032160,2294.638420,-5033.400406,2451.505594
59310.032470,3923.091493,-7402.059420,5898.935335
59310.032779,3775.050304,-5921.647536,5286.058936
59310.033089,3849.070898,-4885.359217,5056.230287
59310.033399,4441.235652,-3478.967927,3677.258390
59310.033708,3552.988522,-1850.514855,2451.505594
59310.034018,0.000000,-3627.009116,0.000000
59310.034327,-1998.556043,-13027.624579,-383.047749
59310.034637,-7328.038826,-15692.365970,-5286.058936
59310.034947,-7698.141797,-19615.457463,-3677.258390
59310.035256,-4811.338623,-16580.613101,-4979.620737
59310.035566,-2886.803174,-11621.233289,-1225.752797
59310.035875,444.123565,-7920.203579,1532.190996
59310.036185,2516.700203,-7624.121203,3600.648841
59310.036495,4071.132681,-7179.997637,4749.792088
59310.036804,1776.494261,-4811.338623,3294.210641
59310.037114,592.164754,-2442.679609,2451.505594
59310.037423,4737.318029,-3330.926739,4903.011187
59310.037733,5255.462188,-2368.659014,2834.553343
59310.038043,3552.988522,-4811.338623,3064.381992
59310.038352,-74.020594,-11843.295072,-689.485948
59310.038662,-7105.977043,-13397.727550,-4903.011187
59310.038971,-8512.368333,-18949.272115,-6358.592633
59310.039281,-7254.018232,-17690.922014,-5132.839837
59310.039591,-4589.276840,-14137.933492,-2757.943793
59310.039900,-1258.350101,-9474.636058,-76.609550
59310.040210,518.144159,-4219.173869,689.485948
59310.040519,3552.988522,-6291.750507,4903.011187
59310.040829,5847.626942,-6513.812290,6052.154434
59310.041139,2368.659014,-3627.009116,4903.011187
59310.041448,7031.956449,-5921.647536,6052.154434
59310.041758,3627.009116,-2146.597232,2604.724693
59310.042067,3701.029710,-3849.070898,2068.457845
59310.042377,518.144159,-7772.162391,-536.266849
59310.042687,-4885.359217,-12139.377449,-4213.525239
59310.042996,-7179.997637,-17764.942608,-6205.373534
59310.043306,-7179.997637,-18949.272115,-6205.373534
59310.043615,-7994.224174,-14285.974681,-4903.011187
59310.043925,-1850.514855,-12065.356855,1685.410096
59310.044235,-74.020594,-8882.471304,1762.019645
59310.044544,2368.659014,-8808.450710,5898.935335
59310.044854,3627.009116,-6661.853478,5286.058936
59310.045163,3552.988522,-4441.235652,6128.763984
59310.045473,3330.926739,-2368.659014,5056.230287
59310.045783,3404.947333,-888.247130,3447.429741
59310.046092,5847.626942,-3552.988522,3600.648841
59310.046402,4663.297435,-8290.306550,2374.896044
59310.046711,-6217.729913,-10140.821405,-4290.134789
59310.047021,-8290.306550,-16654.633695,-3753.867940
59310.047331,-8364.327145,-18949.272115,-6818.249932
59310.047640,-7105.977043,-16654.633695,-3064.381992
59310.047950,-3182.885551,-12879.583391,-689.485948
59310.048260,-1258.350101,-9030.512492,1608.800546
59310.048569,1628.453072,-7772.162391,4443.353888
59310.048879,3330.926739,-7624.121203,6052.154434
59310.049188,5255.462188,-6735.874072,7660.954980
59310.049498,5847.626942,-4737.318029,7890.783629
59310.049808,2442.679609,-74.020594,2834.553343
59310.050117,4737.318029,-1850.514855,4826.401637
59310.050427,4071.132681,-3552.988522,-76.609550
59310.050736,-3256.906145,-8364.327145,-1532.190996
59310.051046,-6439.791695,-14804.118840,-5439.278036
59310.051356,-9400.615463,-19097.313304,-7354.516781
59310.051665,-7698.141797,-19245.354492,-5745.716235
59310.051975,-4737.318029,-15470.304188,-3064.381992
59310.052284,-1776.494261,-12583.501014,1225.752797
59310.052594,2368.659014,-11399.171507,5822.325785
59310.052904,4663.297435,-9474.636058,5745.716235
59310.053213,3997.112087,-3923.091493,4903.011187
59310.053523,7476.080014,-4737.318029,9729.412825
59310.053832,3108.864956,1702.473667,3677.258390
59310.054142,5403.503377,0.000000,3294.210641
59310.054452,3997.112087,-2072.576638,1991.848295
59310.054761,-370.102971,-6735.874072,-1378.971896
59310.055071,-6587.832884,-13619.789333,-5132.839837
59310.055380,-10658.965565,-17246.798449,-8580.269578
59310.055690,-11251.130318,-20207.622217,-7354.516781
59310.056000,-4219.173869,-18357.107362,-4060.306139
59310.056309,-3404.947333,-11917.315666,-2911.162892
59310.056619,0.000000,-10140.821405,3677.258390
59310.056928,2886.803174,-8290.306550,4903.011187
59310.057238,6513.812290,-7254.018232,7890.783629
59310.057548,6439.791695,-3034.844362,7660.954980
59310.057857,4811.338623,-444.123565,6358.592633
59310.058167,4663.297435,740.205942,4826.401637
59310.058476,4737.318029,-74.020594,1685.410096
59310.058786,0.000000,-3034.844362,0.000000
59310.059096,-1258.350101,-11843.295072,-2834.553343
59310.059405,-8512.368333,-14878.139434,-9806.022374
59310.059715,-9474.636058,-20207.622217,-7354.516781
59310.060024,-7179.997637,-19541.436869,-7354.516781
59310.060334,-4441.235652,-15026.180623,-1838.629195
59310.060644,-1998.556043,-13249.686362,1455.581446
59310.060953,1850.514855,-9992.780217,4290.134789
59310.061263,4885.359217,-8142.265362,7277.907231
59310.061572,4959.379811,-2072.576638,7584.345430
59310.061882,2960.823768,2886.803174,5515.887586
59310.062192,5921.647536,1702.473667,6435.202183
59310.062501,6735.874072,2368.659014,612.876398
59310.062811,5329.482782,-3923.091493,3830.477490
59310.063121,-1258.350101,-8734.430116,-2834.553343
59310.063430,-9474.636058,-14582.057057,-7354.516781
59310.063740,-11029.068536,-20429.683999,-9499.584175
59310.064049,-8956.491898,-21243.910535,-7124.688131
59310.064359,-6587.832884,-17987.004391,-2068.457845
59310.064669,-3034.844362,-13323.706956,1149.143247
59310.064978,1110.308913,-11547.212695,2374.896044
59310.065288,1776.494261,-8660.409521,6128.763984
59310.065597,8216.285956,-8290.306550,12793.794817
59310.065907,5551.544565,592.164754,7584.345430
59310.066217,5847.626942,1924.535449,6052.154434
59310.066526,4515.256246,2516.700203,2451.505594
59310.066836,5181.441594,-518.144159,2834.553343
59310.067145,888.247130,-6661.853478,0.000000
59310.067455,-6365.771101,-12805.562797,-5822.325785
59310.067765,-9548.656652,-20725.766376,-7737.564530
59310.068074,-8364.327145,-23686.590144,-8656.879127
59310.068384,-8290.306550,-19097.313304,-5898.935335
59310.068693,-5921.647536,-19023.292709,0.000000
59310.069003,-74.020594,-16580.613101,2374.896044
59310.069313,2368.659014,-13027.624579,6665.030833
59310.069622,5625.565159,-6957.935855,8427.050478
59310.069932,6957.935855,-1850.514855,10418.898773
59310.070241,6587.832884,3923.091493,8810.098227
59310.070551,6513.812290,5551.544565,4903.011187
59310.070861,9104.533087,2368.659014,5132.839837
59310.071170,4663.297435,-4737.318029,2374.896044
59310.071480,-7105.977043,-9696.697840,-5745.716235
59310.071789,-9622.677246,-20133.601622,-7431.126331
59310.072099,-13397.727550,-21910.095883,-12027.699319
59310.072409,-9474.636058,-24278.754898,-4979.620737
59310.072718,-5107.421000,-17764.942608,-2911.162892
59310.073028,-2442.679609,-15322.262999,1455.581446
59310.073337,2368.659014,-10066.800811,3447.429741
59310.073647,5625.565159,-8956.491898,6741.640382
59310.073957,8586.388927,-2886.803174,9806.022374
59310.074266,8808.450710,0.000000,11568.042020
59310.074576,6291.750507,4737.318029,5898.935335
59310.074885,7994.224174,1702.473667,7354.516781
59310.075195,6439.791695,592.164754,1149.143247
59310.075505,-2220.617826,-7328.038826,-919.314598
59310.075814,-7772.162391,-14211.954086,-7814.174080
59310.076124,-9622.677246,-20799.786970,-10189.070123
59310.076433,-9326.594869,-23612.569550,-7660.954980
59310.076743,-7550.100608,-20947.828159,-5439.278036
59310.077053,-7105.977043,-19023.292709,-2451.505594
59310.077362,-1184.329507,-15470.304188,4290.134789
59310.077672,4663.297435,-11843.295072,6665.030833
59310.077982,4737.318029,-1258.350101,7354.516781
59310.078291,9400.615463,1184.329507,14632.424012
59310.078601,7476.080014,8216.285956,7354.516781
59310.078910,6883.915261,5403.503377,6511.811733
59310.079220,7031.956449,6661.853478,1762.019645
59310.079530,-370.102971,-3701.029710,-612.876398
59310.079839,-9844.739029,-11843.295072,-6205.373534
59310.080149,-13323.706956,-17246.798449,-12410.747068
59310.080458,-14211.954086,-23760.610738,-9806.022374
59310.080768,-7179.997637,-20429.683999,-5286.058936
59310.081078,-8956.491898,-14285.974681,-5515.887586
59310.081387,-1184.329507,-14285.974681,3677.258390
59310.081697,2368.659014,-10140.821405,4903.011187
59310.082006,7254.018232,-4737.318029,9346.365076
59310.082316,9178.553681,2886.803174,9652.803275
59310.082626,6143.709319,4219.173869,8427.050478
59310.082935,7328.038826,3552.988522,6665.030833
59310.083245,6439.791695,4663.297435,3294.210641
59310.083554,2368.659014,-666.185348,0.000000
59310.083864,-4811.338623,-11843.295072,-1915.238745
59310.084174,-10140.821405,-16580.613101,-10495.508323
59310.084483,-13027.624579,-23168.445985,-9806.022374
59310.084793,-10658.965565,-21391.951724,-8580.269578
59310.085102,-7698.141797,-18875.251521,-4903.011187
59310.085412,-4737.318029,-18875.251521,1302.362347
59310.085722,2590.720797,-12805.562797,4443.353888
59310.086031,7031.956449,-10362.883188,9576.193725
59310.086341,8512.368333,-1184.329507,12180.918418
59310.086650,4737.318029,8216.285956,8580.269578
59310.086960,7624.121203,7772.162391,8197.221829
59310.087270,4737.318029,9400.615463,3677.258390
59310.087579,7031.956449,-1110.308913,2757.943793
59310.087889,-4811.338623,-7550.100608,-4366.744339
59310.088198,-10807.006753,-15470.304188,-8580.269578
59310.088508,-12879.583391,-23538.548956,-10495.508323
59310.088818,-11251.130318,-24722.878463,-8273.831378
59310.089127,-6883.915261,-21391.951724,-3753.867940
59310.089437,-3627.009116,-18949.272115,-76.609550
59310.089746,518.144159,-17542.880825,2068.457845
59310.090056,3108.864956,-13101.645173,7354.516781
59310.090366,11769.274478,-7105.977043,9116.536426
59310.090675,5921.647536,-74.020594,9806.022374
59310.090985,6883.915261,5921.647536,7277.907231
59310.091294,9030.512492,4219.173869,4903.011187
59310.091604,7772.162391,814.226536,4596.572988
59310.091914,1184.329507,-7772.162391,2145.067394
59310.092223,-5033.400406,-15766.386565,-5209.449386
59310.092533,-9696.697840,-23538.548956,-9269.755526
59310.092843,-12805.562797,-24944.940245,-11721.261119
59310.093152,-10658.965565,-22872.363608,-7354.516781
59310.093462,-5403.503377,-22502.260637,-2528.115143
59310.093771,-3849.070898,-13101.645173,-2374.896044
59310.094081,2294.638420,-10066.800811,3294.210641
59310.094391,7105.977043,-5255.462188,9806.022374
59310.094700,9326.594869,2146.597232,11414.822920
59310.095010,7254.018232,7031.956449,9882.631924
59310.095319,10881.027347,7328.038826,9346.365076
59310.095629,10584.944971,5033.400406,4826.401637
59310.095939,1258.350101,-1332.370696,383.047749
59310.096248,-4737.318029,-10881.027347,-3064.381992
59310.096558,-9548.656652,-18949.272115,-9882.631924
59310.096867,-15988.448347,-23760.610738,-13483.280765
59310.097177,-9104.533087,-23686.590144,-7431.126331
59310.097487,-9474.636058,-23094.425390,-4673.182538
59310.097796,-3923.091493,-17764.942608,383.047749
59310.098106,1628.453072,-15618.345376,5286.058936
59310.098415,5255.462188,-9548.656652,8580.269578
59310.098725,10584.944971,-1776.494261,12180.918418
59310.099035,9400.615463,5329.482782,9729.412825
59310.099344,5921.647536,9104.533087,6435.202183
59310.099654,10584.944971,3552.988522,6052.154434
59310.099963,2368.659014,-74.020594,1225.752797
59310.100273,-1184.329507,-10955.047942,-76.609550
59310.100583,-9030.512492,-17024.736666,-8273.831378
59310.100892,-13767.830521,-23760.610738,-11031.775171
59310.101202,-12509.480420,-26203.290347,-9346.365076
59310.101511,-9992.780217,-21614.013506,-7354.516781
59310.101821,-3034.844362,-20577.725188,1149.143247
59310.102131,-74.020594,-18357.107362,4826.401637
59310.102440,4959.379811,-7994.224174,6818.249932
59310.102750,8586.388927,-2442.679609,13636.499864
59310.103059,8216.285956,5033.400406,10955.165621
59310.103369,8586.388927,10066.800811,9729.412825
59310.103679,9548.656652,10658.965565,6052.154434
59310.103988,6365.771101,4515.256246,3524.039291
59310.104298,-1110.308913,-5847.626942,-766.095498
59310.104608,-7994.224174,-13989.892304,-8580.269578
59310.104918,-14285.974681,-23686.590144,-11108.384721
59310.105228,-16358.551318,-24944.940245,-13253.452115
59310.105538,-13619.789333,-23760.610738,-8580.269578
59310.105847,-5995.668130,-22502.260637,-3140.991542
59310.106157,-3108.864956,-14285.974681,0.000000
59310.106467,3849.070898,-8512.368333,4366.744339
59310.106777,7920.203579,-4515.256246,9422.974625
59310.107087,7105.977043,3478.967927,12257.527968
59310.107397,11769.274478,5921.647536,10955.165621
59310.107706,9696.697840,7105.977043,9116.536426
59310.108016,8068.244768,6587.832884,4060.306139
59310.108326,1184.329507,-1554.432478,459.657299
59310.108636,-3256.906145,-10732.986159,-3677.258390
59310.108946,-9548.656652,-23094.425390,-8656.879127
59310.109256,-13545.768739,-23390.507767,-12640.575717
59310.109565,-10732.986159,-24352.775492,-10495.508323
59310.109875,-11547.212695,-23760.610738,-5822.325785
59310.110185,-3552.988522,-18283.086767,-1532.190996
59310.110495,1110.308913,-14285.974681,3370.820191
59310.110805,5625.565159,-10881.027347,10418.898773
59310.111115,10584.944971,-1776.494261,12180.918418
59310.111424,10584.944971,5921.647536,10955.165621
59310.111734,10066.800811,8216.285956,9806.022374
59310.112044,13545.768739,7105.977043,8503.660028
59310.112354,3923.091493,2294.638420,1532.190996
59310.112664,-2368.659014,-9252.574275,-1302.362347
59310.112974,-10066.800811,-17468.860231,-9499.584175
59310.113283,-13989.892304,-24796.899057,-12257.527968
59310.113593,-14211.954086,-26203.290347,-10725.336972
59310.113903,-11325.150913,-21984.116477,-8580.269578
59310.114213,-5403.503377,-20725.766376,-689.485948
59310.114523,-74.020594,-14211.954086,2374.896044
59310.114833,5921.647536,-7179.997637,7354.516781
59310.115142,11547.212695,-4515.256246,14402.595362
59310.115452,11769.274478,5921.647536,10955.165621
59310.115762,9178.553681,4737.318029,11874.480219
59310.116072,9992.780217,10436.903782,5209.449386
59310.116382,7994.224174,5551.544565,3140.991542
59310.116692,518.144159,-3775.050304,-919.314598
59310.117001,-6069.688724,-10658.965565,-7354.516781
59310.117311,-8956.491898,-21021.848753,-7431.126331
59310.117621,-12509.480420,-22502.260637,-12334.137518
59310.117931,-13619.789333,-19319.375086,-10648.727422
59310.118241,-7402.059420,-21391.951724,-1532.190996
59310.118551,-666.185348,-16284.530724,-76.609550
59310.118860,5551.544565,-15914.427753,8197.221829
59310.119170,7105.977043,-7846.182985,11184.994271
59310.119480,9474.636058,-888.247130,12487.356617
59310.119790,10436.903782,3997.112087,9882.631924
59310.120100,10214.842000,6143.709319,9806.022374
59310.120410,11769.274478,4145.153275,5286.058936
59310.120719,3182.885551,-7105.977043,1762.019645
59310.121029,-7402.059420,-13397.727550,-4290.134789
59310.121339,-9622.677246,-22724.322419,-7431.126331
59310.121649,-11917.315666,-28127.825796,-10495.508323
59310.121959,-13619.789333,-26647.413912,-7431.126331
59310.122269,-12213.398043,-22946.384202,-5592.497135
59310.122578,-5699.585753,-19097.313304,459.657299
59310.122888,2368.659014,-11103.089130,4136.915689
59310.123198,6291.750507,-8364.327145,8580.269578
59310.123508,9770.718434,222.061783,13483.280765
59310.123818,12953.603985,2368.659014,13406.671215
59310.124128,9252.574275,4811.338623,9116.536426
59310.124437,10066.800811,4367.215058,7660.954980
59310.124747,3478.967927,-4145.153275,2374.896044
59310.125057,-4737.318029,-12953.603985,-2145.067394
59310.125367,-8142.265362,-18357.107362,-9422.974625
59310.125677,-12139.377449,-23316.487173,-11414.822920
59310.125987,-11991.336260,-24500.816680,-10189.070123
59310.126296,-10807.006753,-20503.704593,-7967.393179
59310.126606,-5625.565159,-19023.292709,0.000000
59310.126916,2368.659014,-15470.304188,3830.477490
59310.127226,6439.791695,-7105.977043,7201.297681
59310.127536,5921.647536,-74.020594,11031.775171
59310.127846,12953.603985,2368.659014,14632.424012
59310.128155,10066.800811,8808.450710,11031.775171
59310.128465,11251.130318,9622.677246,6511.811733
59310.128775,5921.647536,4293.194464,2604.724693
59310.129085,-4219.173869,-8660.409521,-1915.238745
59310.129395,-9178.553681,-14211.954086,-8656.879127
59310.129705,-15692.365970,-20799.786970,-15934.786358
59310.130014,-16284.530724,-24352.775492,-11644.651570
59310.130324,-12731.542202,-20947.828159,-9499.584175
59310.130634,-7179.997637,-18949.272115,-3753.867940
59310.130944,-5921.647536,-15470.304188,2451.505594
59310.131254,4737.318029,-6587.832884,6128.763984
59310.131564,7920.203579,-4367.215058,11261.603821
59310.131873,9696.697840,2960.823768,12640.575717
59310.132183,11251.130318,8512.368333,10648.727422
59310.132493,9918.759623,8290.306550,9116.536426
59310.132803,6217.729913,9104.533087,3600.648841
59310.133113,-2368.659014,-370.102971,-5822.325785
59310.133423,-4515.256246,-14211.954086,-4979.620737
59310.133732,-10140.821405,-22206.178260,-11108.384721
59310.134042,-16580.613101,-24352.775492,-11644.651570
59310.134352,-14804.118840,-20207.622217,-11644.651570
59310.134662,-9030.512492,-19023.292709,-6128.763984
59310.134972,-3330.926739,-16506.592507,-1072.533697
59310.135282,2516.700203,-12213.398043,4290.134789
59310.135591,9400.615463,-7105.977043,10955.165621
59310.135901,9696.697840,3552.988522,12180.918418
59310.136211,9770.718434,8808.450710,12257.527968
59310.136521,13323.706956,9992.780217,9806.022374
59310.136831,13545.768739,5921.647536,7277.907231
59310.137141,444.123565,-74.020594,0.000000
59310.137450,-5699.585753,-10214.842000,-4443.353888
59310.137760,-11251.130318,-18061.024985,-9729.412825
59310.138070,-14137.933492,-22946.384202,-12870.404366
59310.138380,-14582.057057,-23094.425390,-11414.822920
59310.138690,-11325.150913,-21465.972318,-6741.640382
59310.139000,-7179.997637,-20725.766376,-76.609550
59310.139309,-814.226536,-12139.377449,842.705048
59310.139619,5033.400406,-6069.688724,9806.022374
59310.139929,11769.274478,0.000000,9729.412825
59310.140239,9474.636058,7031.956449,9806.022374
59310.140549,12953.603985,5921.647536,12180.918418
59310.140859,9474.636058,7105.977043,6665.030833
59310.141168,4663.297435,1258.350101,3064.381992
59310.141478,-3775.050304,-8956.491898,-1991.848295
59310.141788,-5921.647536,-17246.798449,-4903.011187
59310.142098,-10732.986159,-24574.837274,-11108.384721
59310.142408,-12509.480420,-21317.931130,-11414.822920
59310.142718,-15322.262999,-22946.384202,-10189.070123
59310.143027,-9474.636058,-16654.633695,-2451.505594
59310.143337,-74.020594,-13915.871710,1762.019645
59310.143647,6439.791695,-8882.471304,6665.030833
59310.143957,7920.203579,-2220.617826,10035.851024
59310.144267,9104.533087,444.123565,13253.452115
59310.144577,12435.459826,6661.853478,12104.308868
59310.144886,9474.636058,9400.615463,6128.763984
59310.145196,7254.018232,2886.803174,6741.640382
59310.145506,-666.185348,-7105.977043,-76.609550
59310.145816,-9474.636058,-14878.139434,-9806.022374
59310.146126,-11843.295072,-22872.363608,-10418.898773
59310.146436,-13101.645173,-23686.590144,-12947.013916
59310.146745,-13101.645173,-22502.260637,-8810.098227
59310.147055,-9918.759623,-17764.942608,-6818.249932
59310.147365,-2590.720797,-14804.118840,383.047749
59310.147675,4885.359217,-10066.800811,5745.716235
59310.147985,6661.853478,-3034.844362,7967.393179
59310.148295,10066.800811,3478.967927,12870.404366
59310.148604,14137.933492,5329.482782,13406.671215
59310.148914,11769.274478,7698.141797,7277.907231
59310.149224,7105.977043,7031.956449,5209.449386
59310.149534,-666.185348,-6513.812290,-76.609550
59310.149844,-7105.977043,-10732.986159,-5822.325785
59310.150154,-11029.068536,-22428.240043,-10801.946522
59310.150463,-15026.180623,-24796.899057,-13789.718964
59310.150773,-14656.077652,-24500.816680,-10878.556072
59310.151083,-10732.986159,-19837.519246,-7201.297681
59310.151393,-6513.812290,-13693.809927,-2451.505594
59310.151703,3552.988522,-11325.150913,4443.353888
59310.152013,8216.285956,-9474.636058,12180.918418
59310.152322,8290.306550,-74.020594,10418.898773
59310.152632,13545.768739,2368.659014,16777.491406
59310.152942,11251.130318,7031.956449,10725.336972
59310.153252,10510.924376,7105.977043,6741.640382
59310.153562,4441.235652,-4293.194464,6741.640382
59310.153872,-4663.297435,-10288.862594,-2451.505594
59310.154181,-9548.656652,-16580.613101,-9882.631924
59310.154491,-14137.933492,-21539.992912,-14709.033562
59310.154801,-15396.283594,-22576.281231,-11338.213370
59310.155111,-13027.624579,-22576.281231,-6128.763984
59310.155421,-5403.503377,-20725.766376,-2528.115143
59310.155731,0.000000,-12509.480420,2451.505594
59310.156040,7994.224174,-7772.162391,8580.269578
59310.156350,11473.192101,-4959.379811,13636.499864
59310.156660,9548.656652,-1110.308913,14172.766713
59310.156970,12139.377449,3849.070898,12793.794817
59310.157280,11473.192101,4737.318029,8503.660028
59310.157590,4367.215058,1776.494261,1149.143247
59310.157899,0.000000,-13693.809927,12257.527968
59310.158209,-4811.338623,-18357.107362,-4979.620737
59310.158519,-15470.304188,-16580.613101,-16624.272307
59310.158829,-13619.789333,-16654.633695,-14096.157163
59310.159139,-11547.212695,-19023.292709,-9193.145976
59310.159449,-6513.812290,-13989.892304,-5822.325785
59310.159758,2220.617826,-9548.656652,153.219100
59310.160068,6809.894666,-5477.523971,4749.792088
59310.160378,11769.274478,-4737.318029,13100.233016
59310.160688,13545.768739,3552.988522,12180.918418
59310.160998,10732.986159,9400.615463,11338.213370
59310.161308,10658.965565,11769.274478,7354.516781
59310.161617,11769.274478,7105.977043,4826.401637
59310.161927,-2368.659014,-74.020594,0.000000
59310.162237,-5033.400406,-9252.574275,-5898.935335
59310.162547,-11399.171507,-17468.860231,-10495.508323
59310.162857,-13323.706956,-20503.704593,-12410.747068
59310.163167,-13027.624579,-19171.333898,-11261.603821
59310.163476,-11251.130318,-17172.777854,-4673.182538
59310.163786,-3034.844362,-18949.272115,2068.457845
59310.164096,1554.432478,-9178.553681,1762.019645
59310.164406,5921.647536,-5995.668130,9806.022374
59310.164716,11177.109724,-2368.659014,11568.042020
59310.165026,9474.636058,8216.285956,8580.269578
59310.165335,12361.439231,5625.565159,10648.727422
59310.165645,8586.388927,7328.038826,5745.716235
59310.165955,2516.700203,-2368.659014,2451.505594
59310.166265,-5255.462188,-11251.130318,-2911.162892
59310.166575,-10658.965565,-19023.292709,-7354.516781
59310.166885,-12509.480420,-25463.084405,-11721.261119
59310.167194,-14285.974681,-22206.178260,-11108.384721
59310.167504,-13619.789333,-19023.292709,-9193.145976
59310.167814,-2664.741391,-20725.766376,766.095498
59310.168124,2886.803174,-10658.965565,-76.609550
59310.168434,5551.544565,-10362.883188,9116.536426
59310.168744,9252.574275,-3330.926739,11031.775171
59310.169053,11251.130318,2220.617826,12947.013916
59310.169363,12213.398043,7254.018232,10878.556072
59310.169673,8290.306550,9400.615463,6128.763984
59310.169983,2368.659014,1110.308913,1838.629195
59310.170293,-1258.350101,-9474.636058,-1302.362347
59310.170603,-8364.327145,-15470.304188,-9116.536426
59310.170912,-14211.954086,-21391.951724,-11644.651570
59310.171222,-12509.480420,-18949.272115,-12334.137518
59310.171532,-13545.768739,-18949.272115,-7737.564530
59310.171842,-8068.244768,-13619.789333,-5515.887586
59310.172152,1110.308913,-9696.697840,0.000000
59310.172462,1554.432478,-5329.482782,4826.401637
59310.172772,5921.647536,-74.020594,9806.022374
59310.173081,10658.965565,2294.638420,12870.404366
59310.173391,14137.933492,7994.224174,14019.547613
59310.173701,7105.977043,11473.192101,5515.887586
59310.174011,7994.224174,4959.379811,4749.792088
59310.174321,-74.020594,-7105.977043,-76.609550
59310.174631,-7402.059420,-13397.727550,-6435.202183
59310.174940,-12287.418637,-20059.581028,-12104.308868
59310.175250,-15322.262999,-23760.610738,-12180.918418
59310.175560,-13323.706956,-20207.622217,-9193.145976
59310.175870,-6587.832884,-15692.365970,-6894.859482
59310.176180,-4737.318029,-14582.057057,0.000000
59310.176490,2664.741391,-7920.203579,4673.182538
59310.176799,7476.080014,-8956.491898,9806.022374
59310.177109,9474.636058,-4811.338623,12870.404366
59310.177419,15322.262999,0.000000,14632.424012
59310.177729,10955.047942,6439.791695,8580.269578
59310.178039,8438.347739,5403.503377,5822.325785
59310.178349,2220.617826,-4959.379811,2068.457845
59310.178658,-5477.523971,-13693.809927,-3600.648841
59310.178968,-9548.656652,-20133.601622,-9882.631924
59310.179278,-14434.015869,-21243.910535,-13559.890315
59310.179588,-14211.954086,-21391.951724,-9806.022374
59310.179898,-9548.656652,-22502.260637,-4979.620737
59310.180208,-6883.915261,-16358.551318,-1991.848295
59310.180517,2368.659014,-16654.633695,7354.516781
59310.180827,7105.977043,-3627.009116,5056.230287
59310.181137,7105.977043,-740.205942,12257.527968
59310.181447,13249.686362,296.082377,13176.842566
59310.181757,11103.089130,2812.782580,9882.631924
59310.182067,8216.285956,1184.329507,7277.907231
59310.182376,2294.638420,-2960.823768,2068.457845
59310.182686,-7105.977043,-14285.974681,-4136.915689
59310.182996,-9178.553681,-21391.951724,-6128.763984
59310.183306,-13101.645173,-24870.919651,-12947.013916
59310.183616,-15988.448347,-21984.116477,-9806.022374
59310.183926,-12435.459826,-20651.745782,-7048.078582
59310.184235,-4589.276840,-18431.127956,-2451.505594
59310.184545,-814.226536,-15692.365970,2451.505594
59310.184855,6069.688724,-8290.306550,6052.154434
59310.185165,9400.615463,-11547.212695,13100.233016
59310.185475,11177.109724,-2960.823768,14019.547613
59310.185785,10807.006753,6439.791695,8044.002729
59310.186094,12361.439231,2368.659014,9729.412825
59310.186404,2960.823768,1702.473667,3064.381992
59310.186714,-4737.318029,-9548.656652,1225.752797
59310.187024,-6587.832884,-17172.777854,-6358.592633
59310.187334,-13841.851115,-23538.548956,-11644.651570
59310.187644,-14137.933492,-21095.869347,-12334.137518
59310.187953,-14137.933492,-18875.251521,-9346.365076
59310.188263,-9474.636058,-18949.272115,-1225.752797
59310.188573,-74.020594,-14211.954086,2068.457845
59310.188883,2590.720797,-11547.212695,4213.525239
59310.189193,4737.318029,-7179.997637,10418.898773
59310.189503,12139.377449,-2886.803174,13713.109414
59310.189812,11769.274478,5625.565159,8197.221829
59310.190122,10288.862594,3849.070898,8197.221829
59310.190432,5995.668130,4367.215058,2987.772442
59310.190742,-148.041188,-6291.750507,1225.752797
59310.191052,-5329.482782,-13545.768739,-4060.306139
59310.191362,-11843.295072,-20207.622217,-8580.269578
59310.191671,-12361.439231,-21688.034101,-10878.556072
59310.191981,-11917.315666,-21317.931130,-9882.631924
59310.192291,-9474.636058,-16062.468941,-3677.258390
59310.192601,1998.556043,-15396.283594,-76.609550
59310.192911,1406.391290,-8734.430116,1149.143247
59310.193221,9104.533087,-6069.688724,8427.050478
59310.193530,8882.471304,-1258.350101,11031.775171
59310.193840,10732.986159,3552.988522,11874.480219
59310.194150,10881.027347,6587.832884,8044.002729
59310.194460,5921.647536,5847.626942,4903.011187
59310.194770,1480.411884,-2442.679609,1991.848295
59310.195080,-3034.844362,-14211.954086,-1302.362347
59310.195389,-12509.480420,-16654.633695,-11031.775171
59310.195699,-12731.542202,-20799.786970,-11031.775171
59310.196009,-9548.656652,-18949.272115,-11108.384721
59310.196319,-11621.233289,-23020.404796,-3907.087040
59310.196629,-3775.050304,-15618.345376,-612.876398
59310.196939,518.144159,-12731.542202,3753.867940
59310.197248,5995.668130,-5995.668130,6894.859482
59310.197558,5921.647536,-74.020594,8580.269578
59310.197868,9474.636058,2886.803174,11031.775171
59310.198178,12953.603985,2368.659014,12180.918418
59310.198488,7105.977043,7031.956449,3064.381992
59310.198798,3552.988522,0.000000,2757.943793
59310.199107,-1258.350101,-11251.130318,-76.609550
59310.199417,-9326.594869,-17838.963202,-6741.640382
59310.199727,-13027.624579,-21539.992912,-11874.480219
59310.200037,-13249.686362,-21614.013506,-10418.898773
59310.200347,-10362.883188,-18653.189738,-7201.297681
59310.200657,-5551.544565,-15174.221811,-3064.381992
59310.200966,0.000000,-11029.068536,153.219100
59310.201276,3552.988522,-7772.162391,7354.516781
59310.201586,9400.615463,-2072.576638,7890.783629
59310.201896,7698.141797,1110.308913,11031.775171
59310.202206,14137.933492,3552.988522,12180.918418
59310.202516,9474.636058,8808.450710,5515.887586
59310.202825,6365.771101,4885.359217,2451.505594
59310.203135,-1036.288319,-5255.462188,842.705048
59310.203445,-5773.606348,-12657.521608,-3140.991542
59310.203755,-8364.327145,-18061.024985,-10189.070123
59310.204064,-13027.624579,-20651.745782,-10955.165621
59310.204374,-13619.789333,-19023.292709,-8580.269578
59310.204684,-5403.503377,-18653.189738,-1302.362347
59310.204993,-4145.153275,-14285.974681,612.876398
59310.205303,1998.556043,-7179.997637,2528.115143
59310.205613,5847.626942,-7105.977043,6052.154434
59310.205923,6143.709319,-3552.988522,10955.165621
59310.206232,10288.862594,2590.720797,10648.727422
59310.206542,8068.244768,5033.400406,6971.469032
59310.206852,6957.935855,1776.494261,5975.544884
59310.207161,1702.473667,-8290.306550,3600.648841
59310.207471,-4219.173869,-14211.954086,-2528.115143
59310.207781,-11251.130318,-19023.292709,-9806.022374
59310.208091,-11843.295072,-22872.363608,-8273.831378
59310.208400,-9548.656652,-18949.272115,-9652.803275
59310.208710,-5995.668130,-16580.613101,-2834.553343
59310.209020,-1628.453072,-15618.345376,1225.752797
59310.209330,2146.597232,-15840.407159,4290.134789
59310.209639,5329.482782,-10288.862594,8120.612279
59310.209949,6513.812290,-4219.173869,10112.460574
59310.210259,9696.697840,-1776.494261,11568.042020
59310.210568,11769.274478,592.164754,9729.412825
59310.210878,5847.626942,6217.729913,2604.724693
59310.211188,2368.659014,-2738.761985,3370.820191
59310.211498,-2442.679609,-11695.253884,-2528.115143
59310.211807,-9548.656652,-19689.478057,-6205.373534
59310.212117,-12287.418637,-20429.683999,-11031.775171
59310.212427,-11991.336260,-20429.683999,-9422.974625
59310.212737,-10066.800811,-18875.251521,-4673.182538
59310.213046,-6513.812290,-17246.798449,612.876398
59310.213356,296.082377,-14878.139434,4903.011187
59310.213666,7031.956449,-11547.212695,8503.660028
59310.213975,5847.626942,-2590.720797,7354.516781
59310.214285,9770.718434,518.144159,11338.213370
59310.214595,11177.109724,4737.318029,8503.660028
59310.214905,7846.182985,3478.967927,5745.716235
59310.215214,4293.194464,-814.226536,2451.505594
59310.215524,-1554.432478,-10140.821405,-766.095498
59310.215834,-8586.388927,-17764.942608,-6818.249932
59310.216144,-14211.954086,-19023.292709,-13483.280765
59310.216453,-13323.706956,-19615.457463,-10418.898773
59310.216763,-7179.997637,-20503.704593,-3064.381992
59310.217073,-4811.338623,-14359.995275,-3447.429741
59310.217382,0.000000,-14285.974681,2451.505594
59310.217692,9400.615463,-13027.624579,8503.660028
59310.218002,7772.162391,-6365.771101,9806.022374
59310.218312,9622.677246,370.102971,10418.898773
59310.218621,9030.512492,4811.338623,8197.221829
59310.218931,8364.327145,8364.327145,4826.401637
59310.219241,4811.338623,5255.462188,1225.752797
59310.219551,0.000000,-8068.244768,612.876398
59310.219860,-6513.812290,-15470.304188,-2451.505594
59310.220170,-9548.656652,-23686.590144,-8656.879127
59310.220480,-12435.459826,-21984.116477,-10265.679673
59310.220789,-8438.347739,-23094.425390,-3983.696590
59310.221099,-6513.812290,-18431.127956,-1225.752797
59310.221409,-1776.494261,-16506.592507,2374.896044
59310.221719,2812.782580,-14137.933492,5515.887586
59310.222028,4737.318029,-13767.830521,9193.145976
59310.222338,9400.615463,-8586.388927,9729.412825
59310.222648,4293.194464,-2442.679609,9882.631924
59310.222957,5921.647536,1110.308913,7354.516781
59310.223267,7031.956449,1184.329507,2374.896044
59310.223577,0.000000,-8660.409521,3064.381992
59310.223887,-5625.565159,-15174.221811,-2834.553343
59310.224196,-11325.150913,-22354.219448,-8503.660028
59310.224506,-13693.809927,-21688.034101,-10265.679673
59310.224816,-11621.233289,-22650.301825,-6894.859482
59310.225126,-6143.709319,-17690.922014,-1991.848295
59310.225435,-1776.494261,-18283.086767,4290.134789
59310.225745,5181.441594,-12953.603985,7124.688131
59310.226055,6439.791695,-7476.080014,6665.030833
59310.226364,9474.636058,-4071.132681,10878.556072
59310.226674,8512.368333,592.164754,10648.727422
59310.226984,9178.553681,3182.885551,7277.907231
59310.227294,5921.647536,6735.874072,2528.115143
59310.227603,1480.411884,-1850.514855,1838.629195
59310.227913,-2368.659014,-9844.739029,-2528.115143
59310.228223,-9474.636058,-18135.045579,-7431.126331
59310.228533,-11917.315666,-20281.642811,-11721.261119
59310.228842,-11177.109724,-19023.292709,-10955.165621
59310.229152,-9474.636058,-17838.963202,-3370.820191
59310.229462,-1258.350101,-17172.777854,1762.019645
59310.229771,222.061783,-7772.162391,-689.485948
59310.230081,2960.823768,-3034.844362,5209.449386
59310.230391,7772.162391,-2812.782580,9576.193725
59310.230701,9104.533087,2220.617826,9652.803275
59310.231010,9030.512492,5551.544565,6894.859482
59310.231320,7476.080014,6069.688724,3907.087040
59310.231630,5921.647536,1110.308913,2604.724693
59310.231940,-74.020594,-10362.883188,1762.019645
59310.232249,-8956.491898,-13619.789333,-8044.002729
59310.232559,-13915.871710,-19023.292709,-11644.651570
59310.232869,-6291.750507,-23686.590144,-7431.126331
59310.233178,-5403.503377,-21762.054695,-4366.744339
59310.233488,-5033.400406,-17838.963202,612.876398
59310.233798,1776.494261,-15248.242405,3983.696590
59310.234108,6513.812290,-10510.924376,6511.811733
59310.234417,7698.141797,-6883.915261,10725.336972
59310.234727,7476.080014,0.000000,9116.536426
59310.235037,4737.318029,5847.626942,5515.887586
59310.235347,7105.977043,4663.297435,4903.011187
59310.235656,4663.297435,1184.329507,2374.896044
59310.235966,-3552.988522,-7179.997637,1225.752797
59310.236276,-8290.306550,-14582.057057,-4290.134789
59310.236585,-11325.150913,-19541.436869,-10495.508323
59310.236895,-10140.821405,-22576.281231,-8886.707777
59310.237205,-6957.935855,-21317.931130,-5056.230287
59310.237515,-6217.729913,-19911.539840,536.266849
59310.237824,296.082377,-17098.757260,2451.505594
59310.238134,5847.626942,-14211.954086,6665.030833
59310.238444,6439.791695,-5255.462188,6741.640382
59310.238753,7105.977043,-4219.173869,12334.137518
59310.239063,2960.823768,7031.956449,4903.011187
59310.239373,6143.709319,7402.059420,4136.915689
59310.239683,5625.565159,4071.132681,2987.772442
59310.239992,2072.576638,-3627.009116,1072.533697
59310.240302,-5995.668130,-13027.624579,-3753.867940
59310.240612,-12731.542202,-19467.416275,-10418.898773
59310.240922,-13915.871710,-20725.766376,-11108.384721
59310.241231,-9474.636058,-19615.457463,-8273.831378
59310.241541,-5625.565159,-19023.292709,0.000000
59310.241851,-74.020594,-16580.613101,2374.896044
59310.242160,2368.659014,-10510.924376,5132.839837
59310.242470,8290.306550,-8068.244768,10189.070123
59310.242780,9400.615463,-2368.659014,10878.556072
59310.243090,7846.182985,2146.597232,9806.022374
59310.243399,6587.832884,5255.462188,5669.106685
59310.243709,6439.791695,8882.471304,1072.533697
59310.244019,2664.741391,-74.020594,1838.629195
59310.244329,-1258.350101,-7402.059420,-2987.772442
59310.244638,-9548.656652,-15396.283594,-8963.317327
59310.244948,-14211.954086,-16654.633695,-13483.280765
59310.245258,-10658.965565,-19023.292709,-9806.022374
59310.245567,-5995.668130,-17616.901420,-4060.306139
59310.245877,-3256.906145,-15988.448347,766.095498
59310.246187,1406.391290,-13027.624579,4213.525239
59310.246497,5699.585753,-7402.059420,6588.421283
59310.246806,8734.430116,-4515.256246,12180.918418
59310.247116,7920.203579,2960.823768,9116.536426
59310.247426,4737.318029,4663.297435,6128.763984
59310.247736,8364.327145,4145.153275,5439.278036
59310.248045,1406.391290,2294.638420,0.000000
59310.248355,-74.020594,-11251.130318,-76.609550
59310.248665,-8216.285956,-16210.510130,-6435.202183
59310.248974,-12805.562797,-20873.807564,-11184.994271
59310.249284,-11029.068536,-22724.322419,-9729.412825
59310.249594,-7254.018232,-20947.828159,-4979.620737
59310.249904,-4959.379811,-17246.798449,-1838.629195
59310.250213,1776.494261,-14582.057057,3983.696590
59310.250523,7624.121203,-11843.295072,8197.221829
59310.250833,7402.059420,-4811.338623,6741.640382
59310.251143,10584.944971,-5921.647536,14019.547613
59310.251452,2960.823768,4663.297435,7967.393179
59310.251762,6883.915261,5255.462188,3677.258390
59310.252072,5329.482782,1258.350101,2451.505594
59310.252381,-592.164754,-6143.709319,-306.438199
59310.252691,-6883.915261,-14285.974681,-5056.230287
59310.253001,-9770.718434,-21317.931130,-8656.879127
59310.253311,-10732.986159,-23686.590144,-9882.631924
59310.253620,-10362.883188,-20799.786970,-7660.954980
59310.253930,-7698.141797,-22576.281231,612.876398
59310.254240,-1258.350101,-18357.107362,2374.896044
59310.254549,3478.967927,-11843.295072,4826.401637
59310.254859,7550.100608,-7698.141797,9729.412825
59310.255169,7624.121203,-888.247130,10878.556072
59310.255479,6735.874072,5329.482782,8273.831378
59310.255788,7105.977043,7402.059420,6052.154434
59310.256098,6513.812290,9400.615463,1225.752797
59310.256408,1184.329507,-2590.720797,1838.629195
59310.256718,-5107.421000,-11251.130318,-3140.991542
59310.257027,-13767.830521,-15470.304188,-12257.527968
59310.257337,-13619.789333,-23464.528361,-11031.775171
59310.257647,-11029.068536,-23168.445985,-7048.078582
59310.257956,-8290.306550,-19023.292709,-4596.572988
59310.258266,-2590.720797,-15840.407159,1532.190996
59310.258576,2960.823768,-12139.377449,4979.620737
59310.258886,8142.265362,-4441.235652,8656.879127
59310.259195,11177.109724,-2368.659014,12180.918418
59310.259505,7846.182985,7105.977043,8503.660028
59310.259815,5477.523971,8808.450710,4903.011187
59310.260125,9400.615463,5921.647536,4826.401637
59310.260434,3256.906145,4515.256246,0.000000
59310.260744,-3627.009116,-6809.894666,-3447.429741
59310.261054,-7179.997637,-16136.489536,-7277.907231
59310.261363,-11917.315666,-21317.931130,-11721.261119
59310.261673,-9400.615463,-25759.166782,-5822.325785
59310.261983,-7698.141797,-19689.478057,-6588.421283
59310.262293,-7698.141797,-16950.716072,0.000000
59310.262602,518.144159,-16580.613101,4826.401637
59310.262912,6291.750507,-6291.750507,5822.325785
59310.263222,5033.400406,-4811.338623,10801.946522
59310.263532,6809.894666,6883.915261,8273.831378
59310.263841,8216.285956,8290.306550,6665.030833
59310.264151,7550.100608,10510.924376,3600.648841
59310.264461,6513.812290,5551.544565,3677.258390
59310.264770,-2442.679609,-5329.482782,-689.485948
59310.265080,-7994.224174,-12509.480420,-7354.516781
59310.265390,-14063.912898,-19911.539840,-12257.527968
59310.265700,-12879.583391,-25907.207970,-10572.117872
59310.266009,-8882.471304,-24204.734303,-7277.907231
59310.266319,-6513.812290,-22428.240043,-1378.971896
59310.266629,0.000000,-18727.210333,3140.991542
59310.266939,7624.121203,-11843.295072,7277.907231
59310.267248,10584.944971,-6513.812290,10955.165621
59310.267558,7105.977043,3478.967927,9806.022374
59310.267868,9400.615463,4811.338623,7660.954980
59310.268177,7031.956449,7105.977043,4213.525239
59310.268487,7476.080014,7402.059420,612.876398
59310.268797,1776.494261,-4219.173869,2145.067394
59310.269107,-4959.379811,-11843.295072,-3983.696590
59310.269416,-9770.718434,-17616.901420,-9806.022374
59310.269726,-11769.274478,-23834.631332,-9576.193725
59310.270036,-8364.327145,-23686.590144,-4979.620737
59310.270345,-6513.812290,-22872.363608,-1378.971896
59310.270655,-1850.514855,-18949.272115,-76.609550
59310.270965,0.000000,-12509.480420,2451.505594
59310.271275,5699.585753,-17468.860231,10955.165621
59310.271584,7031.956449,-8290.306550,11874.480219
59310.271894,4737.318029,1554.432478,9499.584175
59310.272204,7624.121203,3627.009116,7737.564530
59310.272514,8290.306550,4663.297435,4443.353888
59310.272823,2664.741391,-3627.009116,4826.401637
59310.273133,-3256.906145,-12509.480420,-306.438199
59310.273443,-10140.821405,-22502.260637,-6205.373534
59310.273752,-17172.777854,-20281.642811,-14096.157163
59310.274062,-11399.171507,-25759.166782,-8120.612279
59310.274372,-9548.656652,-22206.178260,-4366.744339
59310.274682,-2442.679609,-16876.695478,-689.485948
59310.274991,444.123565,-13101.645173,3524.039291
59310.275301,4737.318029,-3627.009116,7201.297681
59310.275611,9104.533087,518.144159,9652.803275
59310.275921,7550.100608,5403.503377,10112.460574
59310.276230,4737.318029,10584.944971,7354.516781
59310.276540,5033.400406,5847.626942,4903.011187
59310.276850,6439.791695,3552.988522,1762.019645
59310.277159,-4737.318029,-9548.656652,0.000000
59310.277469,-5403.503377,-16580.613101,-6205.373534
59310.277779,-10140.821405,-22058.137072,-11108.384721
59310.278089,-11843.295072,-26129.269753,-8580.269578
59310.278398,-9178.553681,-23982.672521,-6358.592633
59310.278708,-7105.977043,-22206.178260,-842.705048
59310.279018,-2886.803174,-16950.716072,2451.505594
59310.279328,2368.659014,-7179.997637,3677.258390
59310.279637,4737.318029,-3627.009116,7967.393179
59310.279947,10584.944971,740.205942,11568.042020
59310.280257,6217.729913,8364.327145,7431.126331
59310.280566,9770.718434,6587.832884,7431.126331
59310.280876,8882.471304,5329.482782,4519.963438
59310.281186,-222.061783,-5551.544565,383.047749
59310.281496,-6217.729913,-12805.562797,-4903.011187
59310.281805,-12213.398043,-19541.436869,-11031.775171
59310.282115,-13693.809927,-23612.569550,-12257.527968
59310.282425,-11843.295072,-19023.292709,-9499.584175
59310.282735,-8660.409521,-21465.972318,-4060.306139
59310.283044,-1776.494261,-18135.045579,3677.258390
59310.283354,5847.626942,-11547.212695,4826.401637
59310.283664,6513.812290,-9548.656652,9806.022374
59310.283973,9474.636058,0.000000,10725.336972
59310.284283,8512.368333,2960.823768,9576.193725
59310.284593,7698.141797,5107.421000,6435.202183
59310.284903,8142.265362,6365.771101,3830.477490
59310.285212,2812.782580,-1258.350101,-995.924147
59310.285522,-3923.091493,-9474.636058,-4060.306139
59310.285832,-10288.862594,-16654.633695,-9422.974625
59310.286141,-10658.965565,-22872.363608,-9806.022374
59310.286451,-8956.491898,-25463.084405,-6818.249932
59310.286761,-9030.512492,-19467.416275,-4979.620737
59310.287071,-7698.141797,-22576.281231,919.314598
59310.287380,-74.020594,-15544.324782,3217.601092
59310.287690,3478.967927,-10140.821405,7354.516781
59310.288000,6735.874072,-3034.844362,9729.412825
59310.288310,9104.533087,4145.153275,8503.660028
59310.288619,9400.615463,4737.318029,9729.412825
59310.288929,5921.647536,11177.109724,2604.724693
59310.289239,7550.100608,962.267725,4136.915689
59310.289548,-2590.720797,-8882.471304,2374.896044
59310.289858,-8586.388927,-14285.974681,-5822.325785
59310.290168,-13027.624579,-20503.704593,-11644.651570
59310.290478,-13397.727550,-25315.043216,-9346.365076
59310.290787,-10288.862594,-21688.034101,-7277.907231
59310.291097,-6217.729913,-20503.704593,459.657299
59310.291407,2220.617826,-14804.118840,3600.648841
59310.291717,4663.297435,-11843.295072,7277.907231
59310.292026,8808.450710,-4737.318029,8503.660028
59310.292336,7105.977043,4071.132681,7354.516781
59310.292646,8142.265362,5625.565159,10955.165621
59310.292955,8660.409521,13101.645173,5209.449386
59310.293265,5329.482782,11103.089130,1225.752797
59310.293575,1850.514855,-1036.288319,1838.629195
59310.293885,-4219.173869,-10288.862594,-3677.258390
59310.294194,-9030.512492,-15988.448347,-9116.536426
59310.294504,-11325.150913,-21910.095883,-9882.631924
59310.294814,-11177.109724,-17764.942608,-10572.117872
59310.295124,-6587.832884,-22502.260637,-2528.115143
59310.295433,-3034.844362,-16876.695478,-76.609550
59310.295743,0.000000,-11917.315666,2451.505594
59310.296053,4663.297435,-7698.141797,5209.449386
59310.296362,6735.874072,1480.411884,7584.345430
59310.296672,7476.080014,3330.926739,9806.022374
59310.296982,10436.903782,8290.306550,7584.345430
59310.297292,9104.533087,6883.915261,5669.106685
59310.297601,5847.626942,-1924.535449,5286.058936
59310.297911,-2960.823768,-11547.212695,0.000000
59310.298221,-5995.668130,-18949.272115,-5592.497135
59310.298531,-12805.562797,-20281.642811,-11414.822920
59310.298840,-12731.542202,-22280.198854,-9806.022374
59310.299150,-9548.656652,-20207.622217,-6281.983084
59310.299460,-5403.503377,-17764.942608,-1302.362347
59310.299769,740.205942,-12361.439231,2068.457845
59310.300079,4515.256246,-5625.565159,4749.792088
59310.300389,6587.832884,-3849.070898,7660.954980
59310.300699,9474.636058,2294.638420,9806.022374
59310.301008,9474.636058,5847.626942,7354.516781
59310.301318,10066.800811,6439.791695,6128.763984
59310.301628,7031.956449,2960.823768,3294.210641
59310.301937,0.000000,-6587.832884,0.000000
59310.302247,-3330.926739,-14582.057057,-4979.620737
59310.302557,-7179.997637,-22502.260637,-7431.126331
59310.302867,-11103.089130,-21910.095883,-8810.098227
59310.303176,-9770.718434,-19393.395680,-7201.297681
59310.303486,-8364.327145,-19393.395680,-2528.115143
59310.303796,-3552.988522,-12509.480420,0.000000
59310.304105,0.000000,-9548.656652,2451.505594
59310.304415,2368.659014,-2442.679609,7354.516781
59310.304725,9622.677246,-1184.329507,11797.870669
59310.305034,9400.615463,5847.626942,6665.030833
59310.305344,10658.965565,5033.400406,9116.536426
59310.305654,10288.862594,1184.329507,5439.278036
59310.305963,1998.556043,-9474.636058,2987.772442
59310.306273,-5551.544565,-20133.601622,536.266849
59310.306583,-8290.306550,-19689.478057,-9959.241474
59310.306893,-16432.571912,-22724.322419,-11031.775171
59310.307202,-11843.295072,-20429.683999,-6971.469032
59310.307512,-8882.471304,-16062.468941,-4290.134789
59310.307822,-2220.617826,-18357.107362,3217.601092
59310.308131,3404.947333,-11843.295072,3600.648841
59310.308441,5033.400406,-9474.636058,9576.193725
59310.308751,8882.471304,-4219.173869,11338.213370
59310.309060,8734.430116,518.144159,10648.727422
59310.309370,7772.162391,4071.132681,6588.421283
59310.309680,6513.812290,4367.215058,4749.792088
59310.309989,518.144159,-2738.761985,1608.800546
59310.310299,-4441.235652,-11843.295072,-1915.238745
59310.310609,-10362.883188,-17246.798449,-8580.269578
59310.310919,-10881.027347,-24278.754898,-8350.440928
59310.311228,-8660.409521,-28423.908173,-1915.238745
59310.311538,-10436.903782,-22502.260637,-3294.210641
59310.311848,-8290.306550,-19023.292709,0.000000
59310.312157,1406.391290,-14952.160028,3524.039291
59310.312467,5255.462188,-10658.965565,6205.373534
59310.312777,7031.956449,-5699.585753,10725.336972
59310.313086,10584.944971,3552.988522,10955.165621
59310.313396,8216.285956,5329.482782,9576.193725
59310.313706,8808.450710,10658.965565,3600.648841
59310.314015,2960.823768,518.144159,4290.134789
59310.314325,-370.102971,-9474.636058,-76.609550
59310.314635,-8290.306550,-17246.798449,-6741.640382
59310.314945,-15396.283594,-21391.951724,-11338.213370
59310.315254,-13027.624579,-21391.951724,-9806.022374
59310.315564,-10881.027347,-18949.272115,-8120.612279
59310.315874,-6217.729913,-15396.283594,-1991.848295
59310.316183,-74.020594,-13027.624579,1149.143247
59310.316493,8216.285956,-5107.421000,6281.983084
59310.316803,8216.285956,-2368.659014,7277.907231
59310.317112,7105.977043,4663.297435,8580.269578
59310.317422,13175.665768,2516.700203,12870.404366
59310.317732,9622.677246,8216.285956,6128.763984
59310.318041,4145.153275,4663.297435,2987.772442
59310.318351,1258.350101,-6365.771101,842.705048
59310.318661,-3775.050304,-14656.077652,-3907.087040
59310.318971,-9992.780217,-19985.560434,-9652.803275
59310.319280,-9548.656652,-24574.837274,-8656.879127
59310.319590,-10658.965565,-21169.889941,-8656.879127
59310.319900,-5995.668130,-22206.178260,-1762.019645
59310.320209,-4663.297435,-18431.127956,153.219100
59310.320519,2664.741391,-12509.480420,6128.763984
59310.320829,5329.482782,-5403.503377,6128.763984
59310.321138,8808.450710,-888.247130,10035.851024
59310.321448,10658.965565,4959.379811,9959.241474
59310.321758,11103.089130,7105.977043,7814.174080
59310.322067,7994.224174,4811.338623,4826.401637
59310.322377,2220.617826,-5403.503377,2451.505594
59310.322687,-6513.812290,-14285.974681,-2145.067394
59310.322997,-9548.656652,-22502.260637,-8044.002729
59310.323306,-15988.448347,-22576.281231,-12104.308868
59310.323616,-10732.986159,-24944.940245,-6741.640382
59310.323926,-10140.821405,-18431.127956,-6128.763984
59310.324235,-3627.009116,-16580.613101,-76.609550
59310.324545,1184.329507,-8956.491898,2528.115143
59310.324855,6661.853478,-4811.338623,6741.640382
59310.325164,9326.594869,-1110.308913,10495.508323
59310.325474,10066.800811,4663.297435,10418.898773
59310.325784,9400.615463,6661.853478,8733.488677
59310.326093,7698.141797,8216.285956,4903.011187
59310.326403,3775.050304,-2368.659014,3600.648841
59310.326713,-2072.576638,-10140.821405,306.438199
59310.327023,-7179.997637,-17764.942608,-7737.564530
59310.327332,-11917.315666,-23686.590144,-9882.631924
59310.327642,-13323.706956,-21910.095883,-10878.556072
59310.327952,-10436.903782,-19615.457463,-7354.516781
59310.328261,-6439.791695,-17616.901420,-1685.410096
59310.328571,-3108.864956,-11917.315666,0.000000
59310.328881,4663.297435,-5773.606348,4749.792088
59310.329190,7105.977043,-1850.514855,9193.145976
59310.329500,12953.603985,296.082377,13100.233016
59310.329810,9474.636058,9400.615463,7967.393179
59310.330119,12361.439231,7105.977043,8503.660028
59310.330429,7031.956449,-1184.329507,7277.907231
59310.330739,222.061783,-7550.100608,-76.609550
59310.331049,-7994.224174,-15692.365970,-6128.763984
59310.331358,-12953.603985,-20577.725188,-10801.946522
59310.331668,-14359.995275,-21688.034101,-11108.384721
59310.331978,-11621.233289,-20947.828159,-8503.660028
59310.332287,-8290.306550,-17838.963202,-2911.162892
59310.332597,0.000000,-15544.324782,2757.943793
59310.332907,4071.132681,-9474.636058,4826.401637
59310.333216,8808.450710,-3552.988522,7890.783629
59310.333526,9474.636058,-1258.350101,12410.747068
59310.333836,11769.274478,6365.771101,10572.117872
59310.334145,10881.027347,6143.709319,6741.640382
59310.334455,5255.462188,3478.967927,3370.820191
59310.334765,1110.308913,-5329.482782,1149.143247
59310.335075,-2812.782580,-14730.098246,-2451.505594
59310.335384,-11251.130318,-19911.539840,-9806.022374
59310.335694,-11843.295072,-21391.951724,-9806.022374
59310.336004,-9548.656652,-22502.260637,-8044.002729
59310.336313,-7772.162391,-21910.095883,-2528.115143
59310.336623,-4737.318029,-15766.386565,0.000000
59310.336933,1110.308913,-12361.439231,3370.820191
59310.337242,5551.544565,-11843.295072,8503.660028
59310.337552,9992.780217,-6735.874072,12104.308868
59310.337862,11177.109724,1184.329507,12180.918418
59310.338171,7994.224174,7920.203579,7967.393179
59310.338481,9400.615463,10214.842000,2987.772442
59310.338791,592.164754,-1554.432478,2757.943793
59310.339101,-2442.679609,-11843.295072,-2528.115143
59310.339410,-10658.965565,-19023.292709,-8427.050478
59310.339720,-16284.530724,-22576.281231,-13176.842566
59310.340030,-12953.603985,-21243.910535,-11031.775171
59310.340339,-11325.150913,-19319.375086,-5745.716235
59310.340649,-4885.359217,-15248.242405,-1532.190996
59310.340959,2294.638420,-12731.542202,3830.477490
59310.341268,6217.729913,-4515.256246,6358.592633
59310.341578,10584.944971,-2072.576638,10342.289223
59310.341888,9474.636058,4663.297435,9806.022374
59310.342197,11843.295072,5847.626942,12257.527968
59310.342507,8290.306550,8216.285956,5209.449386
59310.342817,2442.679609,2294.638420,2451.505594
59310.343127,-1184.329507,-8734.430116,0.000000
59310.343436,-6439.791695,-16580.613101,-6052.154434
59310.343746,-13175.665768,-21317.931130,-11261.603821
59310.344056,-12361.439231,-20799.786970,-11874.480219
59310.344365,-11917.315666,-20577.725188,-7967.393179
59310.344675,-6809.894666,-15840.407159,-2757.943793
59310.344985,-370.102971,-15396.283594,-76.609550
59310.345294,148.041188,-9548.656652,3064.381992
59310.345604,5921.647536,-2738.761985,8580.269578
59310.345914,9992.780217,-1702.473667,12180.918418
59310.346223,11991.336260,4959.379811,11874.480219
59310.346533,12139.377449,6809.894666,8427.050478
59310.346843,6735.874072,3182.885551,5209.449386
59310.347152,0.000000,-7179.997637,1685.410096
59310.347462,-7105.977043,-15470.304188,-4903.011187
59310.347772,-10140.821405,-24278.754898,-9882.631924
59310.348082,-15840.407159,-21391.951724,-14709.033562
59310.348391,-15396.283594,-21391.951724,-9806.022374
59310.348701,-10140.821405,-17542.880825,-6128.763984
59310.349011,-1258.350101,-15988.448347,-383.047749
59310.349320,2664.741391,-9770.718434,3983.696590
59310.349630,8808.450710,-5033.400406,9116.536426
59310.349940,10436.903782,444.123565,12334.137518
59310.350249,12139.377449,8142.265362,11261.603821
59310.350559,10658.965565,10584.944971,6741.640382
59310.350869,7105.977043,7031.956449,5515.887586
59310.351178,3478.967927,0.000000,-76.609550
59310.351488,-5921.647536,-13101.645173,919.314598
59310.351798,-7772.162391,-18801.230927,-10495.508323
59310.352108,-11325.150913,-20133.601622,-12334.137518
59310.352417,-11991.336260,-18135.045579,-11108.384721
59310.352727,-8290.306550,-18061.024985,-5286.058936
59310.353037,-3701.029710,-17172.777854,-995.924147
59310.353346,1628.453072,-13027.624579,3447.429741
59310.353656,4663.297435,-10658.965565,7890.783629
59310.353966,6661.853478,-3034.844362,9806.022374
59310.354275,12731.542202,-1258.350101,15934.786358
59310.354585,13545.768739,5329.482782,9729.412825
59310.354895,9400.615463,5921.647536,6052.154434
59310.355204,4145.153275,0.000000,2911.162892
59310.355514,-3552.988522,-9548.656652,-612.876398
59310.355824,-11325.150913,-17468.860231,-7660.954980
59310.356134,-15248.242405,-23390.507767,-12717.185267
59310.356443,-13841.851115,-22724.322419,-10342.289223
59310.356753,-10732.986159,-21317.931130,-6818.249932
59310.357063,-8290.306550,-17246.798449,-2757.943793
59310.357372,0.000000,-12213.398043,3064.381992
59310.357682,7031.956449,-9474.636058,6052.154434
59310.357992,11769.274478,-3552.988522,10955.165621
59310.358301,11251.130318,1998.556043,12257.527968
59310.358611,11177.109724,3923.091493,11721.261119
59310.358921,9622.677246,6513.812290,6435.202183
59310.359230,5255.462188,1702.473667,2681.334243
59310.359540,-444.123565,-8734.430116,1455.581446
59310.359850,-3034.844362,-16580.613101,-4060.306139
59310.360160,-11843.295072,-19615.457463,-11491.432470
59310.360469,-11695.253884,-22724.322419,-8120.612279
59310.360779,-10140.821405,-21317.931130,-8656.879127
59310.361089,-7179.997637,-18357.107362,-2528.115143
59310.361398,-4737.318029,-14878.139434,-919.314598
59310.361708,1998.556043,-8882.471304,2451.505594
59310.362018,6883.915261,-5477.523971,7507.735880
59310.362327,9992.780217,-592.164754,11261.603821
59310.362637,13619.789333,4441.235652,12870.404366
59310.362947,12361.439231,4737.318029,10801.946522
59310.363256,7624.121203,4737.318029,6052.154434
59310.363566,-3552.988522,-2442.679609,0.000000
59310.363876,-4145.153275,-15174.221811,-1838.629195
59310.364186,-9474.636058,-21391.951724,-7354.516781
59310.364495,-13915.871710,-20799.786970,-12257.527968
59310.364805,-12509.480420,-19319.375086,-10725.336972
59310.365115,-10436.903782,-17690.922014,-5669.106685
59310.365424,-4367.215058,-21614.013506,919.314598
59310.365734,1258.350101,-14434.015869,2757.943793
59310.366044,6291.750507,-9992.780217,9576.193725
59310.366353,9400.615463,-2368.659014,9729.412825
59310.366663,7105.977043,6439.791695,9806.022374
59310.366973,13841.851115,3701.029710,11491.432470
59310.367282,5921.647536,7031.956449,5515.887586
59310.367592,1184.329507,-1332.370696,1685.410096
59310.367902,-1776.494261,-11399.171507,-459.657299
59310.368212,-7920.203579,-17690.922014,-7967.393179
59310.368521,-14730.098246,-22354.219448,-11338.213370
59310.368831,-10658.965565,-24426.796086,-7354.516781
59310.369141,-12731.542202,-22872.363608,-5515.887586
59310.369450,-5403.503377,-17172.777854,-919.314598
59310.369760,2294.638420,-14211.954086,1762.019645
59310.370070,3552.988522,-8512.368333,4290.134789
59310.370379,7105.977043,-3627.009116,9806.022374
59310.370689,12287.418637,0.000000,14019.547613
59310.370999,12657.521608,6661.853478,11108.384721
59310.371308,10362.883188,6143.709319,7354.516781
59310.371618,3256.906145,0.000000,3907.087040
59310.371928,-1184.329507,-8956.491898,-689.485948
59310.372238,-9178.553681,-16654.633695,-8273.831378
59310.372547,-14878.139434,-27239.578666,-9882.631924
59310.372857,-14878.139434,-24574.837274,-12334.137518
59310.373167,-14211.954086,-23168.445985,-7967.393179
59310.373476,-7698.141797,-19023.292709,-3677.258390
59310.373786,-666.185348,-17468.860231,1915.238745
59310.374096,3552.988522,-8956.491898,4903.011187
59310.374405,7698.141797,-6365.771101,10495.508323
59310.374715,11695.253884,814.226536,12334.137518
59310.375025,11843.295072,5921.647536,11874.480219
59310.375334,9400.615463,7105.977043,6971.469032
59310.375644,3552.988522,4071.132681,3064.381992
59310.375954,2294.638420,-7105.977043,-76.609550
59310.376264,-7105.977043,-12509.480420,-6128.763984
59310.376573,-10732.986159,-19837.519246,-11491.432470
59310.376883,-12953.603985,-20429.683999,-11874.480219
59310.377193,-12509.480420,-19615.457463,-9116.536426
59310.377502,-9474.636058,-18135.045579,-3983.696590
59310.377812,-2516.700203,-15766.386565,-1072.533697
59310.378122,2886.803174,-11843.295072,4826.401637
59310.378431,6143.709319,-3923.091493,7431.126331
59310.378741,10066.800811,-2442.679609,12257.527968
59310.379051,16506.592507,2368.659014,13406.671215
59310.379360,9474.636058,7624.121203,7354.516781
59310.379670,8216.285956,4737.318029,5745.716235
59310.379980,1332.370696,-3627.009116,1838.629195
59310.380290,-5255.462188,-13323.706956,-3140.991542
59310.380599,-11325.150913,-20059.581028,-9959.241474
59310.380909,-14211.954086,-22946.384202,-11644.651570
59310.381219,-12509.480420,-20725.766376,-9882.631924
59310.381528,-10955.047942,-21836.075289,-3983.696590
59310.381838,-1850.514855,-16580.613101,-1302.362347
59310.382148,0.000000,-11325.150913,2451.505594
59310.382457,7698.141797,-8956.491898,10265.679673
59310.382767,12953.603985,-4145.153275,10955.165621
59310.383077,10066.800811,2294.638420,12410.747068
59310.383386,10658.965565,7550.100608,8273.831378
59310.383696,7920.203579,6735.874072,4290.134789
59310.384006,2146.597232,-888.247130,2145.067394
59310.384316,-1332.370696,-9696.697840,-459.657299
59310.384625,-7994.224174,-17912.983796,-5439.278036
59310.384935,-12213.398043,-21317.931130,-10495.508323
59310.385245,-15396.283594,-17838.963202,-11644.651570
59310.385554,-11843.295072,-18875.251521,-5669.106685
59310.385864,-4811.338623,-18357.107362,-76.609550
59310.386174,-962.267725,-12583.501014,0.000000
59310.386483,4589.276840,-9252.574275,4979.620737
59310.386793,8142.265362,-5255.462188,9193.145976
59310.387103,11103.089130,74.020594,11491.432470
59310.387412,10658.965565,5847.626942,11031.775171
59310.387722,10288.862594,6143.709319,7354.516781
59310.388032,8216.285956,0.000000,4826.401637
59310.388342,-2368.659014,-3627.009116,0.000000
59310.388651,-5329.482782,-14582.057057,-3447.429741
59310.388961,-11103.089130,-20281.642811,-9116.536426
59310.389271,-12879.583391,-20503.704593,-10189.070123
59310.389580,-11843.295072,-20133.601622,-8350.440928
59310.389890,-7846.182985,-16728.654289,-3370.820191
59310.390200,-2664.741391,-16580.613101,689.485948
59310.390509,1184.329507,-8364.327145,2451.505594
59310.390819,7328.038826,-6291.750507,7814.174080
59310.391129,8216.285956,-2368.659014,9729.412825
59310.391438,7698.141797,4663.297435,9806.022374
59310.391748,11177.109724,3552.988522,8503.660028
59310.392058,4737.318029,4367.215058,3983.696590
59310.392368,1406.391290,-4589.276840,1532.190996
59310.392677,-5551.544565,-12509.480420,-2451.505594
59310.392987,-9252.574275,-18357.107362,-8427.050478
59310.393297,-11399.171507,-20799.786970,-9959.241474
59310.393606,-12139.377449,-18135.045579,-10725.336972
59310.393916,-9474.636058,-16654.633695,-4903.011187
59310.394226,-2368.659014,-16654.633695,3370.820191
59310.394535,3478.967927,-14211.954086,4519.963438
59310.394845,4145.153275,-4811.338623,5745.716235
59310.395155,7105.977043,-666.185348,9806.022374
59310.395464,10584.944971,2368.659014,10955.165621
59310.395774,9474.636058,2664.741391,8120.612279
59310.396084,7105.977043,3108.864956,5822.325785
59310.396394,1554.432478,-5181.441594,2221.676944
59310.396703,-4219.173869,-13619.789333,-3447.429741
59310.397013,-13915.871710,-17838.963202,-9806.022374
59310.397323,-12509.480420,-26943.496289,-8044.002729
59310.397632,-10732.986159,-21910.095883,-9269.755526
59310.397942,-8882.471304,-17838.963202,-4290.134789
59310.398252,-2960.823768,-14878.139434,0.000000
59310.398561,1110.308913,-14804.118840,4290.134789
59310.398871,6365.771101,-7846.182985,7507.735880
59310.399181,8882.471304,-3256.906145,9806.022374
59310.399490,9474.636058,3256.906145,10648.727422
59310.399800,7328.038826,8216.285956,5898.935335
59310.400110,6069.688724,8512.368333,3983.696590
59310.400419,5033.400406,74.020594,4903.011187
59310.400729,-1554.432478,-7105.977043,-1302.362347
59310.401039,-11843.295072,-14285.974681,-7354.516781
59310.401349,-12435.459826,-17838.963202,-10418.898773
59310.401658,-9918.759623,-21021.848753,-8350.440928
59310.401968,-9252.574275,-18061.024985,-6052.154434
59310.402278,-5255.462188,-16358.551318,-2451.505594
59310.402587,-518.144159,-14211.954086,1072.533697
59310.402897,1554.432478,-8956.491898,2451.505594
59310.403207,6513.812290,-6291.750507,7967.393179
59310.403516,10066.800811,-2442.679609,13483.280765
59310.403826,10584.944971,6513.812290,9729.412825
59310.404136,9474.636058,9400.615463,5056.230287
59310.404446,4885.359217,4663.297435,4443.353888
59310.404755,1110.308913,-4145.153275,995.924147
59310.405065,-5255.462188,-13619.789333,-4903.011187
59310.405375,-11177.109724,-17690.922014,-10878.556072
59310.405685,-12509.480420,-20281.642811,-10342.289223
59310.405995,-13027.624579,-17912.983796,-9806.022374
59310.406305,-8290.306550,-15470.304188,-3064.381992
59310.406614,-74.020594,-15100.201217,2374.896044
59310.406924,3182.885551,-13027.624579,4826.401637
59310.407234,5921.647536,-7179.997637,8580.269578
59310.407544,7846.182985,-3182.885551,9422.974625
59310.407854,5921.647536,2886.803174,8580.269578
59310.408163,9474.636058,4663.297435,8580.269578
59310.408473,8216.285956,2368.659014,3600.648841
59310.408783,518.144159,-5255.462188,1302.362347
59310.409093,-4145.153275,-12213.398043,-1532.190996
59310.409403,-10066.800811,-18135.045579,-8044.002729
59310.409713,-11029.068536,-21317.931130,-10189.070123
59310.410022,-13027.624579,-19023.292709,-8580.269578
59310.410332,-6883.915261,-18949.272115,-3447.429741
59310.410642,-3552.988522,-17542.880825,1915.238745
59310.410952,0.000000,-11399.171507,1838.629195
59310.411262,5033.400406,-7550.100608,5975.544884
59310.411571,7920.203579,-3404.947333,9499.584175
59310.411881,9252.574275,2220.617826,10189.070123
59310.412191,7698.141797,6439.791695,7354.516781
59310.412501,8808.450710,5921.647536,4136.915689
59310.412811,3330.926739,-5921.647536,2374.896044
59310.413121,-4737.318029,-11917.315666,0.000000
59310.413430,-10066.800811,-20577.725188,-6665.030833
59310.413740,-13027.624579,-23760.610738,-8886.707777
59310.414050,-11029.068536,-22872.363608,-8273.831378
59310.414360,-8586.388927,-20281.642811,-4826.401637
59310.414670,-3775.050304,-17024.736666,612.876398
59310.414979,370.102971,-13989.892304,2681.334243
59310.415289,3330.926739,-6291.750507,3677.258390
59310.415599,7698.141797,-1850.514855,8886.707777
59310.415909,9400.615463,0.000000,12180.918418
59310.416219,5329.482782,8216.285956,6128.763984
59310.416529,8290.306550,5107.421000,6205.373534
59310.416838,3404.947333,-74.020594,3217.601092
59310.417148,-666.185348,-9474.636058,-689.485948
59310.417458,-8734.430116,-16506.592507,-5898.935335
59310.417768,-11621.233289,-20207.622217,-9882.631924
59310.418078,-11473.192101,-22280.198854,-8350.440928
59310.418387,-10140.821405,-19541.436869,-6205.373534
59310.418697,-7105.977043,-16950.716072,-1838.629195
59310.419007,0.000000,-13101.645173,3064.381992
59310.419317,7031.956449,-7698.141797,4826.401637
59310.419627,5329.482782,-4811.338623,7890.783629
59310.419937,9474.636058,4071.132681,9193.145976
59310.420246,9696.697840,5329.482782,10035.851024
59310.420556,8438.347739,6957.935855,6128.763984
59310.420866,7031.956449,3701.029710,3830.477490
59310.421176,0.000000,-6735.874072,306.438199
59310.421486,-5995.668130,-14211.954086,-6205.373534
59310.421795,-12435.459826,-19171.333898,-11031.775171
59310.422105,-11547.212695,-23760.610738,-7201.297681
59310.422415,-9548.656652,-20725.766376,-7431.126331
59310.422725,-7994.224174,-17838.963202,-2451.505594
59310.423035,-2072.576638,-12805.562797,1225.752797
59310.423345,3627.009116,-10066.800811,5669.106685
59310.423654,8142.265362,-5773.606348,8656.879127
59310.423964,9474.636058,-74.020594,10265.679673
59310.424274,8290.306550,4885.359217,9499.584175
59310.424584,9400.615463,5921.647536,6052.154434
59310.424894,5181.441594,4959.379811,2451.505594
59310.425203,592.164754,-3627.009116,1838.629195
59310.425513,-5403.503377,-11843.295072,-4979.620737
59310.425823,-13027.624579,-19023.292709,-9806.022374
59310.426133,-11029.068536,-20133.601622,-12257.527968
59310.426443,-10658.965565,-20503.704593,-7584.345430
59310.426753,-6661.853478,-16062.468941,-3753.867940
59310.427062,-3182.885551,-16580.613101,1225.752797
59310.427372,1998.556043,-12657.521608,4826.401637
59310.427682,9400.615463,-8882.471304,10878.556072
59310.427992,9400.615463,-4145.153275,9729.412825
59310.428302,5033.400406,6439.791695,6741.640382
59310.428611,9400.615463,3849.070898,8350.440928
59310.428921,6439.791695,6439.791695,3294.210641
59310.429231,4663.297435,-2220.617826,-76.609550
59310.429541,-4145.153275,-11621.233289,-2757.943793
59310.429851,-11399.171507,-18061.024985,-8503.660028
59310.430161,-12657.521608,-22428.240043,-11031.775171
59310.430470,-11695.253884,-24204.734303,-6511.811733
59310.430780,-7994.224174,-19615.457463,-2911.162892
59310.431090,-3034.844362,-18209.066173,2221.676944
59310.431400,-74.020594,-11547.212695,1762.019645
59310.431710,6513.812290,-7179.997637,7967.393179
59310.432019,10288.862594,-4441.235652,10801.946522
59310.432329,9104.533087,1184.329507,10955.165621
59310.432639,6809.894666,6291.750507,6358.592633
59310.432949,6365.771101,6439.791695,4903.011187
59310.433259,4811.338623,1110.308913,2528.115143
59310.433569,-888.247130,-7994.224174,-1225.752797
59310.433878,-10066.800811,-14878.139434,-6128.763984
59310.434188,-11473.192101,-21762.054695,-8580.269578
59310.434498,-9548.656652,-26055.249158,-7431.126331
59310.434808,-9474.636058,-21391.951724,-5975.544884
59310.435118,-6217.729913,-19023.292709,-1225.752797
59310.435427,-370.102971,-17172.777854,4826.401637
59310.435737,4589.276840,-10066.800811,6281.983084
59310.436047,9474.636058,-5551.544565,9116.536426
59310.436357,8290.306550,222.061783,10265.679673
59310.436667,6513.812290,4071.132681,7354.516781
59310.436977,5921.647536,8216.285956,4903.011187
59310.437286,6217.729913,1406.391290,3677.258390
59310.437596,3478.967927,-8290.306550,2374.896044
59310.437906,-9178.553681,-13101.645173,-5515.887586
59310.438216,-11103.089130,-21317.931130,-9269.755526
59310.438526,-12361.439231,-24870.919651,-8120.612279
59310.438835,-8808.450710,-19689.478057,-7431.126331
59310.439145,-7031.956449,-21243.910535,-1225.752797
59310.439455,-1480.411884,-17172.777854,2451.505594
59310.439765,4811.338623,-8364.327145,3677.258390
59310.440075,6513.812290,-1850.514855,6128.763984
59310.440385,9474.636058,1702.473667,9806.022374
59310.440694,10584.944971,2368.659014,9729.412825
59310.441004,4737.318029,9400.615463,4903.011187
59310.441314,7920.203579,4441.235652,4673.182538
59310.441624,2368.659014,-3330.926739,1378.971896
59310.441934,-4515.256246,-12287.418637,-3830.477490
59310.442243,-11103.089130,-18061.024985,-9729.412825
59310.442553,-13767.830521,-23538.548956,-10801.946522
59310.442863,-9918.759623,-19837.519246,-7890.783629
59310.443173,-8956.491898,-18949.272115,-4673.182538
59310.443483,-4737.318029,-14285.974681,0.000000
59310.443793,4737.318029,-10140.821405,6281.983084
59310.444102,7031.956449,-4737.318029,7124.688131
59310.444412,8290.306550,4663.297435,10648.727422
59310.444722,7476.080014,7031.956449,9806.022374
59310.445032,7920.203579,9030.512492,6665.030833
59310.445342,7624.121203,7698.141797,2911.162892
59310.445651,4515.256246,1184.329507,1991.848295
59310.445961,-888.247130,-7698.141797,-2528.115143
59310.446271,-7772.162391,-15692.365970,-8656.879127
59310.446581,-14063.912898,-20207.622217,-13483.280765
59310.446891,-9474.636058,-23908.651927,-7354.516781
59310.447201,-7179.997637,-21317.931130,-4979.620737
59310.447510,-4737.318029,-16654.633695,612.876398
59310.447820,1184.329507,-13101.645173,3064.381992
59310.448130,5921.647536,-8956.491898,8427.050478
59310.448440,9548.656652,-1036.288319,8197.221829
59310.448750,7105.977043,2960.823768,9806.022374
59310.449059,6957.935855,7105.977043,7277.907231
59310.449369,8216.285956,7105.977043,4826.401637
59310.449679,5255.462188,2664.741391,2374.896044
59310.449989,-2368.659014,-4811.338623,0.000000
59310.450299,-7772.162391,-16580.613101,-5592.497135
59310.450609,-13027.624579,-19023.292709,-9806.022374
59310.450918,-12361.439231,-22132.157666,-9806.022374
59310.451228,-9696.697840,-20799.786970,-6665.030833
59310.451538,-5551.544565,-17024.736666,-1762.019645
59310.451848,-1554.432478,-14952.160028,2528.115143
59310.452158,5847.626942,-8068.244768,7890.783629
59310.452467,11251.130318,-6513.812290,10955.165621
59310.452777,9400.615463,1184.329507,9729.412825
59310.453087,3552.988522,10584.944971,6128.763984
59310.453397,8808.450710,11843.295072,4519.963438
59310.453707,4885.359217,12953.603985,612.876398
59310.454017,2294.638420,2368.659014,-689.485948
59310.454326,-6069.688724,-8142.265362,-4903.011187
59310.454636,-11103.089130,-16062.468941,-9882.631924
59310.454946,-11917.315666,-21762.054695,-10495.508323
59310.455256,-8956.491898,-19837.519246,-7354.516781
59310.455566,-6809.894666,-18949.272115,-1532.190996
59310.455875,-1258.350101,-21910.095883,4826.401637
59310.456185,4663.297435,-11251.130318,4826.401637
59310.456495,5329.482782,-8068.244768,7354.516781
59310.456805,9696.697840,-222.061783,9116.536426
59310.457115,10584.944971,6513.812290,7890.783629
59310.457425,7920.203579,5551.544565,9346.365076
59310.457734,5477.523971,6291.750507,3677.258390
59310.458044,2590.720797,222.061783,919.314598
59310.458354,-4145.153275,-8364.327145,-2451.505594
59310.458664,-10658.965565,-16654.633695,-7354.516781
59310.458974,-11325.150913,-26055.249158,-7431.126331
59310.459283,-10732.986159,-20429.683999,-9882.631924
59310.459593,-9474.636058,-19023.292709,-5515.887586
59310.459903,-2738.761985,-18949.272115,2068.457845
59310.460213,3478.967927,-13027.624579,4826.401637
59310.460523,6291.750507,-7254.018232,7201.297681
59310.460833,8512.368333,-2368.659014,9499.584175
59310.461142,7846.182985,3923.091493,9039.926876
59310.461452,4737.318029,9104.533087,4903.011187
59310.461762,4737.318029,6439.791695,3677.258390
59310.462072,3552.988522,-74.020594,2451.505594
59310.462382,-74.020594,-11843.295072,-76.609550
59310.462691,-9474.636058,-16062.468941,-7814.174080
59310.463001,-11325.150913,-25463.084405,-8044.002729
59310.463311,-10732.986159,-27165.558071,-7431.126331
59310.463621,-9548.656652,-21465.972318,-7431.126331
59310.463931,-6513.812290,-24056.693115,766.095498
59310.464241,444.123565,-14211.954086,3064.381992
59310.464550,3849.070898,-8660.409521,4903.011187
59310.464860,5921.647536,-1258.350101,6435.202183
59310.465170,5921.647536,4071.132681,9806.022374
59310.465480,8216.285956,2960.823768,9116.536426
59310.465790,7402.059420,7920.203579,4903.011187
59310.466099,8216.285956,1184.329507,4826.401637
59310.466409,0.000000,-5699.585753,0.000000
59310.466719,-6365.771101,-13175.665768,-5209.449386
59310.467029,-12583.501014,-21095.869347,-8656.879127
59310.467339,-12805.562797,-23094.425390,-9806.022374
59310.467649,-9548.656652,-19541.436869,-8656.879127
59310.467958,-8364.327145,-18431.127956,-3447.429741
59310.468268,-3552.988522,-12213.398043,0.000000
59310.468578,5033.400406,-11029.068536,7354.516781
59310.468888,7031.956449,-9474.636058,9422.974625
59310.469198,9474.636058,-3627.009116,11184.994271
59310.469507,4145.153275,2294.638420,8580.269578
59310.469817,7179.997637,740.205942,6205.373534
59310.470127,5921.647536,592.164754,3677.258390
59310.470437,2590.720797,-7105.977043,1225.752797
59310.470747,-3034.844362,-16284.530724,-2528.115143
59310.471057,-11325.150913,-22502.260637,-7431.126331
59310.471366,-15396.283594,-23760.610738,-12257.527968
59310.471676,-11843.295072,-25685.146187,-7354.516781
59310.471986,-7772.162391,-21317.931130,-4060.306139
59310.472296,-4737.318029,-20207.622217,3064.381992
59310.472606,1184.329507,-11029.068536,4290.134789
59310.472915,7698.141797,-8586.388927,9499.584175
59310.473225,8882.471304,-444.123565,9806.022374
59310.473535,7031.956449,2812.782580,10035.851024
59310.473845,8808.450710,4737.318029,8503.660028
59310.474155,9400.615463,4737.318029,4826.401637
59310.474465,4071.132681,0.000000,1149.143247
59310.474774,-2368.659014,-9548.656652,-1838.629195
59310.475084,-9548.656652,-17024.736666,-8656.879127
59310.475394,-15396.283594,-22576.281231,-9806.022374
59310.475704,-12435.459826,-22650.301825,-9576.193725
59310.476014,-9400.615463,-18875.251521,-5439.278036
59310.476323,-3330.926739,-15692.365970,-383.047749
59310.476633,2812.782580,-10436.903782,3524.039291
59310.476943,8216.285956,-6217.729913,9729.412825
59310.477253,13545.768739,0.000000,10495.508323
59310.477563,9400.615463,5921.647536,7890.783629
59310.477873,4737.318029,9400.615463,6128.763984
59310.478182,9400.615463,7698.141797,3600.648841
59310.478492,4737.318029,7031.956449,0.000000
59310.478802,1406.391290,-3256.906145,-689.485948
59310.479112,-5329.482782,-10140.821405,-5515.887586
59310.479422,-9918.759623,-19319.375086,-9499.584175
59310.479731,-10732.986159,-21984.116477,-10418.898773
59310.480041,-7920.203579,-23168.445985,-5669.106685
59310.480351,-5181.441594,-24648.857869,306.438199
59310.480661,-74.020594,-21317.931130,4826.401637
59310.480971,2590.720797,-12509.480420,4519.963438
59310.481281,7698.141797,-5699.585753,9806.022374
59310.481590,7328.038826,296.082377,8503.660028
59310.481900,7624.121203,4737.318029,8350.440928
59310.482210,7624.121203,7624.121203,6205.373534
59310.482520,6513.812290,4145.153275,3524.039291
59310.482830,1628.453072,-4663.297435,1149.143247
59310.483139,-6513.812290,-11917.315666,-4290.134789
59310.483449,-11843.295072,-19023.292709,-9806.022374
59310.483759,-14211.954086,-25833.187376,-8886.707777
59310.484069,-9548.656652,-21910.095883,-7737.564530
59310.484379,-8956.491898,-19245.354492,-4979.620737
59310.484689,-1258.350101,-14063.912898,2374.896044
59310.484998,5847.626942,-12435.459826,7277.907231
59310.485308,8660.409521,-5107.421000,8503.660028
59310.485618,8808.450710,-444.123565,9652.803275
59310.485928,7105.977043,4293.194464,8963.317327
59310.486238,3552.988522,9400.615463,4903.011187
59310.486547,3552.988522,7031.956449,612.876398
59310.486857,2368.659014,-1554.432478,1225.752797
59310.487167,-1850.514855,-11251.130318,-3140.991542
59310.487477,-11547.212695,-16654.633695,-9806.022374
59310.487787,-10732.986159,-24870.919651,-9882.631924
59310.488097,-8216.285956,-24278.754898,-6205.373534
59310.488406,-6809.894666,-21984.116477,-3370.820191
59310.488716,-2812.782580,-17912.983796,2145.067394
59310.489026,1184.329507,-15470.304188,5592.497135
59310.489336,5921.647536,-7328.038826,7354.516781
59310.489646,6513.812290,-2072.576638,8197.221829
59310.489955,4737.318029,4663.297435,7967.393179
59310.490265,7994.224174,5033.400406,7277.907231
59310.490575,4293.194464,4071.132681,612.876398
59310.490885,4663.297435,-3849.070898,4826.401637
59310.491195,-2368.659014,-10732.986159,0.000000
59310.491505,-9548.656652,-17987.004391,-7584.345430
59310.491814,-13397.727550,-22946.384202,-9269.755526
59310.492124,-13249.686362,-25537.104999,-8580.269578
59310.492434,-8956.491898,-23094.425390,-5592.497135
59310.492744,-5995.668130,-21317.931130,-76.609550
59310.493054,-1998.556043,-10732.986159,1302.362347
59310.493363,4145.153275,-8660.409521,7354.516781
59310.493673,9400.615463,-2368.659014,9116.536426
59310.493983,8290.306550,3478.967927,10035.851024
59310.494293,4737.318029,7920.203579,6281.983084
59310.494603,7031.956449,7698.141797,4903.011187
59310.494913,5699.585753,3330.926739,2834.553343
59310.495222,1702.473667,-4589.276840,536.266849
59310.495532,-4811.338623,-15396.283594,-3140.991542
59310.495842,-9548.656652,-21317.931130,-9882.631924
59310.496152,-13027.624579,-21688.034101,-11338.213370
59310.496462,-10066.800811,-22724.322419,-6894.859482
59310.496771,-7179.997637,-24870.919651,-1302.362347
59310.497081,-2368.659014,-17838.963202,3677.258390
59310.497391,1776.494261,-12065.356855,4903.011187
59310.497701,6883.915261,-7698.141797,8273.831378
59310.498011,8290.306550,-1406.391290,9652.803275
59310.498321,6957.935855,3923.091493,9422.974625
59310.498630,9400.615463,4737.318029,8197.221829
59310.498940,9400.615463,1184.329507,6052.154434
59310.499250,2294.638420,-2664.741391,229.828649
59310.499560,-5921.647536,-11325.150913,-3064.381992
59310.499870,-8660.409521,-21317.931130,-6205.373534
59310.500179,-14211.954086,-21391.951724,-9806.022374
59310.500489,-11991.336260,-22428.240043,-9422.974625
59310.500799,-8882.471304,-19763.498651,-4673.182538
59310.501109,-4219.173869,-19763.498651,1685.410096
59310.501419,1702.473667,-11769.274478,4596.572988
59310.501729,8808.450710,-8290.306550,7890.783629
59310.502038,9178.553681,-3034.844362,11338.213370
59310.502348,9400.615463,2368.659014,9729.412825
59310.502658,4737.318029,7920.203579,5515.887586
59310.502968,10584.944971,2368.659014,6052.154434
59310.503278,3256.906145,1110.308913,306.438199
59310.503587,-962.267725,-9030.512492,-1455.581446
59310.503897,-8142.265362,-16136.489536,-7124.688131
59310.504207,-11695.253884,-23464.528361,-8963.317327
59310.504517,-10288.862594,-23464.528361,-8810.098227
59310.504827,-8586.388927,-21688.034101,-4903.011187
59310.505137,-7105.977043,-16654.633695,0.000000
59310.505447,2738.761985,-15766.386565,5439.278036
59310.505757,7624.121203,-8290.306550,6665.030833
59310.506066,7105.977043,-5995.668130,9806.022374
59310.506376,7624.121203,-370.102971,9039.926876
59310.506686,8216.285956,4737.318029,6971.469032
59310.506996,4737.318029,7920.203579,3370.820191
59310.507306,6883.915261,0.000000,4979.620737
59310.507616,3034.844362,-8512.368333,919.314598
59310.507926,-7105.977043,-14285.974681,-6128.763984
59310.508235,-14211.954086,-20207.622217,-9806.022374
59310.508545,-13619.789333,-25833.187376,-9193.145976
59310.508855,-9548.656652,-23686.590144,-6205.373534
59310.509165,-9474.636058,-17246.798449,-4903.011187
59310.509475,-2590.720797,-16432.571912,2374.896044
59310.509785,5255.462188,-8882.471304,5745.716235
59310.510095,7624.121203,-5181.441594,7890.783629
59310.510404,8364.327145,3182.885551,9116.536426
59310.510714,6735.874072,4367.215058,8503.660028
59310.511024,5329.482782,9400.615463,4903.011187
59310.511334,4293.194464,5255.462188,1838.629195
59310.511644,2960.823768,-5107.421000,2757.943793
59310.511954,-4219.173869,-12435.459826,-3753.867940
59310.512264,-10658.965565,-19615.457463,-6741.640382
59310.512574,-11917.315666,-25759.166782,-9882.631924
59310.512883,-10436.903782,-24352.775492,-7507.735880
59310.513193,-7772.162391,-22058.137072,-4443.353888
59310.513503,-3701.029710,-18283.086767,1225.752797
59310.513813,1628.453072,-12657.521608,4749.792088
59310.514123,6439.791695,-6661.853478,7277.907231
59310.514433,9400.615463,0.000000,8810.098227
59310.514743,5921.647536,5847.626942,8886.707777
59310.515052,9770.718434,6587.832884,9116.536426
59310.515362,7624.121203,8290.306550,3907.087040
59310.515672,6365.771101,-3552.988522,6052.154434
59310.515982,-2220.617826,-11917.315666,-1072.533697
59310.516292,-9696.697840,-17246.798449,-8273.831378
59310.516602,-14285.974681,-24870.919651,-10342.289223
59310.516912,-12435.459826,-23760.610738,-10342.289223
59310.517221,-9548.656652,-22502.260637,-4979.620737
59310.517531,-4811.338623,-18949.272115,-1302.362347
59310.517841,-2146.597232,-18431.127956,2681.334243
59310.518151,5329.482782,-10732.986159,8580.269578
59310.518461,11769.274478,-4737.318029,9729.412825
59310.518771,9030.512492,1184.329507,11414.822920
59310.519081,7105.977043,6883.915261,7354.516781
59310.519391,7105.977043,5773.606348,5209.449386
59310.519700,3627.009116,-370.102971,2221.676944
59310.520010,2886.803174,-6735.874072,-1378.971896
59310.520320,-3627.009116,-18949.272115,-4519.963438
59310.520630,-9548.656652,-24870.919651,-7737.564530
59310.520940,-12805.562797,-23760.610738,-11338.213370
59310.521250,-8882.471304,-22872.363608,-6128.763984
59310.521560,-3627.009116,-22502.260637,-2528.115143
59310.521869,-3552.988522,-14285.974681,2757.943793
59310.522179,3108.864956,-15470.304188,6741.640382
59310.522489,8438.347739,-16950.716072,10878.556072
59310.522799,9030.512492,-7624.121203,11491.432470
59310.523109,6513.812290,1184.329507,9193.145976
59310.523419,9400.615463,2442.679609,7584.345430
59310.523729,9400.615463,-2960.823768,7277.907231
59310.524039,2294.638420,-7105.977043,1149.143247
59310.524348,-5921.647536,-14285.974681,-3677.258390
59310.524658,-9548.656652,-25907.207970,-6511.811733
59310.524968,-15396.283594,-26721.434506,-9806.022374
59310.525278,-11991.336260,-22872.363608,-9039.926876
59310.525588,-9252.574275,-23464.528361,-3600.648841
59310.525898,-3627.009116,-16728.654289,919.314598
59310.526208,2294.638420,-10732.986159,5286.058936
59310.526517,7254.018232,-7476.080014,9806.022374
59310.526827,11251.130318,-2442.679609,11797.870669
59310.527137,8808.450710,1184.329507,10955.165621
59310.527447,4737.318029,7624.121203,4903.011187
59310.527757,8808.450710,1184.329507,6052.154434
59310.528067,592.164754,-2442.679609,1991.848295
59310.528377,-3034.844362,-11843.295072,-2681.334243
59310.528686,-10510.924376,-20207.622217,-7814.174080
59310.528996,-13397.727550,-24500.816680,-10801.946522
59310.529306,-11991.336260,-23982.672521,-9729.412825
59310.529616,-7698.141797,-16654.633695,-5515.887586
59310.529926,-8290.306550,-15470.304188,0.000000
59310.530236,1702.473667,-7698.141797,2987.772442
59310.530546,6439.791695,-3256.906145,5439.278036
59310.530856,9474.636058,4663.297435,9806.022374
59310.531165,7179.997637,9992.780217,7967.393179
59310.531475,10584.944971,13323.706956,6358.592633
59310.531785,7328.038826,10955.047942,5592.497135
59310.532095,5033.400406,5107.421000,2681.334243
59310.532405,814.226536,-2812.782580,-995.924147
59310.532715,-9474.636058,-11917.315666,-7354.516781
59310.533025,-15396.283594,-17838.963202,-11338.213370
59310.533334,-13027.624579,-22724.322419,-9806.022374
59310.533644,-9844.739029,-21317.931130,-7431.126331
59310.533954,-10658.965565,-17246.798449,-4903.011187
59310.534264,-1850.514855,-11843.295072,-689.485948
59310.534574,4663.297435,-8290.306550,6588.421283
59310.534884,9918.759623,-2442.679609,8350.440928
59310.535194,10288.862594,1998.556043,10648.727422
59310.535504,8660.409521,6069.688724,9959.241474
59310.535813,6809.894666,7624.121203,5439.278036
59310.536123,4885.359217,5107.421000,0.000000
59310.536433,1184.329507,-4811.338623,0.000000
59310.536743,-2442.679609,-16580.613101,-1302.362347
59310.537053,-9844.739029,-20577.725188,-9882.631924
59310.537363,-11917.315666,-24870.919651,-10801.946522
59310.537673,-11251.130318,-20799.786970,-9499.584175
59310.537982,-6587.832884,-19985.560434,-4443.353888
59310.538292,-3256.906145,-12213.398043,76.609550
59310.538602,148.041188,-15174.221811,5132.839837
59310.538912,9400.615463,-8586.388927,9729.412825
59310.539222,8216.285956,-1628.453072,8733.488677
59310.539532,9474.636058,2294.638420,11031.775171
59310.539842,11177.109724,2368.659014,9729.412825
59310.540151,4737.318029,4663.297435,4903.011187
59310.540461,5847.626942,-7105.977043,2987.772442
59310.540771,-3552.988522,-9770.718434,-3217.601092
59310.541081,-8290.306550,-19911.539840,-7660.954980
59310.541391,-13323.706956,-25167.002028,-10418.898773
59310.541701,-14211.954086,-22576.281231,-10035.851024
59310.542011,-7179.997637,-21317.931130,-4366.744339
59310.542321,-4811.338623,-16580.613101,-2528.115143
59310.542630,0.000000,-13397.727550,3064.381992
59310.542940,5921.647536,-15470.304188,13483.280765
59310.543250,14137.933492,-5329.482782,8503.660028
59310.543560,8882.471304,-4737.318029,14479.204912
59310.543870,7105.977043,4959.379811,8197.221829
59310.544180,9178.553681,2812.782580,6128.763984
59310.544490,3404.947333,-5033.400406,4443.353888
59310.544799,-592.164754,-11103.089130,-1608.800546
59310.545109,-7254.018232,-19985.560434,-5822.325785
59310.545419,-10732.986159,-24870.919651,-8656.879127
59310.545729,-12953.603985,-23020.404796,-11031.775171
59310.546039,-11843.295072,-19023.292709,-7354.516781
59310.546349,-4811.338623,-20725.766376,-1302.362347
59310.546659,-2960.823768,-15174.221811,2451.505594
59310.546968,5181.441594,-8882.471304,6818.249932
59310.547278,10658.965565,-4145.153275,9346.365076
59310.547588,11103.089130,1184.329507,11797.870669
59310.547898,11029.068536,6513.812290,10495.508323
59310.548208,10658.965565,7624.121203,7354.516781
59310.548518,6217.729913,1110.308913,5669.106685
59310.548828,1702.473667,-4737.318029,-76.609550
59310.549138,-9474.636058,-10732.986159,-7967.393179
59310.549447,-15100.201217,-20799.786970,-7967.393179
59310.549757,-15766.386565,-25092.981434,-10112.460574
59310.550067,-11621.233289,-25907.207970,-7890.783629
59310.550377,-8142.265362,-22354.219448,-3830.477490
59310.550687,-5699.585753,-17172.777854,0.000000
59310.550997,1110.308913,-12953.603985,5056.230287
59310.551307,9474.636058,-2442.679609,8580.269578
59310.551616,13027.624579,5847.626942,9806.022374
59310.551926,14730.098246,9770.718434,11568.042020
59310.552236,6217.729913,11769.274478,5515.887586
59310.552546,9770.718434,8586.388927,5286.058936
59310.552856,2146.597232,3330.926739,-1225.752797
59310.553166,-4219.173869,-6513.812290,-3753.867940
59310.553476,-9992.780217,-13693.809927,-9422.974625
59310.553786,-12065.356855,-20059.581028,-11031.775171
59310.554095,-10288.862594,-18209.066173,-10035.851024
59310.554405,-5329.482782,-16136.489536,-6205.373534
59310.554715,-4737.318029,-11917.315666,-2451.505594
59310.555025,1776.494261,-6587.832884,3064.381992
59310.555335,9400.615463,-4737.318029,8503.660028
59310.555645,9474.636058,2886.803174,9806.022374
59310.555955,10214.842000,5551.544565,9806.022374
59310.556264,10584.944971,8068.244768,8427.050478
59310.556574,7179.997637,222.061783,6128.763984
59310.556884,2220.617826,-5477.523971,3294.210641
59310.557194,-3997.112087,-13175.665768,-1838.629195
59310.557504,-9326.594869,-22502.260637,-7431.126331
59310.557814,-16210.510130,-25167.002028,-12640.575717
59310.558124,-15692.365970,-27313.599260,-9193.145976
59310.558433,-7179.997637,-26055.249158,-5286.058936
59310.558743,-7328.038826,-19023.292709,-2757.943793
59310.559053,-2590.720797,-10362.883188,0.000000
59310.559363,5033.400406,-5403.503377,7354.516781
59310.559673,11621.233289,-1480.411884,10648.727422
59310.559983,11103.089130,3849.070898,10878.556072
59310.560293,8660.409521,2146.597232,12180.918418
59310.560603,9400.615463,2368.659014,7890.783629
59310.560912,4071.132681,-1184.329507,2987.772442
59310.561222,-3552.988522,-8660.409521,-4290.134789
59310.561532,-5995.668130,-18949.272115,-4979.620737
59310.561842,-12657.521608,-24870.919651,-10495.508323
59310.562152,-11621.233289,-21910.095883,-12640.575717
59310.562462,-10658.965565,-22872.363608,-7124.688131
59310.562772,-5921.647536,-19615.457463,-1991.848295
59310.563081,-1554.432478,-14063.912898,229.828649
59310.563391,2738.761985,-9770.718434,6665.030833
59310.563701,11473.192101,-5921.647536,12180.918418
59310.564011,11769.274478,0.000000,10342.289223
59310.564321,9474.636058,6439.791695,7967.393179
59310.564631,13249.686362,4737.318029,9729.412825
59310.564941,6217.729913,4663.297435,4903.011187
59310.565250,3627.009116,-4589.276840,1149.143247
59310.565560,-5033.400406,-11917.315666,-4749.792088
59310.565870,-10807.006753,-21836.075289,-8120.612279
59310.566180,-15248.242405,-22280.198854,-12027.699319
59310.566490,-13619.789333,-20799.786970,-9806.022374
59310.566800,-8586.388927,-16506.592507,-5515.887586
59310.567110,-5995.668130,-16432.571912,-383.047749
59310.567420,-666.185348,-6513.812290,-76.609550
59310.567729,4737.318029,-2442.679609,7967.393179
59310.568039,12657.521608,0.000000,10955.165621
59310.568349,11029.068536,7105.977043,12180.918418
59310.568659,9918.759623,6587.832884,8120.612279
59310.568969,8068.244768,4515.256246,5669.106685
59310.569279,2294.638420,-1702.473667,2374.896044
59310.569589,-3775.050304,-8290.306550,-3677.258390
59310.569898,-9474.636058,-15470.304188,-7354.516781
59310.570208,-10140.821405,-22206.178260,-8963.317327
59310.570518,-9548.656652,-23686.590144,-7431.126331
59310.570828,-11547.212695,-19023.292709,-7354.516781
59310.571138,-4737.318029,-17838.963202,-766.095498
59310.571448,148.041188,-13619.789333,3600.648841
59310.571758,5403.503377,-7624.121203,6205.373534
59310.572068,9622.677246,-1554.432478,7890.783629
59310.572377,9696.697840,1480.411884,10189.070123
59310.572687,10584.944971,7031.956449,7814.174080
59310.572997,7105.977043,7031.956449,4903.011187
59310.573307,5921.647536,2294.638420,4443.353888
59310.573617,-74.020594,-7105.977043,-76.609550
59310.573927,-8882.471304,-13397.727550,-6128.763984
59310.574237,-10140.821405,-20725.766376,-8656.879127
59310.574546,-14063.912898,-21984.116477,-9499.584175
59310.574856,-11769.274478,-20577.725188,-7431.126331
59310.575166,-8068.244768,-15396.283594,-4749.792088
59310.575476,-3404.947333,-11843.295072,-612.876398
59310.575786,2516.700203,-7179.997637,3600.648841
59310.576096,7624.121203,-1258.350101,6128.763984
59310.576406,7698.141797,1702.473667,9806.022374
59310.576715,10584.944971,2368.659014,12180.918418
59310.577025,6513.812290,8216.285956,4903.011187
59310.577335,7031.956449,0.000000,7124.688131
59310.577645,0.000000,-4219.173869,0.000000
59310.577955,-6291.750507,-14656.077652,-4979.620737
59310.578265,-11177.109724,-19171.333898,-9269.755526
59310.578575,-11621.233289,-20207.622217,-10572.117872
59310.578885,-10066.800811,-21317.931130,-6511.811733
59310.579194,-5995.668130,-15396.283594,-4366.744339
59310.579504,-3552.988522,-14878.139434,306.438199
59310.579814,2368.659014,-13101.645173,6435.202183
59310.580124,7031.956449,-5921.647536,7277.907231
59310.580434,9770.718434,-3627.009116,11031.775171
59310.580744,9474.636058,4071.132681,9806.022374
59310.581054,9178.553681,3849.070898,8197.221829
59310.581363,6217.729913,1554.432478,5898.935335
59310.581673,1776.494261,-4367.215058,919.314598
59310.581983,-4441.235652,-13619.789333,-3140.991542
59310.582293,-7772.162391,-18949.272115,-7431.126331
59310.582603,-13101.645173,-20799.786970,-11568.042020
59310.582913,-13619.789333,-21391.951724,-8580.269578
59310.583223,-7179.997637,-20725.766376,-3753.867940
59310.583532,-4811.338623,-16136.489536,-2374.896044
59310.583842,-1036.288319,-9548.656652,842.705048
59310.584152,4737.318029,-6587.832884,7354.516781
59310.584462,9992.780217,-7031.956449,11261.603821
59310.584772,9474.636058,-592.164754,11261.603821
59310.585082,9400.615463,1850.514855,9729.412825
59310.585392,10584.944971,592.164754,8503.660028
59310.585702,1702.473667,-2960.823768,1455.581446
59310.586011,-4145.153275,-10732.986159,1225.752797
59310.586321,-5995.668130,-21317.931130,-5592.497135
59310.586631,-13027.624579,-20799.786970,-12257.527968
59310.586941,-10140.821405,-22058.137072,-8656.879127
59310.587251,-9770.718434,-20947.828159,-5515.887586
59310.587561,-4293.194464,-14359.995275,-2068.457845
59310.587871,-518.144159,-10955.047942,383.047749
59310.588180,6217.729913,-4219.173869,7354.516781
59310.588490,9178.553681,-6661.853478,12180.918418
59310.588800,11177.109724,2368.659014,9116.536426
59310.589110,5033.400406,7031.956449,6128.763984
59310.589420,10584.944971,3552.988522,8503.660028
59310.589730,5403.503377,6735.874072,1455.581446
59310.590040,1702.473667,-5625.565159,-76.609550
59310.590350,-6143.709319,-12953.603985,-4903.011187
59310.590659,-11177.109724,-18431.127956,-8273.831378
59310.590969,-11399.171507,-20503.704593,-9193.145976
59310.591279,-11547.212695,-19023.292709,-7048.078582
59310.591589,-7994.224174,-16654.633695,-2451.505594
59310.591899,-2442.679609,-13027.624579,-76.609550
59310.592209,2294.638420,-10658.965565,3600.648841
59310.592519,5921.647536,-5403.503377,8580.269578
59310.592828,10584.944971,0.000000,9729.412825
59310.593138,10584.944971,2516.700203,9729.412825
59310.593448,8808.450710,4589.276840,6818.249932
59310.593758,6513.812290,1924.535449,4290.134789
59310.594068,592.164754,-5181.441594,76.609550
59310.594378,-8290.306550,-11917.315666,-6741.640382
59310.594688,-10658.965565,-17838.963202,-8580.269578
59310.594997,-9548.656652,-21688.034101,-8273.831378
59310.595307,-5995.668130,-22502.260637,-6205.373534
59310.595617,-7994.224174,-14878.139434,-3677.258390
59310.595927,-1924.535449,-16580.613101,2374.896044
59310.596237,2738.761985,-9178.553681,3524.039291
59310.596547,6143.709319,-6957.935855,7584.345430
59310.596857,9178.553681,-740.205942,8886.707777
59310.597167,8142.265362,3256.906145,8656.879127
59310.597476,5847.626942,7031.956449,6511.811733
59310.597786,4737.318029,6439.791695,4903.011187
59310.598096,2960.823768,-2442.679609,1225.752797
59310.598406,-4811.338623,-8290.306550,-4979.620737
59310.598716,-9474.636058,-16654.633695,-7354.516781
59310.599026,-9844.739029,-23686.590144,-7431.126331
59310.599336,-11251.130318,-20503.704593,-7354.516781
59310.599645,-8956.491898,-18875.251521,-4519.963438
59310.599955,-4441.235652,-15100.201217,-689.485948
59310.600265,0.000000,-12065.356855,2757.943793
59310.600575,6735.874072,-4737.318029,6665.030833
59310.600885,5847.626942,-1924.535449,7814.174080
59310.601195,7994.224174,5847.626942,4903.011187
59310.601505,11103.089130,2368.659014,10955.165621
59310.601814,5477.523971,5181.441594,3370.820191
59310.602124,5625.565159,-2590.720797,2911.162892
59310.602434,-4737.318029,-7772.162391,-3064.381992
59310.602744,-10288.862594,-15100.201217,-8656.879127
59310.603054,-11621.233289,-20355.663405,-11108.384721
59310.603364,-10732.986159,-21836.075289,-7737.564530
59310.603674,-5995.668130,-20725.766376,-4979.620737
59310.603984,-2442.679609,-15988.448347,-1915.238745
59310.604293,-1776.494261,-9548.656652,0.000000
59310.604603,3849.070898,-11917.315666,9806.022374
59310.604913,10584.944971,-4737.318029,9116.536426
59310.605223,7105.977043,-74.020594,9806.022374
59310.605533,6217.729913,4663.297435,7354.516781
59310.605847,7402.059420,4293.194464,5592.497135
59310.606157,5699.585753,-296.082377,4213.525239
59310.606466,-1110.308913,-6143.709319,-1378.971896
59310.606776,-5403.503377,-15396.283594,-4979.620737
59310.607086,-9548.656652,-20133.601622,-10495.508323
59310.607396,-11917.315666,-23686.590144,-8350.440928
59310.607706,-7772.162391,-18949.272115,-8044.002729
59310.608016,-7698.141797,-16950.716072,-3677.258390
59310.608325,-4737.318029,-13101.645173,0.000000
59310.608635,3404.947333,-11547.212695,6358.592633
59310.608945,9474.636058,-4959.379811,9806.022374
59310.609255,11177.109724,0.000000,10801.946522
59310.609565,8216.285956,3923.091493,8733.488677
59310.609875,9104.533087,3552.988522,7277.907231
59310.610184,8216.285956,1184.329507,3600.648841
59310.610494,-666.185348,-2442.679609,-2911.162892
59310.610804,-7105.977043,-12509.480420,-3064.381992
59310.611114,-9548.656652,-20133.601622,-9882.631924
59310.611424,-13027.624579,-19319.375086,-11031.775171
59310.611734,-11103.089130,-19689.478057,-8886.707777
59310.612043,-6661.853478,-19985.560434,-2604.724693
59310.612353,-2146.597232,-14508.036463,689.485948
59310.612663,2960.823768,-10436.903782,4673.182538
59310.612973,9104.533087,-8882.471304,10648.727422
59310.613283,11769.274478,-2368.659014,9422.974625
59310.613593,7105.977043,4663.297435,7048.078582
59310.613902,9474.636058,8808.450710,7354.516781
59310.614212,5847.626942,8956.491898,4213.525239
59310.614522,1184.329507,7031.956449,0.000000
59310.614832,-3034.844362,-4737.318029,-3907.087040
59310.615142,-11251.130318,-12509.480420,-8197.221829
59310.615452,-12213.398043,-18949.272115,-11184.994271
59310.615761,-10881.027347,-20725.766376,-8044.002729
59310.616071,-7994.224174,-18579.169144,-3140.991542
59310.616381,-3034.844362,-15396.283594,-76.609550
59310.616691,-74.020594,-11843.295072,2374.896044
59310.617001,4441.235652,-4219.173869,5056.230287
59310.617311,9474.636058,-1554.432478,9882.631924
59310.617620,7920.203579,5107.421000,7584.345430
59310.617930,8216.285956,7105.977043,6971.469032
59310.618240,6587.832884,6365.771101,4673.182538
59310.618550,4959.379811,-592.164754,2757.943793
59310.618860,-2146.597232,-6513.812290,-1302.362347
59310.619170,-9474.636058,-14878.139434,-6128.763984
59310.619479,-11473.192101,-23686.590144,-8120.612279
59310.619789,-8364.327145,-24870.919651,-5745.716235
59310.620099,-7772.162391,-21317.931130,-6205.373534
59310.620409,-7105.977043,-16654.633695,-2451.505594
59310.620719,-666.185348,-13619.789333,-76.609550
59310.621028,6439.791695,-10658.965565,7277.907231
59310.621338,9104.533087,-3997.112087,8427.050478
59310.621648,8734.430116,814.226536,9269.755526
59310.621958,7550.100608,4663.297435,8120.612279
59310.622268,5921.647536,8216.285956,5515.887586
59310.622578,7105.977043,1702.473667,5209.449386
59310.622887,2368.659014,-5403.503377,1532.190996
59310.623197,-5995.668130,-11843.295072,-4979.620737
59310.623507,-10658.965565,-19023.292709,-9499.584175
59310.623817,-9548.656652,-23686.590144,-8044.002729
59310.624127,-9548.656652,-22946.384202,-6205.373534
59310.624437,-8364.327145,-20133.601622,-2834.553343
59310.624746,-5033.400406,-15692.365970,0.000000
59310.625056,1332.370696,-10955.047942,3753.867940
59310.625366,5329.482782,-3923.091493,6128.763984
59310.625676,7105.977043,-74.020594,9806.022374
59310.625986,8290.306550,5847.626942,9806.022374
59310.626296,9400.615463,4737.318029,7277.907231
59310.626605,6513.812290,5847.626942,3064.381992
59310.626915,4367.215058,-6513.812290,4213.525239
59310.627225,-4145.153275,-11843.295072,-2298.286494
59310.627535,-9326.594869,-18283.086767,-8120.612279
59310.627845,-11325.150913,-21169.889941,-10418.898773
59310.628155,-9696.697840,-21243.910535,-7048.078582
59310.628464,-8364.327145,-21984.116477,-4596.572988
59310.628774,-5773.606348,-16654.633695,0.000000
59310.629084,0.000000,-14285.974681,4903.011187
59310.629394,9400.615463,-11695.253884,9729.412825
59310.629704,7698.141797,-1258.350101,7354.516781
59310.630014,9400.615463,-2294.638420,12180.918418
59310.630323,7105.977043,5847.626942,6894.859482
59310.630633,7846.182985,3997.112087,4903.011187
59310.630943,4515.256246,-962.267725,2528.115143
59310.631253,-2738.761985,-9104.533087,-1225.752797
59310.631563,-7772.162391,-18949.272115,-6205.373534
59310.631873,-11917.315666,-21169.889941,-10495.508323
59310.632182,-12213.398043,-21391.951724,-9269.755526
59310.632492,-9474.636058,-19023.292709,-4903.011187
59310.632802,-4219.173869,-16580.613101,-995.924147
59310.633112,0.000000,-14878.139434,4290.134789
59310.633422,4737.318029,-6587.832884,6128.763984
59310.633732,9326.594869,-2738.761985,8656.879127
59310.634041,8142.265362,1554.432478,9882.631924
59310.634351,7994.224174,7254.018232,7584.345430
59310.634661,10584.944971,4737.318029,6665.030833
59310.634971,8216.285956,1184.329507,4826.401637
59310.635281,-2442.679609,-3182.885551,-2834.553343
59310.635591,-8586.388927,-15914.427753,-3983.696590
59310.635900,-11325.150913,-19985.560434,-10189.070123
59310.636210,-14211.954086,-20207.622217,-9499.584175
59310.636520,-10362.883188,-21021.848753,-7124.688131
59310.636830,-6513.812290,-20799.786970,-1532.190996
59310.637140,-592.164754,-18061.024985,3830.477490
59310.637449,5033.400406,-11399.171507,5669.106685
59310.637759,12065.356855,-8290.306550,9729.412825
59310.638069,11177.109724,-3552.988522,12180.918418
59310.638379,7624.121203,4737.318029,6052.154434
59310.638689,9474.636058,4663.297435,9806.022374
59310.638999,9400.615463,1776.494261,6052.154434
59310.639308,0.000000,-74.020594,0.000000
59310.639618,-4811.338623,-11547.212695,-3830.477490
59310.639928,-10658.965565,-17542.880825,-9422.974625
59310.640238,-13545.768739,-23612.569550,-9882.631924
59310.640548,-10288.862594,-24500.816680,-6205.373534
59310.640858,-6513.812290,-19615.457463,-612.876398
59310.641167,-2146.597232,-15988.448347,1225.752797
59310.641477,3478.967927,-16580.613101,6052.154434
59310.641787,4293.194464,-5107.421000,6128.763984
59310.642097,8290.306550,-1850.514855,10189.070123
59310.642407,4663.297435,7031.956449,4903.011187
59310.642717,7031.956449,5921.647536,5132.839837
59310.643026,6883.915261,2664.741391,4519.963438
59310.643336,3256.906145,-2072.576638,1685.410096
59310.643646,-4959.379811,-11177.109724,-2528.115143
59310.643956,-11843.295072,-17246.798449,-7354.516781
59310.644266,-12287.418637,-22280.198854,-9499.584175
59310.644576,-5995.668130,-26055.249158,-4979.620737
59310.644885,-6883.915261,-18135.045579,-4366.744339
59310.645195,-4737.318029,-14285.974681,0.000000
59310.645505,2294.638420,-10066.800811,3600.648841
59310.645815,9992.780217,-8290.306550,8963.317327
59310.646125,9918.759623,-1850.514855,8656.879127
59310.646435,6587.832884,2664.741391,7124.688131
59310.646744,6439.791695,5995.668130,5898.935335
59310.647054,5921.647536,5847.626942,4903.011187
59310.647364,4737.318029,3478.967927,0.000000
59310.647674,-592.164754,-8512.368333,76.609550
59310.647984,-7476.080014,-14211.954086,-6818.249932
59310.648294,-11843.295072,-19319.375086,-12257.527968
59310.648603,-9548.656652,-23686.590144,-6205.373534
59310.648913,-8512.368333,-23464.528361,-4060.306139
59310.649223,-4885.359217,-13841.851115,-2757.943793
59310.649533,-1184.329507,-10732.986159,2221.676944
59310.649843,7328.038826,-4293.194464,5669.106685
59310.650153,6513.812290,-74.020594,7354.516781
59310.650462,6513.812290,5847.626942,6205.373534
59310.650772,2960.823768,7031.956449,6128.763984
59310.651082,12361.439231,4737.318029,6052.154434
59310.651392,7254.018232,3478.967927,1225.752797
59310.651702,2294.638420,-7105.977043,-76.609550
59310.652011,-8068.244768,-12953.603985,-5209.449386
59310.652321,-11399.171507,-19985.560434,-10495.508323
59310.652631,-10732.986159,-22576.281231,-9576.193725
59310.652941,-9548.656652,-22946.384202,-5592.497135
59310.653251,-7846.182985,-16950.716072,-3140.991542
59310.653561,-2738.761985,-14063.912898,1149.143247
59310.653870,4737.318029,-3627.009116,3370.820191
59310.654180,8660.409521,-1110.308913,9499.584175
59310.654490,9104.533087,7698.141797,7277.907231
59310.654800,8438.347739,8290.306550,6894.859482
59310.655110,5329.482782,7031.956449,4903.011187
59310.655420,7031.956449,5699.585753,3294.210641
59310.655729,2738.761985,-1406.391290,-229.828649
59310.656039,-4885.359217,-8734.430116,-4290.134789
59310.656349,-9548.656652,-16580.613101,-9882.631924
59310.656659,-11029.068536,-22502.260637,-9882.631924
59310.656969,-9696.697840,-20577.725188,-7660.954980
59310.657279,-8290.306550,-19023.292709,-3064.381992
59310.657588,-2738.761985,-18949.272115,2374.896044
59310.657898,1332.370696,-9844.739029,5898.935335
59310.658208,4737.318029,-5699.585753,8044.002729
59310.658518,8512.368333,740.205942,8044.002729
59310.658828,5995.668130,3923.091493,11108.384721
59310.659138,6217.729913,6291.750507,4826.401637
59310.659447,9400.615463,3552.988522,2374.896044
59310.659757,3478.967927,-4737.318029,2374.896044
59310.660067,-7031.956449,-7476.080014,-4673.182538
59310.660377,-11547.212695,-18135.045579,-9499.584175
