#time,accel_x,accel_y,accel_z
163310.370407,-1184.329507,-8734.430116,-919.314598
163310.370725,518.144159,-9474.636058,1149.143247
163310.371044,-74.020594,-10658.965565,-76.609550
163310.371363,-1554.432478,-8068.244768,-1608.800546
163310.371681,-74.020594,-11695.253884,2374.896044
163310.372000,-2072.576638,-8364.327145,0.000000
163310.372319,-962.267725,-8882.471304,-229.828649
163310.372638,-666.185348,-9326.594869,-76.609550
163310.372956,-592.164754,-9326.594869,-689.485948
163310.373275,-1776.494261,-8364.327145,-1225.752797
163310.373594,-962.267725,-8808.450710,-766.095498
163310.373913,-74.020594,-12435.459826,1455.581446
163310.374231,-1554.432478,-8660.409521,-2221.676944
163310.374550,0.000000,-9548.656652,0.000000
163310.374869,2294.638420,-10658.965565,-76.609550
163310.375188,0.000000,-9622.677246,0.000000
163310.375506,74.020594,-9918.759623,-229.828649
163310.375825,0.000000,-9400.615463,0.000000
163310.376144,1258.350101,-9548.656652,1838.629195
163310.376463,148.041188,-9548.656652,1838.629195
163310.376781,-2368.659014,-7476.080014,0.000000
163310.377100,962.267725,-10066.800811,1455.581446
163310.377419,222.061783,-9326.594869,1149.143247
163310.377738,-2368.659014,-7179.997637,-2145.067394
163310.378056,-74.020594,-10066.800811,-76.609550
163310.378375,-888.247130,-9474.636058,306.438199
163310.378694,-444.123565,-8882.471304,0.000000
163310.379012,-148.041188,-9474.636058,0.000000
163310.379331,740.205942,-10732.986159,1225.752797
163310.379650,-2294.638420,-7772.162391,-1225.752797
163310.379969,-1184.329507,-9030.512492,612.876398
163310.380287,-222.061783,-9474.636058,-689.485948
163310.380606,-2738.761985,-7328.038826,-2298.286494
163310.380925,-2368.659014,-7179.997637,0.000000
163310.381244,-74.020594,-9474.636058,-689.485948
163310.381562,-518.144159,-9548.656652,-995.924147
163310.381881,-444.123565,-9622.677246,-766.095498
163310.382200,-444.123565,-9622.677246,-1149.143247
163310.382519,0.000000,-9030.512492,-995.924147
163310.382837,-518.144159,-8882.471304,-1225.752797
163310.383156,148.041188,-9844.739029,612.876398
163310.383475,2294.638420,-10658.965565,-76.609550
163310.383794,0.000000,-8660.409521,-689.485948
163310.384112,0.000000,-9548.656652,612.876398
163310.384431,444.123565,-9474.636058,-76.609550
163310.384750,0.000000,-9548.656652,0.000000
163310.385068,-222.061783,-9252.574275,0.000000
163310.385387,-1554.432478,-6883.915261,0.000000
163310.385706,-666.185348,-7624.121203,-1302.362347
163310.386025,-518.144159,-8882.471304,-76.609550
163310.386343,-2368.659014,-7772.162391,0.000000
163310.386662,-592.164754,-9474.636058,0.000000
163310.386981,-74.020594,-11843.295072,2374.896044
163310.387300,-1776.494261,-9548.656652,306.438199
163310.387618,-666.185348,-9548.656652,-153.219100
163310.387937,-1036.288319,-9030.512492,0.000000
163310.388256,-888.247130,-9326.594869,-459.657299
163310.388575,-3256.906145,-7476.080014,-2451.505594
163310.388893,-666.185348,-11251.130318,-76.609550
163310.389212,-2368.659014,-7179.997637,-1838.629195
163310.389531,-296.082377,-9844.739029,-306.438199
163310.389850,-74.020594,-11843.295072,-76.609550
163310.390168,2294.638420,-10362.883188,-76.609550
163310.390487,0.000000,-9400.615463,76.609550
163310.390806,0.000000,-9178.553681,-153.219100
163310.391124,0.000000,-9252.574275,-536.266849
163310.391443,222.061783,-9030.512492,-76.609550
163310.391762,-1110.308913,-8364.327145,-76.609550
163310.392081,1702.473667,-10510.924376,-76.609550
163310.392399,0.000000,-8364.327145,-689.485948
163310.392718,-2960.823768,-7179.997637,0.000000
163310.393037,518.144159,-9844.739029,0.000000
163310.393356,-74.020594,-8882.471304,-1302.362347
163310.393674,74.020594,-9770.718434,919.314598
163310.393993,-592.164754,-9252.574275,0.000000
163310.394312,-296.082377,-8956.491898,-306.438199
163310.394631,-74.020594,-11251.130318,1762.019645
163310.394949,-74.020594,-10658.965565,919.314598
163310.395268,-74.020594,-9474.636058,-76.609550
163310.395587,-74.020594,-8142.265362,-1608.800546
163310.395906,0.000000,-8068.244768,0.000000
163310.396224,0.000000,-7772.162391,0.000000
163310.396543,1110.308913,-8290.306550,-1302.362347
163310.396862,1110.308913,-8956.491898,0.000000
163310.397181,1480.411884,-8882.471304,-612.876398
163310.397499,1628.453072,-9622.677246,-612.876398
163310.397818,4663.297435,-10658.965565,-76.609550
163310.398137,3182.885551,-9770.718434,0.000000
163310.398455,5847.626942,-10658.965565,-76.609550
163310.398774,3775.050304,-9030.512492,0.000000
163310.399093,5181.441594,-9844.739029,1225.752797
163310.399412,4663.297435,-7254.018232,-2451.505594
163310.399730,6143.709319,-9178.553681,612.876398
163310.400049,6143.709319,-9030.512492,612.876398
163310.400368,6069.688724,-8956.491898,0.000000
163310.400687,5625.565159,-8290.306550,-76.609550
163310.401005,5329.482782,-8956.491898,-842.705048
163310.401324,2960.823768,-7476.080014,-2298.286494
163310.401643,5329.482782,-9178.553681,-612.876398
163310.401962,8808.450710,-11251.130318,1762.019645
163310.402280,5551.544565,-7179.997637,-2451.505594
163310.402599,8216.285956,-10658.965565,-153.219100
163310.402918,6217.729913,-10214.842000,-229.828649
163310.403237,4589.276840,-11917.315666,-995.924147
163310.403555,2516.700203,-12657.521608,-919.314598
163310.403874,3256.906145,-14211.954086,1762.019645
163310.404193,1850.514855,-11769.274478,459.657299
163310.404511,3775.050304,-9474.636058,1149.143247
163310.404830,3478.967927,-6217.729913,-689.485948
163310.405149,2960.823768,-4811.338623,0.000000
163310.405468,4663.297435,-4737.318029,-1915.238745
163310.405786,4811.338623,-5699.585753,-995.924147
163310.406105,4959.379811,-7550.100608,-2221.676944
163310.406424,4589.276840,-10140.821405,-1991.848295
163310.406743,3404.947333,-12657.521608,-1302.362347
163310.407061,1184.329507,-14285.974681,306.438199
163310.407380,2294.638420,-16358.551318,536.266849
163310.407699,2590.720797,-14285.974681,2451.505594
163310.408018,2220.617826,-9844.739029,2298.286494
163310.408336,0.000000,-4811.338623,0.000000
163310.408655,518.144159,-3627.009116,-1838.629195
163310.408974,2886.803174,-6217.729913,-76.609550
163310.409293,592.164754,-5773.606348,-76.609550
163310.409611,-3552.988522,-5995.668130,0.000000
163310.409930,-3034.844362,-10658.965565,-76.609550
163310.410249,-5329.482782,-11029.068536,612.876398
163310.410567,-5477.523971,-9770.718434,306.438199
163310.410886,-3552.988522,-9030.512492,766.095498
163310.411205,-2368.659014,-8956.491898,536.266849
163310.411524,-3997.112087,-8956.491898,766.095498
163310.411842,-5921.647536,-10288.862594,306.438199
163310.412161,-4811.338623,-11695.253884,1149.143247
163310.412480,-4811.338623,-10362.883188,-1302.362347
163310.412799,-7105.977043,-7476.080014,-3064.381992
163310.413117,-4811.338623,-7105.977043,-4366.744339
163310.413436,-4441.235652,-6513.812290,-2757.943793
163310.413755,-1332.370696,-7624.121203,-1532.190996
163310.414074,0.000000,-9844.739029,-383.047749
163310.414392,-1998.556043,-12139.377449,-76.609550
163310.414711,-3997.112087,-15174.221811,1455.581446
163310.415030,-5329.482782,-13693.809927,0.000000
163310.415349,-1924.535449,-12879.583391,3140.991542
163310.415667,-1702.473667,-7994.224174,1762.019645
163310.415986,-1776.494261,-5107.421000,612.876398
163310.416305,-1850.514855,-3627.009116,0.000000
163310.416624,0.000000,-6587.832884,1991.848295
163310.416942,74.020594,-8068.244768,1685.410096
163310.417261,-1258.350101,-8512.368333,306.438199
163310.417580,-1258.350101,-9474.636058,-689.485948
163310.417898,-1258.350101,-11843.295072,-3677.258390
163310.418217,-2368.659014,-10140.821405,-1838.629195
163310.418536,1628.453072,-11103.089130,-76.609550
163310.418855,2960.823768,-9548.656652,612.876398
163310.419173,0.000000,-9548.656652,612.876398
163310.419492,-1184.329507,-10362.883188,-766.095498
163310.419811,666.185348,-12065.356855,1378.971896
163310.420130,1554.432478,-10288.862594,2451.505594
163310.420448,2368.659014,-7846.182985,2145.067394
163310.420767,3478.967927,-7105.977043,-76.609550
163310.421086,1184.329507,-4811.338623,-1455.581446
163310.421405,4367.215058,-7550.100608,-1302.362347
163310.421723,4219.173869,-9474.636058,-76.609550
163310.422042,2516.700203,-9548.656652,-3064.381992
163310.422361,1184.329507,-13101.645173,-1225.752797
163310.422680,-1850.514855,-11843.295072,-2528.115143
163310.422998,74.020594,-12065.356855,-1149.143247
163310.423317,3404.947333,-10066.800811,612.876398
163310.423636,4811.338623,-7624.121203,0.000000
163310.423954,3849.070898,-7624.121203,0.000000
163310.424273,3552.988522,-9548.656652,2451.505594
163310.424592,1184.329507,-9548.656652,1838.629195
163310.424911,4367.215058,-11029.068536,3600.648841
163310.425229,1702.473667,-7698.141797,-76.609550
163310.425548,-74.020594,-9178.553681,-76.609550
163310.425867,-1184.329507,-7179.997637,-2451.505594
163310.426186,74.020594,-8216.285956,-1915.238745
163310.426504,444.123565,-8808.450710,-1915.238745
163310.426823,-2368.659014,-9548.656652,-2451.505594
163310.427142,-4737.318029,-10140.821405,-3064.381992
163310.427461,-6809.894666,-10732.986159,-3677.258390
163310.427779,-2812.782580,-13175.665768,766.095498
163310.428098,-3034.844362,-9548.656652,-1149.143247
163310.428417,-1258.350101,-7402.059420,-2528.115143
163310.428736,-74.020594,-8290.306550,-76.609550
163310.429054,0.000000,-7254.018232,1072.533697
163310.429373,1776.494261,-9030.512492,2911.162892
163310.429692,1332.370696,-9548.656652,2987.772442
163310.430010,-2368.659014,-7772.162391,1225.752797
163310.430329,-2738.761985,-8290.306550,-383.047749
163310.430648,-4737.318029,-8068.244768,-1225.752797
163310.430967,-1184.329507,-8808.450710,0.000000
163310.431285,-74.020594,-9474.636058,-76.609550
163310.431604,-4515.256246,-6143.709319,-4903.011187
163310.431923,-2738.761985,-11103.089130,-1302.362347
163310.432242,-3627.009116,-11917.315666,-842.705048
163310.432560,-3478.967927,-11547.212695,766.095498
163310.432879,-2886.803174,-8290.306550,842.705048
163310.433198,-2368.659014,-5773.606348,-76.609550
163310.433517,-1258.350101,-4737.318029,-2221.676944
163310.433835,296.082377,-5995.668130,-2451.505594
163310.434154,1776.494261,-10140.821405,2451.505594
163310.434473,1998.556043,-12731.542202,2834.553343
163310.434792,-4589.276840,-11029.068536,0.000000
163310.435110,-3627.009116,-12731.542202,-153.219100
163310.435429,-3478.967927,-10510.924376,-459.657299
163310.435748,-1554.432478,-8734.430116,-612.876398
163310.436067,1702.473667,-8290.306550,-1915.238745
163310.436385,1110.308913,-7624.121203,-1455.581446
163310.436704,814.226536,-9474.636058,-76.609550
163310.437023,-518.144159,-9104.533087,-1762.019645
163310.437341,-1184.329507,-10732.986159,0.000000
163310.437660,592.164754,-12435.459826,1455.581446
163310.437979,-2072.576638,-7920.203579,-1225.752797
163310.438298,1998.556043,-7550.100608,-383.047749
163310.438617,3923.091493,-7846.182985,383.047749
163310.438935,4219.173869,-8216.285956,1149.143247
163310.439254,2738.761985,-7772.162391,0.000000
163310.439573,3775.050304,-13619.789333,3217.601092
163310.439892,1998.556043,-13027.624579,-76.609550
163310.440211,444.123565,-11547.212695,1455.581446
163310.440530,-2368.659014,-7476.080014,0.000000
163310.440848,0.000000,-6587.832884,612.876398
163310.441167,1554.432478,-6365.771101,-689.485948
163310.441486,1406.391290,-7031.956449,-306.438199
163310.441805,1110.308913,-8364.327145,842.705048
163310.442124,-2220.617826,-7772.162391,-1838.629195
163310.442443,-2368.659014,-9326.594869,-2068.457845
163310.442761,-2146.597232,-10510.924376,-919.314598
163310.443080,-74.020594,-10658.965565,-1302.362347
163310.443399,0.000000,-7476.080014,-2145.067394
163310.443718,1184.329507,-8364.327145,0.000000
163310.444037,0.000000,-8734.430116,-1685.410096
163310.444356,-74.020594,-12213.398043,-76.609550
163310.444675,-1258.350101,-13175.665768,306.438199
163310.444993,-1258.350101,-12361.439231,383.047749
163310.445312,-74.020594,-9474.636058,-842.705048
163310.445631,-592.164754,-8290.306550,229.828649
163310.445950,0.000000,-5995.668130,-766.095498
163310.446269,740.205942,-6883.915261,0.000000
163310.446588,1702.473667,-8068.244768,229.828649
163310.446906,962.267725,-11251.130318,-76.609550
163310.447225,-740.205942,-13323.706956,1608.800546
163310.447544,-1850.514855,-12435.459826,-383.047749
163310.447863,-3108.864956,-10732.986159,306.438199
163310.448182,-1924.535449,-8586.388927,919.314598
163310.448501,-2294.638420,-4811.338623,-1838.629195
163310.448820,-592.164754,-7031.956449,-383.047749
163310.449138,-888.247130,-8364.327145,-153.219100
163310.449457,-1480.411884,-10214.842000,1072.533697
163310.449776,-74.020594,-11547.212695,2068.457845
163310.450095,-2442.679609,-9178.553681,459.657299
163310.450414,-1776.494261,-8808.450710,995.924147
163310.450733,-2516.700203,-6143.709319,-1455.581446
163310.451051,-3552.988522,-4811.338623,-1838.629195
163310.451370,296.082377,-8660.409521,0.000000
163310.451689,-1184.329507,-8364.327145,-2145.067394
163310.452008,-1850.514855,-11843.295072,-1608.800546
163310.452327,-2590.720797,-12287.418637,-1455.581446
163310.452646,-2368.659014,-11843.295072,-919.314598
163310.452965,-370.102971,-9548.656652,-2374.896044
163310.453283,296.082377,-7476.080014,-1149.143247
163310.453602,2294.638420,-7698.141797,-76.609550
163310.453921,4663.297435,-9474.636058,-76.609550
163310.454240,2368.659014,-9548.656652,383.047749
163310.454559,3478.967927,-13619.789333,4826.401637
163310.454878,296.082377,-10732.986159,1302.362347
163310.455196,-592.164754,-10214.842000,1149.143247
163310.455515,-814.226536,-8512.368333,0.000000
163310.455834,518.144159,-7772.162391,0.000000
163310.456153,0.000000,-5995.668130,0.000000
163310.456472,1110.308913,-8660.409521,0.000000
163310.456791,740.205942,-11177.109724,-229.828649
163310.457110,-1258.350101,-11843.295072,-2528.115143
163310.457428,-2442.679609,-10732.986159,-2987.772442
163310.457747,-74.020594,-13027.624579,-76.609550
163310.458066,-962.267725,-8142.265362,-1072.533697
163310.458385,740.205942,-6513.812290,-612.876398
163310.458704,2220.617826,-6365.771101,0.000000
163310.459023,2960.823768,-8956.491898,306.438199
163310.459341,1776.494261,-10140.821405,229.828649
163310.459660,0.000000,-9548.656652,0.000000
163310.459979,-444.123565,-11695.253884,1455.581446
163310.460298,-74.020594,-11843.295072,-76.609550
163310.460617,0.000000,-7179.997637,0.000000
163310.460936,1110.308913,-7698.141797,-689.485948
163310.461254,592.164754,-6513.812290,-612.876398
163310.461573,1184.329507,-8142.265362,-919.314598
163310.461892,666.185348,-10288.862594,-76.609550
163310.462211,-888.247130,-10732.986159,919.314598
163310.462530,-3034.844362,-9548.656652,-689.485948
163310.462849,-2368.659014,-8956.491898,0.000000
163310.463168,0.000000,-7772.162391,612.876398
163310.463486,1702.473667,-7698.141797,-76.609550
163310.463805,0.000000,-5995.668130,0.000000
163310.464124,1110.308913,-10066.800811,842.705048
163310.464443,-1110.308913,-11621.233289,689.485948
163310.464762,-2590.720797,-12435.459826,919.314598
163310.465081,-3330.926739,-9844.739029,-1302.362347
163310.465399,-2442.679609,-8660.409521,-1302.362347
163310.465718,-3034.844362,-6439.791695,-1302.362347
163310.466037,-3034.844362,-4885.359217,-2834.553343
163310.466356,-1184.329507,-7179.997637,-1838.629195
163310.466675,-74.020594,-10658.965565,-76.609550
163310.466994,-2960.823768,-9844.739029,-1225.752797
163310.467313,-2590.720797,-11547.212695,-1302.362347
163310.467631,-3108.864956,-11399.171507,-995.924147
163310.467950,-1258.350101,-10288.862594,0.000000
163310.468269,-1110.308913,-6143.709319,-2374.896044
163310.468588,0.000000,-5995.668130,-612.876398
163310.468907,1702.473667,-7105.977043,-1302.362347
163310.469226,0.000000,-8660.409521,0.000000
163310.469544,0.000000,-10140.821405,0.000000
163310.469863,-74.020594,-11843.295072,2068.457845
163310.470182,74.020594,-10436.903782,2451.505594
163310.470501,444.123565,-7402.059420,995.924147
163310.470820,444.123565,-5921.647536,766.095498
163310.471139,370.102971,-6439.791695,459.657299
163310.471458,0.000000,-6291.750507,-2298.286494
163310.471776,-74.020594,-9474.636058,-1608.800546
163310.472095,-2146.597232,-11325.150913,-1838.629195
163310.472414,-3478.967927,-11843.295072,-1915.238745
163310.472733,-4737.318029,-9548.656652,0.000000
163310.473052,-666.185348,-8290.306550,-3753.867940
163310.473371,0.000000,-7105.977043,-1225.752797
163310.473689,1036.288319,-6957.935855,-1225.752797
163310.474008,1924.535449,-8512.368333,-306.438199
163310.474327,2294.638420,-11843.295072,1762.019645
163310.474646,1110.308913,-13619.789333,2987.772442
163310.474965,-370.102971,-11251.130318,229.828649
163310.475284,-1776.494261,-10140.821405,0.000000
163310.475602,-74.020594,-9474.636058,-76.609550
163310.475921,148.041188,-6587.832884,-1225.752797
163310.476240,222.061783,-6069.688724,-2221.676944
163310.476559,2072.576638,-8808.450710,-1149.143247
163310.476878,1184.329507,-10584.944971,-1378.971896
163310.477197,-370.102971,-11917.315666,-1072.533697
163310.477516,-74.020594,-13027.624579,-76.609550
163310.477834,-74.020594,-11251.130318,-76.609550
163310.478153,814.226536,-9474.636058,-76.609550
163310.478472,148.041188,-4811.338623,0.000000
163310.478791,888.247130,-6735.874072,0.000000
163310.479110,2368.659014,-9548.656652,3370.820191
163310.479429,296.082377,-9548.656652,995.924147
163310.479747,296.082377,-11399.171507,1762.019645
163310.480066,-888.247130,-11029.068536,1302.362347
163310.480385,-1628.453072,-9252.574275,459.657299
163310.480704,-74.020594,-6809.894666,-689.485948
163310.481023,-74.020594,-8882.471304,-76.609550
163310.481342,-74.020594,-7105.977043,-1302.362347
163310.481661,-2072.576638,-8956.491898,-1225.752797
163310.481979,-1776.494261,-11621.233289,1149.143247
163310.482298,-5921.647536,-9548.656652,0.000000
163310.482617,-4219.173869,-11177.109724,-2145.067394
163310.482936,-2960.823768,-9178.553681,-1685.410096
163310.483255,-666.185348,-7105.977043,-1072.533697
163310.483574,518.144159,-5921.647536,-1915.238745
163310.483892,1554.432478,-7328.038826,0.000000
163310.484211,1184.329507,-9696.697840,1225.752797
163310.484530,1110.308913,-11843.295072,2451.505594
163310.484849,-74.020594,-13619.789333,2068.457845
163310.485168,-3256.906145,-10288.862594,0.000000
163310.485487,-1850.514855,-8808.450710,-689.485948
163310.485806,-740.205942,-7328.038826,0.000000
163310.486124,-444.123565,-6587.832884,-612.876398
163310.486443,148.041188,-7254.018232,-995.924147
163310.486762,2294.638420,-9474.636058,-76.609550
163310.487081,-1480.411884,-10732.986159,-995.924147
163310.487400,-2220.617826,-11695.253884,-766.095498
163310.487719,-1924.535449,-11473.192101,306.438199
163310.488037,-1184.329507,-9548.656652,842.705048
163310.488356,0.000000,-7772.162391,919.314598
163310.488675,0.000000,-4811.338623,-2451.505594
163310.488994,1998.556043,-9474.636058,-76.609550
163310.489313,-148.041188,-10066.800811,-689.485948
163310.489632,-888.247130,-10881.027347,0.000000
163310.489951,-74.020594,-10658.965565,-76.609550
163310.490269,0.000000,-10140.821405,1225.752797
163310.490588,-444.123565,-7994.224174,76.609550
163310.490907,444.123565,-6069.688724,-536.266849
163310.491226,2294.638420,-7920.203579,-76.609550
163310.491545,1702.473667,-8142.265362,-842.705048
163310.491864,740.205942,-11325.150913,-153.219100
163310.492182,-74.020594,-11843.295072,-76.609550
163310.492501,-74.020594,-13915.871710,-76.609550
163310.492820,-2368.659014,-9548.656652,0.000000
163310.493139,-370.102971,-7105.977043,-2068.457845
163310.493458,3478.967927,-8290.306550,-76.609550
163310.493777,2368.659014,-7402.059420,0.000000
163310.494095,3182.885551,-9252.574275,1302.362347
163310.494414,2886.803174,-10881.027347,2221.676944
163310.494733,888.247130,-11103.089130,2528.115143
163310.495052,-1184.329507,-10288.862594,0.000000
163310.495371,-1184.329507,-10140.821405,1378.971896
163310.495690,-370.102971,-8808.450710,-76.609550
163310.496009,0.000000,-7772.162391,0.000000
163310.496327,0.000000,-7476.080014,-2068.457845
163310.496646,-592.164754,-9252.574275,-2068.457845
163310.496965,-1628.453072,-10807.006753,-2757.943793
163310.497284,-2812.782580,-11917.315666,-3677.258390
163310.497603,-4589.276840,-10732.986159,-4290.134789
163310.497922,-2072.576638,-9548.656652,-2834.553343
163310.498240,0.000000,-8808.450710,612.876398
163310.498559,1998.556043,-7105.977043,-689.485948
163310.498878,1776.494261,-7105.977043,-76.609550
163310.499197,3404.947333,-10658.965565,2221.676944
163310.499516,222.061783,-10658.965565,1685.410096
163310.499835,-296.082377,-11103.089130,2068.457845
163310.500154,-296.082377,-10955.047942,1838.629195
163310.500472,-2368.659014,-7476.080014,612.876398
163310.500791,-2368.659014,-5107.421000,-76.609550
163310.501110,0.000000,-5995.668130,0.000000
163310.501429,888.247130,-8216.285956,-76.609550
163310.501748,-296.082377,-9844.739029,153.219100
163310.502067,-1850.514855,-10658.965565,-1915.238745
163310.502385,-2442.679609,-12435.459826,-76.609550
163310.502704,-3552.988522,-10732.986159,-612.876398
163310.503023,-2072.576638,-8882.471304,-306.438199
163310.503342,-444.123565,-5921.647536,229.828649
163310.503661,0.000000,-6143.709319,0.000000
163310.503980,2294.638420,-7698.141797,229.828649
163310.504299,148.041188,-9548.656652,229.828649
163310.504617,-3552.988522,-9548.656652,612.876398
163310.504936,-1628.453072,-12657.521608,1915.238745
163310.505255,-4441.235652,-7772.162391,-3677.258390
163310.505574,-1850.514855,-8882.471304,-1532.190996
163310.505893,-1850.514855,-7550.100608,-2145.067394
163310.506212,-296.082377,-8586.388927,-2221.676944
163310.506530,222.061783,-8882.471304,-1608.800546
163310.506849,518.144159,-11251.130318,-1302.362347
163310.507168,-2220.617826,-11473.192101,-1915.238745
163310.507487,-3034.844362,-9844.739029,-3064.381992
163310.507806,444.123565,-11621.233289,1225.752797
163310.508125,2590.720797,-9474.636058,1762.019645
163310.508443,0.000000,-4811.338623,0.000000
163310.508762,2960.823768,-7254.018232,766.095498
163310.509081,2886.803174,-8364.327145,459.657299
163310.509400,1924.535449,-10288.862594,1302.362347
163310.509719,-74.020594,-11251.130318,536.266849
163310.510038,-74.020594,-10658.965565,2374.896044
163310.510357,-74.020594,-11251.130318,1149.143247
163310.510675,-1480.411884,-6661.853478,-1532.190996
163310.510994,0.000000,-5329.482782,-1608.800546
163310.511313,1406.391290,-9326.594869,1762.019645
163310.511632,0.000000,-7328.038826,-919.314598
163310.511951,-370.102971,-10436.903782,-689.485948
163310.512270,-1924.535449,-11325.150913,-689.485948
163310.512588,-2368.659014,-10955.047942,-612.876398
163310.512907,-2738.761985,-7920.203579,-1915.238745
163310.513226,814.226536,-8882.471304,-153.219100
163310.513545,370.102971,-5773.606348,-1991.848295
163310.513864,888.247130,-6587.832884,-2834.553343
163310.514183,0.000000,-8956.491898,0.000000
163310.514502,2886.803174,-13027.624579,-76.609550
163310.514820,-1184.329507,-11991.336260,612.876398
163310.515139,-1702.473667,-11251.130318,459.657299
163310.515458,-1554.432478,-8882.471304,229.828649
163310.515777,1332.370696,-8068.244768,1225.752797
163310.516096,1406.391290,-6883.915261,612.876398
163310.516415,2294.638420,-8290.306550,-76.609550
163310.516733,2886.803174,-10658.965565,1762.019645
163310.517052,-74.020594,-10955.047942,-689.485948
163310.517371,-3552.988522,-10732.986159,-4596.572988
163310.517690,-1258.350101,-12731.542202,-1302.362347
163310.518009,-2220.617826,-9844.739029,-842.705048
163310.518328,-888.247130,-8068.244768,-766.095498
163310.518647,74.020594,-7772.162391,-459.657299
163310.518965,2294.638420,-9474.636058,2987.772442
163310.519284,1702.473667,-9474.636058,1762.019645
163310.519603,740.205942,-11621.233289,3677.258390
163310.519922,-74.020594,-11547.212695,2068.457845
163310.520241,-2368.659014,-8364.327145,1072.533697
163310.520560,-3552.988522,-4811.338623,0.000000
163310.520878,-666.185348,-5921.647536,-1225.752797
163310.521197,-888.247130,-7476.080014,-1302.362347
163310.521516,-592.164754,-8586.388927,-1378.971896
163310.521835,-1258.350101,-10436.903782,-1149.143247
163310.522154,-74.020594,-14211.954086,-76.609550
163310.522473,-2368.659014,-13397.727550,-76.609550
163310.522792,-1258.350101,-11843.295072,-1302.362347
163310.523110,-1776.494261,-7328.038826,-1991.848295
163310.523429,0.000000,-5403.503377,0.000000
163310.523748,1332.370696,-5403.503377,0.000000
163310.524067,4145.153275,-8438.347739,1685.410096
163310.524386,3108.864956,-9770.718434,2911.162892
163310.524705,1406.391290,-11473.192101,2298.286494
163310.525023,-74.020594,-11843.295072,2374.896044
163310.525342,-1850.514855,-8882.471304,842.705048
163310.525661,-2072.576638,-7179.997637,-1225.752797
163310.525980,-888.247130,-7328.038826,-3677.258390
163310.526299,1184.329507,-9474.636058,536.266849
163310.526618,0.000000,-8364.327145,-3370.820191
163310.526936,-74.020594,-10066.800811,-1915.238745
163310.527255,-2664.741391,-11473.192101,-1991.848295
163310.527574,-2738.761985,-11695.253884,-1685.410096
163310.527893,-2146.597232,-9918.759623,-1149.143247
163310.528212,1036.288319,-10658.965565,1762.019645
163310.528531,222.061783,-6513.812290,-1225.752797
163310.528850,1406.391290,-7402.059420,-612.876398
163310.529168,1480.411884,-8734.430116,-76.609550
163310.529487,592.164754,-10732.986159,1532.190996
163310.529806,0.000000,-10436.903782,1532.190996
163310.530125,-1776.494261,-9548.656652,0.000000
163310.530444,0.000000,-8660.409521,1225.752797
163310.530763,962.267725,-7105.977043,-76.609550
163310.531081,222.061783,-4811.338623,-2451.505594
163310.531400,4663.297435,-9474.636058,-76.609550
163310.531719,222.061783,-9548.656652,-1455.581446
163310.532038,-1258.350101,-11251.130318,-612.876398
163310.532357,-2442.679609,-11843.295072,-1225.752797
163310.532676,-2960.823768,-11325.150913,-1225.752797
163310.532995,-666.185348,-9474.636058,-689.485948
163310.533313,-888.247130,-5699.585753,-1225.752797
163310.533632,740.205942,-5403.503377,0.000000
163310.533951,592.164754,-7179.997637,1225.752797
163310.534270,518.144159,-7179.997637,0.000000
163310.534589,1110.308913,-10658.965565,2068.457845
163310.534908,-2146.597232,-10881.027347,1378.971896
163310.535226,-3330.926739,-9992.780217,-229.828649
163310.535545,-3478.967927,-8734.430116,-1532.190996
163310.535864,-2368.659014,-7994.224174,-1608.800546
163310.536183,-2664.741391,-7476.080014,-2451.505594
163310.536502,-1184.329507,-8956.491898,-4903.011187
163310.536821,-592.164754,-11325.150913,-1378.971896
163310.537140,-1406.391290,-12435.459826,-1762.019645
163310.537458,-4145.153275,-9548.656652,-2451.505594
163310.537777,-1258.350101,-11251.130318,-689.485948
163310.538096,0.000000,-8882.471304,153.219100
163310.538415,1776.494261,-6809.894666,153.219100
163310.538734,3034.844362,-5551.544565,0.000000
163310.539053,3478.967927,-8290.306550,-76.609550
163310.539371,888.247130,-8364.327145,0.000000
163310.539690,0.000000,-9844.739029,1225.752797
163310.540009,0.000000,-11473.192101,2451.505594
163310.540328,1110.308913,-11843.295072,2987.772442
163310.540647,0.000000,-7179.997637,1225.752797
163310.540966,-222.061783,-6365.771101,-842.705048
163310.541285,222.061783,-6809.894666,-919.314598
163310.541604,0.000000,-8734.430116,-995.924147
163310.541923,-2886.803174,-8956.491898,-2374.896044
163310.542242,-3182.885551,-11843.295072,-1302.362347
163310.542561,-4219.173869,-10140.821405,-2604.724693
163310.542880,-2960.823768,-9178.553681,-1762.019645
163310.543199,-3552.988522,-5403.503377,0.000000
163310.543518,1998.556043,-7105.977043,-76.609550
163310.543837,2146.597232,-6957.935855,536.266849
163310.544156,4071.132681,-9474.636058,-76.609550
163310.544475,1184.329507,-11029.068536,1532.190996
163310.544794,-370.102971,-11991.336260,1378.971896
163310.545113,-2072.576638,-10140.821405,1149.143247
163310.545432,-1258.350101,-9474.636058,-919.314598
163310.545751,-1776.494261,-7772.162391,-1532.190996
163310.546070,0.000000,-5995.668130,-2451.505594
163310.546389,666.185348,-7772.162391,-1225.752797
163310.546708,1702.473667,-8290.306550,-2757.943793
163310.547026,-222.061783,-11547.212695,-995.924147
163310.547345,-1554.432478,-11547.212695,-995.924147
163310.547664,-1406.391290,-10955.047942,-229.828649
163310.547983,370.102971,-10658.965565,1149.143247
163310.548302,1998.556043,-9474.636058,2374.896044
163310.548621,1998.556043,-7105.977043,1149.143247
163310.548940,2886.803174,-7105.977043,-76.609550
163310.549259,296.082377,-8956.491898,76.609550
163310.549578,-2368.659014,-10732.986159,1225.752797
163310.549897,-3182.885551,-9548.656652,0.000000
163310.550216,-2072.576638,-10584.944971,1225.752797
163310.550535,-1110.308913,-8586.388927,153.219100
163310.550854,-666.185348,-7105.977043,-383.047749
163310.551173,-74.020594,-7698.141797,-76.609550
163310.551492,-74.020594,-8290.306550,-229.828649
163310.551811,-74.020594,-11251.130318,-383.047749
163310.552130,-2146.597232,-11547.212695,-1915.238745
163310.552449,-3849.070898,-11029.068536,-3677.258390
163310.552768,-2368.659014,-10732.986159,1532.190996
163310.553087,-2368.659014,-6883.915261,-1838.629195
163310.553406,444.123565,-6513.812290,-612.876398
163310.553725,1776.494261,-6957.935855,-766.095498
163310.554044,2442.679609,-8364.327145,612.876398
163310.554363,3182.885551,-11843.295072,842.705048
163310.554682,1480.411884,-12805.562797,3983.696590
163310.555001,-74.020594,-12731.542202,2374.896044
163310.555320,-1554.432478,-9474.636058,-76.609550
163310.555639,-962.267725,-6957.935855,-1302.362347
163310.555958,1184.329507,-8882.471304,2221.676944
163310.556277,148.041188,-7031.956449,-1532.190996
163310.556596,0.000000,-8290.306550,-1149.143247
163310.556915,-1406.391290,-10732.986159,-1915.238745
163310.557234,-3552.988522,-11029.068536,-1838.629195
163310.557553,-3552.988522,-10732.986159,-1225.752797
163310.557872,-1406.391290,-11251.130318,-76.609550
163310.558191,-74.020594,-10658.965565,-76.609550
163310.558510,1702.473667,-6809.894666,-689.485948
163310.558829,74.020594,-4811.338623,-1915.238745
163310.559148,2294.638420,-9474.636058,-76.609550
163310.559467,0.000000,-10732.986159,1149.143247
163310.559786,296.082377,-11843.295072,1685.410096
163310.560105,-296.082377,-10955.047942,1685.410096
163310.560424,0.000000,-9548.656652,2911.162892
163310.560743,0.000000,-7179.997637,0.000000
163310.561062,1036.288319,-7920.203579,1225.752797
163310.561380,1702.473667,-9178.553681,-689.485948
163310.561699,-666.185348,-8956.491898,-1915.238745
163310.562018,-3330.926739,-9548.656652,-3677.258390
163310.562337,-2146.597232,-12731.542202,-1608.800546
163310.562656,-2738.761985,-11251.130318,-1225.752797
163310.562975,-962.267725,-8438.347739,-76.609550
163310.563294,1702.473667,-6809.894666,842.705048
163310.563613,4071.132681,-7179.997637,2145.067394
163310.563932,3552.988522,-6587.832884,3064.381992
163310.564251,4663.297435,-9474.636058,4060.306139
163310.564570,666.185348,-10140.821405,2528.115143
163310.564889,-2368.659014,-9548.656652,612.876398
163310.565208,-2442.679609,-10066.800811,-689.485948
163310.565527,-3256.906145,-9104.533087,-1225.752797
163310.565846,-2072.576638,-8438.347739,-2451.505594
163310.566165,-888.247130,-8068.244768,-2528.115143
163310.566484,1110.308913,-10658.965565,-689.485948
163310.566803,-222.061783,-10140.821405,-1915.238745
163310.567122,-2738.761985,-10881.027347,-3064.381992
163310.567441,-2960.823768,-11917.315666,-3677.258390
163310.567760,-74.020594,-12435.459826,-76.609550
163310.568079,-74.020594,-8290.306550,-1302.362347
163310.568398,2294.638420,-7994.224174,-76.609550
163310.568717,1554.432478,-6439.791695,-612.876398
163310.569036,1480.411884,-8068.244768,-689.485948
163310.569355,888.247130,-10436.903782,0.000000
163310.569674,0.000000,-12213.398043,2451.505594
163310.569993,-666.185348,-12139.377449,1302.362347
163310.570312,-222.061783,-10362.883188,1838.629195
163310.570631,222.061783,-7476.080014,919.314598
163310.570950,296.082377,-6217.729913,0.000000
163310.571269,0.000000,-4811.338623,-2298.286494
163310.571588,-74.020594,-7994.224174,-1915.238745
163310.571907,-2368.659014,-8956.491898,-919.314598
163310.572226,-2072.576638,-11621.233289,-2451.505594
163310.572545,-2368.659014,-11251.130318,-76.609550
163310.572864,-962.267725,-11103.089130,1225.752797
163310.573183,-1628.453072,-6513.812290,-612.876398
163310.573502,518.144159,-6217.729913,-536.266849
163310.573821,1776.494261,-7254.018232,306.438199
163310.574140,296.082377,-8364.327145,76.609550
163310.574459,518.144159,-10955.047942,1149.143247
163310.574778,-2368.659014,-11621.233289,1225.752797
163310.575097,-2368.659014,-11325.150913,0.000000
163310.575416,-962.267725,-10658.965565,-76.609550
163310.575734,-1850.514855,-6513.812290,-2528.115143
163310.576053,1110.308913,-8882.471304,-1302.362347
163310.576372,740.205942,-8364.327145,-1608.800546
163310.576691,296.082377,-10140.821405,-1915.238745
163310.577010,-814.226536,-11177.109724,-1915.238745
163310.577329,-1406.391290,-12879.583391,-383.047749
163310.577648,-1776.494261,-12509.480420,-995.924147
163310.577967,-74.020594,-12435.459826,-76.609550
163310.578286,518.144159,-6365.771101,-689.485948
163310.578605,2368.659014,-6883.915261,1225.752797
163310.578924,3478.967927,-6809.894666,-1302.362347
163310.579243,2368.659014,-8882.471304,2298.286494
163310.579562,592.164754,-10510.924376,1762.019645
163310.579881,-592.164754,-11399.171507,1915.238745
163310.580200,-74.020594,-12435.459826,3140.991542
163310.580519,1110.308913,-11251.130318,3600.648841
163310.580838,2294.638420,-8586.388927,2068.457845
163310.581157,-74.020594,-7105.977043,-766.095498
163310.581476,-666.185348,-7772.162391,-1608.800546
163310.581795,-1776.494261,-9548.656652,-1838.629195
163310.582114,-4737.318029,-10140.821405,-3677.258390
163310.582433,-3478.967927,-12879.583391,-2528.115143
163310.582752,-3849.070898,-11325.150913,-1762.019645
163310.583071,-1850.514855,-8364.327145,-995.924147
163310.583390,1110.308913,-5107.421000,-1378.971896
163310.583709,1184.329507,-5403.503377,0.000000
163310.584028,2368.659014,-7179.997637,0.000000
163310.584347,1184.329507,-9548.656652,2451.505594
163310.584666,1702.473667,-11843.295072,2987.772442
163310.584985,1702.473667,-14211.954086,3294.210641
163310.585304,-2220.617826,-10436.903782,306.438199
163310.585623,-2072.576638,-8660.409521,-1455.581446
163310.585942,-1702.473667,-7179.997637,-1915.238745
163310.586261,-370.102971,-8216.285956,-1915.238745
163310.586580,0.000000,-8364.327145,-2681.334243
163310.586899,-1480.411884,-11029.068536,-612.876398
163310.587218,-1036.288319,-12213.398043,-76.609550
163310.587537,-1184.329507,-12065.356855,612.876398
163310.587856,-666.185348,-9474.636058,-229.828649
163310.588175,296.082377,-9178.553681,2451.505594
163310.588494,740.205942,-6143.709319,0.000000
163310.588813,1406.391290,-7105.977043,0.000000
163310.589132,1628.453072,-8808.450710,536.266849
163310.589451,666.185348,-10584.944971,612.876398
163310.589770,-1184.329507,-10436.903782,1225.752797
163310.590088,-1036.288319,-12435.459826,1225.752797
163310.590407,-1184.329507,-10732.986159,766.095498
163310.590726,-74.020594,-9474.636058,-76.609550
163310.591045,-74.020594,-6513.812290,-1608.800546
163310.591364,2886.803174,-9474.636058,-76.609550
163310.591683,0.000000,-8956.491898,-2068.457845
163310.592002,-592.164754,-10881.027347,-1302.362347
163310.592321,-1332.370696,-11103.089130,-1149.143247
163310.592640,-2072.576638,-9844.739029,1225.752797
163310.592959,0.000000,-8364.327145,612.876398
163310.593278,1184.329507,-6587.832884,1225.752797
163310.593597,4367.215058,-6513.812290,-76.609550
163310.593916,2368.659014,-6291.750507,766.095498
163310.594235,1776.494261,-7476.080014,0.000000
163310.594554,2886.803174,-11843.295072,2987.772442
163310.594873,-1036.288319,-11695.253884,1762.019645
163310.595192,-2220.617826,-11621.233289,383.047749
163310.595511,-2072.576638,-9548.656652,-689.485948
163310.595830,-888.247130,-6883.915261,0.000000
163310.596149,-3552.988522,-4811.338623,-2451.505594
163310.596468,0.000000,-7772.162391,-1225.752797
163310.596787,666.185348,-10288.862594,919.314598
163310.597106,-74.020594,-11547.212695,-1915.238745
163310.597425,-5921.647536,-9548.656652,-2451.505594
163310.597744,-3330.926739,-11029.068536,-2221.676944
163310.598063,-2590.720797,-9770.718434,-1378.971896
163310.598382,-666.185348,-7698.141797,-919.314598
163310.598701,888.247130,-6365.771101,-1302.362347
163310.599020,1628.453072,-8438.347739,-995.924147
163310.599339,0.000000,-9548.656652,0.000000
163310.599658,0.000000,-11325.150913,0.000000
163310.599977,1406.391290,-13027.624579,2604.724693
163310.600296,1702.473667,-11843.295072,2374.896044
163310.600615,0.000000,-7179.997637,612.876398
163310.600934,518.144159,-6883.915261,-76.609550
163310.601253,74.020594,-7031.956449,-995.924147
163310.601572,-370.102971,-8142.265362,-1532.190996
163310.601891,-1998.556043,-8956.491898,-3677.258390
163310.602210,-2590.720797,-10881.027347,-1685.410096
163310.602529,-3330.926739,-11251.130318,-1302.362347
163310.602848,-3552.988522,-7772.162391,-1838.629195
163310.603167,-592.164754,-7031.956449,459.657299
163310.603486,4663.297435,-8290.306550,2987.772442
163310.603805,1776.494261,-6587.832884,1838.629195
163310.604124,2294.638420,-8068.244768,1762.019645
163310.604442,222.061783,-10214.842000,2221.676944
163310.604761,-1258.350101,-11621.233289,1608.800546
163310.605080,-4737.318029,-9548.656652,0.000000
163310.605399,-2812.782580,-8882.471304,-1302.362347
163310.605718,-4441.235652,-6587.832884,-3064.381992
163310.606037,-2886.803174,-7772.162391,-2451.505594
163310.606356,-2368.659014,-7179.997637,-2451.505594
163310.606675,-592.164754,-10881.027347,-76.609550
163310.606994,-1480.411884,-11251.130318,-1915.238745
163310.607313,-1554.432478,-12139.377449,-1149.143247
163310.607632,-1258.350101,-11399.171507,-229.828649
163310.607951,-1776.494261,-7772.162391,0.000000
163310.608270,2294.638420,-7772.162391,766.095498
163310.608589,4367.215058,-7698.141797,-76.609550
163310.608908,3182.885551,-7698.141797,536.266849
163310.609227,3182.885551,-9474.636058,-76.609550
163310.609546,1628.453072,-11843.295072,3217.601092
163310.609865,0.000000,-11325.150913,1225.752797
163310.610184,370.102971,-11325.150913,1302.362347
163310.610503,518.144159,-9030.512492,766.095498
163310.610822,444.123565,-7105.977043,0.000000
163310.611141,-74.020594,-5477.523971,-2451.505594
163310.611460,740.205942,-7994.224174,-766.095498
163310.611779,-814.226536,-9104.533087,-1072.533697
163310.612098,-1480.411884,-10881.027347,-689.485948
163310.612417,-2072.576638,-11251.130318,-766.095498
163310.612736,-1258.350101,-11843.295072,-76.609550
163310.613055,-74.020594,-9474.636058,1455.581446
163310.613374,-74.020594,-6513.812290,-1915.238745
163310.613693,296.082377,-6291.750507,-919.314598
163310.614012,1924.535449,-8660.409521,1378.971896
163310.614331,0.000000,-8364.327145,0.000000
163310.614650,592.164754,-12583.501014,1762.019645
163310.614969,-1258.350101,-12287.418637,459.657299
163310.615288,-2664.741391,-10140.821405,-842.705048
163310.615607,-1258.350101,-8142.265362,-1608.800546
163310.615926,1702.473667,-7698.141797,-306.438199
163310.616245,1998.556043,-7105.977043,-1608.800546
163310.616564,740.205942,-7624.121203,-536.266849
163310.616883,-74.020594,-8586.388927,-2068.457845
163310.617202,-222.061783,-12805.562797,1072.533697
163310.617521,-3552.988522,-10732.986159,-1838.629195
163310.617840,-2146.597232,-10807.006753,-766.095498
163310.618159,-1036.288319,-8586.388927,-229.828649
163310.618478,444.123565,-7550.100608,-306.438199
163310.618796,740.205942,-7179.997637,-1225.752797
163310.619115,740.205942,-8142.265362,0.000000
163310.619434,1702.473667,-10658.965565,2987.772442
163310.619753,1998.556043,-13027.624579,2374.896044
163310.620072,-74.020594,-11547.212695,1455.581446
163310.620391,-74.020594,-11547.212695,3600.648841
163310.620710,-1480.411884,-7179.997637,306.438199
163310.621029,-666.185348,-6883.915261,-842.705048
163310.621348,-666.185348,-7994.224174,-1378.971896
163310.621667,-1702.473667,-9252.574275,-919.314598
163310.621986,-3552.988522,-10140.821405,-1838.629195
163310.622305,-2886.803174,-11917.315666,-2451.505594
163310.622624,-2368.659014,-11917.315666,-306.438199
163310.622943,-666.185348,-9474.636058,-842.705048
163310.623262,-370.102971,-5995.668130,-1838.629195
163310.623581,4663.297435,-7105.977043,-76.609550
163310.623900,3108.864956,-7550.100608,1225.752797
163310.624219,3552.988522,-9844.739029,2068.457845
163310.624538,1998.556043,-11325.150913,2834.553343
163310.624857,1554.432478,-12805.562797,4213.525239
163310.625176,-148.041188,-11325.150913,0.000000
163310.625495,-1184.329507,-9400.615463,1915.238745
163310.625814,-74.020594,-7550.100608,-689.485948
163310.626133,-74.020594,-9474.636058,-76.609550
163310.626452,0.000000,-5995.668130,-2451.505594
163310.626771,-74.020594,-9326.594869,-1149.143247
163310.627090,-1184.329507,-10955.047942,-919.314598
163310.627409,-2368.659014,-11251.130318,-1685.410096
163310.627728,-3256.906145,-11473.192101,-1455.581446
163310.628047,-1406.391290,-9844.739029,1149.143247
163310.628366,-1776.494261,-7179.997637,-1225.752797
163310.628685,1480.411884,-8068.244768,-76.609550
163310.629004,2886.803174,-10658.965565,-76.609550
163310.629323,1110.308913,-10066.800811,536.266849
163310.629642,0.000000,-9548.656652,1225.752797
163310.629961,74.020594,-11103.089130,536.266849
163310.630280,-370.102971,-9992.780217,919.314598
163310.630599,-370.102971,-8734.430116,306.438199
163310.630918,-666.185348,-6883.915261,-2298.286494
163310.631237,-814.226536,-6957.935855,-3294.210641
163310.631556,0.000000,-8364.327145,-1838.629195
163310.631875,-3552.988522,-9548.656652,-2451.505594
163310.632194,-2664.741391,-11917.315666,-1072.533697
163310.632513,-1258.350101,-13027.624579,-76.609550
163310.632832,-1184.329507,-9992.780217,1532.190996
163310.633150,0.000000,-6809.894666,0.000000
163310.633469,1702.473667,-5625.565159,612.876398
163310.633788,2738.761985,-6365.771101,1225.752797
163310.634107,0.000000,-6587.832884,0.000000
163310.634426,0.000000,-9548.656652,1225.752797
163310.634745,-3552.988522,-10140.821405,153.219100
163310.635064,-2368.659014,-11325.150913,919.314598
163310.635383,-2442.679609,-9474.636058,-76.609550
163310.635702,-1258.350101,-7698.141797,-1608.800546
163310.636021,-888.247130,-7624.121203,-459.657299
163310.636340,-518.144159,-7105.977043,-1685.410096
163310.636659,-666.185348,-8734.430116,-1608.800546
163310.636978,-1406.391290,-10881.027347,-1532.190996
163310.637297,-4737.318029,-10140.821405,-2451.505594
163310.637616,-1850.514855,-11547.212695,-1915.238745
163310.637935,-2960.823768,-8956.491898,0.000000
163310.638254,592.164754,-8882.471304,-76.609550
163310.638573,2294.638420,-7698.141797,-1915.238745
163310.638892,1998.556043,-7105.977043,-3140.991542
163310.639211,2294.638420,-10288.862594,383.047749
163310.639530,1110.308913,-11695.253884,766.095498
163310.639849,740.205942,-12435.459826,1532.190996
163310.640168,1258.350101,-11843.295072,2987.772442
163310.640487,1258.350101,-9474.636058,3600.648841
163310.640806,2590.720797,-6809.894666,1302.362347
163310.641125,1258.350101,-5921.647536,-76.609550
163310.641444,0.000000,-5995.668130,0.000000
163310.641763,0.000000,-9548.656652,306.438199
163310.642082,-3849.070898,-9770.718434,-2451.505594
163310.642401,-2442.679609,-11991.336260,-1608.800546
163310.642720,-2812.782580,-10584.944971,-1149.143247
163310.643039,-2516.700203,-7772.162391,0.000000
163310.643359,2294.638420,-7105.977043,-76.609550
163310.643678,2146.597232,-7031.956449,-2145.067394
163310.643997,1776.494261,-8660.409521,1762.019645
163310.644316,1406.391290,-10658.965565,536.266849
163310.644635,-1036.288319,-11843.295072,1149.143247
163310.644954,-2368.659014,-11621.233289,2681.334243
163310.645273,-3552.988522,-8956.491898,0.000000
163310.645592,-1924.535449,-8216.285956,-1149.143247
163310.645911,-740.205942,-7031.956449,-1915.238745
163310.646230,1110.308913,-7254.018232,-1302.362347
163310.646549,1406.391290,-7550.100608,-1608.800546
163310.646868,1110.308913,-13027.624579,-76.609550
163310.647187,-1258.350101,-11769.274478,-2528.115143
163310.647506,-2960.823768,-12065.356855,-1532.190996
163310.647825,-2368.659014,-10140.821405,76.609550
163310.648144,0.000000,-7772.162391,0.000000
163310.648463,1628.453072,-7402.059420,-153.219100
163310.648782,1628.453072,-7254.018232,0.000000
163310.649101,2072.576638,-8068.244768,0.000000
163310.649420,0.000000,-8438.347739,0.000000
163310.649739,0.000000,-10732.986159,1455.581446
163310.650058,0.000000,-10732.986159,2451.505594
163310.650377,-148.041188,-10140.821405,2145.067394
163310.650696,-74.020594,-9474.636058,-76.609550
163310.651015,-1184.329507,-5995.668130,0.000000
163310.651334,-2294.638420,-5995.668130,-2757.943793
163310.651653,-1554.432478,-9030.512492,-2298.286494
163310.651972,-2590.720797,-11399.171507,-2374.896044
163310.652292,-3256.906145,-12509.480420,-1991.848295
163310.652611,-1258.350101,-11843.295072,-2528.115143
163310.652930,-1850.514855,-8660.409521,-612.876398
163310.653249,0.000000,-6291.750507,0.000000
163310.653568,3478.967927,-7698.141797,1762.019645
163310.653887,3478.967927,-7698.141797,536.266849
163310.654206,0.000000,-5995.668130,0.000000
163310.654525,1184.329507,-11843.295072,1608.800546
163310.654844,-740.205942,-12805.562797,1455.581446
163310.655163,-1554.432478,-10658.965565,842.705048
163310.655482,-1554.432478,-7772.162391,-306.438199
163310.655801,2294.638420,-9474.636058,-76.609550
163310.656120,740.205942,-6587.832884,-689.485948
163310.656439,1702.473667,-7105.977043,153.219100
163310.656758,1554.432478,-8290.306550,0.000000
163310.657077,0.000000,-10732.986159,-1072.533697
163310.657396,-1332.370696,-12731.542202,-76.609550
163310.657715,-3256.906145,-10732.986159,-1149.143247
163310.658034,-3404.947333,-9548.656652,-3370.820191
163310.658353,0.000000,-8660.409521,-306.438199
163310.658672,-74.020594,-5773.606348,-2987.772442
163310.658991,2294.638420,-8882.471304,-689.485948
163310.659310,518.144159,-9474.636058,306.438199
163310.659629,222.061783,-11547.212695,1378.971896
163310.659948,444.123565,-11547.212695,1685.410096
163310.660267,666.185348,-11843.295072,2987.772442
163310.660586,-74.020594,-8290.306550,766.095498
163310.660905,0.000000,-6069.688724,-2221.676944
163310.661224,0.000000,-7476.080014,-1532.190996
163310.661544,-370.102971,-9474.636058,-2068.457845
163310.661863,-3997.112087,-8364.327145,-3677.258390
163310.662182,-1554.432478,-13027.624579,-1378.971896
163310.662501,-2220.617826,-12065.356855,-1149.143247
163310.662820,-1480.411884,-9252.574275,-306.438199
163310.663139,592.164754,-5625.565159,-383.047749
163310.663458,4071.132681,-3849.070898,-383.047749
163310.663777,4663.297435,-7105.977043,2374.896044
163310.664096,1332.370696,-7179.997637,612.876398
163310.664415,666.185348,-11621.233289,2681.334243
163310.664734,-74.020594,-14211.954086,2374.896044
163310.665053,-4737.318029,-11917.315666,0.000000
163310.665372,-3775.050304,-10362.883188,-1302.362347
163310.665691,-3701.029710,-7846.182985,-2374.896044
163310.666010,-1554.432478,-6809.894666,-1608.800546
163310.666329,-1110.308913,-4811.338623,-2374.896044
163310.666648,1628.453072,-8882.471304,-76.609550
163310.666967,-74.020594,-9474.636058,-689.485948
163310.667286,-2368.659014,-9696.697840,-1302.362347
163310.667605,-4737.318029,-9548.656652,-2374.896044
163310.667924,-74.020594,-11843.295072,-76.609550
163310.668243,-1480.411884,-8956.491898,-919.314598
163310.668562,74.020594,-8068.244768,-1302.362347
163310.668881,444.123565,-8882.471304,-1762.019645
163310.669200,370.102971,-10732.986159,-1455.581446
163310.669519,-74.020594,-11769.274478,-153.219100
163310.669838,1110.308913,-13323.706956,995.924147
163310.670157,740.205942,-11251.130318,2374.896044
163310.670476,1110.308913,-7698.141797,459.657299
163310.670796,0.000000,-5699.585753,1225.752797
163310.671115,2294.638420,-5329.482782,-76.609550
163310.671434,1776.494261,-6883.915261,0.000000
163310.671753,148.041188,-9030.512492,0.000000
163310.672072,-1036.288319,-11325.150913,-612.876398
163310.672391,-1850.514855,-13027.624579,-76.609550
163310.672710,-1332.370696,-12731.542202,-76.609550
163310.673029,-666.185348,-9178.553681,-76.609550
163310.673348,2294.638420,-8882.471304,-76.609550
163310.673667,1110.308913,-6069.688724,-536.266849
163310.673986,0.000000,-6587.832884,0.000000
163310.674305,518.144159,-9326.594869,536.266849
163310.674624,-666.185348,-11695.253884,2068.457845
163310.674943,-1258.350101,-11029.068536,1302.362347
163310.675262,-1776.494261,-9030.512492,306.438199
163310.675581,-74.020594,-8882.471304,-76.609550
163310.675900,-74.020594,-7105.977043,0.000000
163310.676219,2294.638420,-7105.977043,-1302.362347
163310.676538,0.000000,-7254.018232,-2298.286494
163310.676857,-592.164754,-10288.862594,-3677.258390
163310.677176,-2368.659014,-12509.480420,-2145.067394
163310.677495,-3552.988522,-11917.315666,-2757.943793
163310.677814,-2442.679609,-12213.398043,-1608.800546
163310.678133,-1776.494261,-9400.615463,-689.485948
163310.678452,518.144159,-7476.080014,-1762.019645
163310.678771,2886.803174,-8290.306550,-229.828649
163310.679090,2368.659014,-7772.162391,153.219100
163310.679409,2664.741391,-10066.800811,2221.676944
163310.679729,2294.638420,-11843.295072,2374.896044
163310.680048,0.000000,-9548.656652,1225.752797
163310.680367,296.082377,-11621.233289,3600.648841
163310.680686,-962.267725,-7476.080014,76.609550
163310.681005,-740.205942,-7254.018232,-919.314598
163310.681324,-518.144159,-7105.977043,-1072.533697
163310.681643,-2368.659014,-7328.038826,-2451.505594
163310.681962,-3256.906145,-9548.656652,-2451.505594
163310.682281,-3256.906145,-12065.356855,-1072.533697
163310.682600,-2960.823768,-10732.986159,0.000000
163310.682919,-666.185348,-8882.471304,-689.485948
163310.683238,222.061783,-4885.359217,-689.485948
163310.683557,3478.967927,-7698.141797,1762.019645
163310.683876,1998.556043,-6957.935855,459.657299
163310.684195,1702.473667,-9548.656652,153.219100
163310.684514,74.020594,-11843.295072,612.876398
163310.684833,-2368.659014,-13101.645173,612.876398
163310.685152,-4145.153275,-11473.192101,0.000000
163310.685471,-2368.659014,-10140.821405,0.000000
163310.685790,-74.020594,-8882.471304,-229.828649
163310.686109,1110.308913,-5625.565159,-76.609550
163310.686428,1406.391290,-4219.173869,-2298.286494
163310.686747,3330.926739,-8734.430116,842.705048
163310.687066,592.164754,-10584.944971,383.047749
163310.687385,-1184.329507,-11769.274478,153.219100
163310.687704,-2442.679609,-11251.130318,0.000000
163310.688023,-1480.411884,-10436.903782,0.000000
163310.688342,-2368.659014,-5995.668130,0.000000
163310.688661,1776.494261,-8586.388927,536.266849
163310.688981,2146.597232,-8290.306550,-76.609550
163310.689300,2294.638420,-10066.800811,-995.924147
163310.689619,2294.638420,-11843.295072,1762.019645
163310.689938,0.000000,-11621.233289,1685.410096
163310.690257,-666.185348,-10362.883188,1915.238745
163310.690576,-962.267725,-8364.327145,229.828649
163310.690895,814.226536,-8438.347739,1149.143247
163310.691214,-74.020594,-7105.977043,-1915.238745
163310.691533,-1258.350101,-7550.100608,-2681.334243
163310.691852,-2072.576638,-9548.656652,-4596.572988
163310.692171,-296.082377,-13619.789333,-76.609550
163310.692490,-74.020594,-11843.295072,-2528.115143
163310.692809,-74.020594,-10955.047942,612.876398
163310.693128,444.123565,-7846.182985,0.000000
163310.693447,2294.638420,-5403.503377,-1915.238745
163310.693766,2738.761985,-7105.977043,459.657299
163310.694085,1184.329507,-8364.327145,2451.505594
163310.694404,814.226536,-10658.965565,383.047749
163310.694723,-518.144159,-12287.418637,1302.362347
163310.695042,-1924.535449,-11547.212695,612.876398
163310.695361,-2368.659014,-8586.388927,0.000000
163310.695680,-2294.638420,-5921.647536,-2145.067394
163310.695999,-74.020594,-5921.647536,-1608.800546
163310.696318,0.000000,-5403.503377,0.000000
163310.696637,1480.411884,-7179.997637,0.000000
163310.696956,518.144159,-10658.965565,-76.609550
163310.697275,-1184.329507,-12509.480420,1225.752797
163310.697594,-3627.009116,-11399.171507,-919.314598
163310.697913,-3775.050304,-10584.944971,-1072.533697
163310.698233,-2886.803174,-8660.409521,-2221.676944
163310.698552,-2960.823768,-6957.935855,-2528.115143
163310.698871,0.000000,-8512.368333,-1149.143247
163310.699190,0.000000,-8364.327145,-1762.019645
163310.699509,148.041188,-9548.656652,-1532.190996
163310.699828,0.000000,-11621.233289,1225.752797
163310.700147,-74.020594,-10362.883188,-76.609550
163310.700466,1110.308913,-9844.739029,1762.019645
163310.700785,0.000000,-7179.997637,0.000000
163310.701104,222.061783,-6883.915261,-842.705048
163310.701423,-148.041188,-7402.059420,-1302.362347
163310.701742,-74.020594,-11177.109724,-76.609550
163310.702061,-1554.432478,-11917.315666,-1378.971896
163310.702380,-1776.494261,-13619.789333,-76.609550
163310.702699,-1554.432478,-10955.047942,-995.924147
163310.703018,-1184.329507,-7476.080014,0.000000
163310.703337,814.226536,-4515.256246,0.000000
163310.703656,3478.967927,-6735.874072,1302.362347
163310.703975,2664.741391,-7476.080014,1149.143247
163310.704294,1258.350101,-9326.594869,1455.581446
163310.704613,-518.144159,-12435.459826,2068.457845
163310.704932,-666.185348,-13027.624579,2374.896044
163310.705251,-1554.432478,-12435.459826,2374.896044
163310.705570,-3330.926739,-6439.791695,-2451.505594
163310.705889,-2368.659014,-5995.668130,-1532.190996
163310.706208,888.247130,-7179.997637,1225.752797
163310.706527,0.000000,-5995.668130,-1838.629195
163310.706846,222.061783,-9326.594869,-459.657299
163310.707166,-1628.453072,-11029.068536,-1149.143247
163310.707485,-2368.659014,-11917.315666,-1225.752797
163310.707804,-1258.350101,-11547.212695,-842.705048
163310.708123,-444.123565,-8956.491898,-612.876398
163310.708442,1998.556043,-9474.636058,-383.047749
163310.708761,592.164754,-7328.038826,-1608.800546
163310.709080,0.000000,-7179.997637,-2298.286494
163310.709399,3256.906145,-12805.562797,2987.772442
163310.709718,592.164754,-11029.068536,1225.752797
163310.710037,1554.432478,-11399.171507,2221.676944
163310.710356,666.185348,-9696.697840,2528.115143
163310.710675,888.247130,-7179.997637,1149.143247
163310.710994,1036.288319,-6587.832884,0.000000
163310.711313,1258.350101,-7402.059420,-76.609550
163310.711632,-518.144159,-8290.306550,-383.047749
163310.711951,-74.020594,-11843.295072,-1915.238745
163310.712270,-2442.679609,-11695.253884,-2145.067394
163310.712589,-74.020594,-14211.954086,-76.609550
163310.712908,-2368.659014,-9548.656652,0.000000
163310.713227,-296.082377,-7105.977043,-306.438199
163310.713546,666.185348,-6661.853478,-612.876398
163310.713865,1480.411884,-7920.203579,919.314598
163310.714184,592.164754,-9548.656652,1225.752797
163310.714503,-666.185348,-11917.315666,0.000000
163310.714822,-74.020594,-14137.933492,2374.896044
163310.715141,-2442.679609,-9622.677246,0.000000
163310.715460,-4145.153275,-7179.997637,-1838.629195
163310.715779,-74.020594,-7105.977043,-1302.362347
163310.716098,0.000000,-5921.647536,-1072.533697
163310.716418,1036.288319,-7105.977043,-995.924147
163310.716737,592.164754,-9474.636058,-459.657299
163310.717056,296.082377,-13027.624579,1685.410096
163310.717375,-1776.494261,-12509.480420,-2451.505594
163310.717694,-1628.453072,-13027.624579,1302.362347
163310.718013,-1258.350101,-10066.800811,-383.047749
163310.718332,-1036.288319,-6957.935855,-1302.362347
163310.718651,0.000000,-5107.421000,0.000000
163310.718970,2294.638420,-7698.141797,-76.609550
163310.719289,1776.494261,-10362.883188,1149.143247
163310.719608,962.267725,-11547.212695,2298.286494
163310.719927,296.082377,-11251.130318,2451.505594
163310.720246,-74.020594,-11325.150913,2374.896044
163310.720565,-3552.988522,-7772.162391,0.000000
163310.720884,-1776.494261,-7920.203579,-383.047749
163310.721203,-74.020594,-9474.636058,-76.609550
163310.721522,-74.020594,-9400.615463,-1302.362347
163310.721841,-2368.659014,-9548.656652,-1838.629195
163310.722160,-1554.432478,-11547.212695,-1455.581446
163310.722479,-1850.514855,-11399.171507,-1072.533697
163310.722798,-1258.350101,-10066.800811,-76.609550
163310.723117,-1110.308913,-6587.832884,0.000000
163310.723436,888.247130,-5995.668130,0.000000
163310.723755,1776.494261,-6291.750507,0.000000
163310.724074,1480.411884,-8364.327145,1225.752797
163310.724393,2294.638420,-12435.459826,2068.457845
163310.724712,-74.020594,-14211.954086,-76.609550
163310.725031,-1480.411884,-11917.315666,1225.752797
163310.725350,-1554.432478,-9178.553681,0.000000
163310.725670,74.020594,-7105.977043,-229.828649
163310.725989,1184.329507,-5403.503377,-229.828649
163310.726308,0.000000,-3627.009116,0.000000
163310.726627,1776.494261,-6365.771101,0.000000
163310.726946,-1776.494261,-7476.080014,-1838.629195
163310.727265,-1776.494261,-11917.315666,0.000000
163310.727584,-2442.679609,-12287.418637,-995.924147
163310.727903,-1258.350101,-11251.130318,-2528.115143
163310.728222,-2220.617826,-9326.594869,-1378.971896
163310.728541,-814.226536,-7624.121203,-2374.896044
163310.728860,148.041188,-7105.977043,-1838.629195
163310.729179,962.267725,-8734.430116,-689.485948
163310.729498,0.000000,-9844.739029,0.000000
163310.729817,-74.020594,-10658.965565,0.000000
163310.730136,0.000000,-10140.821405,1838.629195
163310.730455,-74.020594,-9474.636058,2987.772442
163310.730774,-74.020594,-7105.977043,-689.485948
163310.731093,2294.638420,-8882.471304,-76.609550
163310.731412,-444.123565,-7624.121203,-1685.410096
163310.731731,-962.267725,-9622.677246,-2451.505594
163310.732050,-1850.514855,-11769.274478,-2604.724693
163310.732369,-2960.823768,-11917.315666,0.000000
163310.732688,-1628.453072,-11251.130318,-689.485948
163310.733007,-74.020594,-9474.636058,-76.609550
163310.733326,1110.308913,-6513.812290,-383.047749
163310.733645,1184.329507,-5995.668130,1225.752797
163310.733964,5847.626942,-9474.636058,3600.648841
163310.734283,1480.411884,-9400.615463,2451.505594
163310.734603,74.020594,-10955.047942,2298.286494
163310.734922,-1628.453072,-11695.253884,2068.457845
163310.735241,-2368.659014,-9548.656652,842.705048
163310.735560,-4737.318029,-5995.668130,0.000000
163310.735879,-814.226536,-6883.915261,-842.705048
163310.736198,0.000000,-6143.709319,-689.485948
163310.736517,518.144159,-7105.977043,76.609550
163310.736836,-370.102971,-8734.430116,-1915.238745
163310.737155,-666.185348,-12435.459826,-1302.362347
163310.737474,-1554.432478,-14211.954086,-383.047749
163310.737793,-4737.318029,-9844.739029,-2298.286494
163310.738112,-3552.988522,-8364.327145,-3677.258390
163310.738431,-74.020594,-9474.636058,-383.047749
163310.738750,0.000000,-6291.750507,-1225.752797
163310.739069,1850.514855,-7846.182985,-306.438199
163310.739388,1628.453072,-10807.006753,612.876398
163310.739707,888.247130,-11991.336260,1532.190996
163310.740026,0.000000,-11251.130318,1225.752797
163310.740345,0.000000,-9548.656652,1072.533697
163310.740664,1110.308913,-8586.388927,1149.143247
163310.740983,222.061783,-7105.977043,-76.609550
163310.741302,74.020594,-6513.812290,-1838.629195
163310.741621,2294.638420,-9474.636058,-76.609550
163310.741940,-592.164754,-10732.986159,-1685.410096
163310.742259,-1258.350101,-12583.501014,-1302.362347
163310.742578,-1628.453072,-11473.192101,-1072.533697
163310.742896,-814.226536,-9696.697840,76.609550
163310.743215,1184.329507,-6587.832884,612.876398
163310.743534,2368.659014,-6291.750507,536.266849
163310.743853,1184.329507,-6143.709319,0.000000
163310.744172,1776.494261,-9400.615463,1302.362347
163310.744491,-370.102971,-11325.150913,842.705048
163310.744809,-1258.350101,-12435.459826,0.000000
163310.745128,-3552.988522,-11029.068536,612.876398
163310.745447,-2442.679609,-9474.636058,-536.266849
163310.745766,-1406.391290,-7254.018232,-1072.533697
163310.746085,222.061783,-6513.812290,-1302.362347
163310.746404,3182.885551,-7994.224174,-76.609550
163310.746723,518.144159,-9474.636058,-689.485948
163310.747041,-1850.514855,-10658.965565,-2528.115143
163310.747360,-3552.988522,-12213.398043,-2451.505594
163310.747679,-1110.308913,-13545.768739,-76.609550
163310.747998,-4737.318029,-8660.409521,-2298.286494
163310.748317,222.061783,-7846.182985,-536.266849
163310.748636,1406.391290,-7031.956449,-766.095498
163310.748954,2368.659014,-7105.977043,612.876398
163310.749273,3182.885551,-8290.306550,842.705048
163310.749592,4367.215058,-13619.789333,4673.182538
163310.749911,1110.308913,-11473.192101,2145.067394
163310.750230,-1776.494261,-10436.903782,2451.505594
163310.750549,-2960.823768,-6587.832884,0.000000
163310.750867,1702.473667,-9474.636058,1762.019645
163310.751186,-1628.453072,-6143.709319,-612.876398
163310.751505,-888.247130,-7846.182985,-1608.800546
163310.751824,-2072.576638,-9474.636058,-1991.848295
163310.752143,-2442.679609,-11177.109724,-2221.676944
163310.752462,-2294.638420,-10955.047942,-1225.752797
163310.752781,-1258.350101,-11695.253884,-229.828649
163310.753099,-666.185348,-8734.430116,-76.609550
163310.753418,-666.185348,-4811.338623,-2451.505594
163310.753737,592.164754,-5995.668130,0.000000
163310.754056,3478.967927,-9474.636058,-76.609550
163310.754375,0.000000,-10658.965565,306.438199
163310.754694,-1258.350101,-12509.480420,842.705048
163310.755012,-1924.535449,-12213.398043,766.095498
163310.755331,-370.102971,-11325.150913,1378.971896
163310.755650,-740.205942,-8364.327145,1225.752797
163310.755969,2072.576638,-5921.647536,-76.609550
163310.756288,4663.297435,-8290.306550,-76.609550
163310.756607,2220.617826,-7698.141797,-689.485948
163310.756925,-2368.659014,-7772.162391,0.000000
163310.757244,-370.102971,-11843.295072,-1302.362347
163310.757563,-2664.741391,-12509.480420,-1302.362347
163310.757882,-2664.741391,-10955.047942,-459.657299
163310.758201,-1554.432478,-8808.450710,-919.314598
163310.758520,2294.638420,-8882.471304,1762.019645
163310.758839,1924.535449,-7402.059420,0.000000
163310.759157,2738.761985,-9474.636058,1532.190996
163310.759476,2146.597232,-11251.130318,1762.019645
163310.759795,0.000000,-9622.677246,1149.143247
163310.760114,-2368.659014,-9548.656652,2451.505594
163310.760433,-1258.350101,-8734.430116,153.219100
163310.760752,-1110.308913,-7328.038826,-536.266849
163310.761070,-1258.350101,-6735.874072,-1608.800546
163310.761389,-1554.432478,-7624.121203,-2604.724693
163310.761708,-74.020594,-11251.130318,-1915.238745
163310.762027,-3552.988522,-11325.150913,-3064.381992
163310.762346,-2220.617826,-12805.562797,-1991.848295
163310.762665,-370.102971,-14211.954086,-76.609550
163310.762983,-74.020594,-9474.636058,-689.485948
163310.763302,1184.329507,-8364.327145,0.000000
163310.763621,3182.885551,-6513.812290,842.705048
163310.763940,3182.885551,-7328.038826,1072.533697
163310.764259,2442.679609,-9622.677246,1838.629195
163310.764578,0.000000,-10140.821405,0.000000
163310.764896,-1184.329507,-10288.862594,1225.752797
163310.765215,-1776.494261,-10732.986159,1302.362347
163310.765534,-2368.659014,-7179.997637,0.000000
163310.765853,-370.102971,-7476.080014,459.657299
163310.766172,1998.556043,-7105.977043,-1302.362347
163310.766491,1480.411884,-7846.182985,229.828649
163310.766810,0.000000,-9326.594869,-459.657299
163310.767128,-1850.514855,-11547.212695,-842.705048
163310.767447,-3849.070898,-11695.253884,-1302.362347
163310.767766,-5921.647536,-9548.656652,0.000000
163310.768085,-4145.153275,-7920.203579,-2374.896044
163310.768404,-2368.659014,-5995.668130,0.000000
163310.768723,2886.803174,-8216.285956,-76.609550
163310.769041,2294.638420,-7846.182985,536.266849
163310.769360,2886.803174,-8586.388927,-229.828649
163310.769679,1702.473667,-11843.295072,2374.896044
163310.769998,74.020594,-11029.068536,1685.410096
163310.770317,-1110.308913,-10510.924376,1225.752797
163310.770636,-814.226536,-9104.533087,229.828649
163310.770954,0.000000,-8364.327145,0.000000
163310.771273,-2368.659014,-5995.668130,-3064.381992
163310.771592,0.000000,-8068.244768,-2145.067394
163310.771911,-74.020594,-10881.027347,-306.438199
163310.772230,-74.020594,-12583.501014,-1302.362347
163310.772549,-74.020594,-11843.295072,-76.609550
163310.772868,0.000000,-9326.594869,612.876398
163310.773186,666.185348,-7624.121203,689.485948
163310.773505,1776.494261,-6439.791695,919.314598
163310.773824,2664.741391,-7476.080014,2604.724693
163310.774143,1554.432478,-9770.718434,842.705048
163310.774462,-74.020594,-11103.089130,-76.609550
163310.774781,-2368.659014,-10732.986159,-1532.190996
163310.775099,-3552.988522,-10732.986159,919.314598
163310.775418,-74.020594,-9474.636058,-76.609550
163310.775737,-888.247130,-7994.224174,-153.219100
163310.776056,-148.041188,-5847.626942,-1685.410096
163310.776375,444.123565,-7476.080014,-995.924147
163310.776694,222.061783,-8068.244768,-1072.533697
163310.777012,-2368.659014,-9548.656652,0.000000
163310.777331,-2442.679609,-12435.459826,-1608.800546
163310.777650,-2886.803174,-11917.315666,-2298.286494
163310.777969,-2738.761985,-10066.800811,-1838.629195
163310.778288,-1406.391290,-7179.997637,-3370.820191
163310.778607,1110.308913,-6513.812290,-2528.115143
163310.778926,3478.967927,-7105.977043,-1302.362347
163310.779244,1480.411884,-7772.162391,0.000000
163310.779563,2590.720797,-11029.068536,612.876398
163310.779882,2072.576638,-13027.624579,3294.210641
163310.780201,592.164754,-11029.068536,3217.601092
163310.780520,-370.102971,-8364.327145,1149.143247
163310.780839,-666.185348,-7031.956449,-689.485948
163310.781157,0.000000,-6957.935855,-612.876398
163310.781476,-888.247130,-6661.853478,-1608.800546
163310.781795,-1184.329507,-9252.574275,-1532.190996
163310.782114,-2442.679609,-10955.047942,-2528.115143
163310.782433,-3330.926739,-10362.883188,-3447.429741
163310.782752,-4589.276840,-9548.656652,-1838.629195
163310.783070,-74.020594,-9474.636058,-76.609550
163310.783389,444.123565,-7994.224174,229.828649
163310.783708,1110.308913,-7031.956449,0.000000
163310.784027,1480.411884,-8364.327145,0.000000
163310.784346,370.102971,-9992.780217,612.876398
163310.784665,-888.247130,-12509.480420,2374.896044
163310.784983,-370.102971,-11843.295072,995.924147
163310.785302,-666.185348,-11843.295072,2374.896044
163310.785621,-1258.350101,-7105.977043,-842.705048
163310.785940,-1184.329507,-5995.668130,-1225.752797
163310.786259,1110.308913,-6217.729913,-2221.676944
163310.786578,1258.350101,-8290.306550,76.609550
163310.786897,74.020594,-9474.636058,-612.876398
163310.787215,-1702.473667,-11769.274478,-919.314598
163310.787534,-2442.679609,-13619.789333,-689.485948
163310.787853,-1850.514855,-13027.624579,-76.609550
163310.788172,-1554.432478,-10658.965565,-76.609550
163310.788491,-1110.308913,-6143.709319,-2451.505594
163310.788810,2368.659014,-7328.038826,383.047749
163310.789128,2960.823768,-7476.080014,2451.505594
163310.789447,296.082377,-7328.038826,1225.752797
163310.789766,1554.432478,-11029.068536,2987.772442
163310.790085,444.123565,-10955.047942,2374.896044
163310.790404,-666.185348,-10288.862594,1685.410096
163310.790723,-74.020594,-9474.636058,-76.609550
163310.791041,-148.041188,-7476.080014,0.000000
163310.791360,-74.020594,-9474.636058,-1608.800546
163310.791679,-1628.453072,-8808.450710,-3140.991542
163310.791998,-2442.679609,-10658.965565,-3753.867940
163310.792317,-2368.659014,-13397.727550,-76.609550
163310.792636,-3552.988522,-11473.192101,-2374.896044
163310.792955,-1184.329507,-10584.944971,-766.095498
163310.793273,222.061783,-7328.038826,-612.876398
163310.793592,2220.617826,-7624.121203,536.266849
163310.793911,3478.967927,-6809.894666,0.000000
163310.794230,2812.782580,-10066.800811,1455.581446
163310.794549,-74.020594,-11177.109724,3447.429741
163310.794868,-666.185348,-10658.965565,0.000000
163310.795186,-2368.659014,-10140.821405,1225.752797
163310.795505,814.226536,-10658.965565,2374.896044
163310.795824,-888.247130,-6587.832884,-766.095498
163310.796143,0.000000,-6217.729913,-1072.533697
163310.796462,1110.308913,-7402.059420,-766.095498
163310.796781,0.000000,-8956.491898,0.000000
163310.797099,-2368.659014,-9844.739029,0.000000
163310.797418,-2886.803174,-12213.398043,-3677.258390
163310.797737,-4441.235652,-11325.150913,0.000000
163310.798056,-1554.432478,-9474.636058,-1302.362347
163310.798375,-1554.432478,-5625.565159,-2528.115143
163310.798694,2294.638420,-7105.977043,-76.609550
163310.799013,1628.453072,-7105.977043,306.438199
163310.799331,1702.473667,-9400.615463,1225.752797
163310.799650,666.185348,-11251.130318,1838.629195
163310.799969,0.000000,-12213.398043,4136.915689
163310.800288,-1184.329507,-9548.656652,0.000000
163310.800607,-2368.659014,-8956.491898,306.438199
163310.800926,-814.226536,-8438.347739,-536.266849
163310.801244,-1258.350101,-9326.594869,-1608.800546
163310.801563,-3256.906145,-5995.668130,-6128.763984
163310.801882,-370.102971,-10955.047942,-2528.115143
163310.802201,-888.247130,-12287.418637,-1378.971896
163310.802520,-592.164754,-11621.233289,-536.266849
163310.802839,-444.123565,-9844.739029,229.828649
163310.803157,1184.329507,-7772.162391,1532.190996
163310.803476,0.000000,-4811.338623,612.876398
163310.803795,3923.091493,-7402.059420,2374.896044
163310.804114,1998.556043,-8290.306550,1149.143247
163310.804433,0.000000,-9844.739029,2221.676944
163310.804752,-2368.659014,-10140.821405,2451.505594
163310.805070,-1554.432478,-10658.965565,1378.971896
163310.805389,-2516.700203,-8734.430116,-153.219100
163310.805708,-1776.494261,-7105.977043,-919.314598
163310.806027,-1258.350101,-5033.400406,-2834.553343
163310.806346,370.102971,-6513.812290,-1149.143247
163310.806665,0.000000,-8364.327145,-1455.581446
163310.806984,-3552.988522,-9548.656652,-3370.820191
163310.807302,-1258.350101,-14211.954086,-1302.362347
163310.807621,-2442.679609,-14211.954086,-76.609550
163310.807940,-4145.153275,-10436.903782,-1225.752797
163310.808259,-1258.350101,-8142.265362,-1455.581446
163310.808578,814.226536,-6809.894666,-995.924147
163310.808897,2516.700203,-6661.853478,0.000000
163310.809215,444.123565,-6587.832884,-2451.505594
163310.809534,2220.617826,-10362.883188,1149.143247
163310.809853,0.000000,-9548.656652,306.438199
163310.810172,296.082377,-11325.150913,2451.505594
163310.810491,1110.308913,-10510.924376,1838.629195
163310.810810,0.000000,-7920.203579,1532.190996
163310.811128,74.020594,-6587.832884,-1149.143247
163310.811447,0.000000,-7402.059420,-1838.629195
163310.811766,-296.082377,-9770.718434,-2374.896044
163310.812085,-888.247130,-11547.212695,-2451.505594
163310.812404,-370.102971,-12435.459826,-383.047749
163310.812723,-74.020594,-11843.295072,1149.143247
163310.813042,-74.020594,-8438.347739,-383.047749
163310.813360,740.205942,-5995.668130,0.000000
163310.813679,2368.659014,-7179.997637,2757.943793
163310.813998,0.000000,-5995.668130,0.000000
163310.814317,222.061783,-10066.800811,689.485948
163310.814636,-1184.329507,-12435.459826,766.095498
163310.814955,-2368.659014,-12139.377449,612.876398
163310.815273,-3034.844362,-8734.430116,-1762.019645
163310.815592,-3404.947333,-7846.182985,-1072.533697
163310.815911,-2072.576638,-7328.038826,-1225.752797
163310.816230,0.000000,-6587.832884,0.000000
163310.816549,1702.473667,-9104.533087,-76.609550
163310.816868,0.000000,-9548.656652,0.000000
163310.817186,-1850.514855,-11769.274478,-1838.629195
163310.817505,-2368.659014,-11917.315666,-1608.800546
163310.817824,-2368.659014,-10288.862594,-766.095498
163310.818143,-666.185348,-8512.368333,-536.266849
163310.818462,2294.638420,-7105.977043,-76.609550
163310.818781,2664.741391,-6809.894666,766.095498
163310.819099,2886.803174,-7698.141797,1608.800546
163310.819418,2294.638420,-9918.759623,2681.334243
163310.819737,2294.638420,-13323.706956,4213.525239
163310.820056,0.000000,-12509.480420,3600.648841
163310.820375,-3552.988522,-8364.327145,612.876398
163310.820694,-1776.494261,-7698.141797,459.657299
163310.821013,-1258.350101,-8290.306550,-76.609550
163310.821331,-2960.823768,-5403.503377,-3677.258390
163310.821650,-222.061783,-7698.141797,-2528.115143
163310.821969,-1480.411884,-10881.027347,-1915.238745
163310.822288,-2220.617826,-12065.356855,-1685.410096
163310.822607,-2886.803174,-11769.274478,-1762.019645
163310.822926,-2368.659014,-9622.677246,-1302.362347
163310.823244,-74.020594,-8734.430116,-1302.362347
163310.823563,1184.329507,-7698.141797,0.000000
163310.823882,3478.967927,-9474.636058,2374.896044
163310.824201,2886.803174,-9474.636058,-76.609550
163310.824520,0.000000,-10140.821405,1225.752797
163310.824839,-666.185348,-11695.253884,919.314598
163310.825157,-814.226536,-11325.150913,536.266849
163310.825476,-962.267725,-8882.471304,383.047749
163310.825795,444.123565,-6809.894666,-383.047749
163310.826114,1702.473667,-5921.647536,-1608.800546
163310.826433,1480.411884,-7179.997637,0.000000
163310.826752,0.000000,-7179.997637,-1838.629195
163310.827071,-592.164754,-11843.295072,-306.438199
163310.827389,-1258.350101,-13027.624579,-766.095498
163310.827708,-2960.823768,-13249.686362,612.876398
163310.828027,-3034.844362,-9548.656652,-1915.238745
163310.828346,-740.205942,-7179.997637,-842.705048
163310.828665,1480.411884,-6217.729913,0.000000
163310.828984,1184.329507,-4811.338623,0.000000
163310.829302,0.000000,-5403.503377,306.438199
163310.829621,0.000000,-7476.080014,1378.971896
163310.829940,0.000000,-11325.150913,2451.505594
163310.830259,-370.102971,-11547.212695,2987.772442
163310.830578,-1258.350101,-8882.471304,-689.485948
163310.830897,-1036.288319,-8290.306550,-689.485948
163310.831215,-2220.617826,-7105.977043,-2911.162892
163310.831534,-1776.494261,-8512.368333,-2834.553343
163310.831853,-1036.288319,-10436.903782,-3140.991542
163310.832172,-3552.988522,-10732.986159,-3064.381992
163310.832491,-1554.432478,-11769.274478,-1915.238745
163310.832810,-2072.576638,-9548.656652,-1149.143247
163310.833129,0.000000,-8364.327145,0.000000
163310.833447,4663.297435,-8290.306550,2374.896044
163310.833766,3478.967927,-4811.338623,0.000000
163310.834085,3478.967927,-8586.388927,2298.286494
163310.834404,2294.638420,-10732.986159,1762.019645
163310.834723,370.102971,-11917.315666,2298.286494
163310.835042,-888.247130,-11621.233289,1455.581446
163310.835360,-1554.432478,-10658.965565,-76.609550
163310.835679,-1850.514855,-7105.977043,-1302.362347
163310.835998,-1184.329507,-5329.482782,-1915.238745
163310.836317,0.000000,-5995.668130,-1225.752797
163310.836636,0.000000,-8660.409521,-612.876398
163310.836955,-3552.988522,-7772.162391,-3064.381992
163310.837273,-2368.659014,-11843.295072,-766.095498
163310.837592,-3478.967927,-11399.171507,-1378.971896
163310.837911,-2590.720797,-10140.821405,-995.924147
163310.838230,-1258.350101,-8290.306550,-842.705048
163310.838549,2294.638420,-7105.977043,-76.609550
163310.838868,2220.617826,-6809.894666,-76.609550
163310.839186,1628.453072,-7179.997637,0.000000
163310.839505,888.247130,-10140.821405,1915.238745
163310.839824,1480.411884,-12509.480420,4749.792088
163310.840143,-2368.659014,-10140.821405,0.000000
163310.840462,-888.247130,-10288.862594,-76.609550
163310.840781,-1702.473667,-7920.203579,-689.485948
163310.841100,-444.123565,-6883.915261,-1378.971896
163310.841418,-74.020594,-6809.894666,-2221.676944
163310.841737,2294.638420,-11547.212695,-76.609550
163310.842056,1110.308913,-11843.295072,-1302.362347
163310.842375,-1850.514855,-10510.924376,-1378.971896
163310.842694,-4145.153275,-9548.656652,-2451.505594
163310.843013,1702.473667,-11843.295072,2068.457845
163310.843331,0.000000,-7179.997637,0.000000
163310.843650,1702.473667,-6439.791695,689.485948
163310.843969,2072.576638,-7328.038826,76.609550
163310.844288,1184.329507,-9770.718434,1532.190996
163310.844607,-74.020594,-11843.295072,2068.457845
163310.844926,-3849.070898,-10140.821405,0.000000
163310.845245,-2368.659014,-11029.068536,612.876398
163310.845563,-2368.659014,-8364.327145,0.000000
163310.845882,-296.082377,-7105.977043,-2145.067394
163310.846201,-666.185348,-5699.585753,-2451.505594
163310.846520,0.000000,-5995.668130,-2451.505594
163310.846839,0.000000,-10881.027347,-919.314598
163310.847158,-962.267725,-12731.542202,-766.095498
163310.847477,-3034.844362,-11103.089130,-3140.991542
163310.847795,-3034.844362,-11103.089130,-2681.334243
163310.848114,-2664.741391,-8512.368333,-1072.533697
163310.848433,592.164754,-5995.668130,612.876398
163310.848752,4663.297435,-7105.977043,1762.019645
163310.849071,6439.791695,-9474.636058,3600.648841
163310.849390,2368.659014,-9548.656652,2451.505594
163310.849709,1628.453072,-11473.192101,2987.772442
163310.850028,0.000000,-11103.089130,2604.724693
163310.850346,-1258.350101,-10140.821405,1149.143247
163310.850665,-3182.885551,-6291.750507,-3370.820191
163310.850984,-2368.659014,-7031.956449,-1532.190996
163310.851303,-3552.988522,-5995.668130,-3677.258390
163310.851622,-1776.494261,-7476.080014,-3064.381992
163310.851941,-740.205942,-10732.986159,-1225.752797
163310.852260,0.000000,-11917.315666,612.876398
163310.852578,-1998.556043,-10584.944971,0.000000
163310.852897,-74.020594,-11843.295072,-76.609550
163310.853216,-222.061783,-7994.224174,-689.485948
163310.853535,740.205942,-6661.853478,0.000000
163310.853854,592.164754,-5995.668130,0.000000
163310.854173,0.000000,-7179.997637,-1838.629195
163310.854492,0.000000,-9844.739029,612.876398
163310.854810,-148.041188,-11917.315666,0.000000
163310.855129,-2072.576638,-12435.459826,1149.143247
163310.855448,-2442.679609,-10140.821405,0.000000
163310.855767,-666.185348,-7476.080014,-766.095498
163310.856086,-148.041188,-7476.080014,-1915.238745
163310.856405,740.205942,-7994.224174,-1838.629195
163310.856724,0.000000,-7772.162391,0.000000
163310.857042,-1184.329507,-10436.903782,-1302.362347
163310.857361,-962.267725,-13027.624579,-153.219100
163310.857680,-1258.350101,-12287.418637,-76.609550
163310.857999,-962.267725,-8512.368333,-383.047749
163310.858318,0.000000,-4145.153275,-1608.800546
163310.858637,4367.215058,-8290.306550,1762.019645
163310.858956,3478.967927,-8290.306550,2374.896044
163310.859275,0.000000,-7179.997637,306.438199
163310.859593,592.164754,-10732.986159,1991.848295
163310.859912,-888.247130,-10732.986159,2681.334243
163310.860231,-3552.988522,-9548.656652,0.000000
163310.860550,-3478.967927,-7772.162391,-995.924147
163310.860869,-1258.350101,-8068.244768,-689.485948
163310.861188,-74.020594,-8290.306550,-2528.115143
163310.861507,-2368.659014,-6587.832884,-3907.087040
163310.861825,-74.020594,-10510.924376,-689.485948
163310.862144,-1258.350101,-11325.150913,-1302.362347
163310.862463,-1258.350101,-13027.624579,-689.485948
163310.862782,-1554.432478,-10214.842000,-383.047749
163310.863101,0.000000,-8364.327145,2451.505594
163310.863420,1628.453072,-7402.059420,459.657299
163310.863739,2294.638420,-7550.100608,153.219100
163310.864057,3478.967927,-9474.636058,-76.609550
163310.864376,-148.041188,-9844.739029,-383.047749
163310.864695,1702.473667,-14211.954086,1762.019645
163310.865014,-1776.494261,-11991.336260,612.876398
163310.865333,-1110.308913,-9770.718434,766.095498
163310.865652,-962.267725,-7179.997637,76.609550
163310.865971,592.164754,-6069.688724,1149.143247
163310.866289,0.000000,-4811.338623,0.000000
163310.866608,1110.308913,-7920.203579,-76.609550
163310.866927,-444.123565,-9992.780217,-306.438199
163310.867246,-2220.617826,-11843.295072,-612.876398
163310.867565,-3627.009116,-11251.130318,-1915.238745
163310.867884,-2664.741391,-9548.656652,-919.314598
163310.868203,-74.020594,-9178.553681,-76.609550
163310.868522,-888.247130,-5995.668130,-1532.190996
163310.868840,0.000000,-5403.503377,0.000000
163310.869159,4367.215058,-9474.636058,3294.210641
163310.869478,296.082377,-10140.821405,1838.629195
163310.869797,370.102971,-11695.253884,1762.019645
163310.870116,-666.185348,-11251.130318,1225.752797
163310.870435,-1480.411884,-9918.759623,306.438199
163310.870754,-1850.514855,-7179.997637,-766.095498
163310.871072,-1776.494261,-7105.977043,-2145.067394
163310.871391,-74.020594,-7402.059420,-1991.848295
163310.871710,-666.185348,-7402.059420,-4136.915689
163310.872029,0.000000,-10436.903782,-2068.457845
163310.872348,2294.638420,-14211.954086,-76.609550
163310.872667,-1184.329507,-11325.150913,0.000000
163310.872986,-370.102971,-9178.553681,-153.219100
163310.873304,1110.308913,-7105.977043,306.438199
163310.873623,2368.659014,-6365.771101,1149.143247
163310.873942,3256.906145,-7772.162391,2145.067394
163310.874261,2294.638420,-9992.780217,1838.629195
163310.874580,2294.638420,-13027.624579,2068.457845
163310.874899,-370.102971,-11769.274478,689.485948
163310.875218,-2294.638420,-9548.656652,0.000000
163310.875536,-74.020594,-8882.471304,-76.609550
163310.875855,-1036.288319,-7179.997637,-995.924147
163310.876174,148.041188,-7105.977043,-1915.238745
163310.876493,296.082377,-8068.244768,-1455.581446
163310.876812,-74.020594,-11695.253884,-76.609550
163310.877131,-1480.411884,-12509.480420,-2451.505594
163310.877450,-2960.823768,-13027.624579,-76.609550
163310.877769,-3034.844362,-11251.130318,-1608.800546
163310.878087,-3256.906145,-7179.997637,-2528.115143
163310.878406,-2368.659014,-4811.338623,0.000000
163310.878725,1702.473667,-5329.482782,-689.485948
163310.879044,2886.803174,-7402.059420,536.266849
163310.879363,1554.432478,-9918.759623,919.314598
163310.879682,814.226536,-11843.295072,2145.067394
163310.880001,1702.473667,-13619.789333,2374.896044
163310.880319,0.000000,-11621.233289,2911.162892
163310.880638,-74.020594,-9474.636058,1149.143247
163310.880957,-1258.350101,-9474.636058,-76.609550
163310.881276,-74.020594,-5921.647536,-1302.362347
163310.881595,0.000000,-7772.162391,0.000000
163310.881914,296.082377,-9992.780217,-306.438199
163310.882233,-1036.288319,-11251.130318,-306.438199
163310.882551,-1924.535449,-11029.068536,76.609550
163310.882870,-2146.597232,-9696.697840,0.000000
163310.883189,-1776.494261,-6365.771101,-1838.629195
163310.883508,814.226536,-7402.059420,-383.047749
163310.883827,0.000000,-6587.832884,0.000000
163310.884146,1702.473667,-10658.965565,-76.609550
163310.884465,-962.267725,-11843.295072,-76.609550
163310.884783,-1258.350101,-13027.624579,-76.609550
163310.885102,-2294.638420,-11029.068536,0.000000
163310.885421,-2146.597232,-9992.780217,-459.657299
163310.885740,-888.247130,-7402.059420,-1225.752797
163310.886059,296.082377,-6291.750507,-919.314598
163310.886378,592.164754,-6291.750507,0.000000
163310.886697,592.164754,-8364.327145,0.000000
163310.887016,1184.329507,-11843.295072,459.657299
163310.887334,-1258.350101,-12139.377449,-76.609550
163310.887653,-3330.926739,-9548.656652,-3677.258390
163310.887972,-666.185348,-10658.965565,-1302.362347
163310.888291,0.000000,-7772.162391,-995.924147
163310.888610,1332.370696,-7105.977043,-766.095498
163310.888929,2516.700203,-7772.162391,536.266849
163310.889248,3701.029710,-9992.780217,3064.381992
163310.889566,0.000000,-9548.656652,1225.752797
163310.889885,0.000000,-11325.150913,2451.505594
163310.890204,-1110.308913,-10436.903782,1838.629195
163310.890523,-74.020594,-8290.306550,-76.609550
163310.890842,-3552.988522,-4811.338623,-1838.629195
163310.891161,-222.061783,-6809.894666,-1225.752797
163310.891480,-444.123565,-7254.018232,-1608.800546
163310.891798,-592.164754,-9548.656652,-2374.896044
163310.892117,-1628.453072,-10140.821405,-2681.334243
163310.892436,-1998.556043,-11917.315666,-1302.362347
163310.892755,-4145.153275,-10732.986159,-2145.067394
163310.893074,-1480.411884,-10140.821405,-2451.505594
163310.893393,2294.638420,-9474.636058,-76.609550
163310.893712,2294.638420,-8882.471304,-76.609550
163310.894030,1184.329507,-7179.997637,0.000000
163310.894349,1702.473667,-9770.718434,612.876398
163310.894668,814.226536,-11843.295072,1532.190996
163310.894987,0.000000,-11695.253884,1685.410096
163310.895306,-1554.432478,-8364.327145,0.000000
163310.895625,-666.185348,-7550.100608,0.000000
163310.895944,0.000000,-4811.338623,-3064.381992
163310.896262,592.164754,-7772.162391,0.000000
163310.896581,1406.391290,-9474.636058,-76.609550
163310.896900,-74.020594,-13027.624579,-76.609550
163310.897219,-2368.659014,-12509.480420,0.000000
163310.897538,-2812.782580,-11843.295072,-995.924147
163310.897857,-2738.761985,-9770.718434,-459.657299
163310.898176,-1258.350101,-7179.997637,-306.438199
163310.898495,0.000000,-3034.844362,0.000000
163310.898813,1258.350101,-6513.812290,-76.609550
163310.899132,0.000000,-7179.997637,0.000000
163310.899451,0.000000,-10732.986159,1608.800546
163310.899770,-74.020594,-14211.954086,3600.648841
163310.900089,-1184.329507,-13323.706956,3600.648841
163310.900408,-1850.514855,-9548.656652,459.657299
163310.900727,-1628.453072,-7179.997637,-612.876398
163310.901045,-1480.411884,-5995.668130,-1915.238745
163310.901364,-1776.494261,-5995.668130,-2451.505594
163310.901683,1702.473667,-8956.491898,-1302.362347
163310.902002,-74.020594,-11695.253884,-383.047749
163310.902321,-2146.597232,-11103.089130,-1455.581446
163310.902640,-4737.318029,-9548.656652,-2451.505594
163310.902959,-74.020594,-12731.542202,-76.609550
163310.903277,0.000000,-7179.997637,0.000000
163310.903596,2516.700203,-6957.935855,536.266849
163310.903915,2516.700203,-7846.182985,689.485948
163310.904234,2368.659014,-9548.656652,842.705048
163310.904553,222.061783,-9548.656652,0.000000
163310.904872,-74.020594,-12435.459826,1762.019645
163310.905191,-1258.350101,-11177.109724,766.095498
163310.905509,-1554.432478,-8808.450710,0.000000
163310.905828,-962.267725,-6735.874072,-689.485948
163310.906147,1480.411884,-7994.224174,-76.609550
163310.906466,2294.638420,-9474.636058,-76.609550
163310.906785,-74.020594,-8438.347739,-2451.505594
163310.907104,-2368.659014,-10214.842000,-2221.676944
163310.907423,-2368.659014,-12583.501014,-153.219100
163310.907742,-4737.318029,-9548.656652,-2451.505594
163310.908060,-1406.391290,-9474.636058,-1302.362347
163310.908379,0.000000,-6883.915261,-995.924147
163310.908698,1480.411884,-7031.956449,-689.485948
163310.909017,2294.638420,-8290.306550,-76.609550
163310.909336,1480.411884,-8364.327145,0.000000
163310.909655,1110.308913,-11843.295072,1762.019645
163310.909974,-1924.535449,-11399.171507,0.000000
163310.910292,-3034.844362,-8956.491898,-1225.752797
163310.910611,-74.020594,-9474.636058,2374.896044
163310.910930,0.000000,-4811.338623,0.000000
163310.911249,1036.288319,-6587.832884,-153.219100
163310.911568,2072.576638,-7254.018232,-306.438199
163310.911887,1184.329507,-9548.656652,-689.485948
163310.912206,0.000000,-10732.986159,0.000000
163310.912524,-1776.494261,-11325.150913,-919.314598
163310.912843,-962.267725,-11251.130318,1762.019645
163310.913162,-74.020594,-9474.636058,-76.609550
163310.913481,-1184.329507,-6587.832884,-1455.581446
163310.913800,2294.638420,-9474.636058,-76.609550
163310.914119,888.247130,-9104.533087,0.000000
163310.914438,592.164754,-11029.068536,842.705048
163310.914756,-370.102971,-11325.150913,1762.019645
163310.915075,-1184.329507,-11399.171507,2374.896044
163310.915394,-2220.617826,-9548.656652,1532.190996
163310.915713,-1258.350101,-7698.141797,-76.609550
163310.916032,-74.020594,-5921.647536,-2528.115143
163310.916351,-1776.494261,-7179.997637,-1838.629195
163310.916670,148.041188,-9844.739029,-2451.505594
163310.916989,-74.020594,-11843.295072,-1915.238745
163310.917307,-3404.947333,-12287.418637,-1225.752797
163310.917626,-2886.803174,-12139.377449,-2221.676944
163310.917945,-1924.535449,-10362.883188,-1072.533697
163310.918264,-74.020594,-9178.553681,1149.143247
163310.918583,2368.659014,-6587.832884,0.000000
163310.918902,4663.297435,-8882.471304,2374.896044
163310.919221,4071.132681,-8882.471304,1762.019645
163310.919539,1924.535449,-11843.295072,3600.648841
163310.919858,0.000000,-9548.656652,612.876398
163310.920177,-666.185348,-11103.089130,1149.143247
163310.920496,-1554.432478,-9474.636058,612.876398
163310.920815,-1554.432478,-7105.977043,-306.438199
163310.921134,-592.164754,-6291.750507,-995.924147
163310.921453,1110.308913,-7476.080014,-76.609550
163310.921771,0.000000,-8364.327145,-1532.190996
163310.922090,0.000000,-11177.109724,0.000000
163310.922409,-1184.329507,-11621.233289,919.314598
163310.922728,-1258.350101,-11843.295072,-995.924147
163310.923047,-2368.659014,-9548.656652,0.000000
163310.923366,-518.144159,-7550.100608,-1762.019645
163310.923685,148.041188,-7402.059420,-919.314598
163310.924003,1184.329507,-8734.430116,-919.314598
163310.924322,518.144159,-10140.821405,-1838.629195
163310.924641,-592.164754,-11029.068536,0.000000
163310.924960,-1776.494261,-11917.315666,153.219100
163310.925279,-592.164754,-11621.233289,2451.505594
163310.925598,-74.020594,-9474.636058,-76.609550
163310.925917,-370.102971,-6513.812290,-1302.362347
163310.926236,1184.329507,-7772.162391,766.095498
163310.926554,1258.350101,-7624.121203,-919.314598
163310.926873,592.164754,-9844.739029,-689.485948
163310.927192,-1702.473667,-11917.315666,-689.485948
163310.927511,-4737.318029,-10140.821405,0.000000
163310.927830,-4441.235652,-9548.656652,-1225.752797
163310.928149,-2146.597232,-7179.997637,-1838.629195
163310.928468,0.000000,-6587.832884,612.876398
163310.928786,2738.761985,-7698.141797,612.876398
163310.929105,4071.132681,-7698.141797,1762.019645
163310.929424,2220.617826,-10955.047942,2987.772442
163310.929743,-148.041188,-11547.212695,2451.505594
163310.930062,-1628.453072,-11325.150913,1455.581446
163310.930381,-2442.679609,-9252.574275,612.876398
163310.930700,-4145.153275,-5995.668130,0.000000
163310.931018,-2738.761985,-4811.338623,-2911.162892
163310.931337,-2368.659014,-5995.668130,-2451.505594
163310.931656,0.000000,-7476.080014,-3677.258390
163310.931975,0.000000,-10140.821405,-612.876398
163310.932294,-1850.514855,-9548.656652,-3677.258390
163310.932613,-1480.411884,-11917.315666,-995.924147
163310.932932,-1184.329507,-9696.697840,-383.047749
163310.933250,74.020594,-8660.409521,-383.047749
163310.933569,1480.411884,-7994.224174,-76.609550
163310.933888,1184.329507,-8290.306550,-76.609550
163310.934207,1554.432478,-8512.368333,-612.876398
163310.934526,740.205942,-10288.862594,0.000000
163310.934845,0.000000,-11917.315666,1532.190996
163310.935164,-74.020594,-11621.233289,3830.477490
163310.935483,-2368.659014,-6587.832884,0.000000
163310.935801,444.123565,-6661.853478,-76.609550
163310.936120,1036.288319,-6587.832884,-383.047749
163310.936439,1332.370696,-7254.018232,-383.047749
163310.936758,-74.020594,-8290.306550,-1302.362347
163310.937077,-666.185348,-11251.130318,-842.705048
163310.937396,-3034.844362,-11843.295072,-1302.362347
163310.937715,-4737.318029,-9844.739029,-2145.067394
163310.938033,-1924.535449,-9992.780217,-153.219100
163310.938352,814.226536,-10066.800811,-76.609550
163310.938671,0.000000,-7179.997637,-2145.067394
163310.938990,962.267725,-8586.388927,-459.657299
163310.939309,962.267725,-9474.636058,306.438199
163310.939628,296.082377,-11399.171507,1302.362347
163310.939947,-962.267725,-9548.656652,0.000000
163310.940265,-666.185348,-11843.295072,-76.609550
163310.940584,-1258.350101,-7402.059420,-689.485948
163310.940903,-2220.617826,-5995.668130,-1838.629195
163310.941222,-2368.659014,-4811.338623,-2451.505594
163310.941541,0.000000,-7179.997637,306.438199
163310.941860,1406.391290,-9178.553681,-459.657299
163310.942179,0.000000,-11103.089130,-306.438199
163310.942497,-888.247130,-11917.315666,-383.047749
163310.942816,-3404.947333,-9548.656652,-2451.505594
163310.943135,-1480.411884,-7179.997637,0.000000
163310.943454,962.267725,-8438.347739,-76.609550
163310.943773,1702.473667,-7105.977043,-76.609550
163310.944092,1998.556043,-7994.224174,153.219100
163310.944410,592.164754,-9548.656652,2451.505594
163310.944729,-1480.411884,-10140.821405,612.876398
163310.945048,-1406.391290,-11621.233289,1302.362347
163310.945367,-2590.720797,-9326.594869,153.219100
163310.945686,-1258.350101,-8290.306550,-76.609550
163310.946005,-74.020594,-7105.977043,-1915.238745
163310.946324,-296.082377,-8068.244768,-842.705048
163310.946642,-740.205942,-8734.430116,-1608.800546
163310.946961,-2072.576638,-10288.862594,-1838.629195
163310.947280,-3256.906145,-12361.439231,-1608.800546
163310.947599,-2664.741391,-13915.871710,-76.609550
163310.947918,-2368.659014,-9548.656652,0.000000
163310.948237,1998.556043,-9474.636058,-76.609550
163310.948555,1332.370696,-5995.668130,-919.314598
163310.948874,2960.823768,-7179.997637,612.876398
163310.949193,1406.391290,-7179.997637,0.000000
163310.949512,2146.597232,-11177.109724,1991.848295
163310.949831,444.123565,-12287.418637,1838.629195
163310.950150,0.000000,-11917.315666,1838.629195
163310.950468,-74.020594,-10066.800811,1608.800546
163310.950787,-74.020594,-6513.812290,306.438199
163310.951106,1702.473667,-7105.977043,-76.609550
163310.951425,740.205942,-6291.750507,-1302.362347
163310.951744,1702.473667,-9474.636058,-1302.362347
163310.952063,0.000000,-10140.821405,0.000000
163310.952382,-3256.906145,-10732.986159,-2298.286494
163310.952700,-2738.761985,-11251.130318,-766.095498
163310.953019,-1776.494261,-9474.636058,-229.828649
163310.953338,-592.164754,-7105.977043,-612.876398
163310.953657,296.082377,-6735.874072,-1991.848295
163310.953976,1258.350101,-9104.533087,-76.609550
163310.954295,1110.308913,-10214.842000,-76.609550
163310.954613,-2960.823768,-9844.739029,0.000000
163310.954932,-1776.494261,-11621.233289,766.095498
163310.955251,-148.041188,-12287.418637,2681.334243
163310.955570,-2294.638420,-7846.182985,-1685.410096
163310.955889,-148.041188,-6439.791695,-1072.533697
163310.956208,296.082377,-6957.935855,-1378.971896
163310.956526,814.226536,-8586.388927,0.000000
163310.956845,-2072.576638,-8364.327145,-2451.505594
163310.957164,-962.267725,-11769.274478,-1838.629195
163310.957483,-1184.329507,-13397.727550,-306.438199
163310.957802,-1258.350101,-11843.295072,-689.485948
163310.958121,-888.247130,-6883.915261,-1302.362347
163310.958440,4663.297435,-9474.636058,-76.609550
163310.958758,2368.659014,-6365.771101,0.000000
163310.959077,2368.659014,-8660.409521,842.705048
163310.959396,1258.350101,-10362.883188,1608.800546
163310.959715,0.000000,-11325.150913,2451.505594
163310.960034,-2368.659014,-9548.656652,0.000000
163310.960353,-3552.988522,-8364.327145,0.000000
163310.960671,-2368.659014,-7179.997637,0.000000
163310.960990,-74.020594,-6587.832884,919.314598
163310.961309,-1554.432478,-4219.173869,-3064.381992
163310.961628,-74.020594,-9178.553681,-1302.362347
163310.961947,-1258.350101,-9992.780217,-1225.752797
163310.962266,-2368.659014,-11621.233289,-1072.533697
163310.962584,-3330.926739,-11251.130318,-1225.752797
163310.962903,-3552.988522,-10140.821405,0.000000
163310.963222,-2072.576638,-7476.080014,-1838.629195
163310.963541,1628.453072,-7920.203579,-76.609550
163310.963860,3478.967927,-10658.965565,1762.019645
163310.964179,1702.473667,-9474.636058,-689.485948
163310.964498,0.000000,-9548.656652,0.000000
163310.964816,518.144159,-12139.377449,1149.143247
163310.965135,-592.164754,-10732.986159,612.876398
163310.965454,-962.267725,-9104.533087,306.438199
163310.965773,0.000000,-6217.729913,-689.485948
163310.966092,1480.411884,-7105.977043,-1302.362347
163310.966411,0.000000,-6883.915261,-1532.190996
163310.966729,-2072.576638,-7772.162391,-2451.505594
163310.967048,-1184.329507,-11917.315666,-153.219100
163310.967367,-370.102971,-14211.954086,-76.609550
163310.967686,-2368.659014,-10140.821405,0.000000
163310.968005,-592.164754,-8882.471304,-306.438199
163310.968324,444.123565,-7031.956449,0.000000
163310.968642,962.267725,-6661.853478,-383.047749
163310.968961,666.185348,-5699.585753,-2451.505594
163310.969280,222.061783,-9326.594869,-76.609550
163310.969599,-1258.350101,-10362.883188,-995.924147
163310.969918,-2368.659014,-12509.480420,1225.752797
163310.970237,-814.226536,-11251.130318,2374.896044
163310.970555,-74.020594,-9474.636058,-76.609550
163310.970874,-888.247130,-6143.709319,0.000000
163310.971193,148.041188,-5329.482782,-1072.533697
163310.971512,1036.288319,-7254.018232,-1302.362347
163310.971831,370.102971,-9474.636058,-1225.752797
163310.972150,-2368.659014,-9844.739029,-2681.334243
163310.972469,-1258.350101,-13027.624579,-1915.238745
163310.972787,-3552.988522,-10436.903782,-1838.629195
163310.973106,-1776.494261,-8364.327145,-3677.258390
163310.973425,0.000000,-7179.997637,0.000000
163310.973744,3182.885551,-7105.977043,-1302.362347
163310.974063,2590.720797,-8364.327145,383.047749
163310.974382,2294.638420,-10362.883188,1225.752797
163310.974700,962.267725,-11769.274478,2757.943793
163310.975019,-370.102971,-13027.624579,2987.772442
163310.975338,-2072.576638,-10066.800811,1762.019645
163310.975657,-1554.432478,-6809.894666,-536.266849
163310.975976,-814.226536,-6513.812290,-689.485948
163310.976295,-1776.494261,-5995.668130,-2757.943793
163310.976613,-2368.659014,-7179.997637,-2451.505594
163310.976932,-2442.679609,-10288.862594,-3140.991542
163310.977251,-3627.009116,-12583.501014,-2221.676944
163310.977570,-3923.091493,-12509.480420,-2528.115143
163310.977889,-2442.679609,-10362.883188,-766.095498
163310.978208,-74.020594,-9474.636058,-76.609550
163310.978527,1924.535449,-7105.977043,536.266849
163310.978845,2294.638420,-7105.977043,-76.609550
163310.979164,1702.473667,-6957.935855,229.828649
163310.979483,296.082377,-10436.903782,1685.410096
163310.979802,0.000000,-11917.315666,2451.505594
163310.980121,-2072.576638,-10436.903782,76.609550
163310.980440,-740.205942,-9548.656652,995.924147
163310.980758,-370.102971,-7031.956449,-536.266849
163310.981077,592.164754,-6217.729913,-995.924147
163310.981396,2294.638420,-7105.977043,-383.047749
163310.981715,2886.803174,-10658.965565,1762.019645
163310.982034,-74.020594,-10658.965565,-1302.362347
163310.982353,-2368.659014,-10436.903782,-1225.752797
163310.982671,-2368.659014,-10732.986159,1838.629195
163310.982990,-2368.659014,-7179.997637,0.000000
163310.983309,518.144159,-6957.935855,459.657299
163310.983628,1332.370696,-6587.832884,0.000000
163310.983947,1776.494261,-7772.162391,-76.609550
163310.984266,1110.308913,-8586.388927,842.705048
163310.984585,-814.226536,-11029.068536,612.876398
163310.984903,-2368.659014,-10732.986159,612.876398
163310.985222,-1850.514855,-11029.068536,0.000000
163310.985541,-74.020594,-9474.636058,-76.609550
163310.985860,-2960.823768,-4811.338623,-2451.505594
163310.986179,-74.020594,-6513.812290,-2221.676944
163310.986498,370.102971,-8290.306550,-1225.752797
163310.986816,0.000000,-9770.718434,-1072.533697
163310.987135,-1184.329507,-11991.336260,-1685.410096
163310.987454,-666.185348,-13915.871710,-1302.362347
163310.987773,-2368.659014,-10881.027347,-1378.971896
163310.988092,-148.041188,-8216.285956,-383.047749
163310.988411,1924.535449,-6291.750507,-383.047749
163310.988729,3256.906145,-6735.874072,1762.019645
163310.989048,2960.823768,-8364.327145,2451.505594
163310.989367,592.164754,-9548.656652,2451.505594
163310.989686,1406.391290,-13323.706956,2681.334243
163310.990005,-518.144159,-11843.295072,1608.800546
163310.990324,-2220.617826,-9104.533087,0.000000
163310.990643,-74.020594,-7105.977043,-76.609550
163310.990961,0.000000,-5107.421000,0.000000
163310.991280,518.144159,-5995.668130,-612.876398
163310.991599,666.185348,-7254.018232,-919.314598
163310.991918,-74.020594,-10214.842000,-459.657299
163310.992237,-1554.432478,-12731.542202,-1302.362347
163310.992556,-5773.606348,-10732.986159,-2987.772442
163310.992874,-3108.864956,-11177.109724,-3064.381992
163310.993193,-1184.329507,-9400.615463,-612.876398
163310.993512,-2368.659014,-5403.503377,0.000000
163310.993831,444.123565,-6883.915261,-1302.362347
163310.994150,1258.350101,-8956.491898,76.609550
163310.994469,814.226536,-11029.068536,1455.581446
163310.994787,-74.020594,-11843.295072,1149.143247
163310.995106,-666.185348,-11695.253884,842.705048
163310.995425,-740.205942,-9474.636058,536.266849
163310.995744,148.041188,-7846.182985,0.000000
163310.996063,1924.535449,-8142.265362,-76.609550
163310.996382,1702.473667,-8734.430116,-689.485948
163310.996701,0.000000,-9548.656652,0.000000
163310.997019,-1554.432478,-10807.006753,-1225.752797
163310.997338,-2294.638420,-12583.501014,-1225.752797
163310.997657,-2220.617826,-11991.336260,-919.314598
163310.997976,-1110.308913,-8882.471304,0.000000
163310.998295,0.000000,-4811.338623,-2451.505594
163310.998614,2442.679609,-4219.173869,0.000000
163310.998932,1776.494261,-7179.997637,1225.752797
163310.999251,3478.967927,-10510.924376,2374.896044
163310.999570,814.226536,-11843.295072,2374.896044
163310.999889,-222.061783,-14211.954086,3370.820191
163311.000208,-2738.761985,-10807.006753,459.657299
163311.000527,-2886.803174,-8290.306550,-612.876398
163311.000845,-1776.494261,-5921.647536,-1532.190996
163311.001164,-2960.823768,-4811.338623,-3064.381992
163311.001483,-1776.494261,-5995.668130,-3140.991542
163311.001802,0.000000,-8364.327145,-1838.629195
163311.002121,-74.020594,-12213.398043,-76.609550
163311.002440,-814.226536,-14211.954086,-76.609550
163311.002759,-2442.679609,-10658.965565,-2528.115143
163311.003077,-74.020594,-10658.965565,-76.609550
163311.003396,962.267725,-7031.956449,-76.609550
163311.003715,2368.659014,-7105.977043,153.219100
163311.004034,3034.844362,-8586.388927,842.705048
163311.004353,592.164754,-9548.656652,2221.676944
163311.004672,666.185348,-10510.924376,1378.971896
163311.004990,-1184.329507,-10881.027347,612.876398
163311.005309,-592.164754,-10732.986159,1838.629195
163311.005628,-74.020594,-9178.553681,-76.609550
163311.005947,-1554.432478,-4663.297435,-4443.353888
163311.006266,666.185348,-7402.059420,-766.095498
163311.006585,518.144159,-8512.368333,-995.924147
163311.006903,-740.205942,-10732.986159,-919.314598
163311.007222,-1998.556043,-11843.295072,-1608.800546
163311.007541,-1850.514855,-13027.624579,-1302.362347
163311.007860,-3182.885551,-9992.780217,-1915.238745
163311.008179,-3552.988522,-5995.668130,-2451.505594
163311.008498,740.205942,-7920.203579,-76.609550
163311.008816,2368.659014,-7920.203579,1532.190996
163311.009135,0.000000,-7179.997637,0.000000
163311.009454,518.144159,-11473.192101,1149.143247
163311.009773,-592.164754,-11917.315666,1072.533697
163311.010092,-1258.350101,-11399.171507,1072.533697
163311.010411,-74.020594,-9474.636058,-689.485948
163311.010730,-74.020594,-7550.100608,-76.609550
163311.011048,1998.556043,-7105.977043,-76.609550
163311.011367,518.144159,-6365.771101,-1915.238745
163311.011686,0.000000,-8438.347739,-1302.362347
163311.012005,444.123565,-13323.706956,2374.896044
163311.012324,-3256.906145,-11917.315666,-1532.190996
163311.012643,-3108.864956,-12509.480420,-1072.533697
163311.012961,-2294.638420,-10214.842000,-536.266849
163311.013280,-444.123565,-7254.018232,0.000000
163311.013599,1110.308913,-5921.647536,-76.609550
163311.013918,4071.132681,-8290.306550,2068.457845
163311.014237,2294.638420,-8290.306550,1685.410096
163311.014556,592.164754,-9548.656652,1072.533697
163311.014874,-2368.659014,-9844.739029,1991.848295
163311.015193,-74.020594,-11843.295072,2987.772442
163311.015512,-3404.947333,-8364.327145,-919.314598
163311.015831,-1850.514855,-7402.059420,-1225.752797
163311.016150,-1184.329507,-7254.018232,-1532.190996
163311.016469,592.164754,-9104.533087,-153.219100
163311.016788,-370.102971,-10140.821405,-1532.190996
163311.017106,-1258.350101,-13323.706956,-1991.848295
163311.017425,-1850.514855,-15396.283594,-689.485948
163311.017744,-2146.597232,-10658.965565,-2834.553343
163311.018063,-2960.823768,-7179.997637,-2451.505594
163311.018382,2294.638420,-7698.141797,-76.609550
163311.018701,2442.679609,-6587.832884,229.828649
163311.019019,3775.050304,-7772.162391,1072.533697
163311.019338,3034.844362,-9844.739029,1838.629195
163311.019657,3182.885551,-14063.912898,4826.401637
163311.019976,592.164754,-12509.480420,2451.505594
163311.020295,-74.020594,-11917.315666,3524.039291
163311.020614,-74.020594,-8290.306550,-76.609550
163311.020932,-592.164754,-5329.482782,-1302.362347
163311.021251,0.000000,-3627.009116,0.000000
163311.021570,1406.391290,-7105.977043,-1302.362347
163311.021889,0.000000,-9844.739029,-1072.533697
163311.022208,-1406.391290,-12139.377449,-766.095498
163311.022527,-2738.761985,-12139.377449,-1378.971896
163311.022846,-1258.350101,-11843.295072,-76.609550
163311.023164,-2368.659014,-7179.997637,0.000000
163311.023483,1110.308913,-8290.306550,-76.609550
163311.023802,1702.473667,-7402.059420,-76.609550
163311.024121,1998.556043,-6957.935855,0.000000
163311.024440,74.020594,-8364.327145,0.000000
163311.024759,0.000000,-11991.336260,1608.800546
163311.025077,-1184.329507,-10807.006753,536.266849
163311.025396,-1776.494261,-9548.656652,-612.876398
163311.025715,-74.020594,-8882.471304,-76.609550
163311.026034,-518.144159,-6587.832884,-1378.971896
163311.026353,0.000000,-6587.832884,-2451.505594
163311.026672,0.000000,-7179.997637,-4290.134789
163311.026990,-592.164754,-11917.315666,-153.219100
163311.027309,-1998.556043,-11325.150913,-3064.381992
163311.027628,-666.185348,-11843.295072,-1302.362347
163311.027947,-1480.411884,-9548.656652,-153.219100
163311.028266,74.020594,-7698.141797,0.000000
163311.028585,1554.432478,-7179.997637,0.000000
163311.028904,3330.926739,-9474.636058,2987.772442
163311.029222,666.185348,-8660.409521,1302.362347
163311.029541,74.020594,-11473.192101,2145.067394
163311.029860,-962.267725,-11991.336260,2451.505594
163311.030179,-1628.453072,-10807.006753,2451.505594
163311.030498,-2960.823768,-7179.997637,612.876398
163311.030817,-4145.153275,-4811.338623,-1838.629195
163311.031135,-740.205942,-6883.915261,-459.657299
163311.031454,-74.020594,-7994.224174,-76.609550
163311.031773,-962.267725,-7772.162391,-2987.772442
163311.032092,-74.020594,-13027.624579,-383.047749
163311.032411,-3701.029710,-12657.521608,-1838.629195
163311.032730,-3552.988522,-11843.295072,-1378.971896
163311.033048,-2886.803174,-8882.471304,-1072.533697
163311.033367,-1776.494261,-7179.997637,-1838.629195
163311.033686,1924.535449,-7105.977043,-766.095498
163311.034005,1776.494261,-7476.080014,919.314598
163311.034324,3182.885551,-10066.800811,3064.381992
163311.034643,3478.967927,-13027.624579,3294.210641
163311.034962,0.000000,-9548.656652,0.000000
163311.035280,-74.020594,-10066.800811,1762.019645
163311.035599,-1036.288319,-7994.224174,536.266849
163311.035918,0.000000,-7254.018232,-459.657299
163311.036237,962.267725,-7772.162391,-1302.362347
163311.036556,888.247130,-8882.471304,-995.924147
163311.036875,-370.102971,-10436.903782,-1225.752797
163311.037193,-2368.659014,-10732.986159,-4213.525239
163311.037512,-4737.318029,-11325.150913,-2145.067394
163311.037831,-2368.659014,-10807.006753,-689.485948
163311.038150,-2368.659014,-5995.668130,0.000000
163311.038469,1998.556043,-6883.915261,-229.828649
163311.038788,2368.659014,-6957.935855,306.438199
163311.039106,2146.597232,-7994.224174,766.095498
163311.039425,1406.391290,-8956.491898,153.219100
163311.039744,-74.020594,-11251.130318,-76.609550
163311.040063,-1702.473667,-10214.842000,-1608.800546
163311.040382,-3552.988522,-9696.697840,612.876398
163311.040701,-1776.494261,-8364.327145,-536.266849
163311.041019,-74.020594,-8290.306550,-383.047749
163311.041338,0.000000,-7179.997637,-2298.286494
163311.041657,814.226536,-8660.409521,-1378.971896
163311.041976,-370.102971,-10288.862594,-919.314598
163311.042295,-740.205942,-11843.295072,-689.485948
163311.042614,-2368.659014,-9548.656652,-1915.238745
163311.042933,-1258.350101,-10658.965565,-76.609550
163311.043251,-222.061783,-6809.894666,-995.924147
163311.043570,296.082377,-5995.668130,0.000000
163311.043889,2368.659014,-6291.750507,1225.752797
163311.044208,4663.297435,-9474.636058,2374.896044
163311.044527,1184.329507,-11029.068536,2757.943793
163311.044846,-148.041188,-11399.171507,1991.848295
163311.045165,-1702.473667,-10732.986159,1149.143247
163311.045483,-2220.617826,-9548.656652,76.609550
163311.045802,-1850.514855,-6587.832884,-612.876398
163311.046121,-74.020594,-7105.977043,-76.609550
163311.046440,148.041188,-7920.203579,-1225.752797
163311.046759,-74.020594,-10658.965565,-76.609550
163311.047078,-1406.391290,-11843.295072,-1991.848295
163311.047397,-1554.432478,-11843.295072,-2528.115143
163311.047716,-4145.153275,-11917.315666,-1225.752797
163311.048034,-2442.679609,-11103.089130,-1302.362347
163311.048353,-740.205942,-7772.162391,-1302.362347
163311.048672,1702.473667,-8290.306550,-76.609550
163311.048991,3330.926739,-11103.089130,1762.019645
163311.049310,2294.638420,-10066.800811,2374.896044
163311.049629,2294.638420,-13027.624579,2987.772442
163311.049948,666.185348,-11547.212695,2068.457845
163311.050267,0.000000,-8364.327145,1225.752797
163311.050585,222.061783,-6439.791695,229.828649
163311.050904,666.185348,-6217.729913,-153.219100
163311.051223,1036.288319,-5995.668130,-1149.143247
163311.051542,888.247130,-7698.141797,-1532.190996
163311.051861,-74.020594,-11251.130318,-76.609550
163311.052180,-74.020594,-13027.624579,-1225.752797
163311.052499,-666.185348,-14211.954086,-76.609550
163311.052817,-2738.761985,-10658.965565,-1302.362347
163311.053136,-2072.576638,-6439.791695,-2528.115143
163311.053455,0.000000,-5995.668130,1838.629195
163311.053774,518.144159,-4441.235652,0.000000
163311.054093,2516.700203,-7624.121203,1838.629195
163311.054412,2220.617826,-9178.553681,2374.896044
163311.054731,148.041188,-10658.965565,2145.067394
163311.055050,-74.020594,-11547.212695,1149.143247
163311.055368,-2072.576638,-10436.903782,306.438199
163311.055687,-962.267725,-9474.636058,-689.485948
163311.056006,-1554.432478,-8290.306550,-2528.115143
163311.056325,-2146.597232,-7624.121203,-4290.134789
163311.056644,-740.205942,-12731.542202,-1302.362347
163311.056963,-2294.638420,-11695.253884,-3753.867940
163311.057282,-2368.659014,-13027.624579,-2221.676944
163311.057601,-1850.514855,-11843.295072,-919.314598
163311.057919,0.000000,-8660.409521,0.000000
163311.058238,1184.329507,-5995.668130,1225.752797
163311.058557,4071.132681,-6291.750507,1762.019645
163311.058876,4367.215058,-6513.812290,2374.896044
163311.059195,2146.597232,-7846.182985,689.485948
163311.059514,1036.288319,-10658.965565,1149.143247
163311.059833,1110.308913,-14211.954086,2834.553343
163311.060152,-2146.597232,-12065.356855,1225.752797
163311.060470,-1776.494261,-9548.656652,383.047749
163311.060789,-1258.350101,-6587.832884,-689.485948
163311.061108,-1480.411884,-5403.503377,0.000000
163311.061427,0.000000,-5847.626942,-1762.019645
163311.061746,0.000000,-8660.409521,0.000000
163311.062065,-74.020594,-11251.130318,-1302.362347
163311.062384,-3552.988522,-11325.150913,-1225.752797
163311.062703,-4219.173869,-9548.656652,-2451.505594
163311.063021,-2146.597232,-9992.780217,-689.485948
163311.063340,-1776.494261,-6365.771101,-1455.581446
163311.063659,1184.329507,-6143.709319,0.000000
163311.063978,2072.576638,-7476.080014,383.047749
163311.064297,2072.576638,-10436.903782,1838.629195
163311.064616,-2368.659014,-10140.821405,0.000000
163311.064935,-1776.494261,-12213.398043,1225.752797
163311.065254,-1258.350101,-10955.047942,1149.143247
163311.065572,-370.102971,-8882.471304,-1838.629195
163311.065891,-74.020594,-7105.977043,-1608.800546
163311.066210,592.164754,-7624.121203,-1302.362347
163311.066529,1184.329507,-7920.203579,-842.705048
163311.066848,592.164754,-10510.924376,-1302.362347
163311.067167,1406.391290,-14211.954086,1149.143247
163311.067486,-666.185348,-12287.418637,-1302.362347
163311.067805,-2146.597232,-10066.800811,-1302.362347
163311.068123,-888.247130,-8068.244768,-2451.505594
163311.068442,2072.576638,-7994.224174,1149.143247
163311.068761,2886.803174,-7698.141797,-76.609550
163311.069080,3330.926739,-9252.574275,2068.457845
163311.069399,444.123565,-10362.883188,919.314598
163311.069718,-1184.329507,-12657.521608,1149.143247
163311.070037,-2072.576638,-11917.315666,536.266849
163311.070356,-2368.659014,-9844.739029,1838.629195
163311.070674,-1332.370696,-7179.997637,-1072.533697
163311.070993,-814.226536,-5847.626942,-1302.362347
163311.071312,-222.061783,-7105.977043,-1455.581446
163311.071631,222.061783,-7994.224174,-2451.505594
163311.071950,-1850.514855,-8660.409521,-4136.915689
163311.072269,-1258.350101,-12435.459826,-2528.115143
163311.072588,-3775.050304,-11399.171507,-1685.410096
163311.072907,-2072.576638,-10140.821405,0.000000
163311.073225,518.144159,-8290.306550,-76.609550
163311.073544,3849.070898,-8068.244768,1991.848295
163311.073863,2886.803174,-6513.812290,995.924147
163311.074182,2886.803174,-8586.388927,1532.190996
163311.074501,1480.411884,-10510.924376,2298.286494
163311.074820,-1184.329507,-11103.089130,1532.190996
163311.075139,-1184.329507,-11325.150913,1532.190996
163311.075458,-2146.597232,-8364.327145,-383.047749
163311.075776,-1776.494261,-5403.503377,-2451.505594
163311.076095,-2368.659014,-5403.503377,-1838.629195
163311.076414,-74.020594,-7698.141797,-2221.676944
163311.076733,-74.020594,-10658.965565,-766.095498
163311.077052,-2368.659014,-11325.150913,-1532.190996
163311.077371,-3330.926739,-12361.439231,-1838.629195
163311.077690,-3627.009116,-11251.130318,-1072.533697
163311.078009,-1628.453072,-10658.965565,689.485948
163311.078327,-148.041188,-6883.915261,-383.047749
163311.078646,814.226536,-4959.379811,-2068.457845
163311.078965,0.000000,-6587.832884,306.438199
163311.079284,1628.453072,-9770.718434,1532.190996
163311.079603,-814.226536,-9548.656652,0.000000
163311.079922,-74.020594,-13027.624579,995.924147
163311.080241,-814.226536,-11843.295072,995.924147
163311.080560,-962.267725,-9030.512492,0.000000
163311.080878,-666.185348,-7105.977043,-689.485948
163311.081197,1110.308913,-7105.977043,-689.485948
163311.081516,1702.473667,-9474.636058,-76.609550
163311.081835,-74.020594,-10066.800811,-2068.457845
163311.082154,-2294.638420,-10658.965565,-1302.362347
163311.082473,-2368.659014,-12805.562797,612.876398
163311.082792,-4145.153275,-9548.656652,0.000000
163311.083110,-148.041188,-7920.203579,229.828649
163311.083429,1480.411884,-5477.523971,1149.143247
163311.083748,2590.720797,-5699.585753,995.924147
163311.084067,3478.967927,-7105.977043,2068.457845
163311.084386,3182.885551,-10658.965565,3830.477490
163311.084705,-74.020594,-12435.459826,1608.800546
163311.085024,-3182.885551,-11843.295072,76.609550
163311.085343,-6809.894666,-9548.656652,-2451.505594
163311.085661,-1924.535449,-10955.047942,-76.609550
163311.085980,-2368.659014,-6587.832884,-2911.162892
163311.086299,-518.144159,-7772.162391,-2221.676944
163311.086618,-370.102971,-8808.450710,-2374.896044
163311.086937,-1332.370696,-10584.944971,-2374.896044
163311.087256,-1554.432478,-11251.130318,-1532.190996
163311.087575,-1036.288319,-12065.356855,-383.047749
163311.087894,-740.205942,-10658.965565,-76.609550
163311.088212,-370.102971,-5847.626942,-2068.457845
163311.088531,0.000000,-5699.585753,0.000000
163311.088850,4663.297435,-9474.636058,-76.609550
163311.089169,2072.576638,-9252.574275,306.438199
163311.089488,1332.370696,-11843.295072,1685.410096
163311.089807,148.041188,-12879.583391,1991.848295
163311.090126,-148.041188,-12509.480420,3677.258390
163311.090445,0.000000,-9548.656652,1838.629195
163311.090763,370.102971,-6735.874072,0.000000
163311.091082,1480.411884,-6587.832884,1302.362347
163311.091401,3182.885551,-7105.977043,-76.609550
163311.091720,-814.226536,-6661.853478,-2298.286494
163311.092039,-74.020594,-11843.295072,-689.485948
163311.092358,-2960.823768,-12213.398043,-1302.362347
163311.092677,-3330.926739,-11399.171507,-1302.362347
163311.092996,-2516.700203,-10140.821405,-1302.362347
163311.093314,-74.020594,-9474.636058,1532.190996
163311.093633,1850.514855,-7476.080014,0.000000
163311.093952,4071.132681,-9178.553681,2374.896044
163311.094271,2294.638420,-9474.636058,1072.533697
163311.094590,0.000000,-9844.739029,1149.143247
163311.094909,-2368.659014,-9548.656652,1225.752797
163311.095228,-2442.679609,-9474.636058,-459.657299
163311.095547,-2368.659014,-8586.388927,-842.705048
163311.095865,-1480.411884,-7179.997637,-1455.581446
163311.096184,0.000000,-7402.059420,-1762.019645
163311.096503,2294.638420,-9474.636058,-76.609550
163311.096822,0.000000,-9548.656652,-2145.067394
163311.097141,-1184.329507,-12509.480420,-1149.143247
163311.097460,-296.082377,-14582.057057,1378.971896
163311.097779,-1258.350101,-10658.965565,-689.485948
163311.098098,-1776.494261,-8956.491898,1838.629195
163311.098416,1480.411884,-6439.791695,153.219100
163311.098735,2368.659014,-6143.709319,229.828649
163311.099054,2294.638420,-7402.059420,766.095498
163311.099373,0.000000,-8660.409521,0.000000
163311.099692,0.000000,-11325.150913,1302.362347
163311.100011,-1036.288319,-11769.274478,1608.800546
163311.100330,-74.020594,-12435.459826,2987.772442
163311.100649,-1554.432478,-7698.141797,-1302.362347
163311.100967,-666.185348,-7105.977043,-1915.238745
163311.101286,-296.082377,-8068.244768,-1302.362347
163311.101605,-1850.514855,-8438.347739,-2451.505594
163311.101924,-2368.659014,-11103.089130,-2145.067394
163311.102243,-2960.823768,-12139.377449,-1838.629195
163311.102562,-4737.318029,-9844.739029,0.000000
163311.102881,-2294.638420,-8364.327145,-612.876398
163311.103200,0.000000,-5995.668130,612.876398
163311.103518,3478.967927,-6513.812290,-76.609550
163311.103837,3182.885551,-6439.791695,1149.143247
163311.104156,3478.967927,-7550.100608,-76.609550
163311.104475,1332.370696,-11843.295072,1532.190996
163311.104794,-370.102971,-12731.542202,1378.971896
163311.105113,-1480.411884,-11917.315666,536.266849
163311.105432,-1924.535449,-9548.656652,536.266849
163311.105751,-2368.659014,-6587.832884,0.000000
163311.106069,-2368.659014,-4811.338623,-2451.505594
163311.106388,0.000000,-6143.709319,0.000000
163311.106707,1406.391290,-8586.388927,0.000000
163311.107026,444.123565,-10140.821405,-1225.752797
163311.107345,-74.020594,-13619.789333,-689.485948
163311.107664,-3108.864956,-11325.150913,-842.705048
163311.107983,-2442.679609,-9326.594869,-842.705048
163311.108302,-518.144159,-7994.224174,-766.095498
163311.108620,1184.329507,-8068.244768,1762.019645
163311.108939,1924.535449,-8290.306550,-76.609550
163311.109258,1998.556043,-10066.800811,-229.828649
163311.109577,0.000000,-10732.986159,-1532.190996
163311.109896,0.000000,-13693.809927,2145.067394
163311.110215,-74.020594,-13027.624579,-76.609550
163311.110534,0.000000,-9178.553681,1532.190996
163311.110853,296.082377,-6513.812290,-383.047749
163311.111171,592.164754,-6365.771101,-1378.971896
163311.111490,888.247130,-7179.997637,-1915.238745
163311.111809,0.000000,-8364.327145,0.000000
163311.112128,-370.102971,-12435.459826,-1302.362347
163311.112447,-1702.473667,-12953.603985,-1302.362347
163311.112766,-1850.514855,-11473.192101,0.000000
163311.113085,-666.185348,-6587.832884,-1455.581446
163311.113403,2294.638420,-5329.482782,-1302.362347
163311.113722,5847.626942,-7105.977043,1149.143247
163311.114041,2442.679609,-5995.668130,1838.629195
163311.114360,2516.700203,-9548.656652,1225.752797
163311.114679,1702.473667,-13027.624579,3600.648841
163311.114998,-2368.659014,-10732.986159,2451.505594
163311.115317,-3182.885551,-10066.800811,-536.266849
163311.115636,-3256.906145,-8364.327145,-2221.676944
163311.115954,-2368.659014,-7105.977043,-2298.286494
163311.116273,-1184.329507,-7105.977043,-2145.067394
163311.116592,-1776.494261,-7476.080014,-1838.629195
163311.116911,-1850.514855,-10066.800811,-2834.553343
163311.117230,-2960.823768,-11843.295072,-1915.238745
163311.117549,-3997.112087,-10732.986159,-2451.505594
163311.117868,-1258.350101,-11843.295072,-76.609550
163311.118187,-1110.308913,-8364.327145,0.000000
163311.118505,1036.288319,-6513.812290,-842.705048
163311.118824,2146.597232,-7698.141797,-153.219100
163311.119143,1406.391290,-9030.512492,0.000000
163311.119462,592.164754,-11917.315666,1838.629195
163311.119781,-592.164754,-13175.665768,1225.752797
163311.120100,-74.020594,-14211.954086,2374.896044
163311.120419,-370.102971,-9548.656652,306.438199
163311.120738,-1184.329507,-6587.832884,153.219100
