#time,accel_x,accel_y,accel_z
163295.367379,814.226536,-9474.636058,-76.609550
163295.367697,-2368.659014,-7476.080014,-2298.286494
163295.368016,0.000000,-7476.080014,0.000000
163295.368335,-74.020594,-9326.594869,-383.047749
163295.368653,0.000000,-9030.512492,76.609550
163295.368972,148.041188,-9474.636058,0.000000
163295.369290,-222.061783,-9548.656652,0.000000
163295.369609,-74.020594,-9178.553681,-76.609550
163295.369928,-74.020594,-9474.636058,459.657299
163295.370246,-74.020594,-8290.306550,-1302.362347
163295.370565,-2368.659014,-9548.656652,0.000000
163295.370883,-74.020594,-10066.800811,-76.609550
163295.371202,-2368.659014,-8364.327145,0.000000
163295.371521,-666.185348,-9400.615463,-689.485948
163295.371839,-888.247130,-9474.636058,-766.095498
163295.372158,-740.205942,-9178.553681,-76.609550
163295.372477,-962.267725,-8660.409521,-2374.896044
163295.372795,-962.267725,-8586.388927,-2987.772442
163295.373114,-592.164754,-9474.636058,-1302.362347
163295.373432,0.000000,-9844.739029,306.438199
163295.373751,-74.020594,-10066.800811,-995.924147
163295.374070,-370.102971,-9474.636058,-76.609550
163295.374388,0.000000,-10140.821405,1225.752797
163295.374707,74.020594,-9178.553681,-306.438199
163295.375025,-222.061783,-9696.697840,-229.828649
163295.375344,148.041188,-8956.491898,0.000000
163295.375663,-2368.659014,-7179.997637,-1225.752797
163295.375981,-296.082377,-9548.656652,1302.362347
163295.376300,-74.020594,-9178.553681,-76.609550
163295.376619,0.000000,-8364.327145,0.000000
163295.376937,-2368.659014,-7476.080014,0.000000
163295.377256,1702.473667,-9474.636058,-76.609550
163295.377574,148.041188,-10140.821405,995.924147
163295.377893,-1036.288319,-9030.512492,0.000000
163295.378212,-592.164754,-9400.615463,0.000000
163295.378530,-444.123565,-9178.553681,0.000000
163295.378849,-2072.576638,-7920.203579,459.657299
163295.379167,-222.061783,-9474.636058,306.438199
163295.379486,-1184.329507,-8660.409521,-1302.362347
163295.379805,0.000000,-10140.821405,1378.971896
163295.380123,-74.020594,-10658.965565,-229.828649
163295.380442,-1258.350101,-8438.347739,-3140.991542
163295.380761,-296.082377,-9992.780217,-536.266849
163295.381079,-296.082377,-9696.697840,-842.705048
163295.381398,-370.102971,-9400.615463,-536.266849
163295.381716,-74.020594,-10658.965565,-76.609550
163295.382035,1110.308913,-11251.130318,-76.609550
163295.382354,666.185348,-9992.780217,-76.609550
163295.382672,-1554.432478,-7179.997637,-2451.505594
163295.382991,0.000000,-10214.842000,766.095498
163295.383309,296.082377,-8808.450710,1225.752797
163295.383628,-1776.494261,-7179.997637,0.000000
163295.383947,148.041188,-9844.739029,383.047749
163295.384265,0.000000,-8882.471304,153.219100
163295.384584,74.020594,-9178.553681,0.000000
163295.384903,1702.473667,-9474.636058,-76.609550
163295.385221,-74.020594,-9474.636058,0.000000
163295.385540,-74.020594,-11251.130318,-76.609550
163295.385858,-814.226536,-8734.430116,-1225.752797
163295.386177,-1628.453072,-7476.080014,-1608.800546
163295.386496,0.000000,-10140.821405,2451.505594
163295.386814,-1924.535449,-8068.244768,-919.314598
163295.387133,-666.185348,-8882.471304,-76.609550
163295.387451,-740.205942,-9474.636058,-919.314598
163295.387770,-444.123565,-9696.697840,-842.705048
163295.388089,-74.020594,-10362.883188,-1608.800546
163295.388407,-2072.576638,-8660.409521,0.000000
163295.388726,-74.020594,-10658.965565,-689.485948
163295.389045,-592.164754,-9548.656652,-3064.381992
163295.389363,0.000000,-9548.656652,0.000000
163295.389682,1554.432478,-11843.295072,2374.896044
163295.390000,-296.082377,-9548.656652,-689.485948
163295.390319,592.164754,-9030.512492,-76.609550
163295.390638,518.144159,-9104.533087,-536.266849
163295.390956,1184.329507,-7772.162391,1225.752797
163295.391275,2072.576638,-8364.327145,612.876398
163295.391593,2812.782580,-9622.677246,1455.581446
163295.391912,3478.967927,-9992.780217,2298.286494
163295.392231,2886.803174,-8882.471304,-76.609550
163295.392549,444.123565,-7179.997637,-2221.676944
163295.392868,4663.297435,-10658.965565,-76.609550
163295.393187,2368.659014,-9326.594869,0.000000
163295.393505,3034.844362,-8734.430116,-306.438199
163295.393824,3849.070898,-9474.636058,612.876398
163295.394142,4737.318029,-9548.656652,3370.820191
163295.394461,4737.318029,-8660.409521,1225.752797
163295.394780,2960.823768,-7179.997637,0.000000
163295.395098,6735.874072,-10658.965565,995.924147
163295.395417,4663.297435,-9474.636058,-383.047749
163295.395735,1924.535449,-7179.997637,-4290.134789
163295.396054,4293.194464,-9474.636058,-1225.752797
163295.396373,4145.153275,-9844.739029,-2068.457845
163295.396691,5329.482782,-9548.656652,-1455.581446
163295.397010,6439.791695,-9104.533087,-1149.143247
163295.397329,8882.471304,-10362.883188,766.095498
163295.397647,4737.318029,-8364.327145,-2451.505594
163295.397966,7402.059420,-12509.480420,-76.609550
163295.398284,4663.297435,-12139.377449,-689.485948
163295.398603,814.226536,-10732.986159,0.000000
163295.398922,3478.967927,-11843.295072,-383.047749
163295.399240,3552.988522,-10807.006753,1762.019645
163295.399559,4145.153275,-8586.388927,1608.800546
163295.399877,4663.297435,-5847.626942,1455.581446
163295.400196,6439.791695,-6957.935855,2374.896044
163295.400515,5255.462188,-4737.318029,-612.876398
163295.400833,4367.215058,-5625.565159,-1608.800546
163295.401152,3330.926739,-6957.935855,-3140.991542
163295.401471,1184.329507,-9548.656652,-2451.505594
163295.401789,1702.473667,-13027.624579,-2528.115143
163295.402108,1110.308913,-16580.613101,-76.609550
163295.402426,-444.123565,-15766.386565,1455.581446
163295.402745,370.102971,-13397.727550,2374.896044
163295.403064,444.123565,-8956.491898,1455.581446
163295.403382,0.000000,-5699.585753,1685.410096
163295.403701,-2146.597232,-2960.823768,-1378.971896
163295.404019,-1036.288319,-4145.153275,-1149.143247
163295.404338,-888.247130,-6217.729913,-612.876398
163295.404657,-2516.700203,-8364.327145,-1838.629195
163295.404975,-6883.915261,-8364.327145,-3064.381992
163295.405294,-6587.832884,-10658.965565,-1608.800546
163295.405613,-6957.935855,-11029.068536,0.000000
163295.405931,-4737.318029,-9548.656652,0.000000
163295.406250,-4071.132681,-9474.636058,-76.609550
163295.406568,-3923.091493,-10658.965565,-76.609550
163295.406887,-6957.935855,-8660.409521,-2068.457845
163295.407206,-5773.606348,-10658.965565,-842.705048
163295.407524,-4441.235652,-10658.965565,0.000000
163295.407843,-4737.318029,-9548.656652,0.000000
163295.408161,-3849.070898,-7698.141797,1455.581446
163295.408480,-4071.132681,-4811.338623,306.438199
163295.408799,-2072.576638,-4515.256246,76.609550
163295.409117,0.000000,-4811.338623,612.876398
163295.409436,-74.020594,-7550.100608,-995.924147
163295.409755,-2146.597232,-11843.295072,-459.657299
163295.410073,-6513.812290,-13175.665768,-3140.991542
163295.410392,-7624.121203,-14878.139434,-2528.115143
163295.410710,-6143.709319,-13693.809927,-1149.143247
163295.411029,-2738.761985,-11843.295072,2068.457845
163295.411348,-1184.329507,-7550.100608,919.314598
163295.411666,518.144159,-4737.318029,1762.019645
163295.411985,370.102971,-2442.679609,0.000000
163295.412303,3108.864956,-5403.503377,1225.752797
163295.412622,1258.350101,-5255.462188,-3677.258390
163295.412941,1258.350101,-10066.800811,-1302.362347
163295.413259,-962.267725,-12953.603985,-2374.896044
163295.413578,-740.205942,-14730.098246,-1762.019645
163295.413897,1110.308913,-13323.706956,-76.609550
163295.414215,4663.297435,-10658.965565,-76.609550
163295.414534,5847.626942,-9474.636058,2374.896044
163295.414852,4663.297435,-7994.224174,-76.609550
163295.415171,2294.638420,-7698.141797,-689.485948
163295.415490,3552.988522,-9844.739029,1378.971896
163295.415808,592.164754,-8068.244768,0.000000
163295.416127,2590.720797,-9918.759623,612.876398
163295.416445,1850.514855,-9548.656652,1455.581446
163295.416764,2516.700203,-8068.244768,2068.457845
163295.417083,4071.132681,-5921.647536,2068.457845
163295.417401,5477.523971,-5699.585753,1838.629195
163295.417720,5255.462188,-7105.977043,-76.609550
163295.418039,1110.308913,-8364.327145,-1302.362347
163295.418357,-1258.350101,-10362.883188,-4366.744339
163295.418676,-74.020594,-16432.571912,-76.609550
163295.418994,-2220.617826,-13989.892304,-2145.067394
163295.419313,-296.082377,-12657.521608,-689.485948
163295.419632,592.164754,-9548.656652,76.609550
163295.419950,2368.659014,-6439.791695,383.047749
163295.420269,3923.091493,-4219.173869,766.095498
163295.420588,3552.988522,-4663.297435,612.876398
163295.420906,3182.885551,-7698.141797,-76.609550
163295.421225,-74.020594,-9474.636058,-2834.553343
163295.421543,-5329.482782,-11917.315666,-3064.381992
163295.421862,-3034.844362,-15396.283594,-689.485948
163295.422181,-3997.112087,-13397.727550,-919.314598
163295.422499,-1628.453072,-10584.944971,459.657299
163295.422818,-666.185348,-7624.121203,536.266849
163295.423136,-74.020594,-6661.853478,1532.190996
163295.423455,-2368.659014,-6587.832884,1225.752797
163295.423774,-1702.473667,-7846.182985,-2451.505594
163295.424092,-962.267725,-11547.212695,-76.609550
163295.424411,-4219.173869,-10140.821405,-995.924147
163295.424730,-6513.812290,-9548.656652,-2451.505594
163295.425048,-1258.350101,-10510.924376,842.705048
163295.425367,-592.164754,-7402.059420,2451.505594
163295.425685,1036.288319,-6143.709319,2068.457845
163295.426004,518.144159,-6291.750507,229.828649
163295.426323,-74.020594,-9474.636058,-76.609550
163295.426641,-3923.091493,-10362.883188,-3753.867940
163295.426960,-7105.977043,-12509.480420,-3064.381992
163295.427278,-5625.565159,-14285.974681,-766.095498
163295.427597,-3923.091493,-14211.954086,-76.609550
163295.427916,-5921.647536,-5995.668130,0.000000
163295.428234,-666.185348,-4737.318029,-383.047749
163295.428553,1480.411884,-4515.256246,383.047749
163295.428872,3256.906145,-4811.338623,919.314598
163295.429190,2516.700203,-7179.997637,76.609550
163295.429509,1702.473667,-11843.295072,459.657299
163295.429827,-3552.988522,-11473.192101,-1838.629195
163295.430146,-1776.494261,-14137.933492,-306.438199
163295.430465,-74.020594,-15100.201217,2681.334243
163295.430783,2886.803174,-11473.192101,2374.896044
163295.431102,2664.741391,-7179.997637,2451.505594
163295.431420,3997.112087,-6513.812290,766.095498
163295.431739,2960.823768,-7328.038826,0.000000
163295.432058,740.205942,-9178.553681,-1225.752797
163295.432376,-2220.617826,-9844.739029,-3677.258390
163295.432695,-2886.803174,-11029.068536,-1991.848295
163295.433014,-2960.823768,-11325.150913,-766.095498
163295.433332,0.000000,-9548.656652,2451.505594
163295.433651,3478.967927,-8586.388927,3294.210641
163295.433969,5847.626942,-7105.977043,2374.896044
163295.434288,4145.153275,-5403.503377,919.314598
163295.434607,1406.391290,-7031.956449,-1991.848295
163295.434925,-740.205942,-9992.780217,-3447.429741
163295.435244,-2368.659014,-12805.562797,-3907.087040
163295.435563,-4737.318029,-12509.480420,-3677.258390
163295.435882,-1480.411884,-14285.974681,-919.314598
163295.436201,0.000000,-9548.656652,0.000000
163295.436519,2368.659014,-7476.080014,1838.629195
163295.436838,5403.503377,-5551.544565,2451.505594
163295.437157,7031.956449,-4145.153275,-76.609550
163295.437476,4737.318029,-5847.626942,1225.752797
163295.437795,148.041188,-7179.997637,-1762.019645
163295.438113,-888.247130,-12287.418637,-766.095498
163295.438432,-2960.823768,-13545.768739,-689.485948
163295.438751,-4737.318029,-10732.986159,0.000000
163295.439070,-1850.514855,-9178.553681,-1302.362347
163295.439389,-2368.659014,-7179.997637,0.000000
163295.439707,-74.020594,-6513.812290,2068.457845
163295.440026,-74.020594,-4737.318029,-1915.238745
163295.440345,2146.597232,-9474.636058,-76.609550
163295.440664,-1998.556043,-9992.780217,-1225.752797
163295.440983,-4071.132681,-11103.089130,-1608.800546
163295.441301,-4737.318029,-11325.150913,-766.095498
163295.441620,-3552.988522,-10140.821405,1225.752797
163295.441939,-592.164754,-8734.430116,1991.848295
163295.442258,2294.638420,-7105.977043,2068.457845
163295.442577,2294.638420,-7105.977043,2374.896044
163295.442895,-1184.329507,-6143.709319,-2451.505594
163295.443214,-1332.370696,-11843.295072,-383.047749
163295.443533,-5329.482782,-13249.686362,-2451.505594
163295.443852,-5995.668130,-14434.015869,-1762.019645
163295.444170,-5551.544565,-13249.686362,-1302.362347
163295.444489,-3182.885551,-10436.903782,536.266849
163295.444808,-2368.659014,-4811.338623,0.000000
163295.445127,2886.803174,-3552.988522,2528.115143
163295.445446,3849.070898,-3701.029710,1991.848295
163295.445764,3182.885551,-5181.441594,766.095498
163295.446083,518.144159,-7254.018232,-1302.362347
163295.446402,-1258.350101,-12287.418637,-689.485948
163295.446721,-1258.350101,-15988.448347,-1302.362347
163295.447040,-3404.947333,-14285.974681,-1838.629195
163295.447358,-74.020594,-12805.562797,306.438199
163295.447677,1110.308913,-9474.636058,1762.019645
163295.447996,592.164754,-5403.503377,612.876398
163295.448315,2294.638420,-5551.544565,-229.828649
163295.448634,1776.494261,-7179.997637,0.000000
163295.448952,814.226536,-8882.471304,-153.219100
163295.449271,-962.267725,-10658.965565,-766.095498
163295.449590,-2072.576638,-11399.171507,0.000000
163295.449909,-666.185348,-10658.965565,-76.609550
163295.450228,-1480.411884,-6735.874072,-1149.143247
163295.450546,0.000000,-5995.668130,0.000000
163295.450865,4367.215058,-7105.977043,-76.609550
163295.451184,1184.329507,-7624.121203,-1225.752797
163295.451503,-148.041188,-9622.677246,-2834.553343
163295.451822,-1258.350101,-12361.439231,-3524.039291
163295.452140,-1850.514855,-13767.830521,-2451.505594
163295.452459,-1184.329507,-13101.645173,-306.438199
163295.452778,296.082377,-10955.047942,919.314598
163295.453097,3478.967927,-7105.977043,1149.143247
163295.453416,3552.988522,-3627.009116,2451.505594
163295.453734,6809.894666,-4515.256246,3370.820191
163295.454053,5847.626942,-5329.482782,-76.609550
163295.454372,1036.288319,-9326.594869,-536.266849
163295.454691,-2294.638420,-13249.686362,-2221.676944
163295.455010,-4811.338623,-14434.015869,-2068.457845
163295.455328,-4959.379811,-14804.118840,-76.609550
163295.455647,-1998.556043,-13619.789333,-76.609550
163295.455966,-74.020594,-8956.491898,2221.676944
163295.456285,2294.638420,-5625.565159,842.705048
163295.456604,518.144159,-4071.132681,-689.485948
163295.456922,0.000000,-5107.421000,0.000000
163295.457241,-1406.391290,-7402.059420,-2528.115143
163295.457560,-2146.597232,-11621.233289,-1915.238745
163295.457879,-3478.967927,-12583.501014,-1072.533697
163295.458198,-3182.885551,-12287.418637,0.000000
163295.458516,-74.020594,-11843.295072,1762.019645
163295.458835,296.082377,-8068.244768,612.876398
163295.459154,1332.370696,-7772.162391,612.876398
163295.459473,518.144159,-7105.977043,-76.609550
163295.459792,-74.020594,-9474.636058,-2528.115143
163295.460110,-2072.576638,-11325.150913,0.000000
163295.460429,-2886.803174,-11917.315666,-1225.752797
163295.460748,-1998.556043,-11843.295072,1225.752797
163295.461067,-1258.350101,-9474.636058,2374.896044
163295.461386,370.102971,-6513.812290,2757.943793
163295.461704,2294.638420,-4219.173869,1302.362347
163295.462023,2368.659014,-3701.029710,2451.505594
163295.462342,2590.720797,-6365.771101,0.000000
163295.462661,888.247130,-10510.924376,-76.609550
163295.462980,-2442.679609,-13323.706956,-3140.991542
163295.463298,-3256.906145,-17764.942608,-76.609550
163295.463617,-4515.256246,-14063.912898,-1762.019645
163295.463936,-2220.617826,-10881.027347,0.000000
163295.464255,74.020594,-7624.121203,689.485948
163295.464573,2368.659014,-3923.091493,2451.505594
163295.464892,3552.988522,-3627.009116,1838.629195
163295.465211,3256.906145,-5995.668130,0.000000
163295.465530,2294.638420,-11251.130318,-76.609550
163295.465849,-4071.132681,-11399.171507,-3217.601092
163295.466167,-6661.853478,-12213.398043,-4826.401637
163295.466486,-2738.761985,-15100.201217,-689.485948
163295.466805,-2516.700203,-11029.068536,-1149.143247
163295.467124,222.061783,-7624.121203,612.876398
163295.467443,1998.556043,-5995.668130,0.000000
163295.467761,2368.659014,-5995.668130,2451.505594
163295.468080,888.247130,-7179.997637,-2451.505594
163295.468399,592.164754,-8956.491898,0.000000
163295.468718,1110.308913,-12435.459826,-383.047749
163295.469037,-370.102971,-13027.624579,-76.609550
163295.469355,0.000000,-9548.656652,0.000000
163295.469674,2294.638420,-10214.842000,2604.724693
163295.469993,2812.782580,-7031.956449,1685.410096
163295.470312,3478.967927,-5625.565159,689.485948
163295.470631,2072.576638,-6439.791695,-306.438199
163295.470949,1184.329507,-8364.327145,-459.657299
163295.471268,-2960.823768,-9548.656652,-2451.505594
163295.471587,-2960.823768,-12509.480420,-1225.752797
163295.471906,-2442.679609,-14211.954086,-76.609550
163295.472225,-2442.679609,-8882.471304,-76.609550
163295.472543,-2368.659014,-5995.668130,1225.752797
163295.472862,1036.288319,-5329.482782,1149.143247
163295.473181,1628.453072,-4959.379811,153.219100
163295.473500,1184.329507,-6883.915261,-1149.143247
163295.473819,-1184.329507,-8660.409521,-3140.991542
163295.474137,-2738.761985,-12731.542202,-3830.477490
163295.474456,-4737.318029,-14285.974681,-2911.162892
163295.474775,-4145.153275,-13693.809927,0.000000
163295.475094,-370.102971,-12879.583391,-76.609550
163295.475413,2294.638420,-10658.965565,2374.896044
163295.475731,2960.823768,-5995.668130,2451.505594
163295.476050,4589.276840,-5255.462188,2068.457845
163295.476369,3849.070898,-7179.997637,1378.971896
163295.476688,814.226536,-10066.800811,0.000000
163295.477007,-4737.318029,-10140.821405,-2451.505594
163295.477325,-5181.441594,-12361.439231,-1149.143247
163295.477644,-6513.812290,-10732.986159,-2451.505594
163295.477963,-2960.823768,-9548.656652,0.000000
163295.478282,-74.020594,-7328.038826,0.000000
163295.478601,2886.803174,-4737.318029,-76.609550
163295.478919,1184.329507,-5107.421000,306.438199
163295.479238,74.020594,-7031.956449,-1455.581446
163295.479557,-1998.556043,-9992.780217,-2221.676944
163295.479876,-2886.803174,-12583.501014,-689.485948
163295.480195,-4737.318029,-11917.315666,-1838.629195
163295.480513,-1554.432478,-11251.130318,-995.924147
163295.480832,0.000000,-8956.491898,1532.190996
163295.481151,2146.597232,-6809.894666,1225.752797
163295.481470,3478.967927,-5921.647536,-76.609550
163295.481789,4071.132681,-9474.636058,-76.609550
163295.482107,-592.164754,-9400.615463,-1685.410096
163295.482426,-1702.473667,-11843.295072,-1532.190996
163295.482745,-2886.803174,-13619.789333,-1225.752797
163295.483064,-3552.988522,-12509.480420,612.876398
163295.483382,-1184.329507,-10140.821405,1455.581446
163295.483701,2294.638420,-7402.059420,2068.457845
163295.484020,4071.132681,-7105.977043,2987.772442
163295.484339,2294.638420,-4071.132681,0.000000
163295.484658,3478.967927,-8882.471304,1762.019645
163295.484976,296.082377,-9844.739029,-842.705048
163295.485295,-1258.350101,-12287.418637,-2145.067394
163295.485614,-2738.761985,-14063.912898,-1838.629195
163295.485933,-2812.782580,-13101.645173,-842.705048
163295.486252,-3552.988522,-8364.327145,0.000000
163295.486570,2294.638420,-7105.977043,1149.143247
163295.486889,4293.194464,-5403.503377,1762.019645
163295.487208,4219.173869,-4885.359217,2068.457845
163295.487527,2220.617826,-5995.668130,-383.047749
163295.487846,-74.020594,-10362.883188,-1608.800546
163295.488164,-1850.514855,-14211.954086,-1915.238745
163295.488483,-5699.585753,-13101.645173,-2681.334243
163295.488802,-4737.318029,-12065.356855,-3064.381992
163295.489121,-1258.350101,-10658.965565,-76.609550
163295.489440,0.000000,-5995.668130,0.000000
163295.489758,1850.514855,-5403.503377,-76.609550
163295.490077,1702.473667,-6291.750507,-842.705048
163295.490396,1036.288319,-8364.327145,-1608.800546
163295.490715,-518.144159,-10510.924376,-2451.505594
163295.491034,-2220.617826,-12805.562797,-1838.629195
163295.491352,-1258.350101,-13619.789333,-153.219100
163295.491671,0.000000,-10140.821405,0.000000
163295.491990,0.000000,-8956.491898,2451.505594
163295.492309,4663.297435,-7105.977043,2374.896044
163295.492628,2368.659014,-5551.544565,1838.629195
163295.492946,1998.556043,-6513.812290,-306.438199
163295.493265,0.000000,-9326.594869,-76.609550
163295.493584,-2072.576638,-11695.253884,-1072.533697
163295.493903,-3552.988522,-12805.562797,459.657299
163295.494222,-2960.823768,-11621.233289,842.705048
163295.494540,-1258.350101,-9474.636058,1762.019645
163295.494859,-1036.288319,-4811.338623,919.314598
163295.495178,592.164754,-3923.091493,1532.190996
163295.495497,2294.638420,-4145.153275,-689.485948
163295.495816,444.123565,-7179.997637,-842.705048
163295.496134,-1702.473667,-10732.986159,-2528.115143
163295.496453,-4367.215058,-13397.727550,-3064.381992
163295.496772,-4515.256246,-15396.283594,-1302.362347
163295.497091,-2442.679609,-15396.283594,-76.609550
163295.497410,-74.020594,-11769.274478,2068.457845
163295.497728,2294.638420,-6513.812290,76.609550
163295.498047,2960.823768,-3923.091493,1225.752797
163295.498366,2960.823768,-5403.503377,1225.752797
163295.498685,1702.473667,-6513.812290,-689.485948
163295.499004,-962.267725,-11177.109724,-842.705048
163295.499322,-3701.029710,-13175.665768,-1532.190996
163295.499641,-4737.318029,-13471.748144,-1378.971896
163295.499960,-1850.514855,-13619.789333,-76.609550
163295.500279,-1776.494261,-8364.327145,612.876398
163295.500598,1184.329507,-6883.915261,2145.067394
163295.500916,3108.864956,-5773.606348,1685.410096
163295.501235,4071.132681,-7994.224174,-76.609550
163295.501554,592.164754,-8364.327145,1225.752797
163295.501873,-2072.576638,-9548.656652,-2298.286494
163295.502192,-2146.597232,-12435.459826,-1225.752797
163295.502510,-1850.514855,-13175.665768,0.000000
163295.502829,-666.185348,-11399.171507,919.314598
163295.503148,1110.308913,-7920.203579,612.876398
163295.503467,1480.411884,-5995.668130,1225.752797
163295.503785,2516.700203,-6291.750507,0.000000
163295.504104,1628.453072,-8364.327145,-76.609550
163295.504423,-74.020594,-10510.924376,-1455.581446
163295.504742,-1628.453072,-15396.283594,-76.609550
163295.505061,-3849.070898,-12583.501014,-1532.190996
163295.505379,-2812.782580,-11399.171507,-153.219100
163295.505698,-740.205942,-8660.409521,995.924147
163295.506017,1184.329507,-5107.421000,1532.190996
163295.506336,2368.659014,-3627.009116,1225.752797
163295.506655,2590.720797,-5255.462188,0.000000
163295.506973,1184.329507,-8364.327145,0.000000
163295.507292,814.226536,-12435.459826,-1915.238745
163295.507611,-2442.679609,-12731.542202,-3753.867940
163295.507930,-1258.350101,-15396.283594,-689.485948
163295.508249,-2220.617826,-11769.274478,0.000000
163295.508567,518.144159,-9178.553681,919.314598
163295.508886,2960.823768,-6513.812290,2298.286494
163295.509205,4145.153275,-5995.668130,5056.230287
163295.509524,4737.318029,-3627.009116,612.876398
163295.509843,0.000000,-6587.832884,612.876398
163295.510161,-1036.288319,-11547.212695,-76.609550
163295.510480,-4811.338623,-13619.789333,-1608.800546
163295.510799,-8290.306550,-10732.986159,-4290.134789
163295.511118,-3923.091493,-11843.295072,-919.314598
163295.511437,-2368.659014,-8956.491898,-229.828649
163295.511755,0.000000,-6365.771101,76.609550
163295.512074,1036.288319,-5625.565159,-459.657299
163295.512393,2146.597232,-6587.832884,0.000000
163295.512712,-1480.411884,-7179.997637,-2451.505594
163295.513031,-1184.329507,-11843.295072,-1838.629195
163295.513349,-1850.514855,-15396.283594,-76.609550
163295.513668,-1850.514855,-12361.439231,-995.924147
163295.513987,0.000000,-9548.656652,1225.752797
163295.514306,2146.597232,-7698.141797,2068.457845
163295.514625,2442.679609,-5329.482782,1225.752797
163295.514943,2590.720797,-5181.441594,-306.438199
163295.515262,222.061783,-5995.668130,-2451.505594
163295.515581,-1110.308913,-10066.800811,-2068.457845
163295.515900,-3552.988522,-12065.356855,-1225.752797
163295.516219,-2368.659014,-12509.480420,1225.752797
163295.516537,-1258.350101,-10658.965565,-76.609550
163295.516856,-74.020594,-9474.636058,2911.162892
163295.517175,592.164754,-5403.503377,3064.381992
163295.517494,2368.659014,-4219.173869,1378.971896
163295.517813,1554.432478,-5699.585753,0.000000
163295.518131,-666.185348,-8586.388927,-1455.581446
163295.518450,-4737.318029,-10140.821405,-4290.134789
163295.518769,-5033.400406,-13101.645173,-3294.210641
163295.519088,-7105.977043,-11917.315666,-3677.258390
163295.519407,-3256.906145,-11991.336260,0.000000
163295.519725,-74.020594,-9104.533087,1991.848295
163295.520044,4663.297435,-5921.647536,-76.609550
163295.520363,4737.318029,-4589.276840,2145.067394
163295.520682,3849.070898,-5921.647536,1455.581446
163295.521001,1110.308913,-8956.491898,0.000000
163295.521319,-1998.556043,-11547.212695,-995.924147
163295.521638,-5921.647536,-13101.645173,-3064.381992
163295.521957,-7105.977043,-11917.315666,-3524.039291
163295.522276,-4145.153275,-11325.150913,0.000000
163295.522594,-74.020594,-9030.512492,1685.410096
163295.522913,2886.803174,-6809.894666,-76.609550
163295.523232,5847.626942,-8290.306550,1762.019645
163295.523551,1924.535449,-6217.729913,-459.657299
163295.523870,962.267725,-8290.306550,-842.705048
163295.524188,-370.102971,-11547.212695,-766.095498
163295.524507,-1184.329507,-13101.645173,0.000000
163295.524826,-74.020594,-13323.706956,2298.286494
163295.525145,1406.391290,-10066.800811,2374.896044
163295.525464,1184.329507,-6143.709319,536.266849
163295.525782,0.000000,-4811.338623,0.000000
163295.526101,3478.967927,-8290.306550,-76.609550
163295.526420,-1184.329507,-8438.347739,-1225.752797
163295.526739,-2960.823768,-11325.150913,-2911.162892
163295.527058,-4145.153275,-13693.809927,-2374.896044
163295.527376,-3997.112087,-12657.521608,-1149.143247
163295.527695,-4145.153275,-8364.327145,0.000000
163295.528014,518.144159,-7994.224174,1762.019645
163295.528333,2368.659014,-5625.565159,2451.505594
163295.528652,2812.782580,-4737.318029,1225.752797
163295.528970,1850.514855,-4219.173869,-919.314598
163295.529289,-74.020594,-8882.471304,-1302.362347
163295.529608,-74.020594,-14211.954086,-1915.238745
163295.529927,-3627.009116,-14063.912898,-3677.258390
163295.530246,-3552.988522,-13397.727550,-1225.752797
163295.530564,-666.185348,-13027.624579,-76.609550
163295.530883,0.000000,-7772.162391,1225.752797
163295.531202,3775.050304,-5551.544565,2374.896044
163295.531521,5773.606348,-4219.173869,2834.553343
163295.531840,4589.276840,-5255.462188,1378.971896
163295.532158,1480.411884,-7698.141797,689.485948
163295.532477,-666.185348,-11843.295072,-76.609550
163295.532796,-4219.173869,-13027.624579,-1455.581446
163295.533115,-5921.647536,-11917.315666,-3677.258390
163295.533434,-4737.318029,-10732.986159,0.000000
163295.533752,-74.020594,-9474.636058,-76.609550
163295.534071,0.000000,-6587.832884,306.438199
163295.534390,888.247130,-5847.626942,-995.924147
163295.534708,444.123565,-7254.018232,-1225.752797
163295.535027,-814.226536,-10140.821405,-2374.896044
163295.535346,-1480.411884,-11917.315666,-536.266849
163295.535665,-1998.556043,-13101.645173,-536.266849
163295.535983,-370.102971,-13619.789333,-76.609550
163295.536302,0.000000,-8364.327145,76.609550
163295.536621,2368.659014,-7476.080014,1991.848295
163295.536939,3478.967927,-4737.318029,-2834.553343
163295.537258,1776.494261,-7328.038826,-1149.143247
163295.537577,-518.144159,-9326.594869,-2221.676944
163295.537896,-2590.720797,-11547.212695,-3447.429741
163295.538214,-2886.803174,-14804.118840,-1608.800546
163295.538533,-2442.679609,-13545.768739,-76.609550
163295.538852,-2368.659014,-9548.656652,1838.629195
163295.539170,2886.803174,-7105.977043,3447.429741
163295.539489,3923.091493,-5921.647536,3600.648841
163295.539808,2516.700203,-2442.679609,612.876398
163295.540127,1998.556043,-4145.153275,-536.266849
163295.540445,-74.020594,-9030.512492,-919.314598
163295.540764,-2072.576638,-12435.459826,-2298.286494
163295.541083,-4293.194464,-14582.057057,-2604.724693
163295.541401,-2442.679609,-15840.407159,-1302.362347
163295.541720,-3552.988522,-10732.986159,0.000000
163295.542039,0.000000,-8660.409521,919.314598
163295.542358,3182.885551,-5921.647536,1838.629195
163295.542676,5255.462188,-5921.647536,2374.896044
163295.542995,1184.329507,-5403.503377,1838.629195
163295.543314,0.000000,-8068.244768,-919.314598
163295.543632,-2812.782580,-11991.336260,-1455.581446
163295.543951,-5255.462188,-13323.706956,-1608.800546
163295.544270,-5107.421000,-13323.706956,-1685.410096
163295.544589,-2516.700203,-10732.986159,-2298.286494
163295.544907,-1184.329507,-9104.533087,0.000000
163295.545226,1406.391290,-7550.100608,0.000000
163295.545545,2886.803174,-8882.471304,-76.609550
163295.545863,1110.308913,-8216.285956,-1915.238745
163295.546182,1184.329507,-10658.965565,-1455.581446
163295.546501,-296.082377,-12287.418637,-306.438199
163295.546820,0.000000,-12361.439231,229.828649
163295.547138,1258.350101,-10510.924376,2681.334243
163295.547457,2664.741391,-8808.450710,3907.087040
163295.547776,3627.009116,-6365.771101,4290.134789
163295.548094,2886.803174,-4441.235652,306.438199
163295.548413,814.226536,-6513.812290,-76.609550
163295.548732,-2220.617826,-8364.327145,-2911.162892
163295.549051,-3552.988522,-12805.562797,-1532.190996
163295.549369,-6735.874072,-11917.315666,-4290.134789
163295.549688,-4737.318029,-12435.459826,-612.876398
163295.550007,-2368.659014,-9770.718434,459.657299
163295.550325,592.164754,-6217.729913,1915.238745
163295.550644,4071.132681,-4737.318029,1762.019645
163295.550963,4663.297435,-4737.318029,-76.609550
163295.551281,666.185348,-4885.359217,-1915.238745
163295.551600,-2368.659014,-8364.327145,-2451.505594
163295.551919,-1850.514855,-14063.912898,-2528.115143
163295.552238,-2960.823768,-15470.304188,-153.219100
163295.552556,-4737.318029,-12805.562797,-3370.820191
163295.552875,-1258.350101,-12509.480420,-689.485948
163295.553194,1110.308913,-8660.409521,76.609550
163295.553512,4071.132681,-5995.668130,1378.971896
163295.553831,5847.626942,-3552.988522,1762.019645
163295.554150,6439.791695,-8882.471304,3447.429741
163295.554469,1702.473667,-9474.636058,-76.609550
163295.554787,-2960.823768,-10732.986159,-919.314598
163295.555106,-2960.823768,-13693.809927,1532.190996
163295.555425,-1702.473667,-14211.954086,1762.019645
163295.555743,-2812.782580,-9548.656652,0.000000
163295.556062,-592.164754,-7179.997637,306.438199
163295.556381,888.247130,-6143.709319,-383.047749
163295.556700,888.247130,-6661.853478,-536.266849
163295.557018,-74.020594,-7994.224174,-995.924147
163295.557337,-222.061783,-11547.212695,-1378.971896
163295.557656,-2664.741391,-13027.624579,-1302.362347
163295.557974,-2442.679609,-11251.130318,-2528.115143
163295.558293,-2072.576638,-9548.656652,0.000000
163295.558612,3478.967927,-9474.636058,2374.896044
163295.558931,2368.659014,-5699.585753,1915.238745
163295.559249,2738.761985,-5403.503377,536.266849
163295.559568,1480.411884,-6439.791695,-919.314598
163295.559887,444.123565,-10436.903782,-76.609550
163295.560205,-2368.659014,-13101.645173,-1838.629195
163295.560524,-3034.844362,-15100.201217,-76.609550
163295.560843,-2442.679609,-13027.624579,-1302.362347
163295.561162,-2516.700203,-8660.409521,306.438199
163295.561480,0.000000,-4811.338623,0.000000
163295.561799,4663.297435,-4737.318029,2068.457845
163295.562118,2886.803174,-4811.338623,1302.362347
163295.562436,1036.288319,-6587.832884,-383.047749
163295.562755,-1258.350101,-9992.780217,-2221.676944
163295.563074,-1258.350101,-15396.283594,-76.609550
163295.563393,-3552.988522,-14211.954086,-1838.629195
163295.563711,-962.267725,-14211.954086,1455.581446
163295.564030,-74.020594,-10510.924376,842.705048
163295.564349,1702.473667,-7105.977043,2374.896044
163295.564667,4071.132681,-4293.194464,76.609550
163295.564986,3627.009116,-5033.400406,2145.067394
163295.565305,1554.432478,-7031.956449,306.438199
163295.565624,-1480.411884,-10066.800811,-1378.971896
163295.565942,-4441.235652,-13619.789333,-1302.362347
163295.566261,-7105.977043,-12509.480420,-2834.553343
163295.566580,-6809.894666,-10732.986159,-2451.505594
163295.566898,-3552.988522,-9548.656652,-766.095498
163295.567217,0.000000,-6587.832884,0.000000
163295.567536,148.041188,-4811.338623,-1455.581446
163295.567855,2886.803174,-7698.141797,-76.609550
163295.568173,962.267725,-8586.388927,-1838.629195
163295.568492,-666.185348,-10955.047942,-2221.676944
163295.568811,-1850.514855,-13101.645173,-1455.581446
163295.569129,1036.288319,-14730.098246,2374.896044
163295.569448,1184.329507,-11325.150913,1991.848295
163295.569767,2886.803174,-8882.471304,4519.963438
163295.570086,4663.297435,-7698.141797,2374.896044
163295.570404,1776.494261,-4071.132681,-919.314598
163295.570723,2294.638420,-7994.224174,-1455.581446
163295.571042,-888.247130,-10288.862594,-1072.533697
163295.571360,-2886.803174,-12287.418637,-1838.629195
163295.571679,-2960.823768,-12879.583391,-689.485948
163295.571998,-2294.638420,-11473.192101,689.485948
163295.572317,0.000000,-9548.656652,3677.258390
163295.572635,1628.453072,-5773.606348,2451.505594
163295.572954,2516.700203,-3478.967927,2374.896044
163295.573273,1924.535449,-4811.338623,-383.047749
163295.573591,0.000000,-5699.585753,-2757.943793
163295.573910,-2442.679609,-10881.027347,-3677.258390
163295.574229,-2738.761985,-14211.954086,-3753.867940
163295.574548,-5181.441594,-14434.015869,-4366.744339
163295.574866,-4515.256246,-11917.315666,-2834.553343
163295.575185,-74.020594,-11843.295072,-76.609550
163295.575504,2960.823768,-6883.915261,2451.505594
163295.575822,4885.359217,-4885.359217,2145.067394
163295.576141,5773.606348,-5477.523971,2221.676944
163295.576460,3256.906145,-7550.100608,995.924147
163295.576779,-74.020594,-9622.677246,-919.314598
163295.577097,-4663.297435,-12509.480420,-2145.067394
163295.577416,-4811.338623,-13619.789333,-1302.362347
163295.577735,-6513.812290,-9548.656652,-2451.505594
163295.578053,-3552.988522,-9548.656652,0.000000
163295.578372,2294.638420,-7105.977043,-689.485948
163295.578691,1924.535449,-6291.750507,383.047749
163295.579010,1406.391290,-6513.812290,-76.609550
163295.579328,0.000000,-8216.285956,-1225.752797
163295.579647,-666.185348,-10658.965565,-919.314598
163295.579966,-518.144159,-14063.912898,-76.609550
163295.580284,-2146.597232,-12509.480420,1149.143247
163295.580603,-1258.350101,-9030.512492,0.000000
163295.580922,592.164754,-8512.368333,2987.772442
163295.581240,2294.638420,-6809.894666,1532.190996
163295.581559,-666.185348,-3330.926739,-3294.210641
163295.581878,-666.185348,-8068.244768,-1762.019645
163295.582197,-2960.823768,-10732.986159,-3064.381992
163295.582515,-3923.091493,-13175.665768,-2834.553343
163295.582834,-3034.844362,-14211.954086,-689.485948
163295.583153,-1258.350101,-14211.954086,1149.143247
163295.583471,1110.308913,-9474.636058,2374.896044
163295.583790,1702.473667,-5255.462188,1991.848295
163295.584109,2960.823768,-2812.782580,536.266849
163295.584428,1776.494261,-4811.338623,1838.629195
163295.584746,1480.411884,-7772.162391,0.000000
163295.585065,-814.226536,-10807.006753,-1915.238745
163295.585384,-2368.659014,-13989.892304,-1838.629195
163295.585702,-2590.720797,-14211.954086,-1685.410096
163295.586021,-1258.350101,-12435.459826,-766.095498
163295.586340,814.226536,-10436.903782,1149.143247
163295.586659,3478.967927,-7031.956449,2374.896044
163295.586977,5847.626942,-7105.977043,3600.648841
163295.587296,3627.009116,-3923.091493,383.047749
163295.587615,4515.256246,-9474.636058,2987.772442
163295.587933,-2368.659014,-10140.821405,-612.876398
163295.588252,-4367.215058,-12805.562797,-1915.238745
163295.588571,-5551.544565,-12805.562797,-1608.800546
163295.588890,-4885.359217,-11843.295072,-76.609550
163295.589208,-1776.494261,-8956.491898,-766.095498
163295.589527,962.267725,-7846.182985,-76.609550
163295.589846,2886.803174,-8290.306550,-76.609550
163295.590164,1702.473667,-7105.977043,-1915.238745
163295.590483,0.000000,-8364.327145,-3677.258390
163295.590802,-74.020594,-11843.295072,-2528.115143
163295.591121,-2072.576638,-12805.562797,-2145.067394
163295.591439,-1480.411884,-12731.542202,-153.219100
163295.591758,1258.350101,-10584.944971,1685.410096
163295.592077,3997.112087,-8586.388927,4213.525239
163295.592395,3404.947333,-5699.585753,2451.505594
163295.592714,2368.659014,-4811.338623,612.876398
163295.593033,2294.638420,-8882.471304,-76.609550
163295.593352,-1184.329507,-10732.986159,-76.609550
163295.593670,-4737.318029,-10732.986159,-2451.505594
163295.593989,-3034.844362,-13027.624579,-1302.362347
163295.594308,-2368.659014,-11325.150913,689.485948
163295.594626,-296.082377,-8068.244768,1455.581446
163295.594945,1480.411884,-5107.421000,2374.896044
163295.595264,4663.297435,-5921.647536,2374.896044
163295.595583,1480.411884,-5403.503377,1225.752797
163295.595901,-74.020594,-8882.471304,-383.047749
163295.596220,-1850.514855,-11843.295072,-689.485948
163295.596539,-3034.844362,-13915.871710,-3753.867940
163295.596857,-4737.318029,-14285.974681,-1225.752797
163295.597176,-3182.885551,-11547.212695,-1225.752797
163295.597495,-518.144159,-8734.430116,1378.971896
163295.597814,2812.782580,-5995.668130,1225.752797
163295.598132,5847.626942,-4737.318029,306.438199
163295.598451,3923.091493,-6217.729913,0.000000
163295.598770,0.000000,-8660.409521,0.000000
163295.599088,-2220.617826,-12435.459826,-612.876398
163295.599407,-4811.338623,-13915.871710,-3753.867940
163295.599726,-6883.915261,-13915.871710,-2528.115143
163295.600045,-3256.906145,-12731.542202,459.657299
163295.600363,-1332.370696,-8142.265362,0.000000
163295.600682,1924.535449,-6143.709319,919.314598
163295.601001,2812.782580,-5625.565159,1302.362347
163295.601319,296.082377,-4811.338623,0.000000
163295.601638,296.082377,-8364.327145,0.000000
163295.601957,0.000000,-11473.192101,0.000000
163295.602276,-74.020594,-14211.954086,1149.143247
163295.602594,-2368.659014,-10881.027347,0.000000
163295.602913,814.226536,-9918.759623,-76.609550
163295.603232,1924.535449,-8290.306550,2068.457845
163295.603550,592.164754,-5995.668130,76.609550
163295.603869,814.226536,-6513.812290,-1072.533697
163295.604188,-814.226536,-7994.224174,-2145.067394
163295.604507,-2368.659014,-10732.986159,-1225.752797
163295.604825,-3330.926739,-12213.398043,-4290.134789
163295.605144,-3552.988522,-13101.645173,0.000000
163295.605463,-1258.350101,-10510.924376,536.266849
163295.605781,592.164754,-7179.997637,0.000000
163295.606100,5255.462188,-7105.977043,4213.525239
163295.606419,2368.659014,-4367.215058,766.095498
163295.606738,1998.556043,-6143.709319,-459.657299
163295.607056,-74.020594,-9326.594869,-2221.676944
163295.607375,-666.185348,-13693.809927,-2221.676944
163295.607694,-3997.112087,-14804.118840,-2834.553343
163295.608012,-1258.350101,-14211.954086,-1991.848295
163295.608331,-1258.350101,-11029.068536,-612.876398
163295.608650,0.000000,-5995.668130,0.000000
163295.608968,5995.668130,-6217.729913,2987.772442
163295.609287,7402.059420,-4589.276840,4519.963438
163295.609606,5181.441594,-5107.421000,1991.848295
163295.609925,1702.473667,-8290.306550,612.876398
163295.610243,-2886.803174,-11843.295072,-995.924147
163295.610562,-7105.977043,-11917.315666,-1838.629195
163295.610881,-5847.626942,-13323.706956,-1838.629195
163295.611199,-3627.009116,-11917.315666,-612.876398
163295.611518,-666.185348,-9474.636058,-76.609550
163295.611837,1110.308913,-7105.977043,-76.609550
163295.612156,2738.761985,-8290.306550,-76.609550
163295.612474,444.123565,-6587.832884,-1532.190996
163295.612793,-666.185348,-9104.533087,-1838.629195
163295.613112,-1702.473667,-11029.068536,-1685.410096
163295.613430,-1702.473667,-13027.624579,612.876398
163295.613749,-3552.988522,-9548.656652,0.000000
163295.614068,444.123565,-10214.842000,1149.143247
163295.614387,666.185348,-7254.018232,1302.362347
163295.614705,962.267725,-5921.647536,-612.876398
163295.615024,1110.308913,-7105.977043,-1608.800546
163295.615343,-740.205942,-8364.327145,-2451.505594
163295.615661,-74.020594,-12731.542202,-689.485948
163295.615980,-1850.514855,-12879.583391,-383.047749
163295.616299,-3775.050304,-10732.986159,0.000000
163295.616618,148.041188,-11325.150913,3983.696590
163295.616936,0.000000,-5107.421000,2451.505594
163295.617255,2886.803174,-5033.400406,3064.381992
163295.617574,2590.720797,-4885.359217,1532.190996
163295.617892,962.267725,-6365.771101,0.000000
163295.618211,-1406.391290,-8882.471304,-2451.505594
163295.618530,-3552.988522,-11917.315666,-2604.724693
163295.618849,-3034.844362,-14211.954086,-689.485948
163295.619167,-3627.009116,-12435.459826,-2528.115143
163295.619486,-3256.906145,-10140.821405,0.000000
163295.619805,3182.885551,-9474.636058,4213.525239
163295.620123,2664.741391,-4959.379811,1838.629195
163295.620442,4071.132681,-4885.359217,1608.800546
163295.620761,2516.700203,-6513.812290,689.485948
163295.621080,-1110.308913,-9474.636058,-76.609550
163295.621398,-4737.318029,-11917.315666,-1838.629195
163295.621717,-5403.503377,-14656.077652,-2451.505594
163295.622036,-3627.009116,-14211.954086,-1302.362347
163295.622354,-4589.276840,-9548.656652,-2757.943793
163295.622673,0.000000,-7772.162391,0.000000
163295.622992,4071.132681,-7105.977043,-76.609550
163295.623311,2516.700203,-5551.544565,0.000000
163295.623629,2590.720797,-7179.997637,-689.485948
163295.623948,1184.329507,-9992.780217,-995.924147
163295.624267,592.164754,-13323.706956,2221.676944
163295.624585,-148.041188,-12657.521608,0.000000
163295.624904,0.000000,-11917.315666,2451.505594
163295.625223,2294.638420,-9474.636058,2068.457845
163295.625542,888.247130,-6217.729913,1149.143247
163295.625860,0.000000,-3627.009116,0.000000
163295.626179,1702.473667,-6661.853478,-1915.238745
163295.626498,-370.102971,-8956.491898,-1991.848295
163295.626816,-1998.556043,-11843.295072,-1838.629195
163295.627135,-3330.926739,-12731.542202,-612.876398
163295.627454,-1628.453072,-12509.480420,689.485948
163295.627773,-1776.494261,-9178.553681,1149.143247
163295.628091,1036.288319,-7254.018232,2451.505594
163295.628410,3256.906145,-6883.915261,3677.258390
163295.628729,2294.638420,-5625.565159,-76.609550
163295.629047,0.000000,-5995.668130,0.000000
163295.629366,-1554.432478,-10510.924376,-3294.210641
163295.629685,-3034.844362,-13767.830521,-3600.648841
163295.630004,-3182.885551,-14211.954086,-2451.505594
163295.630322,-2368.659014,-12805.562797,-2298.286494
163295.630641,-740.205942,-9252.574275,0.000000
163295.630960,2072.576638,-6587.832884,1608.800546
163295.631278,2960.823768,-2442.679609,1532.190996
163295.631597,4737.318029,-4219.173869,2451.505594
163295.631916,4293.194464,-7994.224174,2374.896044
163295.632235,592.164754,-11843.295072,612.876398
163295.632553,-4589.276840,-13101.645173,-2528.115143
163295.632872,-6957.935855,-14211.954086,-2987.772442
163295.633191,-6291.750507,-13101.645173,-1762.019645
163295.633509,-5921.647536,-7772.162391,0.000000
163295.633828,0.000000,-5995.668130,306.438199
163295.634147,1702.473667,-3701.029710,0.000000
163295.634466,1480.411884,-4811.338623,1225.752797
163295.634784,2294.638420,-7105.977043,612.876398
163295.635103,-74.020594,-9474.636058,-2528.115143
163295.635422,-1554.432478,-13027.624579,-1149.143247
163295.635740,-3404.947333,-13249.686362,-1149.143247
163295.636059,-2960.823768,-12657.521608,-383.047749
163295.636378,-1036.288319,-9770.718434,383.047749
163295.636697,0.000000,-5995.668130,0.000000
163295.637015,1110.308913,-6217.729913,-1608.800546
163295.637334,0.000000,-6291.750507,-2451.505594
163295.637653,-1184.329507,-8956.491898,-2451.505594
163295.637972,-74.020594,-13027.624579,-689.485948
163295.638290,-3108.864956,-9696.697840,-3677.258390
163295.638609,-962.267725,-11843.295072,-76.609550
163295.638928,2220.617826,-9474.636058,3600.648841
163295.639247,2812.782580,-6735.874072,2757.943793
163295.639565,2590.720797,-4737.318029,2068.457845
163295.639884,1480.411884,-5329.482782,-76.609550
163295.640203,74.020594,-6587.832884,-2451.505594
163295.640521,-2072.576638,-10658.965565,-4366.744339
163295.640840,-4737.318029,-13101.645173,-3677.258390
163295.641159,-1628.453072,-16062.468941,-76.609550
163295.641478,-4737.318029,-10732.986159,0.000000
163295.641796,1110.308913,-8882.471304,1762.019645
163295.642115,4145.153275,-5255.462188,2681.334243
163295.642434,5625.565159,-3775.050304,3294.210641
163295.642753,5847.626942,-3849.070898,1149.143247
163295.643071,2294.638420,-7550.100608,-76.609550
163295.643390,-2812.782580,-10214.842000,-3447.429741
163295.643709,-7105.977043,-14285.974681,-3064.381992
163295.644028,-6587.832884,-15914.427753,-3217.601092
163295.644346,-4811.338623,-15396.283594,-1302.362347
163295.644665,-4145.153275,-9548.656652,-1838.629195
163295.644984,518.144159,-6957.935855,-153.219100
163295.645303,3404.947333,-4737.318029,1302.362347
163295.645621,3923.091493,-5329.482782,612.876398
163295.645940,740.205942,-5403.503377,-1838.629195
163295.646259,592.164754,-8586.388927,-2528.115143
163295.646577,-2368.659014,-10732.986159,0.000000
163295.646896,-666.185348,-13989.892304,459.657299
163295.647215,-740.205942,-11917.315666,1838.629195
163295.647534,0.000000,-11325.150913,3983.696590
163295.647852,592.164754,-7031.956449,0.000000
163295.648171,1184.329507,-6513.812290,-306.438199
163295.648490,74.020594,-8068.244768,-1915.238745
163295.648809,-2368.659014,-7920.203579,-2451.505594
163295.649127,-666.185348,-11473.192101,-153.219100
163295.649446,-1258.350101,-13027.624579,1762.019645
163295.649765,-1110.308913,-10362.883188,1915.238745
163295.650084,-2960.823768,-5995.668130,766.095498
163295.650402,888.247130,-6587.832884,4826.401637
163295.650721,0.000000,-3923.091493,612.876398
163295.651040,-74.020594,-6143.709319,-1455.581446
163295.651359,-1776.494261,-8956.491898,-2757.943793
163295.651677,-3923.091493,-12509.480420,-3907.087040
163295.651996,-5107.421000,-13323.706956,-5745.716235
163295.652315,-3478.967927,-14804.118840,-1991.848295
163295.652634,-2294.638420,-12065.356855,-536.266849
163295.652952,1184.329507,-8142.265362,1685.410096
163295.653271,4367.215058,-5181.441594,2604.724693
163295.653590,7031.956449,-4737.318029,3600.648841
163295.653908,6735.874072,-7105.977043,4060.306139
163295.654227,2294.638420,-8142.265362,-383.047749
163295.654546,-2220.617826,-11325.150913,-2221.676944
163295.654865,-5477.523971,-14137.933492,-1302.362347
163295.655183,-8290.306550,-12509.480420,-3370.820191
163295.655502,-4441.235652,-12583.501014,-1378.971896
163295.655821,-1554.432478,-9252.574275,153.219100
163295.656140,1628.453072,-6587.832884,842.705048
163295.656458,3478.967927,-4441.235652,2374.896044
163295.656777,3034.844362,-3627.009116,612.876398
163295.657096,2886.803174,-8142.265362,1455.581446
163295.657415,-74.020594,-10510.924376,-76.609550
163295.657733,-74.020594,-14211.954086,-76.609550
163295.658052,-666.185348,-14804.118840,1762.019645
163295.658371,-2368.659014,-10140.821405,306.438199
163295.658690,-74.020594,-9178.553681,229.828649
163295.659008,1036.288319,-7031.956449,-842.705048
163295.659327,518.144159,-6365.771101,-1915.238745
163295.659646,0.000000,-6883.915261,-2145.067394
163295.659964,-1480.411884,-9696.697840,-2757.943793
163295.660283,-370.102971,-13027.624579,-76.609550
163295.660602,-370.102971,-11843.295072,-689.485948
163295.660921,-1480.411884,-10066.800811,383.047749
163295.661239,3478.967927,-9474.636058,2374.896044
163295.661558,2220.617826,-5699.585753,1915.238745
163295.661877,2812.782580,-5107.421000,919.314598
163295.662196,2294.638420,-6143.709319,-459.657299
163295.662514,222.061783,-8956.491898,-689.485948
163295.662833,-888.247130,-12509.480420,-919.314598
163295.663152,-2812.782580,-13989.892304,-3064.381992
163295.663471,-666.185348,-15396.283594,-76.609550
163295.663789,-814.226536,-11547.212695,-76.609550
163295.664108,962.267725,-7254.018232,612.876398
163295.664427,4663.297435,-4737.318029,2068.457845
163295.664746,4589.276840,-3775.050304,3140.991542
163295.665064,3330.926739,-5033.400406,1838.629195
163295.665383,370.102971,-8512.368333,0.000000
163295.665702,-1850.514855,-13915.871710,-76.609550
163295.666021,-4959.379811,-15396.283594,-3370.820191
163295.666339,-5995.668130,-15840.407159,-1608.800546
163295.666658,-4959.379811,-11695.253884,-2068.457845
163295.666977,-2812.782580,-8290.306550,-383.047749
163295.667295,0.000000,-4811.338623,612.876398
163295.667614,2294.638420,-4293.194464,536.266849
163295.667933,2590.720797,-5847.626942,612.876398
163295.668252,518.144159,-8660.409521,-919.314598
163295.668570,-1480.411884,-10955.047942,-1532.190996
163295.668889,-1850.514855,-14211.954086,-689.485948
163295.669208,-3552.988522,-13101.645173,0.000000
163295.669527,-74.020594,-12287.418637,1149.143247
163295.669845,1110.308913,-9474.636058,-76.609550
163295.670164,1184.329507,-5773.606348,0.000000
163295.670483,1184.329507,-6883.915261,1225.752797
163295.670802,962.267725,-7920.203579,-995.924147
163295.671120,0.000000,-9696.697840,-383.047749
163295.671439,-1258.350101,-11917.315666,0.000000
163295.671758,-1554.432478,-11917.315666,0.000000
163295.672077,-1776.494261,-9548.656652,0.000000
163295.672395,1036.288319,-7772.162391,3140.991542
163295.672714,2368.659014,-6291.750507,3524.039291
163295.673033,2294.638420,-6513.812290,-76.609550
163295.673351,-1184.329507,-6217.729913,-2221.676944
163295.673670,-666.185348,-11695.253884,-1915.238745
163295.673989,-3552.988522,-12287.418637,-4136.915689
163295.674308,-4071.132681,-14285.974681,-3217.601092
163295.674626,-3256.906145,-13545.768739,-1762.019645
163295.674945,-2368.659014,-10732.986159,612.876398
163295.675264,1184.329507,-6587.832884,1838.629195
163295.675583,4737.318029,-3627.009116,2451.505594
163295.675901,7624.121203,-5921.647536,3907.087040
163295.676220,4589.276840,-5625.565159,1149.143247
163295.676539,-74.020594,-7920.203579,-2528.115143
163295.676858,-2442.679609,-14211.954086,-2528.115143
163295.677176,-6217.729913,-15100.201217,-3524.039291
163295.677495,-6069.688724,-14359.995275,-3217.601092
163295.677814,-3404.947333,-11029.068536,-1455.581446
163295.678133,296.082377,-7772.162391,1225.752797
163295.678451,1702.473667,-3627.009116,76.609550
163295.678770,3108.864956,-3330.926739,1225.752797
163295.679089,4145.153275,-4885.359217,1838.629195
163295.679408,3478.967927,-9474.636058,1608.800546
163295.679726,-3256.906145,-8364.327145,0.000000
163295.680045,-1850.514855,-13619.789333,-229.828649
163295.680364,-1998.556043,-13101.645173,459.657299
163295.680682,-1184.329507,-11399.171507,459.657299
163295.681001,-370.102971,-7846.182985,459.657299
163295.681320,0.000000,-6291.750507,-995.924147
163295.681639,-1776.494261,-5699.585753,-2451.505594
163295.681957,-1036.288319,-7920.203579,-4903.011187
163295.682276,-74.020594,-12731.542202,-76.609550
163295.682595,-1258.350101,-13027.624579,-76.609550
163295.682914,-4145.153275,-10140.821405,306.438199
163295.683232,-962.267725,-9770.718434,1532.190996
163295.683551,518.144159,-7698.141797,2451.505594
163295.683870,1776.494261,-5995.668130,1608.800546
163295.684189,814.226536,-3627.009116,-2911.162892
163295.684507,-888.247130,-6735.874072,-2528.115143
163295.684826,-3182.885551,-9548.656652,-5822.325785
163295.685145,-3552.988522,-14285.974681,-2451.505594
163295.685464,-1850.514855,-15988.448347,-1915.238745
163295.685782,-74.020594,-15396.283594,-76.609550
163295.686101,0.000000,-10140.821405,1991.848295
163295.686420,2886.803174,-6291.750507,3064.381992
163295.686738,5699.585753,-4145.153275,3753.867940
163295.687057,5995.668130,-4071.132681,3447.429741
163295.687376,1184.329507,-3627.009116,0.000000
163295.687695,-888.247130,-9474.636058,-1302.362347
163295.688013,-6513.812290,-11917.315666,-2451.505594
163295.688332,-6143.709319,-15470.304188,-2528.115143
163295.688651,-4811.338623,-15988.448347,-76.609550
163295.688970,-4589.276840,-12879.583391,-76.609550
163295.689288,-1480.411884,-7105.977043,0.000000
163295.689607,1406.391290,-5181.441594,1149.143247
163295.689926,2738.761985,-3997.112087,919.314598
163295.690245,1184.329507,-4811.338623,0.000000
163295.690563,1998.556043,-9030.512492,-76.609550
163295.690882,-74.020594,-13027.624579,-689.485948
163295.691201,-2442.679609,-13619.789333,-995.924147
163295.691520,-4737.318029,-11325.150913,-2451.505594
163295.691838,-296.082377,-11843.295072,1762.019645
163295.692157,0.000000,-7772.162391,0.000000
163295.692476,1628.453072,-7179.997637,-689.485948
163295.692795,2072.576638,-7179.997637,-1302.362347
163295.693113,1554.432478,-8808.450710,-995.924147
163295.693432,0.000000,-8364.327145,-2451.505594
163295.693751,-74.020594,-12139.377449,-76.609550
163295.694069,-666.185348,-11621.233289,1838.629195
163295.694388,962.267725,-9030.512492,3294.210641
163295.694707,2368.659014,-7105.977043,3140.991542
163295.695026,4071.132681,-6513.812290,2374.896044
163295.695344,1702.473667,-7105.977043,-76.609550
163295.695663,-1628.453072,-5403.503377,-3370.820191
163295.695982,-2368.659014,-10140.821405,-3064.381992
163295.696301,-3108.864956,-13619.789333,-1915.238745
163295.696619,-4737.318029,-11917.315666,-2451.505594
163295.696938,-1554.432478,-12731.542202,-229.828649
163295.697257,0.000000,-9326.594869,1225.752797
163295.697576,2886.803174,-6217.729913,2374.896044
163295.697894,4071.132681,-3849.070898,2451.505594
163295.698213,4663.297435,-5477.523971,2987.772442
163295.698532,2294.638420,-7105.977043,-689.485948
163295.698851,-2368.659014,-9992.780217,-3064.381992
163295.699169,-7105.977043,-12509.480420,-4290.134789
163295.699488,-4811.338623,-16580.613101,-689.485948
163295.699807,-6513.812290,-13693.809927,-2451.505594
163295.700125,-2442.679609,-10362.883188,-612.876398
163295.700444,518.144159,-6513.812290,612.876398
163295.700763,3775.050304,-4145.153275,2068.457845
163295.701082,4293.194464,-3182.885551,2145.067394
163295.701400,2960.823768,-5995.668130,1302.362347
163295.701719,1924.535449,-9474.636058,-76.609550
163295.702038,-4145.153275,-9548.656652,-2451.505594
163295.702357,-3552.988522,-12805.562797,-1225.752797
163295.702675,-74.020594,-14211.954086,-76.609550
163295.702994,-2072.576638,-10436.903782,536.266849
163295.703313,0.000000,-7846.182985,-76.609550
163295.703632,740.205942,-6069.688724,-919.314598
163295.703950,888.247130,-6883.915261,-689.485948
163295.704269,0.000000,-8512.368333,-76.609550
163295.704588,-1110.308913,-9844.739029,0.000000
163295.704907,-1406.391290,-13027.624579,1149.143247
163295.705225,-2442.679609,-10807.006753,0.000000
163295.705544,-1998.556043,-8956.491898,0.000000
163295.705863,-74.020594,-6513.812290,1149.143247
163295.706181,592.164754,-5995.668130,383.047749
163295.706500,-74.020594,-6957.935855,-1149.143247
163295.706819,-1850.514855,-8438.347739,-2987.772442
163295.707138,-1554.432478,-13027.624579,-1608.800546
163295.707456,-1554.432478,-15100.201217,-3677.258390
163295.707775,-1628.453072,-15396.283594,-689.485948
163295.708094,-74.020594,-12583.501014,-76.609550
163295.708413,2072.576638,-7994.224174,2374.896044
163295.708731,3552.988522,-4811.338623,3677.258390
163295.709050,5921.647536,-3256.906145,2757.943793
163295.709369,4737.318029,-4663.297435,2298.286494
163295.709688,1924.535449,-7476.080014,229.828649
163295.710006,-2294.638420,-12065.356855,-2298.286494
163295.710325,-3923.091493,-15988.448347,-2145.067394
163295.710644,-6513.812290,-14285.974681,-2068.457845
163295.710963,-4145.153275,-12805.562797,-536.266849
163295.711281,-74.020594,-10658.965565,1762.019645
163295.711600,2294.638420,-5921.647536,1149.143247
163295.711919,2960.823768,-5403.503377,2911.162892
163295.712238,3182.885551,-3552.988522,1225.752797
163295.712556,1332.370696,-6735.874072,0.000000
163295.712875,-1184.329507,-10066.800811,-1838.629195
163295.713194,-3330.926739,-12805.562797,-2451.505594
163295.713512,-4737.318029,-13471.748144,-3677.258390
163295.713831,-2368.659014,-13693.809927,-612.876398
163295.714150,-592.164754,-11843.295072,1532.190996
163295.714469,1702.473667,-9474.636058,-76.609550
163295.714787,2294.638420,-6513.812290,-1915.238745
163295.715106,3478.967927,-8882.471304,-383.047749
163295.715425,1110.308913,-8956.491898,-1149.143247
163295.715744,0.000000,-10807.006753,-612.876398
163295.716062,-740.205942,-11843.295072,612.876398
163295.716381,0.000000,-10140.821405,3064.381992
163295.716700,0.000000,-7772.162391,1838.629195
163295.717019,0.000000,-5403.503377,2451.505594
163295.717337,3330.926739,-7105.977043,2374.896044
163295.717656,1110.308913,-5773.606348,-383.047749
163295.717975,-1258.350101,-6883.915261,-4673.182538
163295.718294,-1998.556043,-11843.295072,-2834.553343
163295.718612,-3997.112087,-13101.645173,-3677.258390
163295.718931,-3627.009116,-13545.768739,-1685.410096
163295.719250,-740.205942,-11547.212695,612.876398
163295.719568,2664.741391,-8956.491898,3064.381992
163295.719887,1480.411884,-3034.844362,1838.629195
163295.720206,3849.070898,-3330.926739,2757.943793
163295.720525,4071.132681,-5921.647536,3294.210641
163295.720843,-74.020594,-7105.977043,-2221.676944
163295.721162,-6513.812290,-9548.656652,-4903.011187
163295.721481,-6587.832884,-14804.118840,-3753.867940
163295.721800,-7254.018232,-14582.057057,-3753.867940
163295.722118,-4959.379811,-12731.542202,-2374.896044
163295.722437,-2442.679609,-8290.306550,-1608.800546
163295.722756,888.247130,-5995.668130,536.266849
163295.723075,2368.659014,-3627.009116,1225.752797
163295.723393,3256.906145,-4219.173869,0.000000
163295.723712,3108.864956,-8512.368333,2221.676944
163295.724031,1702.473667,-11843.295072,-76.609550
163295.724350,-3552.988522,-11917.315666,0.000000
163295.724668,-1850.514855,-14137.933492,-383.047749
163295.724987,-2368.659014,-12287.418637,0.000000
163295.725306,-1110.308913,-9474.636058,612.876398
163295.725625,74.020594,-5773.606348,-2451.505594
163295.725943,1924.535449,-5625.565159,-1378.971896
163295.726262,740.205942,-6513.812290,-1302.362347
163295.726581,0.000000,-7179.997637,-1225.752797
163295.726899,0.000000,-11251.130318,306.438199
163295.727218,-74.020594,-14211.954086,2374.896044
163295.727537,-1776.494261,-10955.047942,1915.238745
163295.727856,-962.267725,-8586.388927,2221.676944
163295.728174,518.144159,-6957.935855,1608.800546
163295.728493,888.247130,-5773.606348,306.438199
163295.728812,-2368.659014,-3627.009116,-3677.258390
163295.729131,-2368.659014,-8290.306550,-3753.867940
163295.729449,-4737.318029,-10732.986159,-4596.572988
163295.729768,-2146.597232,-14952.160028,-2834.553343
163295.730087,-1554.432478,-15988.448347,-76.609550
163295.730406,-518.144159,-13323.706956,1685.410096
163295.730724,1850.514855,-8290.306550,1838.629195
163295.731043,4959.379811,-5847.626942,3064.381992
163295.731362,5403.503377,-4737.318029,2374.896044
163295.731681,2960.823768,-4811.338623,612.876398
163295.731999,2294.638420,-9696.697840,0.000000
163295.732318,-666.185348,-13915.871710,-1302.362347
163295.732637,-4811.338623,-14508.036463,-2834.553343
163295.732955,-6291.750507,-12731.542202,-3907.087040
163295.733274,-3256.906145,-12953.603985,-76.609550
163295.733593,-1776.494261,-7772.162391,612.876398
163295.733912,2220.617826,-5181.441594,1991.848295
163295.734230,4145.153275,-3701.029710,2681.334243
163295.734549,3330.926739,-4367.215058,1685.410096
163295.734868,0.000000,-5107.421000,-2451.505594
163295.735187,-1258.350101,-10658.965565,-919.314598
163295.735506,-4145.153275,-12879.583391,-2145.067394
163295.735825,-4663.297435,-13767.830521,-1915.238745
163295.736144,-3923.091493,-12213.398043,-1685.410096
163295.736462,-666.185348,-10658.965565,-383.047749
163295.736781,-74.020594,-9474.636058,-76.609550
163295.737100,0.000000,-5403.503377,-1838.629195
163295.737419,1776.494261,-7920.203579,-229.828649
163295.737738,740.205942,-9474.636058,-76.609550
163295.738057,-2368.659014,-9548.656652,0.000000
163295.738376,-666.185348,-11843.295072,459.657299
163295.738694,-518.144159,-11251.130318,1838.629195
163295.739013,518.144159,-8882.471304,2068.457845
163295.739332,222.061783,-5625.565159,1378.971896
163295.739651,0.000000,-4811.338623,-995.924147
163295.739970,0.000000,-7179.997637,-1762.019645
163295.740289,-1184.329507,-9548.656652,-1838.629195
163295.740608,-666.185348,-13619.789333,-2528.115143
163295.740926,-1554.432478,-14211.954086,-689.485948
163295.741245,-740.205942,-14137.933492,459.657299
163295.741564,74.020594,-10658.965565,1608.800546
163295.741883,2590.720797,-7254.018232,3217.601092
163295.742202,4737.318029,-4367.215058,4213.525239
163295.742521,4737.318029,-3478.967927,2451.505594
163295.742840,2368.659014,-5551.544565,919.314598
163295.743158,-1406.391290,-8956.491898,-1838.629195
163295.743477,-5921.647536,-11917.315666,-2451.505594
163295.743796,-5403.503377,-15988.448347,-3447.429741
163295.744115,-5995.668130,-14656.077652,-4060.306139
163295.744434,-4737.318029,-11399.171507,-1378.971896
163295.744753,-1110.308913,-7328.038826,153.219100
163295.745072,2072.576638,-4959.379811,1762.019645
163295.745390,4145.153275,-4219.173869,2374.896044
163295.745709,4367.215058,-6217.729913,3140.991542
163295.746028,962.267725,-7179.997637,1455.581446
163295.746347,-74.020594,-11843.295072,-1302.362347
163295.746666,-4441.235652,-12509.480420,-2681.334243
163295.746985,-3552.988522,-14285.974681,0.000000
163295.747304,-3108.864956,-10732.986159,-2451.505594
163295.747622,0.000000,-9474.636058,536.266849
163295.747941,1850.514855,-7624.121203,0.000000
163295.748260,2738.761985,-6143.709319,-306.438199
163295.748579,4071.132681,-7698.141797,-76.609550
163295.748898,3478.967927,-10658.965565,995.924147
163295.749217,888.247130,-12435.459826,1685.410096
163295.749536,-74.020594,-12435.459826,1455.581446
163295.749854,-2146.597232,-10066.800811,2374.896044
163295.750173,0.000000,-8956.491898,2451.505594
163295.750492,-1776.494261,-4811.338623,0.000000
163295.750811,74.020594,-5403.503377,-383.047749
163295.751130,-666.185348,-6365.771101,-1838.629195
163295.751449,-1998.556043,-9474.636058,-3524.039291
163295.751768,-1554.432478,-13027.624579,-4366.744339
163295.752086,-3256.906145,-13693.809927,-2987.772442
163295.752405,-2442.679609,-13027.624579,-1915.238745
163295.752724,-1184.329507,-9548.656652,-1991.848295
163295.753043,1184.329507,-6587.832884,2451.505594
163295.753362,6217.729913,-7105.977043,5592.497135
163295.753681,4145.153275,-3478.967927,1532.190996
163295.754000,2590.720797,-7031.956449,76.609550
163295.754318,-370.102971,-10214.842000,-1532.190996
163295.754637,-3627.009116,-12953.603985,-2298.286494
163295.754956,-4737.318029,-13397.727550,-1838.629195
163295.755275,-3775.050304,-14211.954086,-1302.362347
163295.755594,-666.185348,-13027.624579,2068.457845
163295.755913,1702.473667,-7105.977043,1149.143247
163295.756232,2886.803174,-2738.761985,689.485948
163295.756550,7031.956449,-4737.318029,2374.896044
163295.756869,2516.700203,-5329.482782,919.314598
163295.757188,0.000000,-8734.430116,-306.438199
163295.757507,-2072.576638,-11917.315666,-1685.410096
163295.757826,-2664.741391,-14285.974681,612.876398
163295.758145,-3552.988522,-13397.727550,0.000000
163295.758464,-2960.823768,-11325.150913,1225.752797
163295.758782,-74.020594,-9474.636058,-76.609550
163295.759101,814.226536,-6735.874072,-689.485948
163295.759420,0.000000,-4219.173869,-2451.505594
163295.759739,2146.597232,-7994.224174,-689.485948
163295.760058,0.000000,-9326.594869,-306.438199
163295.760377,-1480.411884,-11917.315666,0.000000
163295.760695,-2220.617826,-11843.295072,612.876398
163295.761014,-222.061783,-11843.295072,2451.505594
163295.761333,-2368.659014,-7179.997637,0.000000
163295.761652,0.000000,-7550.100608,995.924147
163295.761971,-74.020594,-7105.977043,-76.609550
163295.762290,-74.020594,-8882.471304,-2528.115143
163295.762609,-3552.988522,-8364.327145,-3064.381992
163295.762927,-962.267725,-12139.377449,-2528.115143
163295.763246,-1110.308913,-12953.603985,-1225.752797
163295.763565,-370.102971,-11843.295072,766.095498
163295.763884,2368.659014,-8364.327145,1302.362347
163295.764203,4885.359217,-6291.750507,2298.286494
163295.764522,4737.318029,-4811.338623,3217.601092
163295.764841,4663.297435,-5625.565159,4060.306139
163295.765159,1702.473667,-7105.977043,-1302.362347
163295.765478,-3552.988522,-11547.212695,-1915.238745
163295.765797,-5921.647536,-14285.974681,-2451.505594
163295.766116,-6883.915261,-14952.160028,-3064.381992
163295.766435,-5921.647536,-12805.562797,-1915.238745
163295.766754,-2812.782580,-9030.512492,0.000000
163295.767073,0.000000,-3627.009116,0.000000
163295.767391,2368.659014,-2738.761985,1378.971896
163295.767710,2368.659014,-2442.679609,0.000000
163295.768029,0.000000,-5995.668130,0.000000
163295.768348,-74.020594,-10658.965565,-1455.581446
163295.768667,-666.185348,-14211.954086,-2528.115143
163295.768986,-3552.988522,-16136.489536,-1991.848295
163295.769305,-3775.050304,-13915.871710,-1532.190996
163295.769623,-1554.432478,-11769.274478,-919.314598
163295.769942,592.164754,-8364.327145,-383.047749
163295.770261,1184.329507,-5995.668130,1225.752797
163295.770580,3182.885551,-5403.503377,0.000000
163295.770899,2960.823768,-7920.203579,1838.629195
163295.771218,3182.885551,-9474.636058,1149.143247
163295.771537,0.000000,-9548.656652,0.000000
163295.771855,2294.638420,-12435.459826,2374.896044
163295.772174,-1850.514855,-10066.800811,1225.752797
163295.772493,-962.267725,-8216.285956,1149.143247
163295.772812,-888.247130,-7254.018232,-306.438199
163295.773131,-74.020594,-7328.038826,306.438199
163295.773450,-2664.741391,-7920.203579,-2528.115143
163295.773769,-1258.350101,-10658.965565,-3140.991542
163295.774087,-2738.761985,-11473.192101,-3677.258390
163295.774406,-3552.988522,-11325.150913,0.000000
163295.774725,-74.020594,-13619.789333,-76.609550
163295.775044,2368.659014,-9622.677246,3677.258390
163295.775363,3775.050304,-6291.750507,3064.381992
163295.775682,4589.276840,-4811.338623,2374.896044
163295.776001,2960.823768,-5551.544565,383.047749
163295.776319,-2368.659014,-7179.997637,-3064.381992
163295.776638,-3849.070898,-12953.603985,-3600.648841
163295.776957,-5551.544565,-15396.283594,-3217.601092
163295.777276,-4811.338623,-15988.448347,-3753.867940
163295.777595,-5625.565159,-11769.274478,-2757.943793
163295.777914,-74.020594,-10510.924376,2834.553343
163295.778233,2812.782580,-4219.173869,2451.505594
163295.778551,5699.585753,-3108.864956,3677.258390
163295.778870,5551.544565,-3478.967927,3370.820191
163295.779189,3182.885551,-5847.626942,1838.629195
163295.779508,-1480.411884,-7179.997637,-2451.505594
163295.779827,-2886.803174,-13471.748144,-1915.238745
163295.780146,-4515.256246,-15026.180623,-1915.238745
163295.780465,-3849.070898,-14063.912898,-1532.190996
163295.780783,-666.185348,-11843.295072,-689.485948
163295.781102,-370.102971,-7105.977043,-1302.362347
163295.781421,2294.638420,-6957.935855,1149.143247
163295.781740,2294.638420,-5921.647536,2068.457845
163295.782059,3478.967927,-8290.306550,2068.457845
163295.782378,740.205942,-9252.574275,2451.505594
163295.782697,-2960.823768,-9548.656652,612.876398
163295.783015,-2516.700203,-11103.089130,919.314598
163295.783334,-1924.535449,-9770.718434,919.314598
163295.783653,-1702.473667,-7994.224174,459.657299
163295.783972,-962.267725,-7105.977043,-2451.505594
163295.784291,-1776.494261,-7105.977043,-3600.648841
163295.784610,-1554.432478,-9474.636058,-3677.258390
163295.784929,-370.102971,-13619.789333,-2528.115143
163295.785247,-666.185348,-13619.789333,-3140.991542
163295.785566,1110.308913,-15988.448347,-76.609550
163295.785885,888.247130,-10732.986159,1838.629195
163295.786204,3923.091493,-8216.285956,3907.087040
163295.786523,5995.668130,-4959.379811,4826.401637
163295.786842,6439.791695,-3923.091493,4443.353888
163295.787161,4145.153275,-4219.173869,2757.943793
163295.787479,1184.329507,-8660.409521,0.000000
163295.787798,-1480.411884,-14211.954086,-995.924147
163295.788117,-5403.503377,-14211.954086,-4366.744339
163295.788436,-7624.121203,-13101.645173,-4903.011187
163295.788755,-2442.679609,-13619.789333,-2528.115143
163295.789074,-2146.597232,-8364.327145,0.000000
163295.789393,1554.432478,-5477.523971,1685.410096
163295.789711,3997.112087,-2960.823768,2604.724693
163295.790030,4885.359217,-4811.338623,4213.525239
163295.790349,1776.494261,-5995.668130,229.828649
163295.790668,-2960.823768,-8660.409521,-2451.505594
163295.790987,-2960.823768,-13397.727550,-1838.629195
163295.791306,-2442.679609,-16876.695478,-229.828649
163295.791625,-5921.647536,-11325.150913,-4290.134789
163295.791943,-1258.350101,-11251.130318,-1302.362347
163295.792262,-222.061783,-7846.182985,-689.485948
163295.792581,1480.411884,-6883.915261,-1455.581446
163295.792900,2072.576638,-7179.997637,-842.705048
163295.793219,2664.741391,-8364.327145,842.705048
163295.793538,148.041188,-9252.574275,306.438199
163295.793857,0.000000,-11103.089130,2068.457845
163295.794175,1332.370696,-13471.748144,4826.401637
163295.794494,-74.020594,-9178.553681,1762.019645
163295.794813,0.000000,-5995.668130,1838.629195
163295.795132,-74.020594,-6735.874072,-689.485948
163295.795451,-666.185348,-7402.059420,-1991.848295
163295.795770,-1850.514855,-8956.491898,-3140.991542
163295.796089,-2516.700203,-10732.986159,-4596.572988
163295.796407,-2886.803174,-12509.480420,-3983.696590
163295.796726,-2368.659014,-12657.521608,-1225.752797
163295.797045,-2368.659014,-9548.656652,612.876398
163295.797364,3478.967927,-9474.636058,4443.353888
163295.797683,4663.297435,-6513.812290,4826.401637
163295.798002,4737.318029,-4811.338623,4596.572988
163295.798321,1776.494261,-5477.523971,306.438199
163295.798639,-888.247130,-9178.553681,-1685.410096
163295.798958,-4145.153275,-12953.603985,-3830.477490
163295.799277,-8882.471304,-13101.645173,-4903.011187
163295.799596,-8290.306550,-13397.727550,-3677.258390
163295.799915,-5921.647536,-9844.739029,-3217.601092
163295.800234,-1702.473667,-7772.162391,0.000000
163295.800553,2960.823768,-5995.668130,1225.752797
163295.800871,5847.626942,-4145.153275,3294.210641
163295.801190,4145.153275,-5329.482782,2374.896044
163295.801509,1776.494261,-7550.100608,-306.438199
163295.801828,-444.123565,-11325.150913,-1608.800546
163295.802147,-2368.659014,-13989.892304,-1455.581446
163295.802466,-4737.318029,-13101.645173,0.000000
163295.802784,-1554.432478,-11843.295072,-1302.362347
163295.803103,-1776.494261,-8660.409521,0.000000
163295.803422,592.164754,-6587.832884,0.000000
163295.803741,2960.823768,-6513.812290,1455.581446
163295.804060,2738.761985,-4219.173869,-2451.505594
163295.804379,1850.514855,-8216.285956,612.876398
163295.804698,-370.102971,-10066.800811,306.438199
163295.805016,-2368.659014,-10436.903782,612.876398
163295.805335,-2442.679609,-11843.295072,-76.609550
163295.805654,-2960.823768,-10066.800811,2374.896044
163295.805973,-2516.700203,-7179.997637,0.000000
163295.806292,-1184.329507,-5995.668130,-3677.258390
163295.806611,-888.247130,-7772.162391,-1149.143247
163295.806930,-74.020594,-9474.636058,-1762.019645
163295.807248,-3552.988522,-9548.656652,-4290.134789
163295.807567,-666.185348,-12435.459826,-1532.190996
163295.807886,-296.082377,-12435.459826,-459.657299
163295.808205,962.267725,-11103.089130,1608.800546
163295.808524,4071.132681,-7994.224174,2374.896044
163295.808843,4663.297435,-5921.647536,3294.210641
163295.809162,3552.988522,-4441.235652,-76.609550
163295.809480,592.164754,-5403.503377,0.000000
163295.809799,-74.020594,-11251.130318,-1608.800546
163295.810118,-2442.679609,-15396.283594,-1302.362347
163295.810437,-5921.647536,-13693.809927,-2757.943793
163295.810756,-4663.297435,-13471.748144,-1302.362347
163295.811075,-2664.741391,-10288.862594,229.828649
163295.811394,592.164754,-6883.915261,1685.410096
163295.811712,2442.679609,-2072.576638,2451.505594
163295.812031,4663.297435,-4737.318029,3600.648841
163295.812350,3404.947333,-4589.276840,1149.143247
163295.812669,0.000000,-8364.327145,0.000000
163295.812988,-1258.350101,-13619.789333,-76.609550
163295.813307,-7105.977043,-13397.727550,-2451.505594
163295.813626,-4959.379811,-14656.077652,-2528.115143
163295.813944,-3034.844362,-12509.480420,-1302.362347
163295.814263,-1184.329507,-8734.430116,-383.047749
163295.814582,0.000000,-4811.338623,-2145.067394
163295.814901,2516.700203,-5255.462188,0.000000
163295.815220,3849.070898,-6809.894666,1149.143247
163295.815539,2590.720797,-8142.265362,1149.143247
163295.815858,-2960.823768,-7846.182985,-1838.629195
163295.816176,-1184.329507,-11917.315666,2451.505594
163295.816495,-3552.988522,-10140.821405,0.000000
163295.816814,-1258.350101,-9622.677246,919.314598
163295.817133,-740.205942,-7698.141797,459.657299
163295.817452,-296.082377,-7402.059420,-766.095498
163295.817771,-74.020594,-6809.894666,-3753.867940
163295.818090,-1184.329507,-9548.656652,-2604.724693
163295.818408,-1036.288319,-11917.315666,-2681.334243
163295.818727,-296.082377,-12583.501014,-842.705048
163295.819046,518.144159,-12361.439231,1455.581446
163295.819365,2294.638420,-11177.109724,4826.401637
163295.819684,4515.256246,-8956.491898,5745.716235
163295.820003,4663.297435,-4737.318029,2374.896044
163295.820322,2368.659014,-4219.173869,1225.752797
163295.820640,962.267725,-7105.977043,0.000000
163295.820959,-4515.256246,-8660.409521,-4903.011187
163295.821278,-5107.421000,-14878.139434,-3830.477490
163295.821597,-6735.874072,-15174.221811,-4060.306139
163295.821916,-5847.626942,-13471.748144,-2604.724693
163295.822235,-2442.679609,-10955.047942,-689.485948
163295.822554,3478.967927,-7179.997637,2145.067394
163295.822872,5329.482782,-5329.482782,4136.915689
163295.823191,4663.297435,-2738.761985,2374.896044
163295.823510,4071.132681,-5921.647536,-76.609550
163295.823829,1184.329507,-9548.656652,612.876398
163295.824148,-3997.112087,-11325.150913,-3677.258390
163295.824467,-3775.050304,-14656.077652,-2298.286494
163295.824786,-3627.009116,-14730.098246,-1685.410096
163295.825104,-1702.473667,-11917.315666,-766.095498
163295.825423,518.144159,-8142.265362,0.000000
163295.825742,3478.967927,-6217.729913,2068.457845
163295.826061,4663.297435,-5551.544565,2221.676944
163295.826380,5847.626942,-8290.306550,2374.896044
163295.826699,1702.473667,-7772.162391,229.828649
163295.827018,1110.308913,-11843.295072,2374.896044
163295.827336,-2368.659014,-11325.150913,536.266849
163295.827655,-2368.659014,-11325.150913,842.705048
163295.827974,-2442.679609,-9474.636058,229.828649
163295.828293,-1924.535449,-8364.327145,-153.219100
163295.828612,-2368.659014,-5995.668130,-1532.190996
163295.828931,-962.267725,-8956.491898,-2451.505594
163295.829250,-592.164754,-11547.212695,-1608.800546
163295.829568,-1258.350101,-11473.192101,-2834.553343
163295.829887,-1332.370696,-11029.068536,-3370.820191
163295.830206,2294.638420,-13619.789333,-76.609550
163295.830525,1480.411884,-9548.656652,2145.067394
163295.830844,3478.967927,-7179.997637,2987.772442
163295.831163,4293.194464,-4959.379811,2068.457845
163295.831482,4367.215058,-6587.832884,2451.505594
163295.831800,0.000000,-7772.162391,-2451.505594
163295.832119,-3552.988522,-11917.315666,-2145.067394
163295.832438,-3108.864956,-14508.036463,-2528.115143
163295.832757,-5403.503377,-14211.954086,-2528.115143
163295.833076,-5921.647536,-10140.821405,-2451.505594
163295.833395,-74.020594,-8882.471304,1455.581446
163295.833714,2368.659014,-4811.338623,2528.115143
163295.834032,4293.194464,-3330.926739,3217.601092
163295.834351,3923.091493,-3256.906145,2374.896044
163295.834670,2368.659014,-6291.750507,1455.581446
163295.834989,-2220.617826,-8956.491898,-1838.629195
163295.835308,-3701.029710,-13693.809927,-2068.457845
163295.835627,-3404.947333,-17394.839637,-76.609550
163295.835946,-3627.009116,-14211.954086,-2221.676944
163295.836264,-4737.318029,-9548.656652,0.000000
163295.836583,-666.185348,-7846.182985,-689.485948
163295.836902,1776.494261,-5995.668130,0.000000
163295.837221,2738.761985,-5477.523971,536.266849
163295.837539,2516.700203,-5995.668130,0.000000
163295.837858,0.000000,-7476.080014,-1455.581446
163295.838177,-2072.576638,-10140.821405,0.000000
163295.838496,-3552.988522,-11325.150913,612.876398
163295.838815,-666.185348,-11843.295072,-76.609550
163295.839133,-1258.350101,-11251.130318,-76.609550
163295.839452,-1776.494261,-7994.224174,995.924147
163295.839771,-370.102971,-6587.832884,-3677.258390
163295.840090,-222.061783,-8142.265362,-2528.115143
163295.840408,0.000000,-9844.739029,-2911.162892
163295.840727,0.000000,-10140.821405,0.000000
163295.841046,222.061783,-11251.130318,-1225.752797
163295.841365,0.000000,-10140.821405,0.000000
163295.841683,3552.988522,-10658.965565,5362.668486
163295.842002,4663.297435,-6217.729913,5209.449386
163295.842321,5847.626942,-5921.647536,3600.648841
163295.842640,1998.556043,-3701.029710,1072.533697
163295.842959,1036.288319,-7402.059420,-383.047749
163295.843277,-1776.494261,-11325.150913,-1915.238745
163295.843596,-3775.050304,-13397.727550,-2528.115143
163295.843915,-5995.668130,-12731.542202,-3064.381992
163295.844234,-4811.338623,-13249.686362,-153.219100
163295.844552,-4737.318029,-7772.162391,0.000000
163295.844871,2590.720797,-7550.100608,2374.896044
163295.845190,2368.659014,-2886.803174,2374.896044
163295.845509,1184.329507,-3627.009116,1838.629195
163295.845827,592.164754,-6587.832884,0.000000
163295.846146,-888.247130,-9770.718434,-1225.752797
163295.846465,-2442.679609,-13397.727550,-2374.896044
163295.846784,-3701.029710,-14730.098246,-2451.505594
163295.847103,-3627.009116,-13471.748144,-1608.800546
163295.847421,-74.020594,-12879.583391,2221.676944
163295.847740,2294.638420,-7994.224174,842.705048
163295.848059,2960.823768,-4219.173869,0.000000
163295.848378,2960.823768,-4811.338623,1225.752797
163295.848696,2368.659014,-5995.668130,0.000000
163295.849015,2294.638420,-11843.295072,-76.609550
163295.849334,-2368.659014,-11325.150913,0.000000
163295.849653,-2368.659014,-11843.295072,1378.971896
163295.849971,-1184.329507,-10140.821405,1762.019645
163295.850290,-1628.453072,-8142.265362,1072.533697
163295.850609,-74.020594,-7105.977043,-689.485948
163295.850928,-2368.659014,-5699.585753,-1838.629195
163295.851247,-888.247130,-6735.874072,-4290.134789
163295.851565,888.247130,-10436.903782,-76.609550
163295.851884,-370.102971,-13619.789333,-383.047749
163295.852203,-888.247130,-14211.954086,-153.219100
163295.852522,-1332.370696,-11843.295072,-612.876398
163295.852840,296.082377,-9992.780217,1608.800546
163295.853159,2294.638420,-7105.977043,3294.210641
163295.853478,3478.967927,-4737.318029,536.266849
163295.853797,4367.215058,-7105.977043,842.705048
163295.854115,0.000000,-7179.997637,-2221.676944
163295.854434,-3108.864956,-9844.739029,-4749.792088
163295.854753,-4737.318029,-13693.809927,-4290.134789
163295.855072,-2442.679609,-15396.283594,-1915.238745
163295.855391,-4145.153275,-12139.377449,-1225.752797
163295.855709,-666.185348,-9104.533087,1072.533697
163295.856028,2664.741391,-6069.688724,2528.115143
163295.856347,5403.503377,-5551.544565,5439.278036
163295.856666,4071.132681,-4663.297435,2451.505594
163295.856984,2590.720797,-7698.141797,459.657299
163295.857303,1702.473667,-11843.295072,-1302.362347
163295.857622,-3552.988522,-12213.398043,-2451.505594
163295.857941,-6513.812290,-11917.315666,-2451.505594
163295.858260,-3034.844362,-12731.542202,-842.705048
163295.858578,-1776.494261,-10140.821405,229.828649
163295.858897,222.061783,-7031.956449,689.485948
163295.859216,1924.535449,-5107.421000,689.485948
163295.859535,4367.215058,-6809.894666,3600.648841
163295.859853,1406.391290,-7402.059420,0.000000
163295.860172,-74.020594,-11843.295072,1149.143247
163295.860491,-2738.761985,-11103.089130,-1302.362347
163295.860810,-3849.070898,-11917.315666,0.000000
163295.861128,-3034.844362,-9326.594869,-2604.724693
163295.861447,-1850.514855,-9030.512492,-153.219100
163295.861766,-666.185348,-7328.038826,-612.876398
163295.862085,0.000000,-6735.874072,-1685.410096
163295.862404,-370.102971,-9474.636058,-1915.238745
163295.862722,-1480.411884,-10140.821405,-3064.381992
163295.863041,-2294.638420,-10732.986159,-3064.381992
163295.863360,296.082377,-13101.645173,0.000000
163295.863679,3182.885551,-13915.871710,4136.915689
163295.863997,2886.803174,-8586.388927,1378.971896
163295.864316,4663.297435,-7105.977043,3294.210641
163295.864635,3923.091493,-4219.173869,2451.505594
163295.864954,2442.679609,-5995.668130,153.219100
163295.865272,0.000000,-8512.368333,-1608.800546
163295.865591,-1850.514855,-14211.954086,-689.485948
163295.865910,-4811.338623,-14137.933492,-2068.457845
163295.866229,-5403.503377,-13397.727550,-2528.115143
163295.866548,-3627.009116,-11103.089130,-1302.362347
163295.866866,-2368.659014,-6587.832884,612.876398
163295.867185,2886.803174,-5329.482782,1762.019645
163295.867504,3552.988522,-3849.070898,2451.505594
163295.867823,2368.659014,-4515.256246,689.485948
163295.868141,0.000000,-7772.162391,-1455.581446
163295.868460,-2368.659014,-10658.965565,-2604.724693
163295.868779,-4737.318029,-13101.645173,-2451.505594
163295.869098,-3849.070898,-14508.036463,-2528.115143
163295.869416,-2664.741391,-13101.645173,-1302.362347
163295.869735,-962.267725,-9548.656652,-383.047749
163295.870054,296.082377,-5995.668130,0.000000
163295.870373,3034.844362,-4811.338623,612.876398
163295.870692,4663.297435,-5921.647536,842.705048
163295.871010,2368.659014,-6735.874072,689.485948
163295.871329,-370.102971,-8364.327145,-842.705048
163295.871648,-74.020594,-13027.624579,-76.609550
163295.871967,-2072.576638,-12657.521608,459.657299
163295.872285,-2590.720797,-10732.986159,153.219100
163295.872604,-1776.494261,-9030.512492,0.000000
163295.872923,-444.123565,-7476.080014,-383.047749
163295.873242,0.000000,-6365.771101,-1532.190996
163295.873560,0.000000,-7476.080014,-1608.800546
163295.873879,-74.020594,-9400.615463,-1915.238745
163295.874198,-74.020594,-10362.883188,-2145.067394
163295.874517,-1776.494261,-11917.315666,153.219100
163295.874836,-74.020594,-10066.800811,536.266849
163295.875154,1184.329507,-9400.615463,2451.505594
163295.875473,2368.659014,-6809.894666,2681.334243
163295.875792,2664.741391,-5107.421000,536.266849
163295.876111,666.185348,-5551.544565,-1302.362347
163295.876429,-1258.350101,-11251.130318,-1915.238745
163295.876748,-4219.173869,-13175.665768,-3753.867940
163295.877067,-5107.421000,-14211.954086,-3753.867940
163295.877386,-6513.812290,-12213.398043,-2451.505594
163295.877704,-2960.823768,-11399.171507,0.000000
163295.878023,222.061783,-6217.729913,842.705048
163295.878342,4219.173869,-4885.359217,3524.039291
163295.878661,5329.482782,-3627.009116,2681.334243
163295.878980,4145.153275,-5403.503377,1532.190996
163295.879298,2294.638420,-8882.471304,-1302.362347
163295.879617,-74.020594,-13915.871710,-1302.362347
163295.879936,-1258.350101,-15988.448347,-1302.362347
163295.880255,-3034.844362,-14359.995275,-2221.676944
163295.880573,-2442.679609,-13619.789333,-76.609550
163295.880892,0.000000,-9104.533087,2757.943793
163295.881211,592.164754,-4811.338623,612.876398
163295.881530,3478.967927,-4441.235652,1532.190996
163295.881848,3478.967927,-5921.647536,1149.143247
163295.882167,740.205942,-7550.100608,153.219100
163295.882486,-2146.597232,-9178.553681,-76.609550
163295.882805,-2442.679609,-13027.624579,-76.609550
163295.883124,-5921.647536,-11103.089130,-2221.676944
163295.883442,-4145.153275,-9548.656652,-3677.258390
163295.883761,-3552.988522,-8364.327145,0.000000
163295.884080,-74.020594,-7105.977043,-689.485948
163295.884399,-74.020594,-7624.121203,-2221.676944
163295.884717,-592.164754,-8364.327145,-2374.896044
163295.885036,-370.102971,-10214.842000,-2068.457845
163295.885355,-370.102971,-12435.459826,-1532.190996
163295.885674,-148.041188,-13619.789333,1302.362347
163295.885992,1110.308913,-11251.130318,1378.971896
163295.886311,1776.494261,-6809.894666,1149.143247
163295.886630,3552.988522,-5995.668130,3370.820191
163295.886949,4959.379811,-6513.812290,1915.238745
163295.887268,518.144159,-4885.359217,-2145.067394
163295.887586,-740.205942,-10066.800811,-1838.629195
163295.887905,-3404.947333,-12879.583391,-3064.381992
163295.888224,-4293.194464,-14730.098246,-2528.115143
163295.888543,-3627.009116,-15396.283594,-76.609550
163295.888861,-666.185348,-12435.459826,-76.609550
163295.889180,1110.308913,-8882.471304,3294.210641
163295.889499,2294.638420,-3849.070898,1608.800546
163295.889818,2960.823768,-3034.844362,2145.067394
163295.890136,2960.823768,-5403.503377,2604.724693
163295.890455,-1406.391290,-7476.080014,-2221.676944
163295.890774,-2812.782580,-12583.501014,-2757.943793
163295.891093,-4737.318029,-14063.912898,-3064.381992
163295.891412,-4663.297435,-13841.851115,-1915.238745
163295.891730,-666.185348,-12435.459826,-76.609550
163295.892049,1184.329507,-8808.450710,2145.067394
163295.892368,3775.050304,-7105.977043,2068.457845
163295.892687,3627.009116,-4737.318029,1149.143247
163295.893005,2886.803174,-5625.565159,-689.485948
163295.893324,2368.659014,-11251.130318,1455.581446
163295.893643,-1480.411884,-11325.150913,-919.314598
163295.893962,-2738.761985,-12435.459826,76.609550
163295.894280,-2442.679609,-11621.233289,0.000000
163295.894599,-1850.514855,-9474.636058,919.314598
163295.894918,-74.020594,-7402.059420,1455.581446
163295.895237,2294.638420,-7402.059420,-76.609550
163295.895556,1110.308913,-6957.935855,-76.609550
163295.895874,2294.638420,-8882.471304,-2528.115143
163295.896193,-1184.329507,-9548.656652,-4290.134789
163295.896512,-74.020594,-14211.954086,-1302.362347
163295.896831,-666.185348,-12805.562797,153.219100
163295.897149,370.102971,-11029.068536,1302.362347
163295.897468,1554.432478,-8586.388927,2604.724693
163295.897787,3701.029710,-7179.997637,4749.792088
163295.898106,2368.659014,-5107.421000,1225.752797
163295.898425,1406.391290,-7698.141797,-76.609550
163295.898743,-1554.432478,-9474.636058,-4060.306139
163295.899062,-5921.647536,-12509.480420,-4290.134789
163295.899381,-7105.977043,-12509.480420,-4903.011187
163295.899700,-4811.338623,-13323.706956,-2528.115143
163295.900018,-2886.803174,-10066.800811,76.609550
163295.900337,1184.329507,-6957.935855,1685.410096
163295.900656,3034.844362,-4145.153275,2451.505594
163295.900975,5847.626942,-7105.977043,2374.896044
163295.901293,1998.556043,-6809.894666,612.876398
163295.901612,-74.020594,-11251.130318,-383.047749
163295.901931,-2368.659014,-11177.109724,-3140.991542
163295.902250,-2664.741391,-14137.933492,-3677.258390
163295.902569,-1850.514855,-13471.748144,-2221.676944
163295.902887,-814.226536,-10584.944971,383.047749
163295.903206,1036.288319,-6587.832884,919.314598
163295.903525,3108.864956,-5033.400406,1302.362347
163295.903844,4515.256246,-5921.647536,2374.896044
163295.904162,2368.659014,-5403.503377,919.314598
163295.904481,0.000000,-7328.038826,0.000000
163295.904800,-1702.473667,-12361.439231,-76.609550
163295.905119,-3034.844362,-15396.283594,-76.609550
163295.905437,-4811.338623,-10066.800811,-1608.800546
163295.905756,-1850.514855,-10658.965565,-76.609550
163295.906075,-1924.535449,-7476.080014,-842.705048
163295.906394,-148.041188,-6587.832884,-1302.362347
163295.906713,74.020594,-7105.977043,-1532.190996
163295.907031,0.000000,-9622.677246,-76.609550
163295.907350,-666.185348,-11547.212695,-2451.505594
163295.907669,-1258.350101,-13027.624579,-1302.362347
163295.907988,-3552.988522,-10732.986159,-2451.505594
163295.908306,296.082377,-11621.233289,2451.505594
163295.908625,3478.967927,-8290.306550,2068.457845
163295.908944,3552.988522,-6587.832884,2374.896044
163295.909263,2368.659014,-5995.668130,0.000000
163295.909581,814.226536,-7402.059420,-1149.143247
163295.909900,-962.267725,-11177.109724,-2221.676944
163295.910219,-3552.988522,-13101.645173,0.000000
163295.910538,-3627.009116,-13027.624579,-1608.800546
163295.910857,-3034.844362,-11399.171507,0.000000
163295.911175,-666.185348,-8882.471304,1378.971896
163295.911494,592.164754,-4811.338623,1838.629195
163295.911813,2368.659014,-2590.720797,2451.505594
163295.912132,4071.132681,-4441.235652,1608.800546
163295.912450,222.061783,-5995.668130,-1225.752797
163295.912769,-3552.988522,-9548.656652,-3677.258390
163295.913088,-1850.514855,-14211.954086,-1302.362347
163295.913407,-4441.235652,-14434.015869,-1378.971896
163295.913725,-3923.091493,-13545.768739,-1225.752797
163295.914044,-1406.391290,-10510.924376,-76.609550
163295.914363,814.226536,-7179.997637,766.095498
163295.914682,3330.926739,-4219.173869,2145.067394
163295.915001,3552.988522,-4959.379811,1225.752797
163295.915319,2886.803174,-7105.977043,-76.609550
163295.915638,-74.020594,-9178.553681,-2528.115143
163295.915957,-2960.823768,-12065.356855,-919.314598
163295.916276,-2442.679609,-14211.954086,-2528.115143
163295.916594,-3404.947333,-12805.562797,-689.485948
163295.916913,-2220.617826,-9770.718434,-536.266849
163295.917232,-296.082377,-7328.038826,-229.828649
163295.917551,1110.308913,-6069.688724,-229.828649
163295.917869,2812.782580,-8290.306550,1455.581446
163295.918188,2294.638420,-9326.594869,0.000000
163295.918507,2294.638420,-12287.418637,-76.609550
163295.918826,518.144159,-12435.459826,-229.828649
163295.919145,0.000000,-11621.233289,1225.752797
163295.919463,-370.102971,-8438.347739,383.047749
163295.919782,1628.453072,-7550.100608,2911.162892
163295.920101,2072.576638,-5625.565159,1532.190996
163295.920420,1332.370696,-5699.585753,-689.485948
163295.920738,-74.020594,-9474.636058,-689.485948
163295.921057,-74.020594,-13619.789333,-2145.067394
163295.921376,-3404.947333,-14952.160028,-1455.581446
163295.921695,-4811.338623,-14137.933492,-1915.238745
163295.922013,-4663.297435,-10732.986159,-1608.800546
163295.922332,-2072.576638,-8364.327145,2451.505594
163295.922651,222.061783,-3627.009116,1225.752797
163295.922970,3478.967927,-3849.070898,2681.334243
163295.923289,2960.823768,-4441.235652,1225.752797
163295.923607,814.226536,-7698.141797,-1072.533697
163295.923926,-74.020594,-11843.295072,-2987.772442
163295.924245,-3552.988522,-14285.974681,-3677.258390
163295.924564,-3034.844362,-16580.613101,-1915.238745
163295.924882,-3627.009116,-14211.954086,-1302.362347
163295.925201,-814.226536,-9030.512492,-995.924147
163295.925520,3552.988522,-8216.285956,4213.525239
163295.925839,4293.194464,-4219.173869,2451.505594
163295.926157,4959.379811,-5181.441594,2528.115143
163295.926476,3182.885551,-6735.874072,1991.848295
163295.926795,370.102971,-9474.636058,612.876398
163295.927114,-2960.823768,-11325.150913,0.000000
163295.927433,-3034.844362,-13767.830521,536.266849
163295.927751,-1850.514855,-13027.624579,2374.896044
163295.928070,-2442.679609,-8586.388927,-689.485948
163295.928389,-2072.576638,-5107.421000,-1838.629195
163295.928708,2294.638420,-8882.471304,-76.609550
163295.929026,0.000000,-6735.874072,-1762.019645
163295.929345,-148.041188,-8956.491898,-2374.896044
163295.929664,-962.267725,-11177.109724,-1915.238745
163295.929983,-1184.329507,-12213.398043,-919.314598
163295.930301,-1184.329507,-11917.315666,1378.971896
163295.930620,0.000000,-9548.656652,2451.505594
163295.930939,3182.885551,-8586.388927,2987.772442
163295.931258,1776.494261,-4811.338623,536.266849
163295.931577,0.000000,-3627.009116,-3370.820191
163295.931895,1110.308913,-9474.636058,-1455.581446
163295.932214,-1776.494261,-11917.315666,-2451.505594
163295.932533,-3849.070898,-13841.851115,-3294.210641
163295.932852,-4293.194464,-13841.851115,-2068.457845
163295.933170,-1628.453072,-12509.480420,1072.533697
163295.933489,0.000000,-7179.997637,612.876398
163295.933808,2516.700203,-5551.544565,3370.820191
163295.934127,4663.297435,-3849.070898,3677.258390
163295.934446,5255.462188,-6513.812290,2987.772442
163295.934764,0.000000,-5995.668130,0.000000
163295.935083,-962.267725,-11251.130318,-1838.629195
163295.935402,-3627.009116,-13693.809927,-2145.067394
163295.935721,-3923.091493,-14211.954086,-1838.629195
163295.936040,-2442.679609,-10881.027347,-1915.238745
163295.936358,-592.164754,-8068.244768,76.609550
163295.936677,0.000000,-4811.338623,766.095498
163295.936996,2442.679609,-4219.173869,0.000000
163295.937315,4441.235652,-7994.224174,2374.896044
163295.937634,2294.638420,-9474.636058,-76.609550
163295.937953,-2368.659014,-10140.821405,0.000000
163295.938271,-3256.906145,-12435.459826,-1072.533697
163295.938590,-4441.235652,-12509.480420,-919.314598
163295.938909,-3256.906145,-10732.986159,-536.266849
163295.939228,-3108.864956,-6291.750507,-2451.505594
163295.939547,-1554.432478,-5107.421000,-1915.238745
163295.939866,-1554.432478,-3923.091493,-3370.820191
163295.940184,444.123565,-6957.935855,-2068.457845
163295.940503,1628.453072,-9992.780217,-2451.505594
163295.940822,1702.473667,-13619.789333,-76.609550
163295.941141,1036.288319,-13841.851115,-76.609550
163295.941460,-1036.288319,-11029.068536,383.047749
163295.941779,888.247130,-9918.759623,2145.067394
163295.942097,2146.597232,-6883.915261,2068.457845
163295.942416,1184.329507,-4811.338623,1225.752797
163295.942735,1184.329507,-5403.503377,0.000000
163295.943054,-2368.659014,-6587.832884,-2451.505594
163295.943373,-2072.576638,-11325.150913,-2451.505594
163295.943692,-3182.885551,-13175.665768,-3677.258390
163295.944010,-3627.009116,-12435.459826,-2528.115143
163295.944329,-2960.823768,-11325.150913,229.828649
163295.944648,-962.267725,-7698.141797,995.924147
163295.944967,1554.432478,-5329.482782,1991.848295
163295.945286,2590.720797,-4145.153275,2298.286494
163295.945605,1184.329507,-5107.421000,0.000000
163295.945923,-2368.659014,-6291.750507,-2757.943793
163295.946242,-4145.153275,-11029.068536,-4290.134789
163295.946561,-3034.844362,-15396.283594,-1302.362347
163295.946880,-1850.514855,-15470.304188,-2528.115143
163295.947199,-74.020594,-13027.624579,-383.047749
163295.947518,296.082377,-8660.409521,612.876398
163295.947836,2664.741391,-5699.585753,1608.800546
163295.948155,4145.153275,-4441.235652,1685.410096
163295.948474,5477.523971,-6883.915261,4290.134789
163295.948793,2590.720797,-9326.594869,995.924147
163295.949112,-666.185348,-11251.130318,-383.047749
163295.949431,-4145.153275,-12657.521608,-2451.505594
163295.949749,-4737.318029,-12213.398043,0.000000
163295.950068,-74.020594,-11547.212695,-76.609550
163295.950387,-888.247130,-8290.306550,919.314598
163295.950706,-222.061783,-5773.606348,0.000000
163295.951025,1036.288319,-5699.585753,-459.657299
163295.951343,1480.411884,-7328.038826,-383.047749
163295.951662,0.000000,-8364.327145,-2145.067394
163295.951981,-666.185348,-11843.295072,-1302.362347
163295.952300,-1702.473667,-12213.398043,-383.047749
163295.952619,-1850.514855,-11843.295072,689.485948
163295.952938,148.041188,-9548.656652,306.438199
163295.953256,1110.308913,-6439.791695,-76.609550
163295.953575,2294.638420,-5773.606348,-229.828649
163295.953894,0.000000,-5995.668130,-1838.629195
163295.954213,-592.164754,-9548.656652,-4290.134789
163295.954532,-1998.556043,-13619.789333,-2528.115143
163295.954851,-4145.153275,-14285.974681,-1225.752797
163295.955169,-4219.173869,-12805.562797,-1532.190996
163295.955488,-2368.659014,-9696.697840,306.438199
163295.955807,1036.288319,-7179.997637,1762.019645
163295.956126,2960.823768,-3256.906145,2987.772442
163295.956445,4293.194464,-3923.091493,2911.162892
163295.956764,4071.132681,-6365.771101,536.266849
163295.957082,370.102971,-9178.553681,-1302.362347
163295.957401,-4145.153275,-10140.821405,-4290.134789
163295.957720,-1850.514855,-15988.448347,-2528.115143
163295.958039,-2516.700203,-15396.283594,-306.438199
163295.958358,-1258.350101,-11621.233289,229.828649
163295.958677,1628.453072,-7476.080014,1991.848295
163295.958995,3034.844362,-4737.318029,1838.629195
163295.959314,3627.009116,-4811.338623,3064.381992
163295.959633,2590.720797,-5625.565159,919.314598
163295.959952,814.226536,-9474.636058,-76.609550
163295.960271,-4145.153275,-10436.903782,-2451.505594
163295.960590,-5773.606348,-13101.645173,-1762.019645
163295.960908,-4811.338623,-11547.212695,-3140.991542
163295.961227,-3330.926739,-9918.759623,-229.828649
163295.961546,-1850.514855,-7624.121203,-459.657299
163295.961865,-370.102971,-5921.647536,-1072.533697
163295.962184,518.144159,-7105.977043,-383.047749
163295.962503,2294.638420,-9474.636058,-76.609550
163295.962821,2294.638420,-11843.295072,-76.609550
163295.963140,1110.308913,-13027.624579,-689.485948
163295.963459,-2072.576638,-12139.377449,-612.876398
163295.963778,-1184.329507,-11325.150913,2451.505594
163295.964097,-1776.494261,-7179.997637,0.000000
163295.964416,2368.659014,-7254.018232,1532.190996
163295.964734,2294.638420,-5551.544565,1072.533697
163295.965053,2072.576638,-6957.935855,-153.219100
163295.965372,2294.638420,-10658.965565,-76.609550
163295.965691,-74.020594,-14137.933492,-76.609550
163295.966010,-2442.679609,-13619.789333,-689.485948
163295.966329,-3775.050304,-11473.192101,-689.485948
163295.966647,-4589.276840,-7772.162391,0.000000
163295.966966,1332.370696,-8660.409521,4443.353888
163295.967285,1184.329507,-4219.173869,1685.410096
163295.967604,2294.638420,-4293.194464,1532.190996
163295.967923,814.226536,-6883.915261,-766.095498
163295.968242,-1702.473667,-10214.842000,-2451.505594
163295.968560,-3627.009116,-13175.665768,-3524.039291
163295.968879,-4737.318029,-15174.221811,-2451.505594
163295.969198,-3627.009116,-13841.851115,-1302.362347
163295.969517,-2442.679609,-8882.471304,-1838.629195
163295.969836,0.000000,-5995.668130,383.047749
163295.970155,5847.626942,-7105.977043,3600.648841
163295.970473,3701.029710,-4811.338623,766.095498
163295.970792,2294.638420,-7179.997637,306.438199
163295.971111,-222.061783,-9622.677246,-995.924147
163295.971430,-2072.576638,-12361.439231,0.000000
163295.971749,-2886.803174,-13101.645173,0.000000
163295.972068,-2368.659014,-12731.542202,0.000000
163295.972386,-296.082377,-11251.130318,1608.800546
163295.972705,-74.020594,-7105.977043,995.924147
163295.973024,0.000000,-3034.844362,0.000000
163295.973343,4071.132681,-6809.894666,-76.609550
163295.973662,1776.494261,-7179.997637,0.000000
163295.973981,814.226536,-9844.739029,-766.095498
163295.974299,-518.144159,-12139.377449,-612.876398
163295.974618,148.041188,-14582.057057,2374.896044
163295.974937,-592.164754,-11917.315666,0.000000
163295.975256,1480.411884,-10658.965565,2834.553343
163295.975575,1110.308913,-7105.977043,536.266849
163295.975894,740.205942,-4811.338623,-1608.800546
163295.976212,0.000000,-4811.338623,0.000000
163295.976531,-74.020594,-9992.780217,-2221.676944
163295.976850,-2812.782580,-12361.439231,-2604.724693
163295.977169,-4663.297435,-12879.583391,-2451.505594
163295.977488,-4515.256246,-11843.295072,-1532.190996
163295.977807,-888.247130,-10362.883188,459.657299
163295.978125,0.000000,-5995.668130,1225.752797
163295.978444,3182.885551,-6217.729913,2374.896044
163295.978763,3478.967927,-7105.977043,2374.896044
163295.979082,814.226536,-6217.729913,-1608.800546
163295.979401,-1776.494261,-9548.656652,0.000000
163295.979720,-2294.638420,-13027.624579,-2451.505594
163295.980038,-3108.864956,-14804.118840,-1532.190996
163295.980357,-2886.803174,-13027.624579,-612.876398
163295.980676,-2220.617826,-8512.368333,0.000000
163295.980995,814.226536,-5847.626942,1455.581446
163295.981314,3552.988522,-3923.091493,2451.505594
163295.981633,2368.659014,-3627.009116,1225.752797
163295.981951,4663.297435,-8290.306550,1762.019645
163295.982270,-74.020594,-11251.130318,-76.609550
163295.982589,-4145.153275,-13397.727550,0.000000
163295.982908,-5403.503377,-13471.748144,-919.314598
163295.983227,-4737.318029,-11547.212695,-153.219100
163295.983546,-2960.823768,-8808.450710,306.438199
163295.983864,-3552.988522,-4811.338623,0.000000
163295.984183,0.000000,-4219.173869,0.000000
163295.984502,0.000000,-3627.009116,-2451.505594
163295.984821,1036.288319,-8660.409521,-766.095498
163295.985140,-370.102971,-10658.965565,-1915.238745
163295.985459,-666.185348,-13027.624579,-2604.724693
163295.985777,-2220.617826,-13397.727550,-306.438199
163295.986096,-888.247130,-11991.336260,306.438199
163295.986415,740.205942,-9030.512492,1149.143247
163295.986734,2368.659014,-7031.956449,1608.800546
163295.987053,2368.659014,-3923.091493,1225.752797
163295.987372,888.247130,-5107.421000,-1838.629195
163295.987690,592.164754,-10140.821405,0.000000
163295.988009,-666.185348,-11843.295072,-995.924147
163295.988328,-2442.679609,-9918.759623,-3294.210641
163295.988647,-74.020594,-13915.871710,-76.609550
163295.988966,-1406.391290,-8882.471304,1149.143247
163295.989285,666.185348,-6587.832884,1915.238745
163295.989603,2368.659014,-4589.276840,1991.848295
163295.989922,2368.659014,-5403.503377,1225.752797
163295.990241,814.226536,-7920.203579,-995.924147
163295.990560,-1258.350101,-10955.047942,-3140.991542
163295.990879,-4441.235652,-11399.171507,-4826.401637
163295.991198,-4737.318029,-14285.974681,-2451.505594
163295.991516,-666.185348,-14211.954086,-76.609550
163295.991835,-592.164754,-9770.718434,1838.629195
163295.992154,2220.617826,-5921.647536,1685.410096
163295.992473,3552.988522,-4145.153275,1532.190996
163295.992792,3552.988522,-5107.421000,536.266849
163295.993111,0.000000,-5995.668130,0.000000
163295.993429,-74.020594,-11547.212695,-842.705048
163295.993748,-3256.906145,-13397.727550,-2221.676944
163295.994067,-4515.256246,-13989.892304,-842.705048
163295.994386,-3627.009116,-10732.986159,-2604.724693
163295.994705,-666.185348,-7254.018232,-1762.019645
163295.995024,2294.638420,-7105.977043,-76.609550
163295.995342,1554.432478,-4441.235652,0.000000
163295.995661,1924.535449,-4811.338623,-1991.848295
163295.995980,2294.638420,-9474.636058,-76.609550
163295.996299,0.000000,-10732.986159,0.000000
163295.996618,-740.205942,-12509.480420,-689.485948
163295.996937,-2146.597232,-13027.624579,153.219100
163295.997255,-1258.350101,-10955.047942,842.705048
163295.997574,0.000000,-7402.059420,1532.190996
163295.997893,2294.638420,-7105.977043,1149.143247
163295.998212,740.205942,-4959.379811,-1225.752797
163295.998531,0.000000,-6143.709319,-2528.115143
163295.998850,-2960.823768,-9548.656652,-3294.210641
163295.999168,-1554.432478,-14211.954086,-1302.362347
163295.999487,-4145.153275,-13249.686362,-1302.362347
163295.999806,-3775.050304,-11399.171507,0.000000
163296.000125,-1480.411884,-8734.430116,689.485948
163296.000444,1036.288319,-5921.647536,1991.848295
163296.000763,2516.700203,-5107.421000,2834.553343
163296.001081,2220.617826,-5551.544565,229.828649
163296.001400,0.000000,-8882.471304,-1302.362347
163296.001719,-3552.988522,-10140.821405,-3677.258390
163296.002038,-3256.906145,-14137.933492,-2451.505594
163296.002357,-2442.679609,-13915.871710,-3907.087040
163296.002676,-1184.329507,-12879.583391,-76.609550
163296.002994,1110.308913,-9104.533087,1225.752797
163296.003313,2960.823768,-5699.585753,1915.238745
163296.003632,4885.359217,-4737.318029,2987.772442
163296.003951,5847.626942,-7698.141797,3600.648841
163296.004270,3701.029710,-10362.883188,2374.896044
163296.004589,-74.020594,-11843.295072,-689.485948
163296.004907,-3775.050304,-11917.315666,-1225.752797
163296.005226,-4145.153275,-11917.315666,612.876398
163296.005545,-4219.173869,-9548.656652,0.000000
163296.005864,-1480.411884,-7994.224174,919.314598
163296.006183,0.000000,-5551.544565,229.828649
163296.006502,1184.329507,-5477.523971,-689.485948
163296.006820,3478.967927,-8290.306550,-1302.362347
163296.007139,1036.288319,-9548.656652,-1072.533697
163296.007458,-74.020594,-12731.542202,-995.924147
163296.007777,-1850.514855,-12361.439231,-2834.553343
163296.008096,-4145.153275,-11325.150913,-1685.410096
163296.008415,-592.164754,-12213.398043,3064.381992
163296.008733,0.000000,-7179.997637,306.438199
163296.009052,2294.638420,-6439.791695,383.047749
163296.009371,2294.638420,-7031.956449,-536.266849
163296.009690,962.267725,-9030.512492,-1149.143247
163296.010009,-148.041188,-11695.253884,-2451.505594
163296.010328,-2220.617826,-12509.480420,-2145.067394
163296.010646,-2442.679609,-13027.624579,-76.609550
163296.010965,-1258.350101,-10658.965565,-229.828649
163296.011284,-1776.494261,-6883.915261,612.876398
163296.011603,4663.297435,-8290.306550,4826.401637
163296.011922,2664.741391,-4959.379811,1762.019645
163296.012241,1924.535449,-5699.585753,229.828649
163296.012559,-962.267725,-8512.368333,-1455.581446
163296.012878,-2368.659014,-11325.150913,-1838.629195
163296.013197,-4145.153275,-13397.727550,-2145.067394
163296.013516,-3034.844362,-14804.118840,-76.609550
163296.013835,-1258.350101,-11843.295072,-76.609550
163296.014154,-1184.329507,-7179.997637,689.485948
163296.014472,1184.329507,-4811.338623,76.609550
163296.014791,4663.297435,-5625.565159,1762.019645
163296.015110,1776.494261,-5625.565159,306.438199
163296.015429,148.041188,-8956.491898,-842.705048
163296.015748,-2886.803174,-11769.274478,-1608.800546
163296.016067,-4737.318029,-14285.974681,536.266849
163296.016385,-4737.318029,-12509.480420,-2451.505594
163296.016704,-4145.153275,-10140.821405,0.000000
163296.017023,-666.185348,-8512.368333,1149.143247
163296.017342,2294.638420,-7698.141797,2681.334243
163296.017661,0.000000,-3627.009116,-2451.505594
163296.017980,2886.803174,-7105.977043,-383.047749
163296.018298,1184.329507,-9178.553681,-1072.533697
163296.018617,-518.144159,-11843.295072,-612.876398
163296.018936,-1332.370696,-13101.645173,-612.876398
163296.019255,-296.082377,-11991.336260,1225.752797
163296.019574,-2368.659014,-8364.327145,612.876398
163296.019892,2072.576638,-8290.306550,2374.896044
163296.020211,4589.276840,-8734.430116,3907.087040
163296.020530,4071.132681,-7105.977043,1149.143247
163296.020849,0.000000,-7179.997637,0.000000
163296.021168,-1258.350101,-11473.192101,-1608.800546
163296.021487,-3404.947333,-12805.562797,-2068.457845
163296.021805,-4811.338623,-12287.418637,-995.924147
163296.022124,-4737.318029,-9548.656652,-1685.410096
163296.022443,-1110.308913,-7550.100608,536.266849
163296.022762,444.123565,-5107.421000,612.876398
163296.023081,592.164754,-3627.009116,612.876398
163296.023400,2886.803174,-7105.977043,-76.609550
163296.023718,-74.020594,-10658.965565,-1302.362347
163296.024037,-2368.659014,-12361.439231,-2451.505594
163296.024356,-3034.844362,-13915.871710,-2834.553343
163296.024675,-2590.720797,-14063.912898,-1685.410096
163296.024994,-962.267725,-11547.212695,0.000000
163296.025313,0.000000,-5995.668130,0.000000
163296.025631,4071.132681,-4811.338623,2221.676944
163296.025950,4663.297435,-3478.967927,229.828649
163296.026269,2664.741391,-5995.668130,612.876398
163296.026588,1702.473667,-9474.636058,1378.971896
163296.026907,-74.020594,-11843.295072,-1915.238745
163296.027226,-3256.906145,-13545.768739,-919.314598
163296.027544,-2960.823768,-12953.603985,229.828649
163296.027863,-1776.494261,-9548.656652,689.485948
163296.028182,-592.164754,-6587.832884,1762.019645
163296.028501,0.000000,-3627.009116,0.000000
163296.028820,222.061783,-3108.864956,-2221.676944
163296.029139,296.082377,-6587.832884,0.000000
163296.029457,-74.020594,-10362.883188,-76.609550
163296.029776,-1258.350101,-11547.212695,-3140.991542
163296.030095,-666.185348,-16580.613101,-76.609550
163296.030414,-3034.844362,-12583.501014,-536.266849
163296.030733,-1036.288319,-9474.636058,842.705048
163296.031052,962.267725,-6809.894666,919.314598
163296.031370,1184.329507,-5107.421000,2451.505594
163296.031689,2294.638420,-6809.894666,536.266849
163296.032008,1110.308913,-9474.636058,-995.924147
163296.032327,-1850.514855,-11547.212695,-2528.115143
163296.032646,-5921.647536,-11917.315666,-2451.505594
163296.032965,-3034.844362,-14211.954086,-76.609550
163296.033283,-2960.823768,-10436.903782,1225.752797
163296.033602,0.000000,-7105.977043,1685.410096
163296.033921,2294.638420,-5329.482782,2451.505594
163296.034240,2590.720797,-4737.318029,1608.800546
163296.034559,0.000000,-3627.009116,0.000000
163296.034878,-74.020594,-9770.718434,-1608.800546
163296.035196,-2294.638420,-13027.624579,-2834.553343
163296.035515,-3552.988522,-14582.057057,-2068.457845
163296.035834,-2812.782580,-12509.480420,-1608.800546
163296.036153,-74.020594,-11843.295072,-76.609550
163296.036472,4071.132681,-9474.636058,3600.648841
163296.036791,1998.556043,-4219.173869,919.314598
163296.037109,2664.741391,-3627.009116,0.000000
163296.037428,2886.803174,-9178.553681,2068.457845
163296.037747,-2368.659014,-9548.656652,-1838.629195
163296.038066,-3775.050304,-12731.542202,-1838.629195
163296.038385,-5403.503377,-13767.830521,-1915.238745
163296.038704,-4515.256246,-12213.398043,-919.314598
163296.039022,-2368.659014,-8808.450710,-536.266849
163296.039341,0.000000,-5847.626942,0.000000
163296.039660,2294.638420,-4737.318029,-76.609550
163296.039979,1554.432478,-4737.318029,-1302.362347
163296.040298,3478.967927,-8882.471304,-689.485948
163296.040616,2294.638420,-11843.295072,-76.609550
163296.040935,-3256.906145,-11917.315666,-2451.505594
163296.041254,-2368.659014,-13101.645173,0.000000
163296.041573,-666.185348,-12139.377449,383.047749
163296.041892,1110.308913,-9474.636058,1608.800546
163296.042211,3701.029710,-7772.162391,3600.648841
163296.042529,3849.070898,-4959.379811,1455.581446
163296.042848,3182.885551,-7105.977043,-76.609550
163296.043167,1998.556043,-8290.306550,-995.924147
163296.043486,-1628.453072,-10881.027347,-1225.752797
163296.043805,-4219.173869,-10732.986159,-3677.258390
163296.044123,-3701.029710,-12361.439231,-229.828649
163296.044442,-2516.700203,-10288.862594,76.609550
163296.044761,-666.185348,-7402.059420,1302.362347
163296.045080,814.226536,-5921.647536,1762.019645
163296.045399,2294.638420,-7105.977043,-76.609550
163296.045717,1702.473667,-9474.636058,-76.609550
163296.046036,-1850.514855,-9474.636058,-3907.087040
163296.046355,-4145.153275,-11917.315666,-3600.648841
163296.046674,-3256.906145,-14285.974681,0.000000
163296.046993,-4145.153275,-11917.315666,-1838.629195
163296.047312,74.020594,-10140.821405,1149.143247
163296.047630,2220.617826,-6587.832884,2145.067394
163296.047949,3849.070898,-4737.318029,1225.752797
163296.048268,4663.297435,-4737.318029,-76.609550
163296.048587,1850.514855,-7994.224174,0.000000
163296.048906,-74.020594,-11843.295072,-383.047749
163296.049224,-2590.720797,-13619.789333,-76.609550
163296.049543,-3034.844362,-13619.789333,-2528.115143
163296.049862,-2220.617826,-13323.706956,2528.115143
163296.050181,-1776.494261,-7179.997637,919.314598
163296.050500,1332.370696,-5699.585753,1378.971896
163296.050819,2294.638420,-4737.318029,1455.581446
163296.051137,2294.638420,-5625.565159,536.266849
163296.051456,1554.432478,-6809.894666,0.000000
163296.051775,518.144159,-11547.212695,-1302.362347
163296.052094,-1258.350101,-13471.748144,-76.609550
163296.052413,-3923.091493,-11917.315666,-2681.334243
163296.052731,-2664.741391,-11917.315666,766.095498
163296.053050,1702.473667,-10658.965565,2374.896044
163296.053369,666.185348,-6587.832884,842.705048
163296.053688,2072.576638,-4959.379811,0.000000
163296.054007,1628.453072,-6809.894666,-536.266849
163296.054326,592.164754,-10288.862594,766.095498
163296.054644,-1924.535449,-11917.315666,0.000000
163296.054963,-3478.967927,-13767.830521,-919.314598
163296.055282,-2442.679609,-13027.624579,-1302.362347
163296.055601,-4145.153275,-8956.491898,0.000000
163296.055920,0.000000,-5995.668130,0.000000
163296.056238,3478.967927,-6513.812290,1149.143247
163296.056557,2442.679609,-4885.359217,306.438199
163296.056876,1332.370696,-7624.121203,-1608.800546
163296.057195,-740.205942,-10732.986159,-2221.676944
163296.057514,-666.185348,-15396.283594,-76.609550
163296.057832,-1184.329507,-14285.974681,-3064.381992
163296.058151,-1184.329507,-12509.480420,1532.190996
163296.058470,1998.556043,-10066.800811,2374.896044
163296.058789,2294.638420,-7994.224174,2987.772442
163296.059108,592.164754,-1850.514855,612.876398
163296.059427,4071.132681,-4737.318029,536.266849
163296.059745,1702.473667,-7994.224174,306.438199
163296.060064,-1628.453072,-11029.068536,-612.876398
163296.060383,-4145.153275,-13101.645173,-1455.581446
163296.060702,-4071.132681,-14211.954086,-536.266849
163296.061021,-5921.647536,-10140.821405,-1225.752797
163296.061339,-1036.288319,-8734.430116,919.314598
163296.061658,1702.473667,-8290.306550,2374.896044
163296.061977,1998.556043,-5329.482782,-76.609550
163296.062296,0.000000,-5403.503377,612.876398
163296.062615,962.267725,-8734.430116,-1685.410096
163296.062934,-518.144159,-10955.047942,-2451.505594
163296.063252,-1628.453072,-13471.748144,-1838.629195
163296.063571,-3552.988522,-12509.480420,-2987.772442
163296.063890,-2368.659014,-10732.986159,-1072.533697
163296.064209,0.000000,-8068.244768,1838.629195
163296.064528,1184.329507,-4811.338623,1225.752797
163296.064846,4737.318029,-6291.750507,1762.019645
163296.065165,4663.297435,-9474.636058,2374.896044
163296.065484,740.205942,-10436.903782,0.000000
163296.065803,-1850.514855,-11843.295072,-1608.800546
163296.066122,-3775.050304,-12879.583391,-1378.971896
163296.066441,-3997.112087,-11843.295072,-229.828649
163296.066759,-4737.318029,-7476.080014,0.000000
163296.067078,0.000000,-5477.523971,995.924147
163296.067397,222.061783,-3330.926739,0.000000
163296.067716,1184.329507,-4811.338623,0.000000
163296.068035,1110.308913,-8882.471304,-76.609550
163296.068353,-74.020594,-10066.800811,-3753.867940
163296.068672,-2960.823768,-13619.789333,-2528.115143
163296.068991,-3182.885551,-14359.995275,-1915.238745
163296.069310,-2294.638420,-12213.398043,-842.705048
163296.069629,0.000000,-9178.553681,1915.238745
163296.069948,2368.659014,-5995.668130,1838.629195
163296.070266,592.164754,-2442.679609,0.000000
163296.070585,3256.906145,-6587.832884,689.485948
163296.070904,-74.020594,-8216.285956,-1302.362347
163296.071223,-4737.318029,-9548.656652,-4903.011187
163296.071542,-1258.350101,-14211.954086,-1302.362347
163296.071860,-3552.988522,-13397.727550,-766.095498
163296.072179,-1776.494261,-10362.883188,1302.362347
163296.072498,370.102971,-7476.080014,1762.019645
163296.072817,3256.906145,-6291.750507,3983.696590
163296.073136,3108.864956,-5033.400406,995.924147
163296.073454,2294.638420,-5625.565159,-689.485948
163296.073773,0.000000,-7254.018232,-3677.258390
163296.074092,-1776.494261,-12509.480420,-919.314598
163296.074411,-666.185348,-15396.283594,-383.047749
163296.074730,-1776.494261,-14137.933492,536.266849
163296.075049,-1184.329507,-9918.759623,612.876398
163296.075367,444.123565,-7105.977043,1685.410096
163296.075686,2294.638420,-5329.482782,1608.800546
163296.076005,592.164754,-3627.009116,612.876398
163296.076324,1702.473667,-7254.018232,-76.609550
163296.076643,-592.164754,-10436.903782,-1149.143247
163296.076961,-3552.988522,-12065.356855,-2528.115143
163296.077280,-5403.503377,-13101.645173,-3907.087040
163296.077599,-4959.379811,-11917.315666,-2987.772442
163296.077918,-1258.350101,-10658.965565,-689.485948
163296.078237,0.000000,-6587.832884,0.000000
163296.078556,2886.803174,-6291.750507,0.000000
163296.078874,2590.720797,-7105.977043,-76.609550
163296.079193,888.247130,-8956.491898,0.000000
163296.079512,-666.185348,-10881.027347,-2451.505594
163296.079831,-1406.391290,-13249.686362,-1838.629195
163296.080150,-1258.350101,-13693.809927,0.000000
163296.080468,0.000000,-10436.903782,1149.143247
163296.080787,2886.803174,-9178.553681,2374.896044
163296.081106,3182.885551,-5403.503377,1149.143247
163296.081425,3552.988522,-3034.844362,0.000000
163296.081744,1184.329507,-5403.503377,0.000000
163296.082063,-74.020594,-9474.636058,-1302.362347
163296.082381,-1924.535449,-13175.665768,-1302.362347
163296.082700,-3849.070898,-13545.768739,-1302.362347
163296.083019,-3627.009116,-12657.521608,0.000000
163296.083338,-1776.494261,-9548.656652,842.705048
163296.083657,888.247130,-7179.997637,3370.820191
163296.083975,1480.411884,-3997.112087,1532.190996
163296.084294,1406.391290,-4145.153275,-76.609550
163296.084613,0.000000,-4811.338623,-1532.190996
163296.084932,0.000000,-10436.903782,-1838.629195
163296.085251,-2738.761985,-11325.150913,-5822.325785
163296.085569,-3923.091493,-14952.160028,-2451.505594
163296.085888,-3775.050304,-14285.974681,-1608.800546
163296.086207,-1998.556043,-10807.006753,-306.438199
163296.086526,666.185348,-7994.224174,-76.609550
163296.086845,3478.967927,-7105.977043,2374.896044
163296.087164,4589.276840,-6735.874072,2757.943793
163296.087482,4367.215058,-8882.471304,1762.019645
163296.087801,666.185348,-8882.471304,-153.219100
163296.088120,-2072.576638,-12213.398043,0.000000
163296.088439,-5921.647536,-11917.315666,-1838.629195
163296.088758,-3552.988522,-11695.253884,-153.219100
163296.089076,-1406.391290,-8882.471304,1072.533697
163296.089395,666.185348,-7179.997637,842.705048
163296.089714,2294.638420,-5921.647536,1762.019645
163296.090033,1702.473667,-5995.668130,0.000000
163296.090352,1110.308913,-9474.636058,-229.828649
163296.090671,-1258.350101,-11251.130318,-1915.238745
163296.090989,-2442.679609,-12731.542202,-3294.210641
163296.091308,-1628.453072,-15322.262999,1455.581446
163296.091627,-2368.659014,-10140.821405,76.609550
163296.091946,592.164754,-8216.285956,1455.581446
163296.092265,2294.638420,-5403.503377,1455.581446
163296.092583,2294.638420,-4885.359217,229.828649
163296.092902,1702.473667,-6365.771101,-919.314598
163296.093221,-518.144159,-11251.130318,-689.485948
163296.093540,-2442.679609,-13027.624579,-459.657299
163296.093859,-3923.091493,-12435.459826,-3294.210641
163296.094178,-4737.318029,-11917.315666,0.000000
163296.094496,-74.020594,-10658.965565,-76.609550
163296.094815,592.164754,-6587.832884,1225.752797
163296.095134,2664.741391,-4811.338623,1072.533697
163296.095453,3256.906145,-5255.462188,536.266849
163296.095772,2960.823768,-7476.080014,1532.190996
163296.096090,888.247130,-10732.986159,0.000000
163296.096409,-740.205942,-13841.851115,-1838.629195
163296.096728,-74.020594,-16580.613101,-76.609550
163296.097047,-3034.844362,-12435.459826,-1149.143247
163296.097366,-2368.659014,-8364.327145,0.000000
163296.097684,2294.638420,-7105.977043,2374.896044
163296.098003,3256.906145,-4811.338623,1762.019645
163296.098322,3923.091493,-4885.359217,1302.362347
163296.098641,2516.700203,-7105.977043,536.266849
163296.098960,1036.288319,-12435.459826,2374.896044
163296.099279,-2960.823768,-12509.480420,-3370.820191
163296.099597,-4737.318029,-13693.809927,-306.438199
163296.099916,-3627.009116,-11843.295072,-1302.362347
163296.100235,-2812.782580,-8882.471304,-76.609550
163296.100554,-2368.659014,-4811.338623,0.000000
163296.100873,1702.473667,-5625.565159,-689.485948
163296.101191,1184.329507,-6587.832884,-1378.971896
163296.101510,0.000000,-9030.512492,-2221.676944
163296.101829,-962.267725,-11843.295072,-2374.896044
163296.102148,-370.102971,-14211.954086,-919.314598
163296.102467,-3552.988522,-12509.480420,0.000000
163296.102786,888.247130,-11843.295072,2374.896044
163296.103104,2294.638420,-9474.636058,3294.210641
163296.103423,3478.967927,-4737.318029,1762.019645
163296.103742,2960.823768,-4811.338623,1838.629195
163296.104061,2886.803174,-7105.977043,-76.609550
163296.104380,0.000000,-10510.924376,-1072.533697
163296.104698,-2516.700203,-12879.583391,-1532.190996
163296.105017,-5625.565159,-12509.480420,-3600.648841
163296.105336,-5107.421000,-11325.150913,-1225.752797
163296.105655,-2072.576638,-9252.574275,919.314598
163296.105974,1924.535449,-6661.853478,3830.477490
163296.106293,3478.967927,-4737.318029,1762.019645
163296.106611,3478.967927,-5921.647536,2374.896044
163296.106930,1776.494261,-7772.162391,306.438199
163296.107249,-666.185348,-9992.780217,-1838.629195
163296.107568,-2812.782580,-13545.768739,-3064.381992
163296.107887,-3849.070898,-14952.160028,-2298.286494
163296.108205,-4737.318029,-11325.150913,0.000000
163296.108524,-1776.494261,-8956.491898,0.000000
163296.108843,0.000000,-5403.503377,0.000000
163296.109162,2368.659014,-4811.338623,919.314598
163296.109481,3923.091493,-5625.565159,1225.752797
163296.109799,2886.803174,-7698.141797,-1302.362347
163296.110118,-1036.288319,-11029.068536,-919.314598
163296.110437,-3627.009116,-12805.562797,-2451.505594
163296.110756,-4737.318029,-13101.645173,-1608.800546
163296.111075,-3330.926739,-10881.027347,-76.609550
163296.111394,-2368.659014,-7179.997637,1225.752797
163296.111712,222.061783,-4959.379811,0.000000
163296.112031,888.247130,-4811.338623,0.000000
163296.112350,2072.576638,-6439.791695,1762.019645
163296.112669,2294.638420,-8290.306550,-3753.867940
