#time,accel_x,accel_y,accel_z
163431.235410,-666.185348,-7550.100608,-2068.457845
163431.235730,0.000000,-9104.533087,306.438199
163431.236050,-814.226536,-7476.080014,-1608.800546
163431.236370,-74.020594,-9474.636058,-76.609550
163431.236689,0.000000,-9548.656652,0.000000
163431.237009,148.041188,-9548.656652,0.000000
163431.237329,0.000000,-9252.574275,0.000000
163431.237649,0.000000,-10140.821405,2221.676944
163431.237968,0.000000,-9326.594869,-229.828649
163431.238288,-2220.617826,-7772.162391,0.000000
163431.238608,-740.205942,-8956.491898,306.438199
163431.238927,0.000000,-9548.656652,1838.629195
163431.239247,-2368.659014,-7179.997637,-2451.505594
163431.239567,-74.020594,-9474.636058,-76.609550
163431.239887,-296.082377,-9622.677246,0.000000
163431.240206,-444.123565,-9400.615463,-229.828649
163431.240526,-740.205942,-10140.821405,-383.047749
163431.240846,-1776.494261,-8956.491898,0.000000
163431.241165,-666.185348,-9474.636058,-1302.362347
163431.241485,-888.247130,-9252.574275,0.000000
163431.241805,-370.102971,-11251.130318,-76.609550
163431.242125,-2368.659014,-7772.162391,0.000000
163431.242444,-2368.659014,-7179.997637,-2451.505594
163431.242764,296.082377,-9252.574275,-383.047749
163431.243084,0.000000,-9252.574275,-689.485948
163431.243403,0.000000,-9400.615463,-459.657299
163431.243723,-74.020594,-9474.636058,-76.609550
163431.244043,1702.473667,-9474.636058,-76.609550
163431.244363,-74.020594,-9474.636058,-76.609550
163431.244682,-74.020594,-8290.306550,-1302.362347
163431.245002,0.000000,-8660.409521,0.000000
163431.245322,0.000000,-9548.656652,1838.629195
163431.245641,-1184.329507,-7772.162391,0.000000
163431.245961,0.000000,-8956.491898,76.609550
163431.246281,-222.061783,-8956.491898,0.000000
163431.246601,-370.102971,-9252.574275,76.609550
163431.246920,-74.020594,-9474.636058,-76.609550
163431.247240,-518.144159,-9992.780217,306.438199
163431.247560,1110.308913,-11251.130318,-76.609550
163431.247879,-1776.494261,-7772.162391,-919.314598
163431.248199,-888.247130,-8660.409521,0.000000
163431.248519,-1850.514855,-7698.141797,-3677.258390
163431.248839,-444.123565,-9474.636058,-459.657299
163431.249158,-518.144159,-9400.615463,-612.876398
163431.249478,-444.123565,-9622.677246,-536.266849
163431.249798,-74.020594,-9474.636058,-689.485948
163431.250117,0.000000,-8364.327145,-766.095498
163431.250437,-814.226536,-7920.203579,-1302.362347
163431.250757,0.000000,-9548.656652,0.000000
163431.251077,740.205942,-10436.903782,1838.629195
163431.251396,-74.020594,-8290.306550,-1915.238745
163431.251716,1702.473667,-9474.636058,-76.609550
163431.252036,0.000000,-8882.471304,-153.219100
163431.252355,518.144159,-8956.491898,153.219100
163431.252675,444.123565,-9030.512492,306.438199
163431.252995,148.041188,-8956.491898,2451.505594
163431.253315,148.041188,-9400.615463,153.219100
163431.253634,814.226536,-9770.718434,919.314598
163431.253954,1998.556043,-10658.965565,-76.609550
163431.254274,-1776.494261,-8364.327145,0.000000
163431.254593,1110.308913,-11251.130318,1762.019645
163431.254913,-1184.329507,-8734.430116,0.000000
163431.255233,-740.205942,-9252.574275,-76.609550
163431.255553,-666.185348,-9104.533087,-229.828649
163431.255872,-518.144159,-9400.615463,-76.609550
163431.256192,-3552.988522,-7179.997637,-3370.820191
163431.256512,-814.226536,-9474.636058,-689.485948
163431.256832,-1258.350101,-9474.636058,-842.705048
163431.257151,-888.247130,-9696.697840,-612.876398
163431.257471,-74.020594,-10955.047942,-842.705048
163431.257791,-74.020594,-9474.636058,-995.924147
163431.258110,1110.308913,-10955.047942,-76.609550
163431.258430,0.000000,-9326.594869,-612.876398
163431.258750,-2072.576638,-7476.080014,-1838.629195
163431.259070,592.164754,-8956.491898,1225.752797
163431.259389,0.000000,-7772.162391,0.000000
163431.259709,1554.432478,-9178.553681,306.438199
163431.260029,2294.638420,-9104.533087,459.657299
163431.260348,2738.761985,-9104.533087,536.266849
163431.260668,2812.782580,-7846.182985,-689.485948
163431.260988,1332.370696,-9474.636058,-689.485948
163431.261308,2368.659014,-10140.821405,0.000000
163431.261627,4071.132681,-10955.047942,1149.143247
163431.261947,3478.967927,-9474.636058,-76.609550
163431.262267,2664.741391,-9548.656652,1225.752797
163431.262586,4071.132681,-8956.491898,612.876398
163431.262906,4663.297435,-8734.430116,612.876398
163431.263226,4959.379811,-8364.327145,383.047749
163431.263546,4663.297435,-8660.409521,0.000000
163431.263865,4367.215058,-8364.327145,-1762.019645
163431.264185,4441.235652,-7772.162391,-3140.991542
163431.264505,4737.318029,-10436.903782,0.000000
163431.264824,4367.215058,-10066.800811,-1915.238745
163431.265144,4071.132681,-11251.130318,-1302.362347
163431.265464,4737.318029,-9548.656652,0.000000
163431.265784,6513.812290,-9400.615463,-1302.362347
163431.266103,7328.038826,-9770.718434,-612.876398
163431.266423,7254.018232,-10436.903782,-842.705048
163431.266743,4663.297435,-9548.656652,-1685.410096
163431.267062,4515.256246,-11917.315666,306.438199
163431.267382,4663.297435,-12583.501014,-76.609550
163431.267702,2368.659014,-11029.068536,306.438199
163431.268022,1184.329507,-9548.656652,1225.752797
163431.268341,5847.626942,-10658.965565,3600.648841
163431.268661,3849.070898,-6883.915261,1378.971896
163431.268981,4589.276840,-5995.668130,0.000000
163431.269300,3775.050304,-5181.441594,-612.876398
163431.269620,3923.091493,-5551.544565,-1608.800546
163431.269940,4145.153275,-6661.853478,-1991.848295
163431.270260,2960.823768,-10214.842000,-1225.752797
163431.270579,3330.926739,-13619.789333,-76.609550
163431.270899,3478.967927,-15396.283594,-76.609550
163431.271219,666.185348,-14285.974681,1225.752797
163431.271538,4663.297435,-13619.789333,3600.648841
163431.271858,1776.494261,-8290.306550,1378.971896
163431.272178,1332.370696,-5255.462188,-536.266849
163431.272498,740.205942,-4441.235652,-1532.190996
163431.272817,2220.617826,-7031.956449,689.485948
163431.273137,1998.556043,-7476.080014,612.876398
163431.273457,0.000000,-8660.409521,0.000000
163431.273776,-2368.659014,-10732.986159,-766.095498
163431.274096,-1554.432478,-11251.130318,-689.485948
163431.274416,-1258.350101,-8660.409521,-1838.629195
163431.274736,3478.967927,-10658.965565,1149.143247
163431.275055,1702.473667,-9992.780217,383.047749
163431.275375,1628.453072,-10658.965565,1378.971896
163431.275695,2072.576638,-10066.800811,2145.067394
163431.276015,2368.659014,-8364.327145,2145.067394
163431.276334,0.000000,-7105.977043,-3907.087040
163431.276654,-2960.823768,-7772.162391,-6128.763984
163431.276974,-592.164754,-11029.068536,-2757.943793
163431.277293,4663.297435,-14656.077652,2834.553343
163431.277613,2294.638420,-10140.821405,306.438199
163431.277933,2294.638420,-10658.965565,2681.334243
163431.278253,1332.370696,-7328.038826,1225.752797
163431.278572,3182.885551,-7105.977043,1072.533697
163431.278892,6069.688724,-8586.388927,3600.648841
163431.279212,5329.482782,-7624.121203,4903.011187
163431.279531,5847.626942,-7105.977043,3294.210641
163431.279851,814.226536,-4885.359217,-2834.553343
163431.280171,-4737.318029,-5995.668130,-7967.393179
163431.280491,-2738.761985,-13027.624579,-6128.763984
163431.280810,-3923.091493,-13101.645173,-7354.516781
163431.281130,-1850.514855,-14582.057057,-3907.087040
163431.281450,-962.267725,-12287.418637,-4060.306139
163431.281769,1998.556043,-11547.212695,-1685.410096
163431.282089,9400.615463,-11843.295072,4213.525239
163431.282409,13841.851115,-8142.265362,9116.536426
163431.282729,12953.603985,-2960.823768,8503.660028
163431.283048,9104.533087,-444.123565,2987.772442
163431.283368,6513.812290,-4811.338623,1532.190996
163431.283688,3552.988522,-8364.327145,1225.752797
163431.284007,2590.720797,-10955.047942,-459.657299
163431.284327,-814.226536,-13175.665768,-3370.820191
163431.284647,-2738.761985,-13323.706956,-6741.640382
163431.284967,-2738.761985,-13915.871710,-7660.954980
163431.285286,1702.473667,-14211.954086,-3140.991542
163431.285606,1998.556043,-10066.800811,-1838.629195
163431.285926,5847.626942,-10288.862594,1762.019645
163431.286245,7031.956449,-7105.977043,1455.581446
163431.286565,6735.874072,-4737.318029,3600.648841
163431.286885,6439.791695,-4071.132681,2681.334243
163431.287205,7254.018232,-6513.812290,6435.202183
163431.287524,7105.977043,-6957.935855,4749.792088
163431.287844,4959.379811,-7105.977043,1225.752797
163431.288164,962.267725,-11251.130318,-2528.115143
163431.288483,-4145.153275,-12435.459826,-4749.792088
163431.288803,-2590.720797,-14804.118840,-6511.811733
163431.289123,-5329.482782,-14285.974681,-7277.907231
163431.289443,-7105.977043,-12065.356855,-7354.516781
163431.289762,-5329.482782,-10436.903782,-4673.182538
163431.290082,-666.185348,-10658.965565,-76.609550
163431.290402,74.020594,-5847.626942,1532.190996
163431.290721,2960.823768,-4737.318029,4903.011187
163431.291041,4367.215058,-3404.947333,7201.297681
163431.291361,2368.659014,-2442.679609,7967.393179
163431.291681,1332.370696,-5699.585753,3983.696590
163431.292000,-1184.329507,-9326.594869,1838.629195
163431.292320,-2442.679609,-11843.295072,-229.828649
163431.292640,-8364.327145,-11621.233289,-6435.202183
163431.292959,-9030.512492,-16284.530724,-4979.620737
163431.293279,-10510.924376,-14285.974681,-6588.421283
163431.293599,-6957.935855,-13323.706956,-2757.943793
163431.293919,-2664.741391,-10140.821405,76.609550
163431.294238,296.082377,-7550.100608,3064.381992
163431.294558,518.144159,-2590.720797,2834.553343
163431.294878,444.123565,-2812.782580,4826.401637
163431.295197,-1776.494261,-3034.844362,2451.505594
163431.295517,-74.020594,-7105.977043,2374.896044
163431.295837,-1850.514855,-9474.636058,1762.019645
163431.296157,-5699.585753,-11695.253884,-1915.238745
163431.296476,-7105.977043,-11621.233289,-3677.258390
163431.296796,-5551.544565,-11843.295072,-4290.134789
163431.297116,-3923.091493,-13027.624579,-5286.058936
163431.297436,-7105.977043,-9548.656652,-6128.763984
163431.297755,-3627.009116,-10214.842000,-3983.696590
163431.298075,444.123565,-10066.800811,1532.190996
163431.298395,4515.256246,-8290.306550,3983.696590
163431.298714,6735.874072,-6883.915261,6052.154434
163431.299034,7031.956449,-4737.318029,5439.278036
163431.299354,4663.297435,-6513.812290,4673.182538
163431.299674,1480.411884,-7772.162391,0.000000
163431.299993,2886.803174,-12731.542202,1149.143247
163431.300313,-222.061783,-11843.295072,-1915.238745
163431.300633,-4737.318029,-10140.821405,-4290.134789
163431.300952,-4071.132681,-12287.418637,-5592.497135
163431.301272,-2886.803174,-11843.295072,-4290.134789
163431.301592,370.102971,-9548.656652,-2068.457845
163431.301912,2072.576638,-6587.832884,-2221.676944
163431.302231,4071.132681,-6809.894666,-76.609550
163431.302551,4367.215058,-8290.306550,4826.401637
163431.302871,4367.215058,-6513.812290,3294.210641
163431.303190,6513.812290,-7772.162391,4903.011187
163431.303510,7624.121203,-10362.883188,4213.525239
163431.303830,0.000000,-9548.656652,0.000000
163431.304149,-2516.700203,-12805.562797,-3753.867940
163431.304468,-4367.215058,-13841.851115,-5439.278036
163431.304788,-3627.009116,-13619.789333,-5592.497135
163431.305107,-3034.844362,-10807.006753,-5669.106685
163431.305427,-962.267725,-9992.780217,-3524.039291
163431.305746,1702.473667,-8290.306550,-689.485948
163431.306066,4367.215058,-5921.647536,612.876398
163431.306385,6513.812290,-6143.709319,4749.792088
163431.306704,8216.285956,-9178.553681,7277.907231
163431.307024,3849.070898,-5625.565159,4826.401637
163431.307343,1110.308913,-7179.997637,1685.410096
163431.307663,2368.659014,-10732.986159,3370.820191
163431.307982,1776.494261,-11695.253884,1302.362347
163431.308302,-1850.514855,-11029.068536,-1149.143247
163431.308621,-5181.441594,-13249.686362,-4979.620737
163431.308940,-7772.162391,-12435.459826,-4979.620737
163431.309260,-4811.338623,-13619.789333,-4979.620737
163431.309579,-4219.173869,-9178.553681,-3217.601092
163431.309899,-74.020594,-7698.141797,-689.485948
163431.310218,-1184.329507,-6069.688724,2145.067394
163431.310538,1406.391290,-3849.070898,3064.381992
163431.310857,2072.576638,-4219.173869,3600.648841
163431.311176,3330.926739,-7105.977043,4903.011187
163431.311496,0.000000,-8808.450710,3677.258390
163431.311815,-2146.597232,-10510.924376,2374.896044
163431.312135,-2442.679609,-13619.789333,-1302.362347
163431.312454,-4293.194464,-12805.562797,-2757.943793
163431.312774,-5921.647536,-10140.821405,-6128.763984
163431.313093,-3627.009116,-13027.624579,-4979.620737
163431.313412,-5625.565159,-11177.109724,-4673.182538
163431.313732,-4071.132681,-10436.903782,-3217.601092
163431.314051,-888.247130,-9104.533087,-689.485948
163431.314371,0.000000,-7920.203579,3064.381992
163431.314690,2368.659014,-5403.503377,1532.190996
163431.315010,2960.823768,-5107.421000,4903.011187
163431.315329,4663.297435,-6809.894666,5286.058936
163431.315648,1776.494261,-8290.306550,3600.648841
163431.315968,0.000000,-7179.997637,0.000000
163431.316287,-148.041188,-10955.047942,-76.609550
163431.316607,-1332.370696,-12213.398043,-842.705048
163431.316926,-740.205942,-12583.501014,-1991.848295
163431.317245,-1406.391290,-11325.150913,-1991.848295
163431.317565,-2368.659014,-9844.739029,-3064.381992
163431.317884,-3997.112087,-9548.656652,-5286.058936
163431.318204,-3849.070898,-9548.656652,-3294.210641
163431.318523,-592.164754,-9844.739029,766.095498
163431.318843,3478.967927,-8882.471304,2374.896044
163431.319162,0.000000,-3627.009116,0.000000
163431.319481,3627.009116,-6513.812290,2911.162892
163431.319801,2294.638420,-6439.791695,1302.362347
163431.320120,1776.494261,-8956.491898,842.705048
163431.320440,1702.473667,-9474.636058,-689.485948
163431.320759,1406.391290,-11547.212695,-1302.362347
163431.321079,148.041188,-11029.068536,-689.485948
163431.321398,1702.473667,-10658.965565,-1915.238745
163431.321717,1480.411884,-9548.656652,-1225.752797
163431.322037,1184.329507,-9548.656652,-919.314598
163431.322356,-2072.576638,-8808.450710,-3524.039291
163431.322676,-888.247130,-10436.903782,-3140.991542
163431.322995,-148.041188,-11029.068536,-995.924147
163431.323315,296.082377,-9844.739029,229.828649
163431.323634,2294.638420,-8290.306550,-76.609550
163431.323953,1924.535449,-7031.956449,3600.648841
163431.324273,2294.638420,-6513.812290,1455.581446
163431.324592,0.000000,-6291.750507,0.000000
163431.324912,-814.226536,-8364.327145,0.000000
163431.325231,-2220.617826,-5995.668130,0.000000
163431.325551,-370.102971,-9178.553681,995.924147
163431.325870,0.000000,-9770.718434,76.609550
163431.326189,-962.267725,-9992.780217,-919.314598
163431.326509,-2960.823768,-10066.800811,-2221.676944
163431.326828,-5329.482782,-11325.150913,-5056.230287
163431.327148,-7105.977043,-10140.821405,-4903.011187
163431.327467,-3108.864956,-12657.521608,-1915.238745
163431.327787,-962.267725,-13027.624579,-76.609550
163431.328106,-3552.988522,-7179.997637,-2451.505594
163431.328425,-74.020594,-8290.306550,1149.143247
163431.328745,74.020594,-5773.606348,1915.238745
163431.329064,148.041188,-5921.647536,1225.752797
163431.329384,592.164754,-7031.956449,1608.800546
163431.329703,2072.576638,-10362.883188,5362.668486
163431.330023,2072.576638,-8216.285956,3294.210641
163431.330342,2146.597232,-9326.594869,2374.896044
163431.330661,2886.803174,-12435.459826,2068.457845
163431.330981,-444.123565,-8734.430116,-1838.629195
163431.331300,-2442.679609,-11251.130318,-3753.867940
163431.331620,-5773.606348,-13027.624579,-4366.744339
163431.331939,-4589.276840,-12287.418637,-3753.867940
163431.332259,-2516.700203,-11843.295072,-1455.581446
163431.332578,-740.205942,-8956.491898,-76.609550
163431.332897,-2368.659014,-5403.503377,612.876398
163431.333217,962.267725,-5033.400406,2145.067394
163431.333536,1406.391290,-4589.276840,1838.629195
163431.333856,1332.370696,-6217.729913,766.095498
163431.334175,1110.308913,-6809.894666,842.705048
163431.334495,1628.453072,-7772.162391,1838.629195
163431.334814,3108.864956,-11695.253884,2834.553343
163431.335133,2590.720797,-11177.109724,-76.609550
163431.335453,-74.020594,-11547.212695,-2528.115143
163431.335772,-3256.906145,-13619.789333,-2987.772442
163431.336092,-7105.977043,-12509.480420,-7048.078582
163431.336411,-4219.173869,-13397.727550,-6205.373534
163431.336731,-1850.514855,-11843.295072,-2757.943793
163431.337050,814.226536,-10214.842000,-612.876398
163431.337369,2886.803174,-7179.997637,612.876398
163431.337689,4367.215058,-4589.276840,2834.553343
163431.338008,6439.791695,-4737.318029,5592.497135
163431.338328,5847.626942,-4737.318029,1762.019645
163431.338647,3034.844362,-5699.585753,2451.505594
163431.338967,5329.482782,-9474.636058,6665.030833
163431.339286,2368.659014,-9474.636058,2145.067394
163431.339605,2368.659014,-11621.233289,76.609550
163431.339925,-296.082377,-11917.315666,-1915.238745
163431.340244,-3701.029710,-12065.356855,-4903.011187
163431.340564,-7698.141797,-10732.986159,-7354.516781
163431.340883,-6735.874072,-13027.624579,-6511.811733
163431.341203,-5921.647536,-9548.656652,-4290.134789
163431.341522,-2368.659014,-8660.409521,-1378.971896
163431.341841,962.267725,-7105.977043,2221.676944
163431.342161,5551.544565,-7105.977043,4826.401637
163431.342480,2442.679609,-2368.659014,3064.381992
163431.342800,1258.350101,-5773.606348,995.924147
163431.343119,592.164754,-7994.224174,919.314598
163431.343439,0.000000,-7772.162391,612.876398
163431.343758,0.000000,-10658.965565,1149.143247
163431.344077,-2368.659014,-11917.315666,0.000000
163431.344397,-74.020594,-13249.686362,-689.485948
163431.344716,-1480.411884,-13693.809927,-1072.533697
163431.345036,-3627.009116,-11843.295072,-4979.620737
163431.345355,-4811.338623,-12805.562797,-3600.648841
163431.345675,-3182.885551,-10732.986159,-1915.238745
163431.345994,-962.267725,-8808.450710,459.657299
163431.346313,1924.535449,-6735.874072,2145.067394
163431.346633,1406.391290,-4811.338623,4366.744339
163431.346952,1702.473667,-4441.235652,2374.896044
163431.347272,0.000000,-5551.544565,612.876398
163431.347591,-888.247130,-8956.491898,1532.190996
163431.347911,-666.185348,-9178.553681,-76.609550
163431.348230,-74.020594,-9474.636058,-76.609550
163431.348549,-592.164754,-11843.295072,995.924147
163431.348869,-222.061783,-11843.295072,0.000000
163431.349188,-2664.741391,-10510.924376,-2145.067394
163431.349508,-3627.009116,-11473.192101,-1608.800546
163431.349827,-3552.988522,-11473.192101,-2145.067394
163431.350147,-2146.597232,-10955.047942,-2298.286494
163431.350466,-74.020594,-11103.089130,-76.609550
163431.350785,1110.308913,-7698.141797,-383.047749
163431.351105,0.000000,-5995.668130,0.000000
163431.351424,2886.803174,-6365.771101,1149.143247
163431.351744,-592.164754,-7402.059420,-229.828649
163431.352063,-1998.556043,-9326.594869,-1915.238745
163431.352383,-370.102971,-9844.739029,-689.485948
163431.352702,2738.761985,-11843.295072,2987.772442
163431.353021,3997.112087,-10732.986159,612.876398
163431.353341,3849.070898,-10140.821405,3370.820191
163431.353660,2738.761985,-9474.636058,1455.581446
163431.353980,-74.020594,-11029.068536,-76.609550
163431.354299,-4737.318029,-9548.656652,-4903.011187
163431.354618,-1554.432478,-10955.047942,-2145.067394
163431.354938,-296.082377,-11103.089130,-459.657299
163431.355257,1036.288319,-9918.759623,0.000000
163431.355577,370.102971,-8808.450710,536.266849
163431.355896,962.267725,-7179.997637,1378.971896
163431.356216,-2368.659014,-5699.585753,-1532.190996
163431.356535,-1184.329507,-8364.327145,0.000000
163431.356854,296.082377,-9548.656652,2757.943793
163431.357174,2294.638420,-9178.553681,4826.401637
163431.357493,0.000000,-5995.668130,1225.752797
163431.357813,4071.132681,-9178.553681,2221.676944
163431.358132,1998.556043,-7994.224174,766.095498
163431.358452,-1332.370696,-9178.553681,-2451.505594
163431.358771,-3034.844362,-11843.295072,-5592.497135
163431.359090,-2442.679609,-13619.789333,-4979.620737
163431.359410,-3997.112087,-12805.562797,-4290.134789
163431.359729,-3552.988522,-10732.986159,-2451.505594
163431.360049,962.267725,-12139.377449,-689.485948
163431.360368,2072.576638,-8660.409521,2374.896044
163431.360688,0.000000,-4811.338623,153.219100
163431.361007,1924.535449,-5921.647536,1991.848295
163431.361326,2368.659014,-7179.997637,3064.381992
163431.361646,4145.153275,-6513.812290,4673.182538
163431.361965,4663.297435,-7105.977043,3907.087040
163431.362285,3182.885551,-8808.450710,3600.648841
163431.362604,518.144159,-7994.224174,-1149.143247
163431.362924,-3552.988522,-9844.739029,-2451.505594
163431.363243,-5477.523971,-11917.315666,-6741.640382
163431.363562,-7994.224174,-11325.150913,-7354.516781
163431.363882,-4811.338623,-13841.851115,-4673.182538
163431.364201,-2664.741391,-11621.233289,-2528.115143
163431.364521,-1184.329507,-9770.718434,-612.876398
163431.364840,148.041188,-7031.956449,229.828649
163431.365160,814.226536,-5847.626942,1608.800546
163431.365479,0.000000,-4811.338623,1838.629195
163431.365798,1998.556043,-7105.977043,2987.772442
163431.366118,1406.391290,-6513.812290,3600.648841
163431.366437,0.000000,-4811.338623,1225.752797
163431.366757,3478.967927,-9474.636058,1149.143247
163431.367076,0.000000,-10288.862594,-842.705048
163431.367396,-2442.679609,-10955.047942,-3447.429741
163431.367715,-4515.256246,-13101.645173,-5209.449386
163431.368034,-4145.153275,-15396.283594,-3447.429741
163431.368354,-3849.070898,-13323.706956,-4290.134789
163431.368673,-2368.659014,-10584.944971,-2834.553343
163431.368993,-2368.659014,-7179.997637,0.000000
163431.369312,2960.823768,-8660.409521,3294.210641
163431.369632,3182.885551,-4145.153275,1762.019645
163431.369951,1332.370696,-4811.338623,2298.286494
163431.370270,1776.494261,-6735.874072,2528.115143
163431.370590,2072.576638,-7328.038826,3677.258390
163431.370909,2294.638420,-8660.409521,4826.401637
163431.371229,0.000000,-7772.162391,2451.505594
163431.371548,444.123565,-10510.924376,-153.219100
163431.371868,-2368.659014,-10362.883188,-2757.943793
163431.372187,-4959.379811,-11325.150913,-4826.401637
163431.372506,-5403.503377,-11843.295072,-5745.716235
163431.372826,-4145.153275,-10732.986159,-5822.325785
163431.373145,-2442.679609,-12731.542202,-2068.457845
163431.373465,-2146.597232,-9474.636058,-1608.800546
163431.373784,-370.102971,-7698.141797,-689.485948
163431.374104,2368.659014,-7624.121203,4290.134789
163431.374423,0.000000,-4811.338623,1225.752797
163431.374742,814.226536,-7105.977043,1608.800546
163431.375062,1850.514855,-7402.059420,3064.381992
163431.375381,3775.050304,-7846.182985,3983.696590
163431.375701,4071.132681,-8364.327145,1838.629195
163431.376020,2812.782580,-9844.739029,1149.143247
163431.376340,1110.308913,-10066.800811,-76.609550
163431.376659,-1258.350101,-10658.965565,-4060.306139
163431.376978,-3404.947333,-11103.089130,-4826.401637
163431.377298,-962.267725,-13619.789333,-1915.238745
163431.377617,-2368.659014,-10732.986159,-3064.381992
163431.377937,-1850.514855,-10436.903782,-2145.067394
163431.378256,-1406.391290,-9696.697840,-689.485948
163431.378576,0.000000,-7994.224174,612.876398
163431.378895,0.000000,-4959.379811,0.000000
163431.379214,296.082377,-7179.997637,612.876398
163431.379534,2886.803174,-9474.636058,3600.648841
163431.379853,2590.720797,-6587.832884,3294.210641
163431.380173,3330.926739,-6217.729913,3600.648841
163431.380492,5847.626942,-9474.636058,4826.401637
163431.380812,1258.350101,-8068.244768,153.219100
163431.381131,-1258.350101,-9474.636058,-1838.629195
163431.381450,-3108.864956,-11029.068536,-4443.353888
163431.381770,-4737.318029,-11917.315666,-6128.763984
163431.382089,-4737.318029,-14211.954086,-4366.744339
163431.382409,-3923.091493,-11843.295072,-4673.182538
163431.382728,-3552.988522,-11991.336260,-3064.381992
163431.383048,0.000000,-10732.986159,612.876398
163431.383367,1702.473667,-7105.977043,-383.047749
163431.383686,1850.514855,-7550.100608,2374.896044
163431.384006,1776.494261,-6143.709319,2834.553343
163431.384325,3923.091493,-5625.565159,5286.058936
163431.384645,4737.318029,-5107.421000,5286.058936
163431.384964,2072.576638,-5995.668130,4749.792088
163431.385284,1998.556043,-7994.224174,2068.457845
163431.385603,-1776.494261,-8586.388927,-919.314598
163431.385922,-5921.647536,-9548.656652,-4903.011187
163431.386242,-4737.318029,-13101.645173,-4443.353888
163431.386561,-5107.421000,-13027.624579,-7737.564530
163431.386881,-5477.523971,-13175.665768,-5132.839837
163431.387200,-3997.112087,-12361.439231,-3753.867940
163431.387520,-2220.617826,-9992.780217,-1915.238745
163431.387839,-74.020594,-8882.471304,-76.609550
163431.388158,1554.432478,-7105.977043,2068.457845
163431.388478,2294.638420,-6513.812290,4213.525239
163431.388797,4071.132681,-5921.647536,4213.525239
163431.389117,2516.700203,-4811.338623,4290.134789
163431.389436,2368.659014,-5699.585753,1225.752797
163431.389756,1998.556043,-7624.121203,229.828649
163431.390075,-1184.329507,-8882.471304,-1225.752797
163431.390394,-3478.967927,-11251.130318,-4290.134789
163431.390714,-4293.194464,-13175.665768,-5898.935335
163431.391033,-3034.844362,-16580.613101,-3753.867940
163431.391353,-3330.926739,-13693.809927,-6741.640382
163431.391672,-4145.153275,-11917.315666,-2451.505594
163431.391991,-518.144159,-11843.295072,-76.609550
163431.392311,1702.473667,-9474.636058,2068.457845
163431.392630,0.000000,-3627.009116,0.000000
163431.392950,1702.473667,-5921.647536,2374.896044
163431.393269,3923.091493,-5921.647536,5132.839837
163431.393589,6143.709319,-5403.503377,6665.030833
163431.393908,5181.441594,-6069.688724,5056.230287
163431.394227,3627.009116,-8512.368333,3370.820191
163431.394547,0.000000,-7179.997637,0.000000
163431.394866,-1628.453072,-11473.192101,-1915.238745
163431.395186,-3256.906145,-14211.954086,-2528.115143
163431.395505,-3627.009116,-15248.242405,-4979.620737
163431.395825,-7105.977043,-11917.315666,-4903.011187
163431.396144,-4663.297435,-13619.789333,-4060.306139
163431.396463,-2664.741391,-10955.047942,-2681.334243
163431.396783,-1036.288319,-7994.224174,-842.705048
163431.397102,222.061783,-4737.318029,-383.047749
163431.397422,2294.638420,-6217.729913,2068.457845
163431.397741,2516.700203,-5699.585753,3907.087040
163431.398061,3034.844362,-3775.050304,4290.134789
163431.398380,6661.853478,-7624.121203,6358.592633
163431.398699,4663.297435,-9474.636058,4826.401637
163431.399019,0.000000,-8364.327145,1225.752797
163431.399338,-1258.350101,-10362.883188,-1838.629195
163431.399658,-2442.679609,-12361.439231,-3600.648841
163431.399977,-3182.885551,-13545.768739,-4596.572988
163431.400297,-4811.338623,-12065.356855,-5898.935335
163431.400616,-5255.462188,-12361.439231,-3753.867940
163431.400935,-2442.679609,-10807.006753,-3140.991542
163431.401255,-1776.494261,-8364.327145,0.000000
163431.401574,1480.411884,-6439.791695,0.000000
163431.401894,0.000000,-4811.338623,1838.629195
163431.402213,2738.761985,-5921.647536,4136.915689
163431.402533,4515.256246,-5921.647536,5592.497135
163431.402852,4515.256246,-5921.647536,4903.011187
163431.403171,2146.597232,-6069.688724,2068.457845
163431.403491,518.144159,-9474.636058,76.609550
163431.403810,-3552.988522,-10140.821405,-2451.505594
163431.404130,-3775.050304,-13471.748144,-3830.477490
163431.404449,-3108.864956,-15914.427753,-3753.867940
163431.404769,-6143.709319,-12805.562797,-7354.516781
163431.405088,-5107.421000,-11843.295072,-6205.373534
163431.405407,-3256.906145,-11695.253884,-4060.306139
163431.405727,-888.247130,-9326.594869,-1608.800546
163431.406049,888.247130,-6587.832884,0.000000
163431.406368,3478.967927,-8290.306550,3600.648841
163431.406688,2886.803174,-7105.977043,2145.067394
163431.407007,3627.009116,-6365.771101,3907.087040
163431.407326,4737.318029,-7179.997637,5515.887586
163431.407645,5551.544565,-9474.636058,5132.839837
163431.407965,1998.556043,-7920.203579,0.000000
163431.408284,518.144159,-11843.295072,-76.609550
163431.408603,-1258.350101,-10658.965565,-2834.553343
163431.408923,-2960.823768,-12213.398043,-4290.134789
163431.409242,-3256.906145,-12509.480420,-4060.306139
163431.409561,-4145.153275,-13249.686362,-919.314598
163431.409880,-4145.153275,-10362.883188,-2528.115143
163431.410200,-1850.514855,-9326.594869,-1378.971896
163431.410519,-296.082377,-6883.915261,383.047749
163431.410838,0.000000,-4811.338623,612.876398
163431.411158,148.041188,-5995.668130,3064.381992
163431.411477,1702.473667,-6365.771101,2681.334243
163431.411796,1480.411884,-6587.832884,3677.258390
163431.412115,1776.494261,-7772.162391,3064.381992
163431.412435,1110.308913,-9474.636058,-76.609550
163431.412754,-1036.288319,-10140.821405,-919.314598
163431.413073,-3182.885551,-11547.212695,-4060.306139
163431.413393,-3330.926739,-12953.603985,-4749.792088
163431.413712,-3182.885551,-12139.377449,-3983.696590
163431.414031,-2664.741391,-11325.150913,-2834.553343
163431.414350,-666.185348,-11547.212695,-2528.115143
163431.414670,1406.391290,-10584.944971,-76.609550
163431.414989,2294.638420,-7105.977043,536.266849
163431.415308,0.000000,-5995.668130,1378.971896
163431.415628,4071.132681,-8290.306550,2374.896044
163431.415947,2368.659014,-7772.162391,3370.820191
163431.416266,2664.741391,-7476.080014,4060.306139
163431.416585,1776.494261,-8364.327145,2834.553343
163431.416905,370.102971,-8290.306550,2068.457845
163431.417224,0.000000,-8956.491898,1762.019645
163431.417543,-1258.350101,-9474.636058,-1225.752797
163431.417863,-2664.741391,-11843.295072,-2451.505594
163431.418182,-3034.844362,-12287.418637,-3753.867940
163431.418501,-4959.379811,-11621.233289,-4749.792088
163431.418821,-666.185348,-11843.295072,-1915.238745
163431.419140,-444.123565,-10140.821405,-1302.362347
163431.419459,518.144159,-8660.409521,536.266849
163431.419778,-148.041188,-6883.915261,0.000000
163431.420098,518.144159,-8956.491898,2681.334243
163431.420417,0.000000,-7476.080014,0.000000
163431.420736,1184.329507,-9548.656652,2451.505594
163431.421056,2294.638420,-9474.636058,2374.896044
163431.421375,814.226536,-7550.100608,842.705048
163431.421694,148.041188,-6587.832884,0.000000
163431.422013,2294.638420,-8882.471304,-383.047749
163431.422333,518.144159,-9474.636058,-1838.629195
163431.422652,-962.267725,-9918.759623,-2451.505594
163431.422971,-2294.638420,-12065.356855,-3217.601092
163431.423291,-2960.823768,-12361.439231,-1455.581446
163431.423610,-1406.391290,-11103.089130,-1302.362347
163431.423929,0.000000,-9548.656652,306.438199
163431.424248,592.164754,-7179.997637,1225.752797
163431.424568,-74.020594,-9474.636058,-76.609550
163431.424887,-3552.988522,-6587.832884,0.000000
163431.425206,1110.308913,-8882.471304,2451.505594
163431.425526,1924.535449,-8216.285956,2757.943793
163431.425845,1332.370696,-7920.203579,2757.943793
163431.426164,592.164754,-7105.977043,1762.019645
163431.426483,814.226536,-7105.977043,-76.609550
163431.426803,-1480.411884,-8660.409521,-2068.457845
163431.427122,-3034.844362,-8956.491898,-5056.230287
163431.427441,-4737.318029,-10732.986159,-3983.696590
163431.427761,-3552.988522,-12805.562797,-1225.752797
163431.428080,-4737.318029,-11029.068536,-4136.915689
163431.428399,-74.020594,-11399.171507,-1378.971896
163431.428719,296.082377,-9178.553681,-1072.533697
163431.429038,-444.123565,-8512.368333,-689.485948
163431.429357,-74.020594,-9178.553681,-76.609550
163431.429676,2294.638420,-9474.636058,3294.210641
163431.429996,5847.626942,-8290.306550,4213.525239
163431.430315,3552.988522,-5699.585753,3677.258390
163431.430634,4663.297435,-7920.203579,3677.258390
163431.430954,2368.659014,-7179.997637,4903.011187
163431.431273,-1110.308913,-6661.853478,-1225.752797
163431.431592,-1850.514855,-9918.759623,-2834.553343
163431.431911,-3108.864956,-11695.253884,-3600.648841
163431.432231,-3775.050304,-12509.480420,-3140.991542
163431.432550,-1258.350101,-13027.624579,-2221.676944
163431.432869,-1036.288319,-11917.315666,-612.876398
163431.433189,-74.020594,-9474.636058,-1608.800546
163431.433508,-2590.720797,-6957.935855,-3140.991542
163431.433827,-4145.153275,-7328.038826,-1838.629195
163431.434146,296.082377,-10288.862594,4519.963438
163431.434466,2146.597232,-7476.080014,3294.210641
163431.434785,3849.070898,-7550.100608,4596.572988
163431.435104,3478.967927,-7402.059420,3677.258390
163431.435424,0.000000,-5995.668130,0.000000
163431.435743,-2368.659014,-6883.915261,-2374.896044
163431.436062,-3552.988522,-10732.986159,-4366.744339
163431.436381,-5921.647536,-11325.150913,-4903.011187
163431.436701,-3997.112087,-13989.892304,-3447.429741
163431.437020,-1850.514855,-14211.954086,-1302.362347
163431.437339,-444.123565,-12435.459826,-766.095498
163431.437659,148.041188,-9104.533087,-1455.581446
163431.437978,370.102971,-7772.162391,-689.485948
163431.438297,0.000000,-8216.285956,-229.828649
163431.438617,0.000000,-6587.832884,0.000000
163431.438936,1998.556043,-7772.162391,3524.039291
163431.439255,1184.329507,-5995.668130,2451.505594
163431.439574,5255.462188,-8882.471304,5898.935335
163431.439894,2294.638420,-6957.935855,4826.401637
163431.440213,-74.020594,-8290.306550,-76.609550
163431.440532,-2368.659014,-8660.409521,-2451.505594
163431.440852,-3478.967927,-10362.883188,-4060.306139
163431.441171,-4145.153275,-11547.212695,-3370.820191
163431.441490,-3775.050304,-11695.253884,-995.924147
163431.441809,-4071.132681,-10732.986159,-2451.505594
163431.442129,-1554.432478,-8586.388927,-2528.115143
163431.442448,-3552.988522,-7772.162391,-2145.067394
163431.442767,-1998.556043,-9474.636058,-153.219100
163431.443087,-74.020594,-11843.295072,-76.609550
163431.443406,592.164754,-10732.986159,4136.915689
163431.443725,2442.679609,-8882.471304,2834.553343
163431.444044,2886.803174,-8660.409521,3677.258390
163431.444364,2368.659014,-7772.162391,3064.381992
163431.444683,0.000000,-4811.338623,0.000000
163431.445002,-1110.308913,-8364.327145,-1915.238745
163431.445322,-1332.370696,-10732.986159,-2374.896044
163431.445641,-2368.659014,-10732.986159,-2451.505594
163431.445960,-74.020594,-13323.706956,-995.924147
163431.446279,0.000000,-11917.315666,919.314598
163431.446599,-1184.329507,-9548.656652,-1838.629195
163431.446918,-74.020594,-8882.471304,-1378.971896
163431.447237,-1258.350101,-8956.491898,-995.924147
163431.447557,-592.164754,-9474.636058,153.219100
163431.447876,2294.638420,-8734.430116,2145.067394
163431.448195,3108.864956,-8586.388927,3830.477490
163431.448514,3997.112087,-7624.121203,4519.963438
163431.448834,3552.988522,-6217.729913,3753.867940
163431.449153,1406.391290,-6809.894666,2374.896044
163431.449472,962.267725,-9178.553681,-1608.800546
163431.449792,-370.102971,-11547.212695,-2604.724693
163431.450111,-2516.700203,-11473.192101,-4366.744339
163431.450430,-4441.235652,-11547.212695,-3753.867940
163431.450750,-2368.659014,-11325.150913,-2451.505594
163431.451069,-2368.659014,-9844.739029,-4213.525239
163431.451388,-1998.556043,-10288.862594,-2451.505594
163431.451707,-2886.803174,-9326.594869,-2834.553343
163431.452027,-2220.617826,-10066.800811,-1225.752797
163431.452346,814.226536,-9400.615463,2834.553343
163431.452665,4071.132681,-8142.265362,3753.867940
163431.452985,5625.565159,-8068.244768,5975.544884
163431.453304,5847.626942,-9474.636058,7277.907231
163431.453623,3182.885551,-3775.050304,2145.067394
163431.453942,0.000000,-5995.668130,1225.752797
163431.454262,-2146.597232,-8364.327145,-3830.477490
163431.454581,-3404.947333,-11547.212695,-5286.058936
163431.454900,-3478.967927,-12731.542202,-3677.258390
163431.455220,-2516.700203,-13397.727550,-2681.334243
163431.455539,-962.267725,-11547.212695,-2681.334243
163431.455858,-2812.782580,-9844.739029,-2374.896044
163431.456177,-5625.565159,-7179.997637,-3370.820191
163431.456497,-3552.988522,-8956.491898,-919.314598
163431.456816,-592.164754,-8290.306550,2681.334243
163431.457135,592.164754,-7179.997637,6435.202183
163431.457455,4145.153275,-5847.626942,5439.278036
163431.457774,3775.050304,-5995.668130,5209.449386
163431.458093,2220.617826,-6069.688724,3217.601092
163431.458412,-2368.659014,-5107.421000,-2451.505594
163431.458732,-5403.503377,-7254.018232,-6205.373534
163431.459051,-5403.503377,-12435.459826,-8044.002729
163431.459370,-7105.977043,-13249.686362,-6818.249932
163431.459690,-4737.318029,-14285.974681,-4979.620737
163431.460009,-74.020594,-15988.448347,-76.609550
163431.460328,-1776.494261,-10140.821405,-919.314598
163431.460648,-962.267725,-7550.100608,-536.266849
163431.460967,0.000000,-6587.832884,459.657299
163431.461286,2590.720797,-6957.935855,3294.210641
163431.461605,4367.215058,-5625.565159,6052.154434
163431.461925,7031.956449,-7698.141797,7277.907231
163431.462244,5255.462188,-6957.935855,5286.058936
163431.462563,2442.679609,-6809.894666,2374.896044
163431.462883,-1110.308913,-7476.080014,-1455.581446
163431.463202,-2146.597232,-12435.459826,-3753.867940
163431.463521,-6957.935855,-11621.233289,-7354.516781
163431.463840,-6069.688724,-13027.624579,-5362.668486
163431.464160,-2812.782580,-12879.583391,-3140.991542
163431.464479,0.000000,-11251.130318,-76.609550
163431.464798,1258.350101,-8068.244768,2298.286494
163431.465118,1406.391290,-6513.812290,689.485948
163431.465437,-148.041188,-7772.162391,1762.019645
163431.465756,-74.020594,-8290.306550,1149.143247
163431.466075,1406.391290,-7179.997637,1225.752797
163431.466395,5847.626942,-10658.965565,4826.401637
163431.466714,2516.700203,-9400.615463,2604.724693
163431.467033,1406.391290,-8882.471304,1455.581446
163431.467353,-1036.288319,-8512.368333,-1149.143247
163431.467672,-2368.659014,-9548.656652,-3064.381992
163431.467991,-4737.318029,-10140.821405,-6128.763984
163431.468310,-5921.647536,-10732.986159,-4903.011187
163431.468630,-1184.329507,-12213.398043,-1225.752797
163431.468949,1702.473667,-11251.130318,1378.971896
163431.469268,1702.473667,-7105.977043,-536.266849
163431.469588,2146.597232,-7698.141797,1455.581446
163431.469907,592.164754,-6439.791695,76.609550
163431.470226,888.247130,-7772.162391,459.657299
163431.470545,1776.494261,-9400.615463,2374.896044
163431.470865,1184.329507,-9548.656652,3677.258390
163431.471184,2294.638420,-8882.471304,1991.848295
163431.471503,0.000000,-8364.327145,1225.752797
163431.471823,-740.205942,-8956.491898,0.000000
163431.472142,-1258.350101,-11251.130318,-1302.362347
163431.472461,-4515.256246,-8216.285956,-6052.154434
163431.472781,-2442.679609,-10066.800811,-2221.676944
163431.473100,-1776.494261,-9622.677246,-1991.848295
163431.473419,-666.185348,-9548.656652,-612.876398
163431.473738,1110.308913,-10658.965565,-76.609550
163431.474058,0.000000,-8882.471304,1455.581446
163431.474377,-888.247130,-8438.347739,-2221.676944
163431.474696,-2960.823768,-9548.656652,-4290.134789
163431.475016,-74.020594,-13027.624579,1455.581446
163431.475335,0.000000,-8364.327145,1225.752797
163431.475654,1184.329507,-8142.265362,995.924147
163431.475973,2442.679609,-9104.533087,2451.505594
163431.476293,1110.308913,-7698.141797,1225.752797
163431.476612,-962.267725,-7254.018232,-306.438199
163431.476931,-74.020594,-9474.636058,-76.609550
163431.477251,-962.267725,-9918.759623,-1608.800546
163431.477570,-666.185348,-11843.295072,-76.609550
163431.477889,-666.185348,-8068.244768,-1991.848295
163431.478208,0.000000,-8956.491898,-612.876398
163431.478528,0.000000,-8364.327145,306.438199
163431.478847,-1184.329507,-8290.306550,-2451.505594
163431.479166,-1998.556043,-9918.759623,-1378.971896
163431.479486,-1184.329507,-11325.150913,-229.828649
163431.479805,148.041188,-10362.883188,1225.752797
163431.480124,3478.967927,-10658.965565,3600.648841
163431.480443,1184.329507,-7179.997637,3677.258390
163431.480763,3478.967927,-7698.141797,2221.676944
163431.481082,-962.267725,-6735.874072,383.047749
163431.481401,-2442.679609,-7698.141797,-2451.505594
163431.481721,-4811.338623,-7772.162391,-4366.744339
163431.482040,-3034.844362,-10955.047942,-1685.410096
163431.482359,-1998.556043,-10658.965565,-2145.067394
163431.482679,-666.185348,-10362.883188,-2068.457845
163431.482998,1702.473667,-9474.636058,-383.047749
163431.483317,-74.020594,-8586.388927,-842.705048
163431.483636,-2368.659014,-8364.327145,-2451.505594
163431.483956,518.144159,-9918.759623,0.000000
163431.484275,3478.967927,-11843.295072,2374.896044
163431.484594,148.041188,-6883.915261,0.000000
163431.484914,2886.803174,-9474.636058,2834.553343
163431.485233,3182.885551,-8216.285956,3600.648841
163431.485552,3256.906145,-6587.832884,1455.581446
163431.485871,-666.185348,-7698.141797,-995.924147
163431.486191,-1628.453072,-11843.295072,-383.047749
163431.486510,-4145.153275,-10140.821405,-2451.505594
163431.486829,-2590.720797,-10732.986159,-1762.019645
163431.487149,-1702.473667,-9992.780217,-1915.238745
163431.487468,-1702.473667,-9474.636058,-1838.629195
163431.487787,-3552.988522,-7179.997637,0.000000
163431.488106,-74.020594,-8290.306550,-1915.238745
163431.488426,0.000000,-8364.327145,0.000000
163431.488745,1702.473667,-9844.739029,0.000000
163431.489064,1702.473667,-8660.409521,1762.019645
163431.489384,3478.967927,-11251.130318,2987.772442
163431.489703,1776.494261,-8660.409521,995.924147
163431.490022,592.164754,-8512.368333,153.219100
163431.490341,-1702.473667,-9252.574275,-2834.553343
163431.490661,-4515.256246,-10140.821405,-4903.011187
163431.490980,-4145.153275,-11177.109724,-3217.601092
163431.491299,-3034.844362,-10732.986159,-2451.505594
163431.491619,0.000000,-9400.615463,-1302.362347
163431.491938,0.000000,-5995.668130,0.000000
163431.492257,2294.638420,-7105.977043,-689.485948
163431.492576,1702.473667,-8290.306550,1991.848295
163431.492896,1406.391290,-8808.450710,1149.143247
163431.493215,2146.597232,-9474.636058,2528.115143
163431.493534,1406.391290,-9030.512492,2451.505594
163431.493854,888.247130,-9622.677246,3524.039291
163431.494173,666.185348,-8956.491898,689.485948
163431.494492,518.144159,-9474.636058,-76.609550
163431.494812,-2960.823768,-8364.327145,-2451.505594
163431.495131,-4145.153275,-8956.491898,-4903.011187
163431.495450,-3627.009116,-9474.636058,-5286.058936
163431.495769,-3182.885551,-9992.780217,-1608.800546
163431.496089,-1332.370696,-8956.491898,-1149.143247
163431.496408,740.205942,-8142.265362,459.657299
163431.496727,2294.638420,-8882.471304,1762.019645
163431.497047,1702.473667,-9178.553681,2068.457845
163431.497366,0.000000,-8956.491898,766.095498
163431.497685,1110.308913,-10658.965565,-76.609550
163431.498004,0.000000,-10436.903782,0.000000
163431.498324,0.000000,-10732.986159,0.000000
163431.498643,222.061783,-10510.924376,-1455.581446
163431.498962,666.185348,-9992.780217,306.438199
163431.499282,518.144159,-9622.677246,-689.485948
163431.499601,-222.061783,-8808.450710,-1378.971896
163431.499920,-74.020594,-10436.903782,-383.047749
163431.500239,-2220.617826,-7772.162391,-1149.143247
163431.500559,0.000000,-8660.409521,0.000000
163431.500878,1258.350101,-9252.574275,2374.896044
163431.501197,2294.638420,-7402.059420,-76.609550
163431.501517,0.000000,-5995.668130,0.000000
163431.501836,518.144159,-8586.388927,-766.095498
163431.502155,0.000000,-9474.636058,-306.438199
163431.502474,-666.185348,-10584.944971,-383.047749
163431.502794,-814.226536,-10584.944971,76.609550
163431.503113,-148.041188,-10362.883188,-383.047749
163431.503432,-1776.494261,-9104.533087,0.000000
163431.503752,-1924.535449,-8364.327145,-2451.505594
163431.504071,-3552.988522,-8956.491898,-1225.752797
163431.504390,-2146.597232,-10214.842000,-689.485948
163431.504710,-3552.988522,-7179.997637,0.000000
163431.505029,-1258.350101,-8364.327145,-689.485948
163431.505348,-222.061783,-8068.244768,-383.047749
163431.505668,518.144159,-7994.224174,-76.609550
163431.505987,814.226536,-6069.688724,-842.705048
163431.506307,-74.020594,-7698.141797,-1915.238745
163431.506626,-1184.329507,-9622.677246,-2528.115143
163431.506945,-2368.659014,-9844.739029,-1838.629195
163431.507265,-1258.350101,-9918.759623,0.000000
163431.507584,2294.638420,-12657.521608,2987.772442
163431.507904,2294.638420,-10658.965565,1762.019645
163431.508223,1406.391290,-8734.430116,1991.848295
163431.508543,74.020594,-7624.121203,-306.438199
163431.508862,370.102971,-8512.368333,-306.438199
163431.509181,-3256.906145,-6587.832884,-2145.067394
163431.509501,-2442.679609,-9474.636058,-76.609550
163431.509820,-1850.514855,-7105.977043,-2604.724693
163431.510140,-1776.494261,-8660.409521,-1225.752797
163431.510459,0.000000,-7179.997637,0.000000
163431.510778,2294.638420,-9474.636058,-76.609550
163431.511098,-1036.288319,-9844.739029,-536.266849
163431.511417,-1480.411884,-10510.924376,-612.876398
163431.511737,-1332.370696,-10584.944971,-229.828649
163431.512056,0.000000,-10140.821405,1762.019645
163431.512376,518.144159,-8660.409521,2681.334243
163431.512695,2294.638420,-9474.636058,842.705048
163431.513014,-1776.494261,-7772.162391,-1455.581446
163431.513334,-4737.318029,-7179.997637,-3677.258390
163431.513653,-1776.494261,-10140.821405,-2451.505594
163431.513973,-74.020594,-10658.965565,-1302.362347
163431.514292,-1480.411884,-9252.574275,-1608.800546
163431.514612,-962.267725,-9326.594869,-1991.848295
163431.514931,296.082377,-8586.388927,0.000000
163431.515250,2516.700203,-9844.739029,2528.115143
163431.515570,1480.411884,-9548.656652,1149.143247
163431.515889,1702.473667,-9844.739029,2298.286494
163431.516209,2294.638420,-9474.636058,1762.019645
163431.516528,0.000000,-8512.368333,1302.362347
163431.516847,296.082377,-8364.327145,0.000000
163431.517167,2886.803174,-9474.636058,1608.800546
163431.517486,592.164754,-8438.347739,306.438199
163431.517806,-1258.350101,-9992.780217,-1762.019645
163431.518125,-2368.659014,-10288.862594,-2374.896044
163431.518445,-2368.659014,-11251.130318,-76.609550
163431.518764,-3330.926739,-9178.553681,-4903.011187
163431.519083,-1110.308913,-10955.047942,-1072.533697
163431.519403,-74.020594,-8882.471304,-76.609550
163431.519722,370.102971,-7105.977043,-76.609550
163431.520042,2886.803174,-9474.636058,-76.609550
163431.520361,1628.453072,-9030.512492,1302.362347
163431.520680,518.144159,-9400.615463,1378.971896
163431.521000,-814.226536,-9474.636058,536.266849
163431.521319,1110.308913,-11843.295072,2068.457845
163431.521639,0.000000,-11177.109724,-76.609550
163431.521958,-74.020594,-10658.965565,-689.485948
163431.522278,-2368.659014,-9770.718434,-3217.601092
163431.522597,-5625.565159,-8364.327145,-4903.011187
163431.522916,-1998.556043,-11843.295072,-1302.362347
163431.523236,-888.247130,-11251.130318,-459.657299
163431.523555,222.061783,-9252.574275,-842.705048
163431.523875,1480.411884,-7920.203579,1302.362347
163431.524194,2960.823768,-6809.894666,2451.505594
163431.524514,0.000000,-4811.338623,2451.505594
163431.524833,2516.700203,-8364.327145,3064.381992
163431.525152,1480.411884,-8290.306550,2451.505594
163431.525472,-74.020594,-11843.295072,1762.019645
163431.525791,-1998.556043,-10214.842000,-842.705048
163431.526111,0.000000,-11029.068536,306.438199
163431.526430,-1184.329507,-10584.944971,-1225.752797
163431.526749,-2368.659014,-10140.821405,-3217.601092
163431.527069,-4219.173869,-10510.924376,-4136.915689
163431.527388,-3997.112087,-10140.821405,-4903.011187
163431.527708,-2442.679609,-8882.471304,-2834.553343
163431.528027,-1332.370696,-9178.553681,-919.314598
163431.528347,814.226536,-8068.244768,1072.533697
163431.528666,2812.782580,-5995.668130,2374.896044
163431.528985,4663.297435,-6957.935855,2528.115143
163431.529305,3478.967927,-9178.553681,1762.019645
163431.529624,1184.329507,-9844.739029,1608.800546
163431.529944,-74.020594,-10066.800811,-76.609550
163431.530263,-74.020594,-11843.295072,-689.485948
163431.530582,-2368.659014,-10140.821405,-3677.258390
163431.530902,-74.020594,-11843.295072,-1608.800546
163431.531221,-1480.411884,-10436.903782,-2374.896044
163431.531541,-2664.741391,-10436.903782,-3140.991542
163431.531860,-2664.741391,-10436.903782,-2528.115143
163431.532180,-2516.700203,-9474.636058,-1302.362347
163431.532499,-1258.350101,-8142.265362,76.609550
163431.532818,0.000000,-5107.421000,-766.095498
163431.533138,592.164754,-7179.997637,3064.381992
163431.533457,2590.720797,-7105.977043,2987.772442
163431.533777,0.000000,-4811.338623,612.876398
163431.534096,370.102971,-8882.471304,842.705048
163431.534416,-518.144159,-9548.656652,612.876398
163431.534735,-1258.350101,-10955.047942,-459.657299
163431.535054,-1184.329507,-10362.883188,-1608.800546
163431.535374,-74.020594,-11251.130318,-3140.991542
163431.535693,-3330.926739,-11251.130318,-3140.991542
163431.536013,-3923.091493,-10658.965565,-4979.620737
163431.536332,-4145.153275,-9844.739029,-3677.258390
163431.536651,-740.205942,-11621.233289,766.095498
163431.536971,-2368.659014,-7772.162391,0.000000
163431.537290,1036.288319,-7698.141797,919.314598
163431.537610,2146.597232,-6291.750507,2604.724693
163431.537929,3034.844362,-5551.544565,3064.381992
163431.538249,3478.967927,-7105.977043,1149.143247
163431.538568,2886.803174,-10362.883188,2374.896044
163431.538887,-74.020594,-10362.883188,-76.609550
163431.539207,-1850.514855,-10732.986159,0.000000
163431.539526,-222.061783,-11399.171507,-1455.581446
163431.539846,296.082377,-12805.562797,1455.581446
163431.540165,-3997.112087,-9844.739029,-2451.505594
163431.540484,-3923.091493,-10214.842000,-2834.553343
163431.540804,-3330.926739,-9844.739029,-2451.505594
163431.541123,-1554.432478,-9770.718434,-612.876398
163431.541443,222.061783,-7698.141797,0.000000
163431.541762,1702.473667,-7698.141797,2068.457845
163431.542082,1850.514855,-6217.729913,3600.648841
163431.542401,2294.638420,-5921.647536,536.266849
163431.542720,0.000000,-7179.997637,0.000000
163431.543040,1480.411884,-12731.542202,2374.896044
163431.543359,-148.041188,-10955.047942,0.000000
163431.543679,-740.205942,-12065.356855,-229.828649
163431.543998,148.041188,-11621.233289,-76.609550
163431.544317,0.000000,-9548.656652,-2451.505594
163431.544637,-2368.659014,-7476.080014,-3064.381992
163431.544956,-1776.494261,-8364.327145,-5592.497135
163431.545276,-3552.988522,-9548.656652,-3370.820191
163431.545595,-222.061783,-11843.295072,-689.485948
163431.545915,-74.020594,-8290.306550,-76.609550
163431.546234,3478.967927,-9474.636058,1838.629195
163431.546553,2072.576638,-7105.977043,1225.752797
163431.546873,1998.556043,-6809.894666,1915.238745
163431.547192,2072.576638,-6735.874072,1072.533697
163431.547512,0.000000,-7179.997637,0.000000
163431.547831,0.000000,-9104.533087,-689.485948
163431.548151,-2368.659014,-9548.656652,0.000000
163431.548470,0.000000,-10807.006753,1225.752797
163431.548789,2368.659014,-9548.656652,1225.752797
163431.549109,2294.638420,-8882.471304,-689.485948
163431.549428,-2368.659014,-9622.677246,-2451.505594
163431.549748,-3997.112087,-9992.780217,-4290.134789
163431.550067,-3775.050304,-11251.130318,-3064.381992
163431.550386,-2738.761985,-11325.150913,-1302.362347
163431.550706,-3256.906145,-8882.471304,-1072.533697
163431.551025,-74.020594,-7698.141797,-229.828649
163431.551345,-1184.329507,-6069.688724,612.876398
163431.551664,1332.370696,-6291.750507,3064.381992
163431.551984,2294.638420,-7994.224174,0.000000
163431.552303,-74.020594,-7698.141797,-383.047749
163431.552622,-370.102971,-9326.594869,1225.752797
163431.552942,74.020594,-10214.842000,612.876398
163431.553261,1702.473667,-11177.109724,689.485948
163431.553581,2886.803174,-11843.295072,1762.019645
163431.553900,-1628.453072,-11399.171507,-1915.238745
163431.554219,-3182.885551,-11843.295072,-3524.039291
163431.554539,-2442.679609,-13027.624579,-3753.867940
163431.554858,-2442.679609,-10732.986159,-2221.676944
163431.555178,0.000000,-7179.997637,0.000000
163431.555497,2294.638420,-7994.224174,1762.019645
163431.555817,1702.473667,-6439.791695,3217.601092
163431.556136,814.226536,-4737.318029,2681.334243
163431.556455,518.144159,-6291.750507,995.924147
163431.556775,2590.720797,-9474.636058,3600.648841
163431.557094,296.082377,-8586.388927,2451.505594
163431.557414,2590.720797,-11103.089130,3600.648841
163431.557733,2294.638420,-11103.089130,1149.143247
163431.558053,518.144159,-11251.130318,-689.485948
163431.558372,-2442.679609,-10066.800811,-5286.058936
163431.558691,-6217.729913,-11695.253884,-6588.421283
163431.559011,-7402.059420,-13397.727550,-6511.811733
163431.559330,-4367.215058,-13397.727550,-3907.087040
163431.559650,-1258.350101,-13027.624579,-76.609550
163431.559969,0.000000,-7624.121203,2374.896044
163431.560288,3775.050304,-5329.482782,2068.457845
163431.560608,2368.659014,-3627.009116,3064.381992
163431.560927,2368.659014,-3627.009116,3064.381992
163431.561247,4663.297435,-7105.977043,2374.896044
163431.561566,3997.112087,-9474.636058,3907.087040
163431.561886,1480.411884,-9918.759623,2068.457845
163431.562205,1332.370696,-11843.295072,153.219100
163431.562524,148.041188,-11917.315666,-1455.581446
163431.562844,-4737.318029,-10140.821405,-3677.258390
163431.563163,-5921.647536,-11917.315666,-5515.887586
163431.563483,-5847.626942,-12287.418637,-5515.887586
163431.563802,-1554.432478,-13027.624579,-2528.115143
163431.564121,-1332.370696,-8956.491898,0.000000
163431.564441,4145.153275,-9400.615463,6358.592633
163431.564760,3849.070898,-4367.215058,4290.134789
163431.565080,3701.029710,-3034.844362,4673.182538
163431.565399,2220.617826,-3701.029710,2528.115143
163431.565719,1628.453072,-7031.956449,1225.752797
163431.566038,518.144159,-7550.100608,76.609550
163431.566357,888.247130,-10214.842000,919.314598
163431.566677,-814.226536,-13027.624579,-1455.581446
163431.566996,-1776.494261,-13397.727550,-3447.429741
163431.567316,-2442.679609,-13619.789333,-4673.182538
163431.567635,-5995.668130,-12435.459826,-6511.811733
163431.567955,-5921.647536,-12509.480420,-6128.763984
163431.568274,-2442.679609,-12139.377449,-2451.505594
163431.568593,2294.638420,-11843.295072,-76.609550
163431.568913,1776.494261,-5403.503377,4903.011187
163431.569232,5847.626942,-4589.276840,4826.401637
163431.569552,5773.606348,-3404.947333,5515.887586
163431.569871,2590.720797,-4219.173869,2681.334243
163431.570190,814.226536,-7476.080014,689.485948
163431.570510,-74.020594,-10362.883188,-76.609550
163431.570829,-74.020594,-12287.418637,-76.609550
163431.571149,-1480.411884,-12361.439231,-2451.505594
163431.571468,-888.247130,-13397.727550,0.000000
163431.571788,-1110.308913,-11695.253884,-2451.505594
163431.572107,-5921.647536,-8364.327145,-3677.258390
163431.572426,-3923.091493,-10658.965565,-4366.744339
163431.572746,-2886.803174,-10214.842000,-1991.848295
163431.573065,-666.185348,-9474.636058,766.095498
163431.573385,2146.597232,-6883.915261,1915.238745
163431.573704,2886.803174,-5329.482782,1762.019645
163431.574023,1110.308913,-5329.482782,3600.648841
163431.574343,-1776.494261,-4811.338623,0.000000
163431.574662,-1776.494261,-8068.244768,-1532.190996
163431.574982,-1258.350101,-11843.295072,-76.609550
163431.575301,-3552.988522,-10140.821405,0.000000
163431.575621,-962.267725,-12213.398043,-1302.362347
163431.575940,-296.082377,-11917.315666,-1302.362347
163431.576259,-888.247130,-10732.986159,-2068.457845
163431.576579,-3034.844362,-7994.224174,-3140.991542
163431.576898,-1850.514855,-11843.295072,-3140.991542
163431.577218,-1258.350101,-11251.130318,-1915.238745
163431.577537,0.000000,-10066.800811,383.047749
163431.577857,0.000000,-6587.832884,1225.752797
163431.578176,4515.256246,-9474.636058,6052.154434
163431.578495,1776.494261,-5995.668130,3064.381992
163431.578815,1258.350101,-6143.709319,2068.457845
163431.579134,-666.185348,-6735.874072,-459.657299
163431.579454,-1628.453072,-9400.615463,-1302.362347
163431.579773,-814.226536,-9474.636058,0.000000
163431.580092,-370.102971,-11399.171507,842.705048
163431.580412,1110.308913,-10732.986159,766.095498
163431.580731,962.267725,-11103.089130,-76.609550
163431.581051,-1850.514855,-10362.883188,-2528.115143
163431.581370,-3034.844362,-13027.624579,-1915.238745
163431.581690,-3627.009116,-10732.986159,-3294.210641
163431.582009,-814.226536,-11843.295072,-766.095498
163431.582328,814.226536,-10510.924376,1072.533697
163431.582648,0.000000,-7772.162391,612.876398
163431.582967,0.000000,-5995.668130,612.876398
163431.583287,-666.185348,-6587.832884,-2451.505594
163431.583606,-1184.329507,-8364.327145,-306.438199
163431.583925,-666.185348,-8882.471304,-1302.362347
163431.584245,1110.308913,-8290.306550,-76.609550
163431.584564,4071.132681,-11843.295072,4060.306139
163431.584884,3330.926739,-9918.759623,2451.505594
163431.585203,2812.782580,-8438.347739,1455.581446
163431.585523,222.061783,-7920.203579,-612.876398
163431.585842,-3552.988522,-9548.656652,-2451.505594
163431.586161,-4145.153275,-11103.089130,-3753.867940
163431.586481,-3997.112087,-11325.150913,-2451.505594
163431.586800,-1184.329507,-11473.192101,76.609550
163431.587120,1110.308913,-12435.459826,1762.019645
163431.587439,1702.473667,-7254.018232,536.266849
163431.587759,2368.659014,-6661.853478,3294.210641
163431.588078,1406.391290,-5477.523971,1378.971896
163431.588397,666.185348,-6587.832884,842.705048
163431.588717,592.164754,-7772.162391,2221.676944
163431.589036,0.000000,-7179.997637,1915.238745
163431.589356,-74.020594,-8290.306550,842.705048
163431.589675,-1480.411884,-8956.491898,-1455.581446
163431.589994,-5921.647536,-8364.327145,-4290.134789
163431.590314,-5921.647536,-11325.150913,-4903.011187
163431.590633,-5403.503377,-10955.047942,-7431.126331
163431.590953,-3182.885551,-13249.686362,-4519.963438
163431.591272,-1184.329507,-12287.418637,-2221.676944
163431.591592,592.164754,-10732.986159,0.000000
163431.591911,3923.091493,-9474.636058,3294.210641
163431.592230,3108.864956,-8734.430116,2374.896044
163431.592550,1850.514855,-6957.935855,2987.772442
163431.592869,1110.308913,-5329.482782,-689.485948
163431.593189,1184.329507,-7476.080014,2451.505594
163431.593508,1184.329507,-6587.832884,3677.258390
163431.593827,2886.803174,-8512.368333,1685.410096
163431.594147,1776.494261,-9622.677246,1225.752797
163431.594466,0.000000,-9622.677246,-919.314598
163431.594786,-3108.864956,-10436.903782,-3294.210641
163431.595105,-2442.679609,-13027.624579,-2528.115143
163431.595425,-3256.906145,-12213.398043,-2451.505594
163431.595744,-370.102971,-12435.459826,-689.485948
163431.596063,-1554.432478,-9326.594869,-1455.581446
163431.596383,-1184.329507,-7179.997637,-1915.238745
163431.596702,-2368.659014,-5995.668130,306.438199
163431.597022,-962.267725,-5921.647536,153.219100
163431.597341,-1850.514855,-7105.977043,-153.219100
163431.597660,-1110.308913,-8586.388927,919.314598
163431.597980,1110.308913,-7179.997637,612.876398
163431.598299,3478.967927,-9474.636058,1838.629195
163431.598619,2960.823768,-8956.491898,3064.381992
163431.598938,2886.803174,-9918.759623,1149.143247
163431.599258,-74.020594,-11843.295072,-689.485948
163431.599577,-4441.235652,-10732.986159,-6128.763984
163431.599896,-4811.338623,-11991.336260,-6818.249932
163431.600216,-3034.844362,-13545.768739,-3907.087040
163431.600535,-2220.617826,-12213.398043,-1838.629195
163431.600855,-666.185348,-10658.965565,-306.438199
163431.601174,4367.215058,-9474.636058,3600.648841
163431.601494,2516.700203,-6513.812290,2604.724693
163431.601813,1924.535449,-5033.400406,1838.629195
163431.602132,2368.659014,-5995.668130,4903.011187
163431.602452,4071.132681,-7105.977043,4826.401637
163431.602771,1998.556043,-5329.482782,1608.800546
163431.603091,2072.576638,-9178.553681,2528.115143
163431.603410,-740.205942,-9474.636058,-306.438199
163431.603729,-3182.885551,-10362.883188,-2451.505594
163431.604049,-5329.482782,-11473.192101,-4979.620737
163431.604368,-5921.647536,-14285.974681,-3677.258390
163431.604688,-4367.215058,-12435.459826,-4903.011187
163431.605007,-3182.885551,-11547.212695,-3370.820191
163431.605327,-1480.411884,-10436.903782,-1455.581446
163431.605646,0.000000,-7772.162391,0.000000
163431.605965,1998.556043,-6291.750507,1991.848295
163431.606285,2294.638420,-5329.482782,1762.019645
163431.606604,0.000000,-5699.585753,919.314598
163431.606924,2368.659014,-8364.327145,4903.011187
163431.607243,4663.297435,-10658.965565,4826.401637
163431.607562,2368.659014,-9252.574275,3370.820191
163431.607882,740.205942,-8882.471304,-76.609550
163431.608201,-1406.391290,-9770.718434,-1762.019645
163431.608520,-3478.967927,-11103.089130,-4749.792088
163431.608840,-3997.112087,-12065.356855,-4903.011187
163431.609159,-4145.153275,-12657.521608,-4596.572988
163431.609478,-1850.514855,-12435.459826,-1302.362347
163431.609798,-74.020594,-12435.459826,-76.609550
163431.610117,518.144159,-8512.368333,1149.143247
163431.610437,4071.132681,-8882.471304,2374.896044
163431.610756,296.082377,-5995.668130,2604.724693
163431.611075,296.082377,-5699.585753,1378.971896
163431.611395,1258.350101,-7624.121203,3140.991542
163431.611714,1998.556043,-8142.265362,3447.429741
163431.612033,1184.329507,-8364.327145,2681.334243
163431.612353,-74.020594,-8882.471304,-995.924147
163431.612672,-2368.659014,-8438.347739,-3753.867940
163431.612991,-4737.318029,-9844.739029,-5515.887586
163431.613311,-5329.482782,-11695.253884,-6511.811733
163431.613630,-3627.009116,-11843.295072,-6818.249932
163431.613949,-2960.823768,-12657.521608,-2987.772442
163431.614269,-296.082377,-11029.068536,-1455.581446
163431.614588,2220.617826,-9844.739029,1149.143247
163431.614908,3478.967927,-9474.636058,4213.525239
163431.615227,1924.535449,-7476.080014,5132.839837
163431.615546,1628.453072,-8290.306550,3830.477490
163431.615866,1998.556043,-7698.141797,2374.896044
163431.616185,2516.700203,-7476.080014,3677.258390
163431.616504,2368.659014,-6587.832884,2451.505594
163431.616824,2886.803174,-7698.141797,842.705048
163431.617143,222.061783,-8660.409521,0.000000
163431.617462,-1406.391290,-9030.512492,-2757.943793
163431.617782,-3404.947333,-11029.068536,-4596.572988
163431.618101,-2072.576638,-13989.892304,-4136.915689
163431.618420,-4737.318029,-11917.315666,-4596.572988
163431.618740,-3552.988522,-11917.315666,-1838.629195
163431.619059,-222.061783,-12287.418637,1225.752797
163431.619378,3478.967927,-10658.965565,3294.210641
163431.619698,0.000000,-3627.009116,1225.752797
163431.620017,518.144159,-6069.688724,1762.019645
163431.620337,296.082377,-6735.874072,1762.019645
163431.620656,1480.411884,-7179.997637,2987.772442
163431.620975,2294.638420,-7476.080014,2451.505594
163431.621295,1184.329507,-8142.265362,1072.533697
163431.621614,0.000000,-7994.224174,-919.314598
163431.621933,-1184.329507,-9400.615463,-4903.011187
163431.622253,-4145.153275,-11473.192101,-4290.134789
163431.622572,-4219.173869,-14211.954086,-5286.058936
163431.622891,-7105.977043,-11325.150913,-6128.763984
163431.623211,-3775.050304,-12731.542202,-2834.553343
163431.623530,-1184.329507,-11251.130318,-919.314598
163431.623849,1480.411884,-8956.491898,1762.019645
163431.624169,3182.885551,-4737.318029,2374.896044
163431.624488,3478.967927,-4737.318029,2987.772442
163431.624808,1480.411884,-4737.318029,2374.896044
163431.625127,1184.329507,-5403.503377,3677.258390
163431.625446,4367.215058,-7698.141797,4826.401637
163431.625766,3330.926739,-9474.636058,3600.648841
163431.626085,-2368.659014,-8364.327145,0.000000
163431.626404,-2220.617826,-9918.759623,-2528.115143
163431.626724,-3478.967927,-11103.089130,-4443.353888
163431.627043,-3775.050304,-12287.418637,-5209.449386
163431.627362,-3034.844362,-12435.459826,-5286.058936
163431.627682,-4145.153275,-13101.645173,-2911.162892
163431.628001,-1554.432478,-11843.295072,-1762.019645
163431.628320,518.144159,-9918.759623,229.828649
163431.628640,0.000000,-4811.338623,612.876398
163431.628959,4441.235652,-7920.203579,5362.668486
163431.629278,1480.411884,-5403.503377,2221.676944
163431.629598,2590.720797,-6957.935855,2681.334243
163431.629917,2812.782580,-8808.450710,2987.772442
163431.630237,1702.473667,-8364.327145,0.000000
163431.630556,518.144159,-9992.780217,-1838.629195
163431.630875,-1184.329507,-10140.821405,-1532.190996
163431.631195,-666.185348,-11325.150913,-3677.258390
163431.631514,-1776.494261,-13101.645173,-2528.115143
163431.631833,-2442.679609,-13027.624579,-3753.867940
163431.632153,-1776.494261,-13619.789333,-1608.800546
163431.632472,-2146.597232,-10510.924376,-1685.410096
163431.632791,962.267725,-10214.842000,766.095498
163431.633111,2812.782580,-7328.038826,3064.381992
163431.633430,0.000000,-4811.338623,2451.505594
163431.633749,592.164754,-5107.421000,1838.629195
163431.634069,1184.329507,-6291.750507,0.000000
163431.634388,2664.741391,-9030.512492,4903.011187
163431.634707,2590.720797,-9178.553681,3294.210641
163431.635027,-74.020594,-9474.636058,-76.609550
163431.635346,-1036.288319,-9696.697840,-306.438199
163431.635666,-2146.597232,-9844.739029,-3217.601092
163431.635985,-2738.761985,-11547.212695,-3677.258390
163431.636304,-3478.967927,-11769.274478,-4673.182538
163431.636624,-6513.812290,-10732.986159,-6128.763984
163431.636943,-3775.050304,-11251.130318,-3753.867940
163431.637262,-2368.659014,-9548.656652,-2451.505594
163431.637582,2886.803174,-10658.965565,2987.772442
163431.637901,1036.288319,-6217.729913,2374.896044
163431.638220,1776.494261,-8956.491898,4596.572988
163431.638540,962.267725,-7254.018232,1915.238745
163431.638859,1406.391290,-7698.141797,2987.772442
163431.639178,666.185348,-7624.121203,2528.115143
163431.639498,0.000000,-7772.162391,0.000000
163431.639817,-74.020594,-8364.327145,0.000000
163431.640137,-740.205942,-10066.800811,-459.657299
163431.640456,-1850.514855,-11251.130318,-2145.067394
163431.640775,-1258.350101,-11843.295072,-3140.991542
163431.641095,-3256.906145,-12213.398043,-1838.629195
163431.641414,-4737.318029,-9548.656652,-3064.381992
163431.641733,-1258.350101,-11103.089130,-995.924147
163431.642053,1110.308913,-9474.636058,1378.971896
163431.642372,1332.370696,-7550.100608,1225.752797
163431.642691,-74.020594,-8290.306550,1149.143247
163431.643011,0.000000,-7920.203579,1762.019645
163431.643330,592.164754,-7402.059420,2221.676944
163431.643649,1110.308913,-7920.203579,2068.457845
163431.643969,740.205942,-7846.182985,1149.143247
163431.644288,0.000000,-8956.491898,1532.190996
163431.644607,-1184.329507,-8364.327145,1225.752797
163431.644927,-74.020594,-9474.636058,-3447.429741
163431.645246,-2738.761985,-10510.924376,-4366.744339
163431.645566,-4219.173869,-11917.315666,-4903.011187
163431.645885,-3627.009116,-11843.295072,-4366.744339
163431.646204,-2294.638420,-12065.356855,-1762.019645
163431.646524,592.164754,-10732.986159,153.219100
163431.646843,1850.514855,-8142.265362,1072.533697
163431.647162,3701.029710,-8882.471304,2604.724693
163431.647482,2886.803174,-8290.306550,2911.162892
163431.647801,1184.329507,-7179.997637,3600.648841
163431.648120,4071.132681,-8142.265362,4826.401637
163431.648440,4663.297435,-6809.894666,1762.019645
163431.648759,0.000000,-5995.668130,612.876398
163431.649078,1702.473667,-8290.306550,536.266849
163431.649398,-814.226536,-9252.574275,-1838.629195
163431.649717,-2516.700203,-10584.944971,-4060.306139
163431.650036,-4441.235652,-12213.398043,-4979.620737
163431.650356,-4071.132681,-13619.789333,-3753.867940
163431.650675,-2590.720797,-11991.336260,-2145.067394
163431.650995,0.000000,-10658.965565,-76.609550
163431.651314,0.000000,-7179.997637,0.000000
163431.651633,1184.329507,-7031.956449,766.095498
163431.651953,-3552.988522,-4811.338623,0.000000
163431.652272,518.144159,-7698.141797,2221.676944
163431.652591,2368.659014,-8512.368333,3064.381992
163431.652911,2516.700203,-7994.224174,2681.334243
163431.653230,1258.350101,-7698.141797,1608.800546
163431.653549,1702.473667,-8290.306550,-76.609550
163431.653869,-814.226536,-9474.636058,-1915.238745
163431.654188,-2960.823768,-9844.739029,-4213.525239
163431.654507,-3552.988522,-11325.150913,-4596.572988
163431.654827,-2664.741391,-12879.583391,-1838.629195
163431.655146,-4737.318029,-10732.986159,-2451.505594
163431.655466,814.226536,-10955.047942,0.000000
163431.655785,1332.370696,-8956.491898,842.705048
163431.656104,444.123565,-6883.915261,1072.533697
163431.656424,-74.020594,-7105.977043,-76.609550
163431.656743,814.226536,-8660.409521,2451.505594
163431.657062,3478.967927,-9474.636058,2987.772442
163431.657382,1776.494261,-7179.997637,3064.381992
163431.657701,0.000000,-7179.997637,2451.505594
163431.658020,1184.329507,-8808.450710,2757.943793
163431.658340,-2738.761985,-7179.997637,-1838.629195
163431.658659,-3182.885551,-10436.903782,-3140.991542
163431.658978,-4145.153275,-11843.295072,-4213.525239
163431.659298,-4885.359217,-11843.295072,-4060.306139
163431.659617,-4367.215058,-10584.944971,-4290.134789
163431.659936,-2886.803174,-10140.821405,-1685.410096
163431.660256,814.226536,-10288.862594,-76.609550
163431.660575,1702.473667,-8290.306550,-1302.362347
163431.660895,-2072.576638,-6883.915261,-1225.752797
163431.661214,0.000000,-9474.636058,3447.429741
163431.661533,740.205942,-8882.471304,1838.629195
163431.661853,2664.741391,-9104.533087,2528.115143
163431.662172,2368.659014,-8956.491898,2757.943793
163431.662491,0.000000,-6291.750507,0.000000
163431.662811,-1776.494261,-6587.832884,0.000000
163431.663130,-1480.411884,-8364.327145,-4213.525239
163431.663449,-2368.659014,-10732.986159,-2145.067394
163431.663769,-1850.514855,-11695.253884,-1608.800546
163431.664088,-74.020594,-12435.459826,-689.485948
163431.664407,0.000000,-11917.315666,-306.438199
163431.664727,148.041188,-9474.636058,0.000000
163431.665046,0.000000,-7846.182985,-153.219100
163431.665366,-962.267725,-8068.244768,-689.485948
163431.665685,-4145.153275,-7179.997637,0.000000
163431.666004,-962.267725,-9474.636058,2068.457845
163431.666324,0.000000,-7772.162391,2451.505594
163431.666643,2294.638420,-9474.636058,2681.334243
163431.666962,370.102971,-9474.636058,1762.019645
163431.667282,2294.638420,-9474.636058,-76.609550
163431.667601,-1776.494261,-8364.327145,-2145.067394
163431.667920,-1924.535449,-9770.718434,-3524.039291
163431.668240,-2220.617826,-11325.150913,-3217.601092
163431.668559,-1480.411884,-11399.171507,-76.609550
163431.668878,74.020594,-10584.944971,-995.924147
163431.669198,2294.638420,-11251.130318,-689.485948
163431.669517,0.000000,-8660.409521,0.000000
163431.669836,296.082377,-8956.491898,612.876398
163431.670156,-74.020594,-8660.409521,-2068.457845
163431.670475,3478.967927,-10658.965565,1762.019645
163431.670795,1924.535449,-9548.656652,3217.601092
163431.671114,2664.741391,-8586.388927,3983.696590
163431.671433,2368.659014,-7476.080014,2528.115143
163431.671753,2368.659014,-7476.080014,3600.648841
163431.672072,0.000000,-8068.244768,0.000000
163431.672391,-666.185348,-9474.636058,-1838.629195
163431.672711,-1258.350101,-11769.274478,-1608.800546
163431.673030,-370.102971,-11399.171507,-1915.238745
163431.673349,-2960.823768,-8660.409521,-4290.134789
163431.673669,-74.020594,-11547.212695,-689.485948
163431.673988,-888.247130,-9622.677246,-1072.533697
163431.674307,-2516.700203,-8956.491898,-1762.019645
163431.674627,-3404.947333,-9252.574275,-2374.896044
163431.674946,-740.205942,-11769.274478,2298.286494
163431.675265,444.123565,-8956.491898,0.000000
163431.675585,3256.906145,-9474.636058,5362.668486
163431.675904,2886.803174,-7105.977043,2374.896044
163431.676224,888.247130,-7105.977043,2374.896044
163431.676543,2294.638420,-7105.977043,-76.609550
163431.676862,-1184.329507,-7772.162391,-2757.943793
163431.677182,-2442.679609,-10732.986159,-3600.648841
163431.677501,-2368.659014,-11325.150913,-2681.334243
163431.677820,-148.041188,-12731.542202,-76.609550
163431.678140,0.000000,-11177.109724,-919.314598
163431.678459,1998.556043,-11251.130318,-689.485948
163431.678778,-1702.473667,-8808.450710,-1608.800546
163431.679098,-2368.659014,-9548.656652,0.000000
163431.679417,2294.638420,-13027.624579,-76.609550
163431.679736,888.247130,-10140.821405,3064.381992
163431.680056,2664.741391,-8512.368333,4136.915689
163431.680375,2960.823768,-7179.997637,3600.648841
163431.680695,2294.638420,-5847.626942,2987.772442
163431.681014,0.000000,-3627.009116,0.000000
163431.681333,74.020594,-6883.915261,-1608.800546
163431.681653,-2072.576638,-9548.656652,-4903.011187
163431.681972,-4145.153275,-11325.150913,-2911.162892
163431.682291,-3775.050304,-13915.871710,-4060.306139
163431.682611,-3552.988522,-13101.645173,-2451.505594
163431.682930,-2960.823768,-11917.315666,-3677.258390
163431.683249,-3404.947333,-9918.759623,-2451.505594
163431.683569,-3552.988522,-8808.450710,-2221.676944
163431.683888,-592.164754,-8660.409521,0.000000
163431.684207,4663.297435,-8882.471304,3294.210641
163431.684527,5033.400406,-6735.874072,5515.887586
163431.684846,4515.256246,-6439.791695,5209.449386
163431.685165,4367.215058,-5921.647536,4443.353888
163431.685485,3552.988522,-6883.915261,3370.820191
163431.685804,2294.638420,-8290.306550,-76.609550
163431.686124,-2368.659014,-9548.656652,-3064.381992
163431.686443,-3330.926739,-11843.295072,-4290.134789
163431.686762,-3552.988522,-14063.912898,-3370.820191
163431.687082,-3997.112087,-11917.315666,-4903.011187
163431.687401,-666.185348,-12435.459826,-1915.238745
163431.687720,-888.247130,-9548.656652,-689.485948
163431.688040,-1850.514855,-7846.182985,-536.266849
163431.688359,0.000000,-7698.141797,1378.971896
163431.688678,3330.926739,-8290.306550,4826.401637
163431.688998,4589.276840,-7105.977043,6205.373534
163431.689317,2664.741391,-5995.668130,2451.505594
163431.689636,296.082377,-7179.997637,3064.381992
163431.689956,-666.185348,-8882.471304,-76.609550
163431.690275,-5477.523971,-7179.997637,-4903.011187
163431.690594,-4367.215058,-11399.171507,-6205.373534
163431.690914,-5625.565159,-12435.459826,-6435.202183
163431.691233,-4959.379811,-13323.706956,-4903.011187
163431.691553,-2516.700203,-13027.624579,-1915.238745
163431.691872,2886.803174,-11251.130318,-76.609550
163431.692191,2886.803174,-9474.636058,2374.896044
163431.692511,1702.473667,-7698.141797,1149.143247
163431.692830,444.123565,-6291.750507,1225.752797
163431.693149,3552.988522,-8364.327145,5362.668486
163431.693469,2368.659014,-6587.832884,3677.258390
163431.693788,4663.297435,-8364.327145,4519.963438
163431.694107,2590.720797,-8512.368333,2528.115143
163431.694427,888.247130,-8808.450710,459.657299
163431.694746,-74.020594,-9474.636058,-1302.362347
163431.695065,-1776.494261,-10955.047942,-2604.724693
163431.695385,-2442.679609,-12435.459826,-4366.744339
163431.695704,-3923.091493,-11325.150913,-4060.306139
163431.696024,-2442.679609,-10066.800811,-2681.334243
163431.696343,0.000000,-10732.986159,1838.629195
163431.696662,-1184.329507,-7179.997637,0.000000
163431.696982,-1036.288319,-7179.997637,-689.485948
163431.697301,-666.185348,-7550.100608,306.438199
163431.697620,814.226536,-8734.430116,1762.019645
163431.697940,3478.967927,-9400.615463,2604.724693
163431.698259,2368.659014,-8956.491898,3217.601092
163431.698578,2146.597232,-9474.636058,1838.629195
163431.698898,-74.020594,-9474.636058,-689.485948
163431.699217,-2442.679609,-9548.656652,-2834.553343
163431.699536,-3552.988522,-12213.398043,-2451.505594
163431.699856,-4145.153275,-11917.315666,-4903.011187
163431.700175,-2738.761985,-11917.315666,-3447.429741
163431.700494,-444.123565,-9992.780217,-1608.800546
163431.700814,592.164754,-7772.162391,0.000000
163431.701133,1480.411884,-5995.668130,0.000000
163431.701453,2072.576638,-5995.668130,0.000000
163431.701772,2072.576638,-8068.244768,2604.724693
163431.702091,2590.720797,-8882.471304,1608.800546
163431.702411,3478.967927,-11843.295072,4519.963438
163431.702730,1184.329507,-10881.027347,3677.258390
163431.703049,0.000000,-9622.677246,1149.143247
163431.703369,-1184.329507,-8956.491898,-536.266849
163431.703688,-1776.494261,-8660.409521,-1915.238745
163431.704007,-4737.318029,-7179.997637,-4596.572988
163431.704327,-3627.009116,-10658.965565,-2528.115143
163431.704646,-3923.091493,-8364.327145,-4366.744339
163431.704965,-2368.659014,-8956.491898,-1225.752797
163431.705285,2294.638420,-11621.233289,2374.896044
163431.705604,2294.638420,-9474.636058,-76.609550
163431.705924,-740.205942,-7772.162391,459.657299
163431.706243,-592.164754,-8586.388927,-76.609550
163431.706562,-962.267725,-10288.862594,0.000000
163431.706882,0.000000,-10732.986159,1608.800546
163431.707201,518.144159,-10510.924376,536.266849
163431.707520,1998.556043,-11251.130318,-76.609550
163431.707840,-740.205942,-8956.491898,-1378.971896
163431.708159,-2368.659014,-7179.997637,-1838.629195
163431.708478,-1776.494261,-7179.997637,-2451.505594
163431.708798,-74.020594,-9474.636058,-1302.362347
163431.709117,-1184.329507,-9104.533087,-1225.752797
163431.709436,296.082377,-9548.656652,229.828649
163431.709756,1110.308913,-8364.327145,383.047749
163431.710075,1480.411884,-8660.409521,2757.943793
163431.710394,0.000000,-8734.430116,383.047749
163431.710713,-74.020594,-9474.636058,766.095498
163431.711033,-74.020594,-11251.130318,-76.609550
163431.711352,-74.020594,-11251.130318,-76.609550
163431.711671,-2442.679609,-8956.491898,-1608.800546
163431.711991,-666.185348,-8882.471304,0.000000
163431.712310,2072.576638,-9400.615463,2298.286494
163431.712629,592.164754,-7105.977043,1915.238745
163431.712948,-592.164754,-7031.956449,-612.876398
163431.713268,-74.020594,-9474.636058,-76.609550
163431.713587,-2072.576638,-9474.636058,-2451.505594
163431.713906,-74.020594,-11843.295072,-1302.362347
163431.714225,-2960.823768,-9548.656652,-2451.505594
163431.714545,-740.205942,-10732.986159,-3064.381992
163431.714864,-74.020594,-8882.471304,-3447.429741
163431.715183,0.000000,-8586.388927,153.219100
163431.715502,0.000000,-9548.656652,-995.924147
163431.715822,592.164754,-10140.821405,383.047749
163431.716141,1702.473667,-9474.636058,2374.896044
163431.716460,0.000000,-8586.388927,2757.943793
163431.716780,1702.473667,-8142.265362,612.876398
163431.717099,592.164754,-8660.409521,612.876398
163431.717418,740.205942,-9548.656652,1838.629195
163431.717737,-74.020594,-8882.471304,-2681.334243
163431.718057,-370.102971,-11251.130318,-1608.800546
163431.718376,-1776.494261,-11103.089130,-919.314598
163431.718695,0.000000,-10214.842000,0.000000
163431.719014,814.226536,-8660.409521,536.266849
163431.719334,0.000000,-7179.997637,2451.505594
163431.719653,518.144159,-7772.162391,842.705048
163431.719972,1110.308913,-8290.306550,2374.896044
163431.720292,1702.473667,-8586.388927,-383.047749
163431.720611,0.000000,-9548.656652,612.876398
163431.720930,1554.432478,-13915.871710,2987.772442
163431.721249,-1776.494261,-10140.821405,-612.876398
163431.721569,-1554.432478,-10510.924376,-1072.533697
163431.721888,-1480.411884,-10362.883188,-1838.629195
163431.722207,-2368.659014,-9696.697840,-2451.505594
163431.722526,-3627.009116,-8068.244768,-4903.011187
163431.722846,-1406.391290,-9844.739029,-1149.143247
163431.723165,-74.020594,-9622.677246,0.000000
163431.723484,1406.391290,-8660.409521,1455.581446
163431.723804,3478.967927,-8290.306550,1762.019645
163431.724123,1110.308913,-7105.977043,1455.581446
163431.724442,2886.803174,-9178.553681,1149.143247
163431.724761,-962.267725,-9030.512492,-383.047749
163431.725081,-1850.514855,-9030.512492,-1532.190996
163431.725400,-2368.659014,-10140.821405,0.000000
163431.725719,-2442.679609,-11473.192101,-1685.410096
163431.726038,-962.267725,-11695.253884,-306.438199
163431.726358,-814.226536,-9770.718434,-612.876398
163431.726677,-1110.308913,-7772.162391,-1149.143247
163431.726996,-1036.288319,-7920.203579,-1608.800546
163431.727316,-592.164754,-8216.285956,-383.047749
163431.727635,0.000000,-7179.997637,0.000000
163431.727954,296.082377,-8068.244768,1838.629195
163431.728273,1110.308913,-8882.471304,842.705048
163431.728593,0.000000,-7772.162391,306.438199
163431.728912,-666.185348,-8142.265362,-995.924147
163431.729231,-1554.432478,-10362.883188,-1838.629195
163431.729550,-1850.514855,-11843.295072,-1991.848295
163431.729870,-1776.494261,-11325.150913,-3064.381992
163431.730189,-1258.350101,-10362.883188,-4060.306139
163431.730508,-370.102971,-10955.047942,-1302.362347
163431.730828,-1776.494261,-8364.327145,-1532.190996
163431.731147,0.000000,-7772.162391,0.000000
163431.731466,1110.308913,-9474.636058,-76.609550
163431.731785,0.000000,-7179.997637,612.876398
163431.732105,592.164754,-8512.368333,536.266849
163431.732424,296.082377,-9252.574275,842.705048
163431.732743,666.185348,-8808.450710,229.828649
163431.733062,-222.061783,-6587.832884,-689.485948
163431.733382,1110.308913,-9474.636058,-76.609550
163431.733701,-666.185348,-9178.553681,-1915.238745
163431.734020,-1776.494261,-9622.677246,-1532.190996
163431.734340,-666.185348,-9474.636058,-1762.019645
163431.734659,-74.020594,-13619.789333,-76.609550
163431.734978,0.000000,-10140.821405,0.000000
163431.735297,148.041188,-9548.656652,1532.190996
163431.735617,-740.205942,-8068.244768,536.266849
163431.735936,-1036.288319,-8512.368333,-536.266849
163431.736255,-370.102971,-7846.182985,0.000000
163431.736574,1110.308913,-8882.471304,1762.019645
163431.736894,-296.082377,-7624.121203,0.000000
163431.737213,-2368.659014,-5995.668130,-2451.505594
163431.737532,0.000000,-9548.656652,0.000000
163431.737852,1702.473667,-10658.965565,-76.609550
163431.738171,-1480.411884,-9326.594869,-3064.381992
163431.738490,-1702.473667,-11843.295072,-2681.334243
163431.738809,-1924.535449,-12213.398043,-2068.457845
163431.739129,-1480.411884,-11325.150913,0.000000
163431.739448,0.000000,-9548.656652,612.876398
163431.739767,1998.556043,-10214.842000,3064.381992
163431.740086,4071.132681,-9474.636058,2374.896044
163431.740406,0.000000,-6883.915261,0.000000
163431.740725,814.226536,-7402.059420,-76.609550
163431.741044,2294.638420,-9474.636058,2068.457845
163431.741364,-592.164754,-9178.553681,0.000000
163431.741683,-2146.597232,-8882.471304,-842.705048
163431.742002,-2294.638420,-8882.471304,-1838.629195
163431.742321,-2368.659014,-8956.491898,0.000000
163431.742641,-1776.494261,-8512.368333,-1302.362347
163431.742960,-3256.906145,-7772.162391,-1225.752797
163431.743279,-1924.535449,-9548.656652,-919.314598
163431.743598,-74.020594,-12435.459826,1762.019645
163431.743918,-370.102971,-8512.368333,-995.924147
163431.744237,1110.308913,-10066.800811,1608.800546
163431.744556,296.082377,-8734.430116,1149.143247
163431.744876,0.000000,-8290.306550,-153.219100
163431.745195,-518.144159,-8586.388927,-612.876398
163431.745514,-2368.659014,-8660.409521,-1532.190996
163431.745833,-1554.432478,-8956.491898,-2528.115143
163431.746153,-1998.556043,-9548.656652,-2145.067394
163431.746472,-2368.659014,-8364.327145,-1838.629195
163431.746791,370.102971,-10066.800811,0.000000
163431.747110,-666.185348,-7031.956449,-2834.553343
163431.747430,444.123565,-9400.615463,153.219100
163431.747749,814.226536,-9400.615463,459.657299
163431.748068,1702.473667,-9992.780217,2374.896044
163431.748388,3478.967927,-11251.130318,3600.648841
163431.748707,4071.132681,-10362.883188,3447.429741
163431.749026,1850.514855,-9030.512492,1149.143247
163431.749345,-2368.659014,-7179.997637,-1838.629195
163431.749665,-2368.659014,-9844.739029,-1685.410096
163431.749984,-4737.318029,-9548.656652,-2451.505594
163431.750303,-3034.844362,-9770.718434,-2528.115143
163431.750622,-1924.535449,-9992.780217,-1378.971896
163431.750942,-1776.494261,-7994.224174,-995.924147
163431.751261,-296.082377,-7624.121203,-383.047749
163431.751580,2294.638420,-8882.471304,-76.609550
163431.751900,444.123565,-7994.224174,612.876398
163431.752219,2294.638420,-9474.636058,-76.609550
163431.752538,-666.185348,-9178.553681,229.828649
163431.752857,-888.247130,-9548.656652,-76.609550
163431.753177,1110.308913,-9992.780217,-1608.800546
163431.753496,814.226536,-10658.965565,536.266849
163431.753815,-888.247130,-9474.636058,-1608.800546
163431.754134,-2516.700203,-10066.800811,-3217.601092
163431.754454,-2072.576638,-12435.459826,-1915.238745
163431.754773,-2368.659014,-9844.739029,-842.705048
163431.755092,-1480.411884,-8068.244768,-1685.410096
163431.755412,592.164754,-7772.162391,612.876398
163431.755731,3478.967927,-9474.636058,3600.648841
163431.756050,2294.638420,-3997.112087,536.266849
163431.756369,4663.297435,-8290.306550,3140.991542
163431.756689,1110.308913,-8808.450710,1915.238745
163431.757008,-518.144159,-9770.718434,1378.971896
163431.757327,-1406.391290,-10584.944971,153.219100
163431.757646,-2368.659014,-9548.656652,0.000000
163431.757966,-1850.514855,-11473.192101,-1762.019645
163431.758285,-2146.597232,-11325.150913,-2451.505594
163431.758604,-1850.514855,-12435.459826,-1455.581446
163431.758924,-2442.679609,-10658.965565,-2374.896044
163431.759243,-444.123565,-11843.295072,-76.609550
163431.759562,0.000000,-7624.121203,0.000000
163431.759881,814.226536,-7105.977043,536.266849
163431.760201,1998.556043,-6661.853478,1608.800546
163431.760520,1554.432478,-7031.956449,1838.629195
163431.760839,0.000000,-5403.503377,-1838.629195
163431.761158,-370.102971,-9918.759623,-1072.533697
163431.761478,-1998.556043,-10362.883188,-1225.752797
163431.761797,-1998.556043,-11399.171507,-1608.800546
163431.762116,-74.020594,-12435.459826,-1302.362347
163431.762436,666.185348,-11547.212695,-1149.143247
163431.762755,592.164754,-10881.027347,612.876398
163431.763074,-74.020594,-9918.759623,-612.876398
163431.763393,-74.020594,-11251.130318,-76.609550
163431.763713,0.000000,-8364.327145,1225.752797
163431.764032,444.123565,-7476.080014,229.828649
163431.764351,1776.494261,-7476.080014,1455.581446
163431.764670,1332.370696,-7179.997637,1302.362347
163431.764990,1406.391290,-7105.977043,1991.848295
163431.765309,1554.432478,-7476.080014,536.266849
163431.765628,148.041188,-9178.553681,-383.047749
163431.765948,-888.247130,-10066.800811,-2451.505594
163431.766267,-1184.329507,-11769.274478,919.314598
163431.766586,-74.020594,-11547.212695,229.828649
163431.766905,0.000000,-10436.903782,612.876398
163431.767225,-962.267725,-9918.759623,-995.924147
163431.767544,-2516.700203,-10436.903782,-1762.019645
163431.767863,-2960.823768,-9770.718434,-2298.286494
163431.768182,-2812.782580,-9252.574275,-3064.381992
163431.768502,-1258.350101,-7846.182985,-1991.848295
163431.768821,0.000000,-6587.832884,-2221.676944
163431.769140,0.000000,-7476.080014,1225.752797
163431.769460,2294.638420,-8586.388927,1149.143247
163431.769779,1258.350101,-8882.471304,2068.457845
163431.770098,1184.329507,-9252.574275,1608.800546
163431.770417,592.164754,-9622.677246,-76.609550
163431.770737,148.041188,-10510.924376,842.705048
163431.771056,1036.288319,-10732.986159,689.485948
163431.771375,0.000000,-9548.656652,0.000000
163431.771694,370.102971,-9178.553681,-76.609550
163431.772014,-1406.391290,-8586.388927,-2374.896044
163431.772333,-3849.070898,-8956.491898,-3064.381992
163431.772652,-4959.379811,-8364.327145,-3907.087040
163431.772972,-74.020594,-11843.295072,-76.609550
163431.773291,0.000000,-9622.677246,1838.629195
163431.773610,370.102971,-7624.121203,919.314598
163431.773929,0.000000,-6513.812290,1838.629195
163431.774249,0.000000,-5921.647536,1302.362347
163431.774568,-666.185348,-6291.750507,0.000000
163431.774887,-74.020594,-9178.553681,-76.609550
163431.775206,-2368.659014,-9178.553681,-689.485948
163431.775526,-3552.988522,-8364.327145,-2145.067394
163431.775845,0.000000,-10140.821405,0.000000
163431.776164,2294.638420,-11843.295072,-76.609550
163431.776484,-2220.617826,-10436.903782,-2604.724693
163431.776803,-3775.050304,-11029.068536,-3907.087040
163431.777122,-3775.050304,-11473.192101,-4366.744339
163431.777441,-1554.432478,-12065.356855,-1302.362347
163431.777761,-592.164754,-9548.656652,2145.067394
163431.778080,2516.700203,-8142.265362,2987.772442
163431.778399,2294.638420,-4811.338623,229.828649
163431.778718,2960.823768,-5699.585753,3064.381992
163431.779038,1998.556043,-4811.338623,919.314598
163431.779357,3478.967927,-8290.306550,1762.019645
163431.779676,1184.329507,-8586.388927,1532.190996
163431.779996,1258.350101,-9918.759623,1838.629195
163431.780315,1258.350101,-10510.924376,612.876398
163431.780634,1184.329507,-11917.315666,1532.190996
163431.780953,-1480.411884,-9548.656652,-4213.525239
163431.781273,-4737.318029,-9548.656652,-4903.011187
163431.781592,-4737.318029,-11029.068536,-4903.011187
163431.781911,-3552.988522,-10732.986159,-3064.381992
163431.782230,-3330.926739,-8068.244768,-3677.258390
163431.782550,518.144159,-9474.636058,1072.533697
163431.782869,1332.370696,-7179.997637,2451.505594
163431.783188,1628.453072,-5255.462188,3064.381992
163431.783508,962.267725,-5181.441594,2451.505594
163431.783827,0.000000,-6587.832884,1225.752797
163431.784146,0.000000,-6587.832884,0.000000
163431.784465,1184.329507,-8956.491898,1838.629195
163431.784785,2886.803174,-12731.542202,2068.457845
163431.785104,-370.102971,-9622.677246,-3294.210641
163431.785423,-2368.659014,-10732.986159,-2451.505594
163431.785742,-2294.638420,-12583.501014,-3830.477490
163431.786062,-3849.070898,-12361.439231,-3677.258390
163431.786381,-3627.009116,-12731.542202,-2298.286494
163431.786700,-1850.514855,-9030.512492,-383.047749
163431.787020,1554.432478,-7105.977043,1149.143247
163431.787339,2664.741391,-5107.421000,3064.381992
163431.787658,4737.318029,-5403.503377,7354.516781
163431.787977,3478.967927,-3552.988522,3294.210641
163431.788297,2368.659014,-6291.750507,4979.620737
163431.788616,0.000000,-7179.997637,1838.629195
163431.788935,-888.247130,-9474.636058,536.266849
163431.789254,-2072.576638,-11325.150913,-1072.533697
163431.789574,-3404.947333,-12065.356855,-2834.553343
163431.789893,-5403.503377,-11843.295072,-5898.935335
163431.790212,-6883.915261,-12583.501014,-4673.182538
163431.790532,-5995.668130,-11399.171507,-6205.373534
163431.790851,-5477.523971,-9844.739029,-4749.792088
163431.791170,-2072.576638,-9844.739029,0.000000
163431.791489,0.000000,-5995.668130,2451.505594
163431.791809,4071.132681,-6143.709319,2834.553343
163431.792128,4515.256246,-5033.400406,4136.915689
163431.792447,3330.926739,-5699.585753,3524.039291
163431.792766,1110.308913,-5699.585753,0.000000
163431.793086,1628.453072,-11177.109724,153.219100
163431.793405,0.000000,-10140.821405,612.876398
163431.793724,1998.556043,-13027.624579,383.047749
163431.794044,888.247130,-12509.480420,153.219100
163431.794363,-1776.494261,-11917.315666,-3064.381992
163431.794682,-2442.679609,-10362.883188,-4979.620737
163431.795001,-3997.112087,-10732.986159,-4290.134789
163431.795321,-3404.947333,-9844.739029,-3294.210641
163431.795640,-1258.350101,-9770.718434,0.000000
163431.795959,3923.091493,-9474.636058,4826.401637
163431.796278,3849.070898,-6661.853478,3600.648841
163431.796598,2368.659014,-4811.338623,2987.772442
163431.796917,0.000000,-3034.844362,0.000000
163431.797236,-1184.329507,-7179.997637,0.000000
163431.797556,-1258.350101,-9474.636058,-1915.238745
163431.797875,-1184.329507,-11399.171507,-536.266849
163431.798194,-148.041188,-11473.192101,-459.657299
163431.798513,518.144159,-11621.233289,0.000000
163431.798833,-814.226536,-10732.986159,-1302.362347
163431.799152,-3552.988522,-9548.656652,-2451.505594
163431.799471,-3701.029710,-10214.842000,-4903.011187
163431.799790,-2960.823768,-11103.089130,-3447.429741
163431.800110,-1332.370696,-10436.903782,-995.924147
163431.800429,592.164754,-7698.141797,1149.143247
163431.800748,4663.297435,-7772.162391,2145.067394
163431.801068,3478.967927,-7105.977043,2068.457845
163431.801387,0.000000,-5995.668130,919.314598
163431.801706,296.082377,-7476.080014,1532.190996
163431.802025,1702.473667,-10955.047942,2068.457845
163431.802345,0.000000,-9548.656652,1225.752797
163431.802664,1406.391290,-9844.739029,1762.019645
163431.802983,1258.350101,-9548.656652,1685.410096
163431.803302,1036.288319,-10288.862594,0.000000
163431.803622,-1406.391290,-9252.574275,-2145.067394
163431.803941,-3923.091493,-9844.739029,-2911.162892
163431.804260,-3034.844362,-11695.253884,-2451.505594
163431.804579,-1110.308913,-12583.501014,-76.609550
163431.804899,-74.020594,-10658.965565,536.266849
163431.805218,2886.803174,-11251.130318,2987.772442
163431.805537,592.164754,-7179.997637,842.705048
163431.805857,-148.041188,-6587.832884,995.924147
163431.806176,-1628.453072,-6883.915261,0.000000
163431.806495,-2368.659014,-7698.141797,-612.876398
163431.806814,-2072.576638,-7772.162391,612.876398
163431.807134,962.267725,-8956.491898,612.876398
163431.807453,2368.659014,-10584.944971,2987.772442
163431.807772,1702.473667,-9770.718434,-76.609550
163431.808091,-1776.494261,-8364.327145,-2528.115143
163431.808411,-1258.350101,-11843.295072,-2528.115143
163431.808730,-3997.112087,-11547.212695,-4290.134789
163431.809049,-1998.556043,-12139.377449,-2834.553343
163431.809369,-74.020594,-11621.233289,-76.609550
163431.809688,0.000000,-9548.656652,612.876398
163431.810007,0.000000,-7179.997637,383.047749
163431.810327,0.000000,-5995.668130,1225.752797
163431.810646,1924.535449,-7031.956449,2068.457845
163431.810965,-74.020594,-9474.636058,-76.609550
163431.811285,-74.020594,-7402.059420,76.609550
163431.811604,1998.556043,-9474.636058,2987.772442
163431.811923,2072.576638,-10955.047942,2987.772442
163431.812242,1110.308913,-9474.636058,76.609550
163431.812562,-1554.432478,-9326.594869,-1072.533697
163431.812881,-5181.441594,-9622.677246,-3524.039291
163431.813200,-4811.338623,-10881.027347,-4826.401637
163431.813520,-4589.276840,-10436.903782,-4136.915689
163431.813839,-4737.318029,-9548.656652,-2451.505594
163431.814158,1554.432478,-11473.192101,842.705048
163431.814478,1110.308913,-7698.141797,-1302.362347
163431.814797,1776.494261,-7402.059420,1838.629195
163431.815116,888.247130,-5773.606348,1149.143247
163431.815435,-222.061783,-6661.853478,-459.657299
163431.815755,370.102971,-9474.636058,2374.896044
163431.816074,2590.720797,-10658.965565,4213.525239
163431.816393,2886.803174,-9474.636058,3600.648841
163431.816713,2294.638420,-8290.306550,0.000000
163431.817032,0.000000,-8956.491898,0.000000
163431.817351,-2368.659014,-9548.656652,-2451.505594
163431.817671,-3034.844362,-8734.430116,-5286.058936
163431.817990,-2220.617826,-11991.336260,-3370.820191
163431.818309,-1480.411884,-11843.295072,-2145.067394
163431.818628,-148.041188,-10881.027347,-229.828649
163431.818948,3478.967927,-11843.295072,3294.210641
163431.819267,3034.844362,-8586.388927,612.876398
163431.819586,3478.967927,-8290.306550,2987.772442
163431.819906,0.000000,-5403.503377,0.000000
163431.820225,592.164754,-7179.997637,0.000000
163431.820544,0.000000,-6587.832884,2451.505594
163431.820864,1702.473667,-8290.306550,2374.896044
163431.821183,1702.473667,-9252.574275,1685.410096
163431.821502,-370.102971,-9104.533087,-306.438199
163431.821822,-3108.864956,-9992.780217,-2834.553343
163431.822141,-3849.070898,-12213.398043,-4826.401637
163431.822460,-7105.977043,-11325.150913,-6128.763984
163431.822779,-4293.194464,-12953.603985,-3600.648841
163431.823099,-296.082377,-14137.933492,-76.609550
163431.823418,-74.020594,-10066.800811,-76.609550
163431.823737,0.000000,-7179.997637,1225.752797
163431.824057,1406.391290,-6365.771101,1762.019645
163431.824376,1702.473667,-6143.709319,1302.362347
163431.824695,1924.535449,-7179.997637,1608.800546
163431.825015,2072.576638,-6439.791695,2221.676944
163431.825334,2886.803174,-6513.812290,2987.772442
163431.825653,1776.494261,-8364.327145,1915.238745
163431.825972,0.000000,-8364.327145,0.000000
163431.826292,-1480.411884,-10140.821405,-1072.533697
163431.826611,-1258.350101,-12435.459826,-1302.362347
163431.826930,-5921.647536,-10732.986159,-4903.011187
163431.827250,-3923.091493,-12657.521608,-4366.744339
163431.827569,-3034.844362,-12139.377449,-2834.553343
163431.827888,-1998.556043,-10658.965565,-842.705048
163431.828208,-666.185348,-7772.162391,-2451.505594
163431.828527,0.000000,-6513.812290,1991.848295
163431.828846,-1776.494261,-3627.009116,0.000000
163431.829165,592.164754,-6143.709319,1532.190996
163431.829485,2294.638420,-8142.265362,4826.401637
163431.829804,592.164754,-5995.668130,3677.258390
163431.830123,2886.803174,-8512.368333,2374.896044
163431.830443,814.226536,-9474.636058,0.000000
163431.830762,-1702.473667,-10658.965565,-2681.334243
163431.831081,-4367.215058,-9844.739029,-6511.811733
163431.831401,-3849.070898,-13619.789333,-5362.668486
163431.831720,-4145.153275,-13101.645173,-4596.572988
163431.832039,-1850.514855,-12879.583391,-2834.553343
163431.832358,-74.020594,-13027.624579,-76.609550
163431.832678,0.000000,-7772.162391,-2298.286494
163431.832997,1702.473667,-6809.894666,1149.143247
163431.833316,2590.720797,-5995.668130,3140.991542
163431.833636,1628.453072,-5773.606348,2757.943793
163431.833955,1554.432478,-6587.832884,3677.258390
163431.834274,5255.462188,-9474.636058,6052.154434
163431.834594,3182.885551,-7994.224174,3907.087040
163431.834913,592.164754,-8956.491898,1149.143247
163431.835232,-1258.350101,-8882.471304,-2528.115143
163431.835552,-4737.318029,-9548.656652,-4290.134789
163431.835871,-3627.009116,-11399.171507,-5592.497135
163431.836190,-3701.029710,-13619.789333,-4366.744339
163431.836509,-3182.885551,-12805.562797,-3447.429741
163431.836829,-2072.576638,-11177.109724,-1685.410096
163431.837148,-444.123565,-10288.862594,76.609550
163431.837467,592.164754,-7772.162391,3677.258390
163431.837787,1924.535449,-7031.956449,2374.896044
163431.838106,1702.473667,-6513.812290,2298.286494
163431.838425,1332.370696,-8216.285956,2298.286494
163431.838745,1406.391290,-5995.668130,3447.429741
163431.839064,4071.132681,-8290.306550,4213.525239
163431.839383,2294.638420,-8586.388927,1149.143247
163431.839702,-1184.329507,-8956.491898,-1532.190996
163431.840022,-3997.112087,-9548.656652,-3677.258390
163431.840341,-1850.514855,-13619.789333,-2528.115143
163431.840660,-4441.235652,-11917.315666,-4290.134789
163431.840980,-3108.864956,-13101.645173,-3600.648841
163431.841299,-1850.514855,-11473.192101,-2221.676944
163431.841618,-814.226536,-10214.842000,-459.657299
163431.841938,666.185348,-7846.182985,1225.752797
163431.842257,2886.803174,-7105.977043,2374.896044
163431.842576,2294.638420,-6365.771101,3600.648841
163431.842895,518.144159,-4737.318029,229.828649
163431.843215,1184.329507,-6735.874072,3983.696590
163431.843534,4663.297435,-9474.636058,6665.030833
163431.843853,1184.329507,-7328.038826,1685.410096
163431.844173,-444.123565,-9030.512492,-459.657299
163431.844492,-2738.761985,-8882.471304,-3064.381992
163431.844811,-4219.173869,-10362.883188,-4903.011187
163431.845131,-5329.482782,-11917.315666,-5822.325785
163431.845450,-4663.297435,-13397.727550,-7354.516781
163431.845769,-4737.318029,-12805.562797,-3064.381992
163431.846088,-1332.370696,-12657.521608,-1762.019645
163431.846408,518.144159,-9548.656652,-689.485948
163431.846727,4663.297435,-10658.965565,3600.648841
163431.847046,1554.432478,-6291.750507,2145.067394
163431.847366,1184.329507,-6439.791695,1762.019645
163431.847685,2738.761985,-6365.771101,3370.820191
163431.848004,4737.318029,-6587.832884,4903.011187
163431.848324,2368.659014,-5995.668130,1762.019645
163431.848643,0.000000,-8956.491898,766.095498
163431.848962,-592.164754,-10288.862594,-995.924147
163431.849282,-2146.597232,-11917.315666,-1991.848295
163431.849601,-4811.338623,-10955.047942,-6511.811733
163431.849920,-3627.009116,-14211.954086,-3830.477490
163431.850239,-4515.256246,-12657.521608,-3217.601092
163431.850559,-2664.741391,-11325.150913,-1532.190996
163431.850878,-148.041188,-8956.491898,536.266849
163431.851197,0.000000,-6883.915261,2834.553343
163431.851517,1036.288319,-5329.482782,1608.800546
163431.851836,0.000000,-4811.338623,1378.971896
163431.852155,0.000000,-5995.668130,3677.258390
163431.852475,4515.256246,-8660.409521,5669.106685
163431.852794,2294.638420,-6217.729913,536.266849
163431.853113,518.144159,-8882.471304,919.314598
163431.853432,-1924.535449,-9178.553681,-2221.676944
163431.853752,-3256.906145,-10732.986159,-4060.306139
163431.854071,-4367.215058,-13915.871710,-4979.620737
163431.854390,-3182.885551,-15396.283594,-3140.991542
163431.854710,-3330.926739,-12139.377449,-2834.553343
163431.855029,-1258.350101,-11843.295072,-1915.238745
163431.855348,0.000000,-8512.368333,0.000000
163431.855668,2368.659014,-7179.997637,3064.381992
163431.855987,2886.803174,-4219.173869,2681.334243
163431.856306,1998.556043,-6291.750507,2145.067394
163431.856625,1554.432478,-7402.059420,2987.772442
163431.856945,3034.844362,-7105.977043,3447.429741
163431.857264,5255.462188,-9474.636058,4826.401637
163431.857583,2812.782580,-10658.965565,2451.505594
163431.857903,-74.020594,-11251.130318,-76.609550
163431.858222,-1850.514855,-9474.636058,-2834.553343
163431.858541,-3552.988522,-12731.542202,-3140.991542
163431.858861,-5921.647536,-10732.986159,-4903.011187
163431.859180,-4219.173869,-11991.336260,-4673.182538
163431.859499,-3849.070898,-11251.130318,-2757.943793
163431.859819,-740.205942,-10214.842000,-612.876398
163431.860138,2146.597232,-8438.347739,1685.410096
163431.860457,4071.132681,-7846.182985,2987.772442
163431.860776,0.000000,-5403.503377,1225.752797
163431.861096,1184.329507,-7698.141797,2068.457845
163431.861415,2294.638420,-9474.636058,2987.772442
163431.861734,2294.638420,-8808.450710,842.705048
163431.862054,0.000000,-9548.656652,1225.752797
163431.862373,-74.020594,-9474.636058,-1302.362347
163431.862692,-962.267725,-10140.821405,-2681.334243
163431.863012,-1554.432478,-10214.842000,-3600.648841
163431.863331,-2368.659014,-9918.759623,-4673.182538
163431.863650,-1258.350101,-10807.006753,-3064.381992
163431.863969,-2368.659014,-10732.986159,-1838.629195
163431.864289,-2368.659014,-9548.656652,0.000000
163431.864608,3182.885551,-10066.800811,3600.648841
163431.864927,4663.297435,-9474.636058,4213.525239
163431.865247,1184.329507,-7179.997637,2451.505594
163431.865566,518.144159,-6883.915261,1762.019645
163431.865885,888.247130,-7994.224174,2145.067394
163431.866205,1406.391290,-8216.285956,2068.457845
163431.866524,-370.102971,-7254.018232,-1838.629195
163431.866843,-1036.288319,-9770.718434,-76.609550
163431.867162,-1554.432478,-8882.471304,-2528.115143
163431.867482,-3923.091493,-8956.491898,-3983.696590
163431.867801,-3552.988522,-10732.986159,-5822.325785
163431.868120,-4737.318029,-10732.986159,-4290.134789
163431.868440,-3034.844362,-11769.274478,-3140.991542
163431.868759,-1554.432478,-10881.027347,-459.657299
163431.869078,666.185348,-10140.821405,1225.752797
163431.869398,1406.391290,-7476.080014,612.876398
163431.869717,1998.556043,-8882.471304,995.924147
163431.870036,0.000000,-7179.997637,1608.800546
163431.870355,2294.638420,-9474.636058,2221.676944
163431.870675,2220.617826,-8882.471304,2987.772442
163431.870994,0.000000,-7179.997637,0.000000
163431.871313,-962.267725,-7328.038826,-842.705048
163431.871633,-888.247130,-9326.594869,-689.485948
163431.871952,-1110.308913,-9844.739029,-1608.800546
163431.872271,-2368.659014,-9844.739029,-2834.553343
163431.872591,-1258.350101,-13619.789333,-1302.362347
163431.872910,-3182.885551,-11399.171507,-2145.067394
163431.873229,-2664.741391,-9622.677246,-1915.238745
163431.873549,-3552.988522,-7772.162391,0.000000
163431.873868,2294.638420,-9474.636058,2374.896044
163431.874187,-666.185348,-5107.421000,-1608.800546
163431.874506,-666.185348,-8290.306550,536.266849
163431.874826,-1702.473667,-8438.347739,612.876398
163431.875145,-370.102971,-8586.388927,2068.457845
163431.875464,666.185348,-8216.285956,1762.019645
163431.875784,0.000000,-9548.656652,2451.505594
163431.876103,-148.041188,-8142.265362,-1302.362347
163431.876422,-1258.350101,-8660.409521,-1608.800546
163431.876742,-1702.473667,-10140.821405,-3447.429741
163431.877061,-4145.153275,-10732.986159,-5898.935335
163431.877380,-4441.235652,-10732.986159,-4596.572988
163431.877699,-1258.350101,-11843.295072,-2528.115143
163431.878019,-666.185348,-11103.089130,-919.314598
163431.878338,0.000000,-8364.327145,0.000000
163431.878657,3478.967927,-9474.636058,2987.772442
163431.878977,1332.370696,-7772.162391,1685.410096
163431.879296,1702.473667,-8586.388927,1532.190996
163431.879615,2886.803174,-8068.244768,3677.258390
163431.879935,3330.926739,-7402.059420,3370.820191
163431.880254,2368.659014,-7328.038826,2451.505594
163431.880573,0.000000,-7772.162391,76.609550
163431.880892,-518.144159,-8586.388927,-689.485948
163431.881212,-74.020594,-10658.965565,-3753.867940
163431.881531,-2442.679609,-11251.130318,-3907.087040
163431.881850,-666.185348,-13619.789333,-2528.115143
163431.882170,-2886.803174,-11029.068536,-2068.457845
163431.882489,-962.267725,-10510.924376,-842.705048
163431.882808,-370.102971,-9326.594869,459.657299
163431.883128,222.061783,-7920.203579,1762.019645
163431.883447,-1184.329507,-7179.997637,0.000000
163431.883766,-1850.514855,-8068.244768,0.000000
163431.884085,518.144159,-10658.965565,2987.772442
163431.884405,2294.638420,-8290.306550,2221.676944
163431.884724,1332.370696,-7179.997637,153.219100
163431.885043,4663.297435,-9474.636058,1762.019645
163431.885363,0.000000,-7698.141797,0.000000
163431.885682,296.082377,-9030.512492,-1455.581446
163431.886001,-592.164754,-10436.903782,-2528.115143
163431.886321,-1184.329507,-11917.315666,-1838.629195
163431.886640,-2072.576638,-11103.089130,-1302.362347
163431.886959,-1702.473667,-9548.656652,-1838.629195
163431.887279,296.082377,-10140.821405,306.438199
163431.887598,1924.535449,-9548.656652,2451.505594
163431.887917,-666.185348,-6069.688724,-3140.991542
163431.888236,1110.308913,-9474.636058,-76.609550
163431.888556,518.144159,-9104.533087,1838.629195
163431.888875,2738.761985,-8660.409521,3907.087040
163431.889194,2368.659014,-7402.059420,3370.820191
163431.889514,0.000000,-6957.935855,2451.505594
163431.889833,-1554.432478,-6291.750507,0.000000
163431.890152,-2220.617826,-8364.327145,-766.095498
163431.890472,-2442.679609,-11843.295072,-2528.115143
163431.890791,-4219.173869,-11843.295072,-4136.915689
163431.891110,-6365.771101,-9548.656652,-7354.516781
163431.891429,-2738.761985,-11843.295072,-2145.067394
163431.891749,-1480.411884,-10658.965565,-1991.848295
163431.892068,-814.226536,-9252.574275,-995.924147
163431.892387,-222.061783,-8882.471304,-229.828649
163431.892707,-370.102971,-9474.636058,-76.609550
163431.893026,-666.185348,-9474.636058,919.314598
163431.893345,222.061783,-7179.997637,1072.533697
163431.893665,3552.988522,-9104.533087,4290.134789
163431.893984,4145.153275,-7476.080014,4903.011187
163431.894303,962.267725,-5255.462188,919.314598
163431.894622,-444.123565,-7105.977043,383.047749
163431.894942,-1776.494261,-8956.491898,-3294.210641
163431.895261,-2368.659014,-10732.986159,-3447.429741
163431.895580,-666.185348,-12435.459826,-1302.362347
163431.895900,-74.020594,-11547.212695,-1225.752797
163431.896219,1554.432478,-12435.459826,-76.609550
163431.896538,-74.020594,-10214.842000,-689.485948
163431.896858,-1776.494261,-7179.997637,-3677.258390
163431.897177,-2368.659014,-7772.162391,0.000000
163431.897496,-2738.761985,-8660.409521,-842.705048
163431.897815,814.226536,-9474.636058,2911.162892
163431.898135,2442.679609,-8364.327145,3677.258390
163431.898454,2812.782580,-7846.182985,3677.258390
163431.898773,3478.967927,-8882.471304,3294.210641
163431.899093,0.000000,-7179.997637,1225.752797
163431.899412,-888.247130,-8586.388927,-2374.896044
163431.899731,-2442.679609,-13027.624579,-3140.991542
163431.900051,-3034.844362,-12435.459826,-4060.306139
163431.900370,-4145.153275,-11917.315666,-1838.629195
163431.900689,-1036.288319,-11843.295072,-2298.286494
163431.901009,-518.144159,-10881.027347,-1838.629195
163431.901328,-740.205942,-9548.656652,-995.924147
163431.901647,-2368.659014,-6291.750507,-3370.820191
163431.901966,-1554.432478,-7698.141797,0.000000
163431.902286,1480.411884,-7772.162391,3370.820191
163431.902605,5921.647536,-8660.409521,7354.516781
163431.902924,5847.626942,-7105.977043,4826.401637
163431.903244,4663.297435,-8290.306550,4826.401637
163431.903563,592.164754,-6587.832884,2451.505594
163431.903882,-962.267725,-7105.977043,-1991.848295
163431.904202,-2664.741391,-9844.739029,-4826.401637
163431.904521,-3552.988522,-12287.418637,-3830.477490
163431.904840,-4071.132681,-10732.986159,-4903.011187
163431.905159,-1702.473667,-12213.398043,-2528.115143
163431.905479,-1554.432478,-9770.718434,-3600.648841
163431.905798,-2960.823768,-9548.656652,-1225.752797
163431.906117,-1258.350101,-9400.615463,-612.876398
163431.906437,-2368.659014,-7476.080014,1225.752797
163431.906756,370.102971,-8068.244768,2374.896044
163431.907075,3849.070898,-7254.018232,5209.449386
163431.907395,4959.379811,-6587.832884,4979.620737
163431.907714,3849.070898,-7179.997637,2451.505594
163431.908033,2294.638420,-9178.553681,612.876398
163431.908352,-2368.659014,-8364.327145,-2451.505594
163431.908672,-3627.009116,-11251.130318,-5898.935335
163431.908991,-4811.338623,-15396.283594,-4979.620737
163431.909310,-4145.153275,-13471.748144,-4290.134789
163431.909630,-2664.741391,-11473.192101,-3064.381992
163431.909949,1628.453072,-11473.192101,0.000000
163431.910268,666.185348,-8512.368333,306.438199
163431.910588,-888.247130,-6883.915261,-383.047749
163431.910907,-74.020594,-8882.471304,2068.457845
163431.911226,2738.761985,-7550.100608,3294.210641
163431.911546,3330.926739,-7328.038826,4673.182538
163431.911865,3552.988522,-7772.162391,6128.763984
163431.912184,3478.967927,-8290.306550,2987.772442
163431.912504,-1258.350101,-6513.812290,-689.485948
163431.912823,-1924.535449,-8882.471304,-2145.067394
163431.913142,-5403.503377,-8808.450710,-7124.688131
163431.913462,-6143.709319,-11325.150913,-6971.469032
163431.913781,-3108.864956,-12213.398043,-3677.258390
163431.914100,962.267725,-14211.954086,-76.609550
163431.914420,0.000000,-10288.862594,229.828649
163431.914739,0.000000,-9326.594869,-229.828649
163431.915058,-1554.432478,-7476.080014,-1149.143247
163431.915378,-3404.947333,-7772.162391,0.000000
163431.915697,-2220.617826,-9252.574275,2298.286494
163431.916016,2294.638420,-9178.553681,2681.334243
163431.916336,2960.823768,-8364.327145,3217.601092
163431.916655,1184.329507,-7179.997637,2451.505594
163431.916975,2294.638420,-7698.141797,1149.143247
163431.917294,-74.020594,-9178.553681,-229.828649
163431.917613,-2516.700203,-8882.471304,-4519.963438
163431.917933,-3330.926739,-11547.212695,-4903.011187
163431.918252,-2368.659014,-11991.336260,-2757.943793
163431.918571,-962.267725,-11029.068536,-153.219100
163431.918891,1184.329507,-10881.027347,995.924147
163431.919210,1554.432478,-9474.636058,1149.143247
163431.919529,0.000000,-5699.585753,-995.924147
163431.919849,-1628.453072,-5995.668130,0.000000
163431.920168,2294.638420,-8290.306550,1149.143247
163431.920487,2516.700203,-9030.512492,4366.744339
163431.920807,3404.947333,-8734.430116,4519.963438
163431.921126,1480.411884,-8142.265362,2528.115143
163431.921445,-1184.329507,-8364.327145,842.705048
163431.921765,-2516.700203,-9030.512492,-76.609550
163431.922084,-3923.091493,-9030.512492,-3140.991542
163431.922403,-3034.844362,-11251.130318,-5592.497135
163431.922723,-4737.318029,-10881.027347,-4903.011187
163431.923042,-2368.659014,-10436.903782,-3677.258390
163431.923361,-74.020594,-10362.883188,-1762.019645
163431.923681,888.247130,-9918.759623,-459.657299
163431.924000,444.123565,-8364.327145,76.609550
163431.924319,888.247130,-7772.162391,459.657299
163431.924639,3478.967927,-10658.965565,3600.648841
163431.924958,4589.276840,-10732.986159,2451.505594
163431.925277,4145.153275,-9992.780217,5975.544884
163431.925597,4663.297435,-9474.636058,3294.210641
163431.925916,1184.329507,-8882.471304,-76.609550
163431.926235,-3552.988522,-5995.668130,-2451.505594
163431.926555,-2738.761985,-8882.471304,-3447.429741
163431.926874,-4145.153275,-10362.883188,-5056.230287
163431.927193,-4293.194464,-11547.212695,-3983.696590
163431.927513,-2664.741391,-10732.986159,-2528.115143
163431.927832,-296.082377,-10140.821405,-76.609550
163431.928152,0.000000,-8660.409521,0.000000
163431.928471,0.000000,-7476.080014,612.876398
163431.928790,1110.308913,-8734.430116,2911.162892
163431.929110,1702.473667,-8882.471304,1149.143247
163431.929429,0.000000,-7179.997637,612.876398
163431.929748,3404.947333,-9770.718434,2987.772442
163431.930068,2072.576638,-9548.656652,2068.457845
163431.930387,74.020594,-9400.615463,229.828649
163431.930706,-962.267725,-8512.368333,-2528.115143
163431.931026,-2146.597232,-10288.862594,-3753.867940
163431.931345,-4515.256246,-10140.821405,-5056.230287
163431.931664,-2442.679609,-11251.130318,-4060.306139
163431.931984,-2072.576638,-9548.656652,-2145.067394
163431.932303,3923.091493,-11251.130318,2298.286494
163431.932622,0.000000,-7179.997637,0.000000
163431.932942,2664.741391,-6809.894666,1762.019645
163431.933261,1480.411884,-6587.832884,383.047749
163431.933580,0.000000,-8438.347739,0.000000
163431.933900,-74.020594,-10066.800811,-689.485948
163431.934219,-74.020594,-11251.130318,2374.896044
163431.934538,-74.020594,-11843.295072,1149.143247
163431.934858,-1184.329507,-9548.656652,306.438199
163431.935177,0.000000,-7772.162391,-1608.800546
163431.935496,-888.247130,-8956.491898,1072.533697
163431.935816,-3404.947333,-8364.327145,-3370.820191
163431.936135,-2146.597232,-10881.027347,-2528.115143
163431.936454,-1184.329507,-10288.862594,-689.485948
163431.936774,518.144159,-9400.615463,383.047749
163431.937093,1110.308913,-9474.636058,-76.609550
163431.937412,888.247130,-9474.636058,1762.019645
163431.937732,-1258.350101,-8290.306550,-689.485948
163431.938051,-2368.659014,-7772.162391,-3524.039291
163431.938371,-1184.329507,-11029.068536,0.000000
163431.938690,1184.329507,-13027.624579,3294.210641
163431.939009,0.000000,-9696.697840,1149.143247
163431.939329,666.185348,-9400.615463,459.657299
163431.939648,-444.123565,-8808.450710,-153.219100
163431.939967,-3552.988522,-6587.832884,-3677.258390
163431.940287,-4589.276840,-7179.997637,-4596.572988
163431.940606,-4145.153275,-9548.656652,-3064.381992
163431.940925,-2072.576638,-11621.233289,919.314598
163431.941245,-74.020594,-10658.965565,-383.047749
163431.941564,-74.020594,-9474.636058,-76.609550
163431.941883,-1332.370696,-10214.842000,536.266849
163431.942203,-3256.906145,-9400.615463,0.000000
163431.942522,-3997.112087,-8660.409521,-383.047749
163431.942841,-3256.906145,-9844.739029,842.705048
163431.943161,-4737.318029,-7179.997637,1838.629195
163431.943480,-3552.988522,-8364.327145,2145.067394
163431.943799,-5921.647536,-7179.997637,612.876398
163431.944119,-3552.988522,-9400.615463,1685.410096
163431.944438,-3627.009116,-8290.306550,2068.457845
163431.944757,-2442.679609,-8290.306550,-1915.238745
163431.945077,-7846.182985,-8660.409521,-3983.696590
163431.945396,-9104.533087,-10658.965565,-5209.449386
163431.945715,-8586.388927,-11695.253884,-3983.696590
163431.946035,-8364.327145,-11843.295072,-1608.800546
163431.946354,-9474.636058,-9548.656652,-3677.258390
163431.946673,-5995.668130,-10362.883188,-1302.362347
163431.946993,-4663.297435,-8364.327145,1225.752797
163431.947312,-1184.329507,-6735.874072,4903.011187
163431.947631,-74.020594,-7105.977043,4213.525239
163431.947951,-2146.597232,-7105.977043,3294.210641
163431.948270,-3627.009116,-8364.327145,0.000000
163431.948589,-3701.029710,-10881.027347,766.095498
163431.948909,-5699.585753,-11251.130318,383.047749
163431.949228,-9474.636058,-9548.656652,-2451.505594
163431.949548,-8290.306550,-10140.821405,-4443.353888
163431.949867,-4811.338623,-13027.624579,-2604.724693
163431.950186,-2442.679609,-13619.789333,2068.457845
163431.950506,-2442.679609,-8142.265362,2068.457845
163431.950825,-1776.494261,-6587.832884,3600.648841
163431.951144,-3552.988522,-4219.173869,-1838.629195
163431.951464,-1776.494261,-7846.182985,-1302.362347
163431.951783,-1554.432478,-10214.842000,1072.533697
163431.952102,-2294.638420,-11621.233289,2987.772442
163431.952422,-3330.926739,-9770.718434,-766.095498
163431.952741,-5255.462188,-9474.636058,-1532.190996
163431.953060,-5255.462188,-9844.739029,-2834.553343
163431.953380,-2368.659014,-10436.903782,-1915.238745
163431.953699,222.061783,-12435.459826,2374.896044
163431.954018,888.247130,-11547.212695,1762.019645
163431.954338,-2960.823768,-7179.997637,0.000000
163431.954657,-1850.514855,-7994.224174,-2221.676944
163431.954976,-74.020594,-8882.471304,-2528.115143
163431.955296,-2368.659014,-6587.832884,-4903.011187
163431.955615,-1258.350101,-10288.862594,-2528.115143
163431.955934,-1480.411884,-13249.686362,-306.438199
163431.956254,-1480.411884,-14137.933492,1149.143247
163431.956573,-1184.329507,-12139.377449,2145.067394
163431.956892,-740.205942,-9548.656652,2451.505594
163431.957212,-74.020594,-7254.018232,1455.581446
163431.957531,0.000000,-4219.173869,383.047749
163431.957850,-1628.453072,-3627.009116,0.000000
163431.958170,-1184.329507,-6291.750507,2451.505594
163431.958489,-4737.318029,-7179.997637,0.000000
163431.958808,-4293.194464,-10362.883188,-1762.019645
163431.959128,-6217.729913,-10658.965565,-3217.601092
163431.959447,-8290.306550,-10140.821405,-3064.381992
163431.959767,-6291.750507,-10732.986159,-2221.676944
163431.960086,-5181.441594,-8216.285956,-3907.087040
163431.960405,-2960.823768,-9474.636058,-919.314598
163431.960725,-2812.782580,-7772.162391,0.000000
163431.961044,-962.267725,-8882.471304,-76.609550
163431.961363,-3923.091493,-10066.800811,-995.924147
163431.961683,-6291.750507,-10140.821405,-1149.143247
163431.962002,-5181.441594,-13027.624579,1532.190996
163431.962321,-3552.988522,-10658.965565,4596.572988
163431.962641,-1258.350101,-8956.491898,5132.839837
163431.962960,-888.247130,-5107.421000,2987.772442
163431.963279,-74.020594,-5773.606348,1455.581446
163431.963599,-1554.432478,-5921.647536,-76.609550
163431.963918,-4811.338623,-6513.812290,-4979.620737
163431.964237,-9030.512492,-8438.347739,-6741.640382
163431.964557,-9178.553681,-11325.150913,-5745.716235
163431.964876,-7105.977043,-14137.933492,-2221.676944
163431.965195,-4885.359217,-12657.521608,-1915.238745
163431.965515,-2368.659014,-10955.047942,1608.800546
163431.965834,-444.123565,-9622.677246,4213.525239
163431.966153,0.000000,-6587.832884,2451.505594
163431.966473,0.000000,-5107.421000,3064.381992
163431.966792,-74.020594,-7105.977043,2681.334243
163431.967111,-4145.153275,-6291.750507,1225.752797
163431.967431,-5773.606348,-6587.832884,-2757.943793
163431.967750,-5403.503377,-9474.636058,-1302.362347
163431.968069,-7105.977043,-10807.006753,-3677.258390
163431.968389,-6439.791695,-10955.047942,-3677.258390
163431.968708,-4663.297435,-10807.006753,-2221.676944
163431.969027,-2960.823768,-9918.759623,-612.876398
163431.969347,-3182.885551,-8364.327145,536.266849
163431.969666,-74.020594,-9474.636058,2374.896044
163431.969985,518.144159,-8142.265362,2451.505594
163431.970305,1184.329507,-6809.894666,2374.896044
163431.970624,0.000000,-8364.327145,4903.011187
163431.970944,4663.297435,-9474.636058,3600.648841
163431.971263,1776.494261,-8956.491898,2757.943793
163431.971582,2886.803174,-9474.636058,2757.943793
163431.971902,3330.926739,-10362.883188,2145.067394
163431.972221,2960.823768,-10510.924376,3447.429741
163431.972540,2812.782580,-10732.986159,1991.848295
163431.972860,2886.803174,-10658.965565,1455.581446
163431.973179,2294.638420,-11843.295072,2987.772442
163431.973498,2294.638420,-9474.636058,2987.772442
163431.973818,1332.370696,-8956.491898,3677.258390
163431.974137,4663.297435,-9474.636058,6971.469032
163431.974456,1776.494261,-8216.285956,7354.516781
163431.974776,666.185348,-7698.141797,6435.202183
163431.975095,-666.185348,-7846.182985,5056.230287
163431.975414,-148.041188,-9622.677246,5669.106685
163431.975734,-1776.494261,-10732.986159,3983.696590
163431.976053,-74.020594,-13027.624579,6358.592633
163431.976372,1110.308913,-12435.459826,5745.716235
163431.976692,-74.020594,-9474.636058,5439.278036
163431.977011,-1554.432478,-5995.668130,1838.629195
163431.977330,1998.556043,-6957.935855,3600.648841
163431.977650,1184.329507,-6587.832884,3294.210641
163431.977969,1332.370696,-8142.265362,4213.525239
163431.978288,1110.308913,-11177.109724,5439.278036
163431.978608,1184.329507,-13397.727550,7354.516781
163431.978927,-1924.535449,-12509.480420,7354.516781
163431.979246,-1184.329507,-13249.686362,10418.898773
163431.979566,-1258.350101,-11547.212695,10725.336972
163431.979885,-444.123565,-8142.265362,9729.412825
163431.980204,-2960.823768,-666.185348,3677.258390
163431.980524,370.102971,-3256.906145,6052.154434
163431.980843,-666.185348,-4589.276840,4290.134789
163431.981163,-1406.391290,-8068.244768,4903.011187
163431.981482,-1554.432478,-9474.636058,4826.401637
