#time,accel_x,accel_y,accel_z
163278.771913,-1258.350101,-7402.059420,-1991.848295
163278.772231,-2368.659014,-8364.327145,0.000000
163278.772550,-370.102971,-9548.656652,306.438199
163278.772869,-1036.288319,-8364.327145,-2528.115143
163278.773188,-74.020594,-10658.965565,-689.485948
163278.773507,-814.226536,-9474.636058,-766.095498
163278.773826,-666.185348,-9474.636058,-612.876398
163278.774144,-296.082377,-9548.656652,-689.485948
163278.774463,0.000000,-9548.656652,0.000000
163278.774782,0.000000,-8882.471304,-1302.362347
163278.775101,0.000000,-9548.656652,0.000000
163278.775420,518.144159,-10584.944971,-76.609550
163278.775739,-370.102971,-7772.162391,-1302.362347
163278.776057,-2072.576638,-7179.997637,0.000000
163278.776376,1110.308913,-10066.800811,-76.609550
163278.776695,0.000000,-9474.636058,0.000000
163278.777014,0.000000,-8808.450710,76.609550
163278.777333,0.000000,-9104.533087,0.000000
163278.777652,74.020594,-9474.636058,-76.609550
163278.777970,-814.226536,-8808.450710,0.000000
163278.778289,-1184.329507,-8142.265362,-689.485948
163278.778608,-2368.659014,-8364.327145,612.876398
163278.778927,1110.308913,-9474.636058,-76.609550
163278.779246,-2368.659014,-7179.997637,0.000000
163278.779565,-518.144159,-8586.388927,-153.219100
163278.779883,-1702.473667,-8364.327145,-612.876398
163278.780202,-740.205942,-9326.594869,-383.047749
163278.780521,-370.102971,-8956.491898,-2145.067394
163278.780840,-962.267725,-8142.265362,-2528.115143
163278.781159,-296.082377,-9474.636058,-1302.362347
163278.781478,-2368.659014,-9548.656652,0.000000
163278.781796,-74.020594,-9474.636058,-689.485948
163278.782115,0.000000,-9474.636058,-76.609550
163278.782434,0.000000,-9844.739029,612.876398
163278.782753,0.000000,-9918.759623,-306.438199
163278.783072,-888.247130,-9548.656652,0.000000
163278.783391,0.000000,-9104.533087,-229.828649
163278.783709,-2220.617826,-7179.997637,-1838.629195
163278.784028,-370.102971,-10510.924376,1149.143247
163278.784347,-666.185348,-8142.265362,-1149.143247
163278.784666,-1184.329507,-8364.327145,0.000000
163278.784985,592.164754,-9548.656652,1378.971896
163278.785304,1702.473667,-9474.636058,-76.609550
163278.785622,296.082377,-10140.821405,766.095498
163278.785941,-592.164754,-9104.533087,0.000000
163278.786260,-962.267725,-9252.574275,0.000000
163278.786579,-296.082377,-9622.677246,0.000000
163278.786898,-1702.473667,-8808.450710,229.828649
163278.787217,-74.020594,-9474.636058,842.705048
163278.787535,-1480.411884,-8364.327145,-1225.752797
163278.787854,-2368.659014,-8364.327145,0.000000
163278.788173,-74.020594,-10510.924376,-76.609550
163278.788492,-666.185348,-8290.306550,-3140.991542
163278.788811,-740.205942,-9770.718434,-229.828649
163278.789130,-592.164754,-9622.677246,-306.438199
163278.789449,-296.082377,-9326.594869,-612.876398
163278.789767,-74.020594,-9474.636058,-76.609550
163278.790086,592.164754,-10658.965565,1762.019645
163278.790405,518.144159,-9770.718434,-76.609550
163278.790724,-2368.659014,-7179.997637,-2145.067394
163278.791043,0.000000,-9696.697840,306.438199
163278.791362,592.164754,-9770.718434,1225.752797
163278.791680,-2072.576638,-7772.162391,0.000000
163278.791999,222.061783,-9474.636058,459.657299
163278.792318,-370.102971,-8882.471304,153.219100
163278.792637,-296.082377,-9326.594869,153.219100
163278.792956,-74.020594,-9474.636058,-76.609550
163278.793275,-74.020594,-9474.636058,0.000000
163278.793593,-74.020594,-10658.965565,1762.019645
163278.793912,-1110.308913,-8216.285956,-919.314598
163278.794231,-888.247130,-8216.285956,0.000000
163278.794550,1554.432478,-11843.295072,2834.553343
163278.794869,-1184.329507,-9548.656652,0.000000
163278.795188,-740.205942,-9252.574275,-536.266849
163278.795506,-1036.288319,-9400.615463,-229.828649
163278.795825,-814.226536,-9474.636058,-536.266849
163278.796144,-444.123565,-10140.821405,-76.609550
163278.796463,-962.267725,-8956.491898,-919.314598
163278.796782,-74.020594,-10066.800811,-689.485948
163278.797101,-962.267725,-8956.491898,-1225.752797
163278.797419,0.000000,-8364.327145,0.000000
163278.797738,-1184.329507,-7772.162391,-1838.629195
163278.798057,-74.020594,-9178.553681,-1302.362347
163278.798376,148.041188,-9400.615463,0.000000
163278.798695,0.000000,-9548.656652,-536.266849
163278.799014,0.000000,-7476.080014,-1302.362347
163278.799332,518.144159,-8882.471304,-76.609550
163278.799651,-1036.288319,-8364.327145,0.000000
163278.799970,0.000000,-8660.409521,0.000000
163278.800289,1184.329507,-9548.656652,1838.629195
163278.800608,2294.638420,-10658.965565,-76.609550
163278.800927,0.000000,-8364.327145,612.876398
163278.801245,1702.473667,-9104.533087,229.828649
163278.801564,1480.411884,-8660.409521,229.828649
163278.801883,1110.308913,-9178.553681,0.000000
163278.802202,0.000000,-7772.162391,-3064.381992
163278.802521,1184.329507,-8956.491898,-1302.362347
163278.802840,1184.329507,-8364.327145,-3064.381992
163278.803158,2368.659014,-9844.739029,306.438199
163278.803477,4367.215058,-9474.636058,-76.609550
163278.803796,5255.462188,-10658.965565,-76.609550
163278.804115,4737.318029,-9104.533087,1072.533697
163278.804434,4811.338623,-9252.574275,76.609550
163278.804753,5255.462188,-9400.615463,229.828649
163278.805071,5551.544565,-9178.553681,0.000000
163278.805390,3552.988522,-7179.997637,0.000000
163278.805709,5329.482782,-10658.965565,-383.047749
163278.806028,2368.659014,-8364.327145,-2451.505594
163278.806347,5107.421000,-9548.656652,-995.924147
163278.806666,7031.956449,-11251.130318,-76.609550
163278.806985,7698.141797,-10658.965565,1532.190996
163278.807303,8290.306550,-9252.574275,-383.047749
163278.807622,7846.182985,-9622.677246,383.047749
163278.807941,6661.853478,-10140.821405,306.438199
163278.808260,3552.988522,-10732.986159,0.000000
163278.808579,4367.215058,-12657.521608,612.876398
163278.808898,2516.700203,-13101.645173,1685.410096
163278.809216,2368.659014,-9844.739029,1149.143247
163278.809535,1184.329507,-7179.997637,0.000000
163278.809854,5329.482782,-8068.244768,3370.820191
163278.810173,2368.659014,-4219.173869,306.438199
163278.810492,3182.885551,-4663.297435,-1455.581446
163278.810811,2516.700203,-6217.729913,-2681.334243
163278.811129,1406.391290,-8734.430116,-3370.820191
163278.811448,-1110.308913,-10140.821405,-5822.325785
163278.811767,-814.226536,-15100.201217,-2911.162892
163278.812086,-2960.823768,-16506.592507,-1455.581446
163278.812405,-2146.597232,-16136.489536,1378.971896
163278.812724,-518.144159,-12731.542202,3677.258390
163278.813042,2294.638420,-9474.636058,4519.963438
163278.813361,2220.617826,-6143.709319,4826.401637
163278.813680,-74.020594,-2368.659014,-76.609550
163278.813999,-2368.659014,-1702.473667,-1225.752797
163278.814318,-1480.411884,-5255.462188,-1455.581446
163278.814637,-3552.988522,-9252.574275,-919.314598
163278.814955,-6883.915261,-10658.965565,-3983.696590
163278.815274,-9622.677246,-13989.892304,-4060.306139
163278.815593,-9252.574275,-15396.283594,-1532.190996
163278.815912,-7698.141797,-12509.480420,306.438199
163278.816231,-3627.009116,-10881.027347,3524.039291
163278.816550,-1258.350101,-7994.224174,4213.525239
163278.816868,-2442.679609,-4441.235652,4213.525239
163278.817187,-74.020594,-3552.988522,1149.143247
163278.817506,-666.185348,-5625.565159,-76.609550
163278.817825,-2220.617826,-9400.615463,-76.609550
163278.818144,-4959.379811,-10584.944971,-1762.019645
163278.818463,-6069.688724,-11991.336260,-1532.190996
163278.818781,-6735.874072,-13027.624579,-1225.752797
163278.819100,-5329.482782,-11473.192101,0.000000
163278.819419,-3256.906145,-10288.862594,-153.219100
163278.819738,-1258.350101,-7994.224174,-76.609550
163278.820057,-74.020594,-7105.977043,-1302.362347
163278.820376,-2220.617826,-6957.935855,-2068.457845
163278.820694,-1258.350101,-7698.141797,-3753.867940
163278.821013,-1554.432478,-10955.047942,-995.924147
163278.821332,-1776.494261,-11917.315666,-1302.362347
163278.821651,-592.164754,-12065.356855,842.705048
163278.821970,1332.370696,-11177.109724,2374.896044
163278.822289,4663.297435,-10510.924376,4749.792088
163278.822607,5033.400406,-6809.894666,3983.696590
163278.822926,5847.626942,-7105.977043,2374.896044
163278.823245,3478.967927,-6513.812290,-1915.238745
163278.823564,1776.494261,-7179.997637,-2451.505594
163278.823883,0.000000,-7179.997637,-5975.544884
163278.824202,1406.391290,-12213.398043,-3370.820191
163278.824520,370.102971,-13693.809927,-2528.115143
163278.824839,1480.411884,-13989.892304,1378.971896
163278.825158,4663.297435,-13027.624579,4213.525239
163278.825477,8216.285956,-9474.636058,4903.011187
163278.825796,6661.853478,-6143.709319,5822.325785
163278.826115,5403.503377,-3849.070898,2834.553343
163278.826434,4071.132681,-5921.647536,-76.609550
163278.826752,3849.070898,-6439.791695,-689.485948
163278.827071,296.082377,-7179.997637,-4903.011187
163278.827390,148.041188,-11251.130318,-4136.915689
163278.827709,-2442.679609,-13841.851115,-4213.525239
163278.828028,-3478.967927,-15618.345376,-2374.896044
163278.828347,-1258.350101,-15396.283594,-76.609550
163278.828665,1628.453072,-11769.274478,3370.820191
163278.828984,4663.297435,-8882.471304,4213.525239
163278.829303,4367.215058,-7105.977043,4826.401637
163278.829622,1110.308913,-2812.782580,-1302.362347
163278.829941,2590.720797,-7105.977043,-76.609550
163278.830260,0.000000,-7031.956449,-2757.943793
163278.830578,-74.020594,-10140.821405,-3294.210641
163278.830897,-2886.803174,-11695.253884,-3064.381992
163278.831216,-4293.194464,-12731.542202,-919.314598
163278.831535,-3034.844362,-13027.624579,-995.924147
163278.831854,-1332.370696,-10881.027347,1762.019645
163278.832173,0.000000,-7179.997637,0.000000
163278.832491,296.082377,-6291.750507,2145.067394
163278.832810,-74.020594,-6661.853478,383.047749
163278.833129,-1258.350101,-8216.285956,-1455.581446
163278.833448,-4293.194464,-9474.636058,-1838.629195
163278.833767,-4589.276840,-10140.821405,-1608.800546
163278.834086,-5403.503377,-11917.315666,-1685.410096
163278.834404,-5403.503377,-10658.965565,-76.609550
163278.834723,-3627.009116,-10658.965565,2374.896044
163278.835042,-1332.370696,-7476.080014,3600.648841
163278.835361,-1184.329507,-7476.080014,3370.820191
163278.835680,-1258.350101,-6513.812290,-76.609550
163278.835999,-3404.947333,-6069.688724,-2834.553343
163278.836317,-2368.659014,-9030.512492,-2834.553343
163278.836636,-3478.967927,-11177.109724,-4366.744339
163278.836955,-4367.215058,-12953.603985,-2834.553343
163278.837274,-3330.926739,-13693.809927,-1149.143247
163278.837593,-2368.659014,-12213.398043,1838.629195
163278.837912,1480.411884,-11029.068536,5822.325785
163278.838230,2368.659014,-5921.647536,2987.772442
163278.838549,888.247130,-3627.009116,1838.629195
163278.838868,1776.494261,-4811.338623,612.876398
163278.839187,1702.473667,-5033.400406,-3370.820191
163278.839506,0.000000,-8364.327145,-3370.820191
163278.839825,740.205942,-10066.800811,-1991.848295
163278.840143,-2294.638420,-13619.789333,-2834.553343
163278.840462,-2072.576638,-13027.624579,-229.828649
163278.840781,-2220.617826,-11917.315666,766.095498
163278.841100,1702.473667,-11251.130318,3294.210641
163278.841419,4145.153275,-8068.244768,6128.763984
163278.841738,3552.988522,-5921.647536,3370.820191
163278.842056,2886.803174,-4737.318029,-76.609550
163278.842375,2294.638420,-6957.935855,-1608.800546
163278.842694,1110.308913,-8290.306550,-4060.306139
163278.843013,592.164754,-9992.780217,-3983.696590
163278.843332,-74.020594,-12435.459826,-2834.553343
163278.843651,-222.061783,-13693.809927,-1225.752797
163278.843970,0.000000,-12509.480420,1225.752797
163278.844288,1776.494261,-11251.130318,2987.772442
163278.844607,3478.967927,-7550.100608,1149.143247
163278.844926,3108.864956,-6143.709319,1838.629195
163278.845245,2368.659014,-5995.668130,0.000000
163278.845564,1702.473667,-6513.812290,-3907.087040
163278.845883,-370.102971,-10362.883188,-3447.429741
163278.846201,-1554.432478,-11991.336260,-3064.381992
163278.846520,-1924.535449,-12583.501014,-1762.019645
163278.846838,-1850.514855,-11769.274478,612.876398
163278.847157,0.000000,-10140.821405,2681.334243
163278.847476,1702.473667,-7994.224174,3447.429741
163278.847794,296.082377,-5107.421000,2757.943793
163278.848113,0.000000,-2442.679609,0.000000
163278.848432,148.041188,-6291.750507,1685.410096
163278.848750,-4145.153275,-4811.338623,-3677.258390
163278.849069,-2590.720797,-10658.965565,-2528.115143
163278.849388,-5773.606348,-12065.356855,-4596.572988
163278.849706,-5033.400406,-14211.954086,-3294.210641
163278.850025,-3034.844362,-13027.624579,-689.485948
163278.850344,-1258.350101,-11843.295072,2374.896044
163278.850662,-1184.329507,-7328.038826,2834.553343
163278.850981,-74.020594,-4145.153275,536.266849
163278.851300,0.000000,-3034.844362,0.000000
163278.851618,2294.638420,-6957.935855,-76.609550
163278.851937,0.000000,-5995.668130,-2451.505594
163278.852255,-1998.556043,-10066.800811,-3064.381992
163278.852574,-4293.194464,-13027.624579,-3064.381992
163278.852893,-5181.441594,-13915.871710,-2068.457845
163278.853211,-4663.297435,-11029.068536,0.000000
163278.853530,-740.205942,-11843.295072,2681.334243
163278.853849,222.061783,-6587.832884,2528.115143
163278.854167,888.247130,-5403.503377,2757.943793
163278.854486,2146.597232,-4737.318029,2451.505594
163278.854805,0.000000,-5403.503377,612.876398
163278.855123,0.000000,-7846.182985,-2298.286494
163278.855442,-740.205942,-9770.718434,-2528.115143
163278.855761,-1258.350101,-11325.150913,-2068.457845
163278.856079,-1850.514855,-12213.398043,0.000000
163278.856398,-74.020594,-12731.542202,2374.896044
163278.856717,2294.638420,-12953.603985,4213.525239
163278.857035,2294.638420,-8290.306550,2987.772442
163278.857354,1554.432478,-6513.812290,-76.609550
163278.857672,1998.556043,-7328.038826,536.266849
163278.857991,0.000000,-6587.832884,-3677.258390
163278.858310,-1406.391290,-10140.821405,-3753.867940
163278.858628,-2664.741391,-11325.150913,-4443.353888
163278.858947,-2738.761985,-12657.521608,-2451.505594
163278.859266,-1850.514855,-11177.109724,-1608.800546
163278.859584,-888.247130,-10288.862594,2145.067394
163278.859903,1184.329507,-8512.368333,3064.381992
163278.860222,3404.947333,-7179.997637,4290.134789
163278.860540,4663.297435,-6513.812290,1762.019645
163278.860859,1184.329507,-4219.173869,0.000000
163278.861178,888.247130,-6883.915261,-3064.381992
163278.861496,222.061783,-9622.677246,-4060.306139
163278.861815,-1628.453072,-12213.398043,-4136.915689
163278.862134,-2146.597232,-13619.789333,-2298.286494
163278.862452,1702.473667,-14211.954086,-76.609550
163278.862771,1332.370696,-12657.521608,3677.258390
163278.863090,2442.679609,-8512.368333,3830.477490
163278.863408,2368.659014,-5329.482782,3064.381992
163278.863727,2886.803174,-5773.606348,2374.896044
163278.864045,2368.659014,-5329.482782,-76.609550
163278.864364,0.000000,-5995.668130,-1838.629195
163278.864683,-296.082377,-10288.862594,-2451.505594
163278.865001,-2442.679609,-14211.954086,-2528.115143
163278.865320,-5921.647536,-12509.480420,-3677.258390
163278.865639,-4811.338623,-13323.706956,-2221.676944
163278.865957,-2368.659014,-12805.562797,1455.581446
163278.866276,222.061783,-9400.615463,2987.772442
163278.866595,1036.288319,-6587.832884,2681.334243
163278.866913,1702.473667,-5181.441594,2068.457845
163278.867232,-666.185348,-5255.462188,-842.705048
163278.867551,0.000000,-6883.915261,-2145.067394
163278.867869,-592.164754,-9548.656652,-1991.848295
163278.868188,-370.102971,-12139.377449,-1915.238745
163278.868507,-2368.659014,-13397.727550,536.266849
163278.868825,-2960.823768,-11917.315666,612.876398
163278.869144,444.123565,-11325.150913,2987.772442
163278.869462,1554.432478,-8734.430116,3370.820191
163278.869781,1554.432478,-6513.812290,2145.067394
163278.870100,0.000000,-4811.338623,0.000000
163278.870418,814.226536,-7994.224174,-1225.752797
163278.870737,-592.164754,-9844.739029,-1225.752797
163278.871056,-1258.350101,-12731.542202,-2068.457845
163278.871374,-3701.029710,-11843.295072,-1762.019645
163278.871693,-1258.350101,-14211.954086,-76.609550
163278.872012,-2368.659014,-10807.006753,2451.505594
163278.872330,-888.247130,-8438.347739,3370.820191
163278.872649,518.144159,-5773.606348,3677.258390
163278.872968,1184.329507,-5403.503377,3064.381992
163278.873286,0.000000,-5107.421000,1225.752797
163278.873605,-3552.988522,-5107.421000,-3677.258390
163278.873924,-2664.741391,-9696.697840,-3983.696590
163278.874242,-3182.885551,-12213.398043,-5286.058936
163278.874561,-5847.626942,-12509.480420,-5975.544884
163278.874879,-1554.432478,-15396.283594,-1302.362347
163278.875198,0.000000,-13101.645173,2451.505594
163278.875517,2220.617826,-10066.800811,3830.477490
163278.875835,3256.906145,-6587.832884,3294.210641
163278.876154,4589.276840,-5551.544565,2451.505594
163278.876473,1184.329507,-3034.844362,0.000000
163278.876791,2368.659014,-6661.853478,-766.095498
163278.877110,2886.803174,-9918.759623,-1302.362347
163278.877429,-1998.556043,-9548.656652,-4366.744339
163278.877747,-4441.235652,-11325.150913,-2451.505594
163278.878066,-1554.432478,-13915.871710,-1302.362347
163278.878385,-370.102971,-12583.501014,2451.505594
163278.878703,1702.473667,-9474.636058,3830.477490
163278.879022,2738.761985,-6217.729913,3753.867940
163278.879341,3552.988522,-5033.400406,1072.533697
163278.879659,0.000000,-3627.009116,-919.314598
163278.879978,0.000000,-5403.503377,-4826.401637
163278.880297,-592.164754,-9548.656652,-2604.724693
163278.880615,-1258.350101,-11251.130318,-3753.867940
163278.880934,-4145.153275,-13101.645173,-1225.752797
163278.881252,-2738.761985,-13027.624579,-306.438199
163278.881571,-1332.370696,-11843.295072,1762.019645
163278.881890,1184.329507,-9104.533087,2298.286494
163278.882208,148.041188,-5403.503377,0.000000
163278.882527,296.082377,-4811.338623,0.000000
163278.882846,888.247130,-5773.606348,-2528.115143
163278.883164,0.000000,-7179.997637,-3370.820191
163278.883483,-148.041188,-11621.233289,-3447.429741
163278.883802,-2442.679609,-14211.954086,-3753.867940
163278.884120,-2886.803174,-14582.057057,-383.047749
163278.884439,-2146.597232,-12509.480420,842.705048
163278.884758,-666.185348,-10584.944971,2987.772442
163278.885076,666.185348,-7920.203579,3677.258390
163278.885395,0.000000,-4811.338623,2451.505594
163278.885714,592.164754,-3701.029710,1149.143247
163278.886032,0.000000,-3627.009116,-1838.629195
163278.886351,-1184.329507,-7772.162391,-2068.457845
163278.886669,-1998.556043,-11843.295072,-2528.115143
163278.886988,-3627.009116,-11547.212695,-4366.744339
163278.887307,-2738.761985,-14063.912898,-919.314598
163278.887625,-1628.453072,-13545.768739,1532.190996
163278.887944,-444.123565,-11103.089130,3677.258390
163278.888263,74.020594,-7105.977043,3294.210641
163278.888581,0.000000,-4811.338623,1225.752797
163278.888900,-74.020594,-4145.153275,-1455.581446
163278.889219,0.000000,-5403.503377,-2451.505594
163278.889537,-1776.494261,-7179.997637,-1838.629195
163278.889856,-1258.350101,-12287.418637,-1532.190996
163278.890175,-6513.812290,-9548.656652,-4903.011187
163278.890493,-3330.926739,-13915.871710,-766.095498
163278.890812,-2072.576638,-12583.501014,1762.019645
163278.891131,592.164754,-9844.739029,2911.162892
163278.891449,3478.967927,-7105.977043,3600.648841
163278.891768,3182.885551,-5921.647536,2374.896044
163278.892086,888.247130,-4811.338623,0.000000
163278.892405,0.000000,-4811.338623,-3677.258390
163278.892724,888.247130,-10362.883188,-3600.648841
163278.893042,-222.061783,-12435.459826,-1455.581446
163278.893361,-2368.659014,-11917.315666,-2298.286494
163278.893680,-592.164754,-13101.645173,536.266849
163278.893998,740.205942,-11621.233289,2987.772442
163278.894317,2516.700203,-9252.574275,3907.087040
163278.894636,888.247130,-3034.844362,1225.752797
163278.894954,3182.885551,-4811.338623,2298.286494
163278.895273,1702.473667,-3849.070898,-1838.629195
163278.895592,0.000000,-6883.915261,-2145.067394
163278.895910,-666.185348,-10362.883188,-2528.115143
163278.896229,-4145.153275,-12509.480420,-3677.258390
163278.896548,-4737.318029,-14211.954086,-3370.820191
163278.896866,-4219.173869,-13767.830521,-919.314598
163278.897185,-1850.514855,-11473.192101,1838.629195
163278.897504,222.061783,-7772.162391,2451.505594
163278.897822,2886.803174,-5921.647536,3600.648841
163278.898141,3849.070898,-5847.626942,2681.334243
163278.898459,2886.803174,-5329.482782,-76.609550
163278.898778,888.247130,-5773.606348,-3753.867940
163278.899097,-888.247130,-10732.986159,-1991.848295
163278.899415,-4145.153275,-11325.150913,-4903.011187
163278.899734,-2442.679609,-14211.954086,-2604.724693
163278.900053,-1332.370696,-14211.954086,0.000000
163278.900371,222.061783,-13027.624579,2451.505594
163278.900690,814.226536,-8068.244768,689.485948
163278.901009,888.247130,-6735.874072,1915.238745
163278.901327,888.247130,-5107.421000,612.876398
163278.901646,2072.576638,-5995.668130,306.438199
163278.901965,2294.638420,-8290.306550,-383.047749
163278.902283,-1184.329507,-7772.162391,-1225.752797
163278.902602,-1924.535449,-9770.718434,-1225.752797
163278.902921,-1998.556043,-11769.274478,612.876398
163278.903239,-1850.514855,-11991.336260,2451.505594
163278.903558,-740.205942,-10881.027347,3907.087040
163278.903876,2294.638420,-7698.141797,2374.896044
163278.904195,0.000000,-6513.812290,1532.190996
163278.904514,-1480.411884,-6217.729913,-1225.752797
163278.904832,-2664.741391,-7920.203579,-3524.039291
163278.905151,-2442.679609,-10658.965565,-3753.867940
163278.905470,-2368.659014,-11547.212695,-4979.620737
163278.905788,-4145.153275,-11917.315666,-2451.505594
163278.906107,-962.267725,-13619.789333,842.705048
163278.906426,-962.267725,-10362.883188,2374.896044
163278.906744,592.164754,-8364.327145,4903.011187
163278.907063,2886.803174,-5255.462188,2987.772442
163278.907382,2664.741391,-5107.421000,2374.896044
163278.907700,1702.473667,-5551.544565,-536.266849
163278.908019,74.020594,-8068.244768,-3140.991542
163278.908338,-1258.350101,-11325.150913,-3753.867940
163278.908656,-4071.132681,-13249.686362,-5209.449386
163278.908975,-4737.318029,-14508.036463,-3064.381992
163278.909293,-2442.679609,-16284.530724,-76.609550
163278.909612,-666.185348,-11843.295072,2987.772442
163278.909931,1184.329507,-8660.409521,6128.763984
163278.910249,2072.576638,-3775.050304,3983.696590
163278.910568,3182.885551,-3256.906145,3447.429741
163278.910887,2368.659014,-3775.050304,1302.362347
163278.911205,592.164754,-5921.647536,-1225.752797
163278.911524,-2294.638420,-7772.162391,-4903.011187
163278.911843,-3256.906145,-12213.398043,-4903.011187
163278.912161,-2960.823768,-16358.551318,-1378.971896
163278.912480,-3034.844362,-15396.283594,-2528.115143
163278.912799,-1998.556043,-13915.871710,689.485948
163278.913117,1628.453072,-13027.624579,4826.401637
163278.913436,1184.329507,-6957.935855,1072.533697
163278.913755,1480.411884,-4959.379811,0.000000
163278.914073,1776.494261,-4589.276840,-1149.143247
163278.914392,1480.411884,-5995.668130,0.000000
163278.914710,592.164754,-7179.997637,-1838.629195
163278.915029,-2368.659014,-9548.656652,-2451.505594
163278.915348,222.061783,-13619.789333,1149.143247
163278.915666,-370.102971,-12583.501014,2374.896044
163278.915985,444.123565,-10066.800811,2068.457845
163278.916304,4071.132681,-9474.636058,4826.401637
163278.916622,1702.473667,-6661.853478,2145.067394
163278.916941,814.226536,-6439.791695,0.000000
163278.917260,-518.144159,-6883.915261,-2451.505594
163278.917578,-1776.494261,-8364.327145,-3677.258390
163278.917897,-3923.091493,-9548.656652,-5209.449386
163278.918216,-3256.906145,-11621.233289,-2911.162892
163278.918534,-814.226536,-12583.501014,-76.609550
163278.918853,-74.020594,-11547.212695,2374.896044
163278.919172,0.000000,-7179.997637,3677.258390
163278.919490,3478.967927,-6513.812290,4826.401637
163278.919809,3108.864956,-5107.421000,2604.724693
163278.920128,1850.514855,-5551.544565,0.000000
163278.920446,-370.102971,-7624.121203,-2451.505594
163278.920765,-2072.576638,-9696.697840,-4979.620737
163278.921083,-5773.606348,-12213.398043,-6741.640382
163278.921402,-4885.359217,-15396.283594,-4290.134789
163278.921721,-3627.009116,-16580.613101,-2528.115143
163278.922039,-3034.844362,-13027.624579,536.266849
163278.922358,0.000000,-9548.656652,4903.011187
163278.922677,2146.597232,-5551.544565,3753.867940
163278.922995,3182.885551,-3034.844362,3907.087040
163278.923314,3627.009116,-2664.741391,1915.238745
163278.923633,740.205942,-3627.009116,-2145.067394
163278.923951,-1258.350101,-7179.997637,-3753.867940
163278.924270,-2664.741391,-9844.739029,-6128.763984
163278.924589,-3552.988522,-14285.974681,-2451.505594
163278.924907,-2442.679609,-15396.283594,-1915.238745
163278.925226,-1258.350101,-15396.283594,2374.896044
163278.925545,0.000000,-12213.398043,3064.381992
163278.925863,444.123565,-7328.038826,1915.238745
163278.926182,370.102971,-5255.462188,76.609550
163278.926500,1036.288319,-4071.132681,-689.485948
163278.926819,0.000000,-3627.009116,-3677.258390
163278.927138,0.000000,-6957.935855,-1302.362347
163278.927456,-1554.432478,-8734.430116,-2681.334243
163278.927775,-2368.659014,-11917.315666,0.000000
163278.928094,-4737.318029,-10732.986159,0.000000
163278.928412,-74.020594,-11251.130318,1762.019645
163278.928731,666.185348,-9770.718434,3524.039291
163278.929050,1480.411884,-7772.162391,1762.019645
163278.929368,592.164754,-6735.874072,-689.485948
163278.929687,-1110.308913,-6883.915261,-2528.115143
163278.930006,-3552.988522,-7772.162391,-4903.011187
163278.930324,-1554.432478,-10066.800811,-5286.058936
163278.930643,-2368.659014,-11917.315666,-4443.353888
163278.930962,0.000000,-11917.315666,612.876398
163278.931280,2072.576638,-12879.583391,3830.477490
163278.931599,740.205942,-7772.162391,2757.943793
163278.931917,4515.256246,-6809.894666,5975.544884
163278.932236,4293.194464,-4367.215058,4060.306139
163278.932555,3034.844362,-5625.565159,1838.629195
163278.932873,2294.638420,-7698.141797,-689.485948
163278.933192,-74.020594,-10658.965565,-4366.744339
163278.933511,-4663.297435,-11917.315666,-5515.887586
163278.933829,-7698.141797,-12509.480420,-6128.763984
163278.934148,-5921.647536,-15470.304188,-2451.505594
163278.934467,-2442.679609,-14508.036463,2987.772442
163278.934785,-2368.659014,-7772.162391,2451.505594
163278.935104,1776.494261,-6143.709319,4213.525239
163278.935423,2590.720797,-3849.070898,3983.696590
163278.935741,2442.679609,-2812.782580,1915.238745
163278.936060,518.144159,-2664.741391,-2528.115143
163278.936379,-74.020594,-7698.141797,-2528.115143
163278.936697,-1258.350101,-10658.965565,-5286.058936
163278.937016,-5329.482782,-13397.727550,-4903.011187
163278.937335,-3627.009116,-16210.510130,-2451.505594
163278.937653,-74.020594,-17764.942608,2374.896044
163278.937972,-592.164754,-12509.480420,1302.362347
163278.938290,1702.473667,-9104.533087,1608.800546
163278.938609,1702.473667,-5847.626942,842.705048
163278.938928,1776.494261,-4071.132681,1302.362347
163278.939246,1184.329507,-4219.173869,-2221.676944
163278.939565,2294.638420,-7105.977043,-1302.362347
163278.939884,148.041188,-7772.162391,-1532.190996
163278.940202,-962.267725,-10140.821405,0.000000
163278.940521,-2368.659014,-12583.501014,1608.800546
163278.940840,-888.247130,-13323.706956,4749.792088
163278.941158,-666.185348,-9696.697840,3294.210641
163278.941477,222.061783,-7402.059420,2604.724693
163278.941796,0.000000,-6513.812290,306.438199
163278.942114,-3552.988522,-4811.338623,-2451.505594
163278.942433,-2368.659014,-7772.162391,-3830.477490
163278.942752,-2590.720797,-10658.965565,-4136.915689
163278.943070,-1258.350101,-14211.954086,-2528.115143
163278.943389,-1850.514855,-11843.295072,-2528.115143
163278.943707,-148.041188,-13471.748144,2374.896044
163278.944026,0.000000,-9548.656652,3370.820191
163278.944345,2738.761985,-7772.162391,4673.182538
163278.944663,3478.967927,-5699.585753,3907.087040
163278.944982,2442.679609,-5033.400406,1072.533697
163278.945301,0.000000,-4811.338623,-4290.134789
163278.945620,-444.123565,-9770.718434,-3370.820191
163278.945938,-3256.906145,-12435.459826,-4903.011187
163278.946257,-4737.318029,-14434.015869,-5592.497135
163278.946576,-5033.400406,-14211.954086,-3140.991542
163278.946895,-1258.350101,-14211.954086,1762.019645
163278.947213,-74.020594,-11843.295072,4213.525239
163278.947532,1036.288319,-5699.585753,4136.915689
163278.947851,3478.967927,-2960.823768,4826.401637
163278.948169,3256.906145,-2442.679609,3217.601092
163278.948488,3552.988522,-4663.297435,2451.505594
163278.948807,3034.844362,-8660.409521,689.485948
163278.949126,-814.226536,-9622.677246,-3140.991542
163278.949444,-2960.823768,-13249.686362,-3983.696590
163278.949763,-4589.276840,-14285.974681,-3294.210641
163278.950082,-2738.761985,-15988.448347,-842.705048
163278.950401,-2738.761985,-12213.398043,612.876398
163278.950719,0.000000,-8364.327145,0.000000
163278.951038,0.000000,-5995.668130,306.438199
163278.951357,2294.638420,-4737.318029,-76.609550
163278.951676,888.247130,-5625.565159,-1149.143247
163278.951994,888.247130,-7550.100608,-2221.676944
163278.952313,592.164754,-8882.471304,-1915.238745
163278.952632,-370.102971,-10881.027347,-689.485948
163278.952950,-666.185348,-12583.501014,1762.019645
163278.953269,-1184.329507,-12879.583391,1915.238745
163278.953588,0.000000,-10955.047942,2374.896044
163278.953907,0.000000,-7179.997637,1838.629195
163278.954225,592.164754,-6291.750507,766.095498
163278.954544,-74.020594,-5329.482782,-3677.258390
163278.954863,-814.226536,-7698.141797,-3524.039291
163278.955182,-2072.576638,-9548.656652,-4596.572988
163278.955500,-1480.411884,-11177.109724,-3907.087040
163278.955819,-1258.350101,-12435.459826,-1915.238745
163278.956138,1110.308913,-13027.624579,2374.896044
163278.956456,1702.473667,-11843.295072,6052.154434
163278.956775,2886.803174,-6809.894666,5362.668486
163278.957094,2812.782580,-4145.153275,4826.401637
163278.957413,3256.906145,-5107.421000,4213.525239
163278.957731,-2072.576638,-4811.338623,0.000000
163278.958050,-1110.308913,-8586.388927,-3140.991542
163278.958369,-3701.029710,-11695.253884,-5439.278036
163278.958688,-6291.750507,-14211.954086,-6511.811733
163278.959006,-6587.832884,-15396.283594,-5056.230287
163278.959325,-4811.338623,-15692.365970,-766.095498
163278.959644,-1554.432478,-11843.295072,1762.019645
163278.959963,518.144159,-7698.141797,4213.525239
163278.960281,3478.967927,-3256.906145,3600.648841
163278.960600,5699.585753,-4737.318029,6052.154434
163278.960919,2368.659014,-2738.761985,1225.752797
163278.961237,2368.659014,-6883.915261,-1532.190996
163278.961556,-740.205942,-10140.821405,-3447.429741
163278.961875,-2664.741391,-13397.727550,-4749.792088
163278.962194,-3034.844362,-15396.283594,-3677.258390
163278.962512,-1554.432478,-16580.613101,-689.485948
163278.962831,-666.185348,-14063.912898,2374.896044
163278.963150,2294.638420,-10066.800811,2374.896044
163278.963469,1110.308913,-6291.750507,1532.190996
163278.963787,3478.967927,-5921.647536,-76.609550
163278.964106,1110.308913,-3923.091493,-612.876398
163278.964425,1110.308913,-6069.688724,-766.095498
163278.964743,1036.288319,-7698.141797,-612.876398
163278.965062,1702.473667,-11547.212695,1762.019645
163278.965381,-592.164754,-13175.665768,2911.162892
163278.965700,-666.185348,-12731.542202,3217.601092
163278.966018,-74.020594,-12435.459826,4519.963438
163278.966337,0.000000,-7994.224174,1685.410096
163278.966656,0.000000,-5995.668130,0.000000
163278.966975,-74.020594,-7698.141797,-1915.238745
163278.967293,-3108.864956,-7624.121203,-4596.572988
163278.967612,-3182.885551,-9252.574275,-5898.935335
163278.967931,-2368.659014,-11251.130318,-5056.230287
163278.968250,-74.020594,-14211.954086,-1302.362347
163278.968568,-74.020594,-12953.603985,306.438199
163278.968887,1776.494261,-11917.315666,4596.572988
163278.969206,4367.215058,-9474.636058,6205.373534
163278.969524,6439.791695,-7698.141797,7277.907231
163278.969843,2960.823768,-2442.679609,3677.258390
163278.970162,2368.659014,-4959.379811,153.219100
163278.970481,518.144159,-8290.306550,-1532.190996
163278.970799,-2220.617826,-11325.150913,-4366.744339
163278.971118,-4515.256246,-13249.686362,-5745.716235
163278.971437,-4219.173869,-16580.613101,-4979.620737
163278.971756,-5921.647536,-14434.015869,-1838.629195
163278.972074,-2146.597232,-13619.789333,1455.581446
163278.972393,370.102971,-9474.636058,4826.401637
163278.972712,2294.638420,-3701.029710,3983.696590
163278.973031,4737.318029,-4515.256246,7124.688131
163278.973349,2590.720797,-1776.494261,1838.629195
163278.973668,1702.473667,-4737.318029,-306.438199
163278.973987,-296.082377,-8586.388927,-3217.601092
163278.974305,-3552.988522,-11325.150913,-4903.011187
163278.974624,-4737.318029,-13693.809927,-4903.011187
163278.974943,-3997.112087,-16284.530724,-1915.238745
163278.975262,-2368.659014,-15766.386565,842.705048
163278.975580,-74.020594,-12435.459826,1149.143247
163278.975899,222.061783,-6217.729913,-1302.362347
163278.976218,2294.638420,-7105.977043,1455.581446
163278.976537,444.123565,-4959.379811,-1608.800546
163278.976855,1924.535449,-6439.791695,-995.924147
163278.977174,1924.535449,-8142.265362,-1149.143247
163278.977493,1184.329507,-10140.821405,1838.629195
163278.977811,0.000000,-11621.233289,1838.629195
163278.978130,1480.411884,-13767.830521,5515.887586
163278.978449,2294.638420,-11695.253884,4826.401637
163278.978768,1998.556043,-8068.244768,4826.401637
163278.979086,0.000000,-5403.503377,153.219100
163278.979405,-74.020594,-7105.977043,-76.609550
163278.979724,-2664.741391,-6883.915261,-3677.258390
163278.980043,-3478.967927,-8364.327145,-5592.497135
163278.980361,-3404.947333,-10362.883188,-5669.106685
163278.980680,-888.247130,-13101.645173,-2757.943793
163278.980999,-3552.988522,-10140.821405,0.000000
163278.981318,0.000000,-11029.068536,3677.258390
163278.981636,2886.803174,-9474.636058,6052.154434
163278.981955,3478.967927,-4515.256246,3064.381992
163278.982274,4071.132681,-4145.153275,2374.896044
163278.982592,2368.659014,-5255.462188,995.924147
163278.982911,222.061783,-7254.018232,-2068.457845
163278.983230,-2146.597232,-10362.883188,-4826.401637
163278.983549,-3034.844362,-15988.448347,-4979.620737
163278.983867,-6217.729913,-15248.242405,-7124.688131
163278.984186,-6735.874072,-14952.160028,-4903.011187
163278.984505,-4071.132681,-12583.501014,-1915.238745
163278.984824,0.000000,-8956.491898,2604.724693
163278.985142,2664.741391,-4219.173869,2834.553343
163278.985461,5847.626942,-3552.988522,4826.401637
163278.985780,4885.359217,-2442.679609,2681.334243
163278.986099,2960.823768,-4663.297435,766.095498
163278.986417,666.185348,-7994.224174,-1991.848295
163278.986736,-592.164754,-12805.562797,-1378.971896
163278.987055,-3775.050304,-14285.974681,-3907.087040
163278.987373,-3627.009116,-15988.448347,-2451.505594
163278.987692,-3182.885551,-15248.242405,0.000000
163278.988011,-666.185348,-11695.253884,2451.505594
163278.988330,-2072.576638,-5995.668130,306.438199
163278.988648,-666.185348,-3108.864956,-1149.143247
163278.988967,0.000000,-3182.885551,-1532.190996
163278.989286,592.164754,-4515.256246,-3370.820191
163278.989605,1702.473667,-6587.832884,-1915.238745
163278.989923,2886.803174,-11251.130318,-76.609550
163278.990242,-1702.473667,-11251.130318,0.000000
163278.990561,-2146.597232,-12139.377449,1532.190996
163278.990879,-1036.288319,-11695.253884,2757.943793
163278.991198,0.000000,-9844.739029,2757.943793
163278.991517,2072.576638,-8882.471304,2298.286494
163278.991836,-1184.329507,-5107.421000,-1378.971896
163278.992154,-1776.494261,-7179.997637,-4903.011187
163278.992473,-2960.823768,-8068.244768,-4903.011187
163278.992792,-2886.803174,-8512.368333,-7354.516781
163278.993111,-1184.329507,-10732.986159,-3370.820191
163278.993429,-370.102971,-11769.274478,-536.266849
163278.993748,1036.288319,-11251.130318,3370.820191
163278.994067,2738.761985,-9178.553681,5669.106685
163278.994386,4589.276840,-6365.771101,6971.469032
163278.994704,3997.112087,-5181.441594,4673.182538
163278.995023,2072.576638,-3627.009116,76.609550
163278.995342,0.000000,-5995.668130,-1838.629195
163278.995660,-1480.411884,-9696.697840,-3370.820191
163278.995979,-5921.647536,-11917.315666,-5822.325785
163278.996298,-5995.668130,-15322.262999,-5209.449386
163278.996617,-6809.894666,-15100.201217,-3983.696590
163278.996935,-4737.318029,-12731.542202,-306.438199
163278.997254,-1480.411884,-9548.656652,689.485948
163278.997573,1998.556043,-4737.318029,1455.581446
163278.997892,3182.885551,-3256.906145,3600.648841
163278.998210,1776.494261,-962.267725,1838.629195
163278.998529,2516.700203,-4811.338623,1149.143247
163278.998848,1036.288319,-9474.636058,-1302.362347
163278.999166,-2368.659014,-11325.150913,-3677.258390
163278.999485,-3849.070898,-14137.933492,-4979.620737
163278.999804,-4441.235652,-16654.633695,-3907.087040
163279.000123,-2516.700203,-16358.551318,-995.924147
163279.000441,-2368.659014,-10732.986159,0.000000
163279.000760,0.000000,-7105.977043,1149.143247
163279.001079,1110.308913,-4441.235652,0.000000
163279.001398,1184.329507,-3627.009116,0.000000
163279.001716,0.000000,-2738.761985,-1838.629195
163279.002035,4367.215058,-7105.977043,-76.609550
163279.002354,1628.453072,-9474.636058,153.219100
163279.002673,-370.102971,-11029.068536,-229.828649
163279.002991,-1850.514855,-12657.521608,1225.752797
163279.003310,-1184.329507,-12509.480420,2911.162892
163279.003629,0.000000,-9992.780217,4136.915689
163279.003947,1110.308913,-7846.182985,2068.457845
163279.004266,-1184.329507,-5995.668130,0.000000
163279.004585,-4737.318029,-4811.338623,-3677.258390
163279.004904,-1480.411884,-8882.471304,-4060.306139
163279.005222,-3627.009116,-7994.224174,-7660.954980
163279.005541,-2368.659014,-11325.150913,-4596.572988
163279.005860,-2072.576638,-11325.150913,-2221.676944
163279.006179,-518.144159,-10955.047942,1149.143247
163279.006497,2072.576638,-10955.047942,4213.525239
163279.006816,4071.132681,-8882.471304,6971.469032
163279.007135,4071.132681,-5921.647536,4826.401637
163279.007454,2886.803174,-3849.070898,459.657299
163279.007772,148.041188,-5403.503377,-1378.971896
163279.008091,-74.020594,-9844.739029,-1225.752797
163279.008410,-4737.318029,-10732.986159,-6128.763984
163279.008728,-4589.276840,-14285.974681,-5209.449386
163279.009047,-5107.421000,-14804.118840,-4060.306139
163279.009366,-3552.988522,-13545.768739,-689.485948
163279.009685,-74.020594,-10658.965565,1149.143247
163279.010003,2294.638420,-6957.935855,6052.154434
163279.010322,5847.626942,-5625.565159,6052.154434
163279.010641,4663.297435,-2368.659014,3753.867940
163279.010960,2368.659014,-1998.556043,536.266849
163279.011278,2812.782580,-8512.368333,-76.609550
163279.011597,-2220.617826,-9548.656652,-3983.696590
163279.011916,-3627.009116,-14211.954086,-4673.182538
163279.012234,-5181.441594,-16210.510130,-4060.306139
163279.012553,-4811.338623,-15840.407159,-1991.848295
163279.012872,-2886.803174,-12953.603985,-383.047749
163279.013191,-74.020594,-11251.130318,1762.019645
163279.013509,-74.020594,-6513.812290,-76.609550
163279.013828,148.041188,-2442.679609,-2221.676944
163279.014147,0.000000,-3627.009116,0.000000
163279.014466,4663.297435,-8290.306550,-76.609550
163279.014784,444.123565,-7772.162391,-1762.019645
163279.015103,-1110.308913,-10288.862594,-459.657299
163279.015422,-1850.514855,-13027.624579,612.876398
163279.015741,-74.020594,-14211.954086,3830.477490
163279.016059,740.205942,-12657.521608,3983.696590
163279.016378,2294.638420,-10066.800811,3907.087040
163279.016697,2294.638420,-9474.636058,2374.896044
163279.017015,-74.020594,-6809.894666,-1915.238745
163279.017334,-4145.153275,-4811.338623,-4903.011187
163279.017653,-666.185348,-8290.306550,-4979.620737
163279.017972,-1480.411884,-10732.986159,-4366.744339
163279.018290,-296.082377,-11621.233289,-1915.238745
163279.018609,74.020594,-11177.109724,1378.971896
163279.018928,3478.967927,-11843.295072,6052.154434
163279.019247,3478.967927,-8586.388927,6052.154434
163279.019565,5551.544565,-7328.038826,7660.954980
163279.019884,4663.297435,-5921.647536,3600.648841
163279.020203,1036.288319,-5181.441594,0.000000
163279.020521,-2368.659014,-7179.997637,-2451.505594
163279.020840,-4219.173869,-11325.150913,-6358.592633
163279.021159,-5995.668130,-14285.974681,-7048.078582
163279.021478,-7105.977043,-15322.262999,-6281.983084
163279.021796,-5773.606348,-14656.077652,-2987.772442
163279.022115,-1258.350101,-13027.624579,-76.609550
163279.022434,2294.638420,-9474.636058,6205.373534
163279.022753,4663.297435,-4441.235652,4826.401637
163279.023071,4589.276840,-1554.432478,3600.648841
163279.023390,2368.659014,-1258.350101,2451.505594
163279.023709,0.000000,-3627.009116,-2451.505594
163279.024028,666.185348,-9844.739029,-2604.724693
163279.024346,-2368.659014,-12805.562797,-4519.963438
163279.024665,-3552.988522,-15914.427753,-4136.915689
163279.024984,-2738.761985,-16284.530724,-2528.115143
163279.025302,-2812.782580,-14285.974681,-612.876398
163279.025621,-2072.576638,-10140.821405,1532.190996
163279.025940,370.102971,-7031.956449,1532.190996
163279.026259,3478.967927,-5921.647536,-76.609550
163279.026577,0.000000,-1258.350101,0.000000
163279.026896,3182.885551,-4441.235652,-612.876398
163279.027215,2368.659014,-7105.977043,153.219100
163279.027534,0.000000,-9622.677246,0.000000
163279.027852,-1702.473667,-11769.274478,383.047749
163279.028171,-666.185348,-14211.954086,2374.896044
163279.028490,-2294.638420,-12213.398043,2451.505594
163279.028809,-518.144159,-10288.862594,2374.896044
163279.029127,-962.267725,-8290.306550,383.047749
163279.029446,-2294.638420,-6587.832884,-689.485948
163279.029765,-3997.112087,-6587.832884,-3064.381992
163279.030083,-4145.153275,-7772.162391,-4903.011187
163279.030402,-1258.350101,-11399.171507,-4673.182538
163279.030721,-222.061783,-11251.130318,-1915.238745
163279.031040,-444.123565,-10510.924376,0.000000
163279.031358,2294.638420,-10658.965565,3600.648841
163279.031677,3552.988522,-8660.409521,5745.716235
163279.031996,4959.379811,-6291.750507,5898.935335
163279.032315,4515.256246,-5773.606348,3753.867940
163279.032633,4071.132681,-7105.977043,2145.067394
163279.032952,814.226536,-8734.430116,-1915.238745
163279.033271,-3552.988522,-10140.821405,-4903.011187
163279.033589,-4145.153275,-14285.974681,-7354.516781
163279.033908,-7105.977043,-14582.057057,-4903.011187
163279.034227,-7105.977043,-12509.480420,-3064.381992
163279.034546,-3775.050304,-10436.903782,383.047749
163279.034864,888.247130,-8068.244768,4213.525239
163279.035183,3256.906145,-4515.256246,6052.154434
163279.035502,4071.132681,-2294.638420,4979.620737
163279.035821,3775.050304,-1850.514855,2374.896044
163279.036139,2146.597232,-5107.421000,-76.609550
163279.036458,-1184.329507,-8956.491898,-4903.011187
163279.036777,-3552.988522,-14434.015869,-4290.134789
163279.037096,-5403.503377,-16284.530724,-5898.935335
163279.037414,-5921.647536,-16950.716072,-2757.943793
163279.037733,-3923.091493,-15322.262999,-1991.848295
163279.038052,-1258.350101,-11621.233289,919.314598
163279.038370,370.102971,-7105.977043,1302.362347
163279.038689,1702.473667,-4515.256246,0.000000
163279.039008,1480.411884,-2442.679609,0.000000
163279.039327,3775.050304,-3404.947333,-1608.800546
163279.039645,2368.659014,-5995.668130,0.000000
163279.039964,3404.947333,-10658.965565,-76.609550
163279.040283,74.020594,-11251.130318,-76.609550
163279.040602,-74.020594,-15396.283594,2987.772442
163279.040920,-666.185348,-12657.521608,2834.553343
163279.041239,148.041188,-10955.047942,3140.991542
163279.041558,0.000000,-8512.368333,1608.800546
163279.041877,-2368.659014,-5995.668130,0.000000
163279.042195,-3552.988522,-4811.338623,-3294.210641
163279.042514,-2812.782580,-5995.668130,-5515.887586
163279.042833,-1776.494261,-9252.574275,-4136.915689
163279.043151,-74.020594,-12435.459826,-689.485948
163279.043470,-962.267725,-8660.409521,-2221.676944
163279.043789,2294.638420,-11251.130318,2987.772442
163279.044108,1850.514855,-9326.594869,4749.792088
163279.044426,3034.844362,-7846.182985,4673.182538
163279.044745,2886.803174,-6365.771101,2911.162892
163279.045064,1184.329507,-6365.771101,612.876398
163279.045383,-1776.494261,-7179.997637,-3677.258390
163279.045701,-4145.153275,-9844.739029,-6052.154434
163279.046020,-4737.318029,-13841.851115,-5822.325785
163279.046339,-4811.338623,-15840.407159,-5515.887586
163279.046657,-6217.729913,-13101.645173,-4290.134789
163279.046976,-2146.597232,-11843.295072,1072.533697
163279.047295,1332.370696,-8068.244768,4519.963438
163279.047613,4737.318029,-4441.235652,6741.640382
163279.047932,5773.606348,-1850.514855,5209.449386
163279.048251,4737.318029,-2146.597232,3907.087040
163279.048569,1184.329507,-4811.338623,0.000000
163279.048888,-592.164754,-8364.327145,-4903.011187
163279.049207,-1998.556043,-14063.912898,-3753.867940
163279.049525,-4811.338623,-15692.365970,-4979.620737
163279.049844,-5625.565159,-16358.551318,-2528.115143
163279.050163,-5181.441594,-13989.892304,-2451.505594
163279.050481,-2368.659014,-11177.109724,919.314598
163279.050800,-962.267725,-7254.018232,1991.848295
163279.051118,0.000000,-3034.844362,0.000000
163279.051437,592.164754,-74.020594,0.000000
163279.051756,2664.741391,-3701.029710,0.000000
163279.052074,3552.988522,-8290.306550,995.924147
163279.052393,-74.020594,-9474.636058,-1915.238745
163279.052712,-1776.494261,-11843.295072,-1915.238745
163279.053030,-2146.597232,-15692.365970,766.095498
163279.053349,-2664.741391,-14359.995275,612.876398
163279.053668,-444.123565,-12213.398043,2068.457845
163279.053986,592.164754,-8956.491898,1991.848295
163279.054305,0.000000,-5403.503377,0.000000
163279.054624,-2368.659014,-3627.009116,-4213.525239
163279.054942,-2368.659014,-6587.832884,-3677.258390
163279.055261,-74.020594,-9030.512492,-2834.553343
163279.055580,74.020594,-10658.965565,-2528.115143
163279.055898,0.000000,-9548.656652,-1991.848295
163279.056217,2516.700203,-11325.150913,3600.648841
163279.056535,2516.700203,-9252.574275,5515.887586
163279.056854,3923.091493,-8068.244768,5745.716235
163279.057173,4145.153275,-6513.812290,4290.134789
163279.057491,1332.370696,-5107.421000,1532.190996
163279.057810,-1110.308913,-5995.668130,-2451.505594
163279.058129,-3552.988522,-9696.697840,-4826.401637
163279.058447,-3034.844362,-15396.283594,-4060.306139
163279.058766,-6291.750507,-14211.954086,-4979.620737
163279.059085,-8290.306550,-11917.315666,-4903.011187
163279.059403,-4219.173869,-12139.377449,-153.219100
163279.059722,-814.226536,-8364.327145,3447.429741
163279.060041,3256.906145,-5329.482782,5669.106685
163279.060359,4663.297435,-1554.432478,5286.058936
163279.060678,4663.297435,-2368.659014,3600.648841
163279.060996,1480.411884,-4219.173869,0.000000
163279.061315,0.000000,-7179.997637,-3677.258390
163279.061634,-1850.514855,-13027.624579,-5286.058936
163279.061952,-4219.173869,-17764.942608,-4979.620737
163279.062271,-6809.894666,-17838.963202,-4903.011187
163279.062590,-3775.050304,-16728.654289,-2145.067394
163279.062908,-814.226536,-11917.315666,919.314598
163279.063227,1110.308913,-7698.141797,1991.848295
163279.063546,370.102971,-1850.514855,0.000000
163279.063864,3256.906145,-2516.700203,1685.410096
163279.064183,2590.720797,-1850.514855,0.000000
163279.064502,5033.400406,-6143.709319,1838.629195
163279.064820,2294.638420,-8586.388927,-76.609550
163279.065139,-1776.494261,-11917.315666,612.876398
163279.065457,-2960.823768,-14137.933492,-766.095498
163279.065776,-2960.823768,-14434.015869,459.657299
163279.066095,-2072.576638,-12435.459826,1532.190996
163279.066413,-1258.350101,-9844.739029,0.000000
163279.066732,-74.020594,-7698.141797,-76.609550
163279.067051,-296.082377,-7550.100608,-2145.067394
163279.067369,-1258.350101,-6735.874072,-3753.867940
163279.067688,-2368.659014,-7179.997637,-7354.516781
163279.068007,1036.288319,-10807.006753,-689.485948
163279.068325,444.123565,-11177.109724,995.924147
163279.068644,0.000000,-9548.656652,0.000000
163279.068963,1702.473667,-10214.842000,4826.401637
163279.069281,2664.741391,-8734.430116,4979.620737
163279.069600,1184.329507,-5995.668130,3064.381992
163279.069918,2368.659014,-7105.977043,995.924147
163279.070237,814.226536,-9178.553681,-536.266849
163279.070556,-1998.556043,-10658.965565,-3753.867940
163279.070874,-4515.256246,-11251.130318,-7584.345430
163279.071193,-4145.153275,-14952.160028,-4213.525239
163279.071512,-4737.318029,-12805.562797,-3064.381992
163279.071830,-2146.597232,-11843.295072,1378.971896
163279.072149,814.226536,-8734.430116,4826.401637
163279.072468,3404.947333,-5699.585753,6358.592633
163279.072786,2442.679609,-962.267725,2451.505594
163279.073105,4663.297435,-2886.803174,4673.182538
163279.073424,2294.638420,-4367.215058,1225.752797
163279.073742,0.000000,-7846.182985,-2451.505594
163279.074061,-4071.132681,-11843.295072,-4979.620737
163279.074380,-4811.338623,-16580.613101,-7354.516781
163279.074698,-5403.503377,-18801.230927,-4979.620737
163279.075017,-6513.812290,-15470.304188,-4290.134789
163279.075335,-3404.947333,-11029.068536,-1762.019645
163279.075654,1110.308913,-10066.800811,3370.820191
163279.075973,1184.329507,-3923.091493,2451.505594
163279.076291,3182.885551,-2072.576638,1838.629195
163279.076610,3997.112087,-3404.947333,1149.143247
163279.076929,3256.906145,-5477.523971,-459.657299
163279.077247,1628.453072,-7402.059420,-1455.581446
163279.077566,-74.020594,-12435.459826,-2221.676944
163279.077885,-3182.885551,-15618.345376,-1455.581446
163279.078203,-4145.153275,-14582.057057,-3064.381992
163279.078522,-1184.329507,-13989.892304,2451.505594
163279.078841,2294.638420,-11843.295072,2374.896044
163279.079159,1406.391290,-8290.306550,1838.629195
163279.079478,0.000000,-5107.421000,-1455.581446
163279.079796,814.226536,-4811.338623,-1915.238745
163279.080115,370.102971,-6291.750507,-2374.896044
163279.080434,1406.391290,-9400.615463,-383.047749
163279.080752,1110.308913,-9030.512492,-383.047749
163279.081071,814.226536,-9400.615463,1149.143247
163279.081390,0.000000,-9548.656652,3677.258390
163279.081708,2516.700203,-9622.677246,4903.011187
163279.082027,296.082377,-5995.668130,2451.505594
163279.082346,1110.308913,-6661.853478,842.705048
163279.082664,-1258.350101,-8068.244768,-2068.457845
163279.082983,-2442.679609,-8882.471304,-5286.058936
163279.083302,-5477.523971,-10288.862594,-8580.269578
163279.083620,-4811.338623,-12731.542202,-8044.002729
163279.083939,-5551.544565,-13915.871710,-4979.620737
163279.084257,-4737.318029,-11325.150913,0.000000
163279.084576,0.000000,-9696.697840,3753.867940
163279.084895,4663.297435,-7698.141797,8503.660028
163279.085213,4737.318029,-3034.844362,7354.516781
163279.085532,5625.565159,-3034.844362,4673.182538
163279.085851,2812.782580,-4515.256246,1608.800546
163279.086169,296.082377,-7476.080014,-2374.896044
163279.086488,-4145.153275,-9548.656652,-7048.078582
163279.086807,-5995.668130,-16580.613101,-6205.373534
163279.087125,-6883.915261,-16358.551318,-6971.469032
163279.087444,-5921.647536,-16358.551318,-3064.381992
163279.087763,-4737.318029,-12509.480420,0.000000
163279.088081,2294.638420,-9474.636058,3600.648841
163279.088400,2368.659014,-4811.338623,4290.134789
163279.088718,3478.967927,-1850.514855,3140.991542
163279.089037,4589.276840,-2146.597232,2681.334243
163279.089356,4737.318029,-4145.153275,1838.629195
163279.089674,1998.556043,-6957.935855,76.609550
163279.089993,-666.185348,-11547.212695,-1302.362347
163279.090312,-5033.400406,-13841.851115,-3447.429741
163279.090630,-7846.182985,-14285.974681,-3677.258390
163279.090949,-5329.482782,-14285.974681,-1072.533697
163279.091268,-2442.679609,-11251.130318,-2068.457845
163279.091586,-1332.370696,-8290.306550,76.609550
163279.091905,-1850.514855,-5921.647536,-1762.019645
163279.092224,-962.267725,-4515.256246,-2528.115143
163279.092542,518.144159,-7105.977043,-1608.800546
163279.092861,2886.803174,-9474.636058,-76.609550
163279.093179,3478.967927,-9474.636058,-76.609550
163279.093498,0.000000,-8364.327145,0.000000
163279.093817,2960.823768,-11547.212695,5209.449386
163279.094135,3108.864956,-9548.656652,6435.202183
163279.094454,1628.453072,-7179.997637,2681.334243
163279.094773,1850.514855,-7994.224174,1225.752797
163279.095091,-444.123565,-9178.553681,-1225.752797
163279.095410,-2368.659014,-9252.574275,-4596.572988
163279.095729,-2442.679609,-11843.295072,-6205.373534
163279.096047,-3330.926739,-13027.624579,-5132.839837
163279.096366,-2442.679609,-14211.954086,-3140.991542
163279.096685,-3256.906145,-10732.986159,0.000000
163279.097003,0.000000,-8512.368333,2451.505594
163279.097322,3552.988522,-7254.018232,9729.412825
163279.097641,3552.988522,-2442.679609,6281.983084
163279.097959,4515.256246,-2738.761985,4979.620737
163279.098278,2220.617826,-4885.359217,842.705048
163279.098596,-1258.350101,-7846.182985,-2451.505594
163279.098915,-3627.009116,-10658.965565,-6818.249932
163279.099234,-5255.462188,-15988.448347,-7431.126331
163279.099552,-7328.038826,-16284.530724,-8810.098227
163279.099871,-6217.729913,-15470.304188,-7354.516781
163279.100190,-4441.235652,-13397.727550,0.000000
163279.100508,2886.803174,-11251.130318,4826.401637
163279.100827,2960.823768,-4219.173869,3830.477490
163279.101146,5107.421000,-1850.514855,3524.039291
163279.101464,5847.626942,-2368.659014,3370.820191
163279.101783,5625.565159,-4811.338623,3524.039291
163279.102102,4293.194464,-7476.080014,0.000000
163279.102420,814.226536,-12287.418637,-1915.238745
163279.102739,-3034.844362,-15396.283594,-2528.115143
163279.103057,-6661.853478,-14582.057057,-3677.258390
163279.103376,-5625.565159,-14878.139434,0.000000
163279.103695,-666.185348,-13027.624579,1149.143247
163279.104013,-1628.453072,-8586.388927,1532.190996
163279.104332,74.020594,-3701.029710,0.000000
163279.104651,444.123565,-3552.988522,-459.657299
163279.104969,1702.473667,-7105.977043,1762.019645
163279.105288,814.226536,-7550.100608,-919.314598
163279.105607,2886.803174,-10658.965565,1762.019645
163279.105925,518.144159,-10066.800811,-76.609550
163279.106244,0.000000,-11325.150913,2451.505594
163279.106563,0.000000,-9548.656652,2451.505594
163279.106881,1110.308913,-10066.800811,2604.724693
163279.107200,1184.329507,-8586.388927,919.314598
163279.107518,-370.102971,-8290.306550,-1225.752797
163279.107837,-2368.659014,-8512.368333,-4519.963438
163279.108156,-1258.350101,-12435.459826,-4979.620737
163279.108474,-4145.153275,-12953.603985,-4903.011187
163279.108793,-3627.009116,-11695.253884,-4979.620737
163279.109112,-2960.823768,-11029.068536,0.000000
163279.109430,0.000000,-8364.327145,3677.258390
163279.109749,1850.514855,-4811.338623,4903.011187
163279.110068,5699.585753,-4071.132681,8044.002729
163279.110386,5181.441594,-2886.803174,6205.373534
163279.110705,3404.947333,-4293.194464,2987.772442
163279.111024,1702.473667,-7105.977043,-1302.362347
163279.111342,-3256.906145,-10510.924376,-5515.887586
163279.111661,-7105.977043,-13101.645173,-8733.488677
163279.111979,-6883.915261,-16654.633695,-7354.516781
163279.112298,-4071.132681,-18357.107362,-3753.867940
163279.112617,-4737.318029,-12361.439231,-2451.505594
163279.112935,-74.020594,-9918.759623,2068.457845
163279.113254,1776.494261,-5107.421000,3983.696590
163279.113573,4145.153275,-2442.679609,3907.087040
163279.113891,4885.359217,-1998.556043,2834.553343
163279.114210,6439.791695,-5921.647536,4213.525239
163279.114529,1776.494261,-6883.915261,-1455.581446
163279.114847,-740.205942,-10436.903782,-3140.991542
163279.115166,-3923.091493,-13989.892304,-4290.134789
163279.115485,-5699.585753,-16876.695478,-2451.505594
163279.115803,-4737.318029,-15470.304188,-2451.505594
163279.116122,-4441.235652,-11325.150913,0.000000
163279.116441,0.000000,-9548.656652,1225.752797
163279.116759,-74.020594,-6735.874072,612.876398
163279.117078,518.144159,-2442.679609,-3370.820191
163279.117396,3478.967927,-5921.647536,-689.485948
163279.117715,2368.659014,-5773.606348,-459.657299
163279.118034,2886.803174,-8068.244768,459.657299
163279.118352,2664.741391,-9178.553681,2298.286494
163279.118671,2812.782580,-10732.986159,4443.353888
163279.118990,2294.638420,-11251.130318,4519.963438
163279.119308,888.247130,-9548.656652,3983.696590
163279.119627,1998.556043,-8142.265362,612.876398
163279.119946,0.000000,-8364.327145,153.219100
163279.120264,-4737.318029,-6587.832884,-4903.011187
163279.120583,-3627.009116,-9770.718434,-6205.373534
163279.120902,-5773.606348,-12139.377449,-6128.763984
163279.121220,-5551.544565,-12509.480420,-5056.230287
163279.121539,-4145.153275,-11473.192101,-2068.457845
163279.121857,-1554.432478,-9474.636058,1455.581446
163279.122176,1702.473667,-7254.018232,5822.325785
163279.122495,4145.153275,-2442.679609,5132.839837
163279.122813,6661.853478,-4959.379811,8120.612279
163279.123132,4663.297435,-4737.318029,3600.648841
163279.123451,0.000000,-5995.668130,0.000000
163279.123769,-2442.679609,-9400.615463,-5056.230287
163279.124088,-5329.482782,-13915.871710,-7967.393179
163279.124407,-7105.977043,-17172.777854,-8044.002729
163279.124725,-6291.750507,-17394.839637,-6741.640382
163279.125044,-4737.318029,-13545.768739,-3677.258390
163279.125363,0.000000,-9548.656652,459.657299
163279.125681,1480.411884,-5995.668130,4903.011187
163279.126000,5329.482782,-2812.782580,5592.497135
163279.126318,6143.709319,-1184.329507,4826.401637
163279.126637,7550.100608,-4737.318029,4749.792088
163279.126956,4145.153275,-5995.668130,536.266849
163279.127274,222.061783,-9474.636058,-1532.190996
163279.127593,-3552.988522,-13619.789333,-3447.429741
163279.127912,-7105.977043,-15470.304188,-4903.011187
163279.128230,-7105.977043,-15988.448347,-2528.115143
163279.128549,-4737.318029,-13693.809927,0.000000
163279.128868,-1258.350101,-10510.924376,1072.533697
163279.129186,-74.020594,-8586.388927,1149.143247
163279.129505,-74.020594,-2812.782580,-2681.334243
163279.129824,1406.391290,-5921.647536,-1608.800546
163279.130142,1110.308913,-6439.791695,-2068.457845
163279.130461,2146.597232,-7624.121203,-842.705048
163279.130779,1554.432478,-9474.636058,612.876398
163279.131098,0.000000,-10732.986159,1915.238745
163279.131417,0.000000,-10732.986159,2451.505594
163279.131735,1776.494261,-10732.986159,3830.477490
163279.132054,2886.803174,-10955.047942,3524.039291
163279.132373,1702.473667,-9178.553681,-383.047749
163279.132691,-3997.112087,-7179.997637,-4903.011187
163279.133010,-2442.679609,-10436.903782,-4979.620737
163279.133329,-3775.050304,-10732.986159,-5745.716235
163279.133647,-3256.906145,-11843.295072,-4213.525239
163279.133966,-1924.535449,-10214.842000,-1302.362347
163279.134285,-74.020594,-9030.512492,2987.772442
163279.134603,1850.514855,-6587.832884,6358.592633
163279.134922,2368.659014,-2442.679609,6128.763984
163279.135241,4737.318029,-3923.091493,7431.126331
163279.135559,4663.297435,-5921.647536,6665.030833
163279.135878,0.000000,-5107.421000,0.000000
163279.136196,-2442.679609,-9548.656652,-4060.306139
163279.136515,-6291.750507,-13027.624579,-7967.393179
163279.136834,-7920.203579,-16284.530724,-8656.879127
163279.137152,-7772.162391,-16358.551318,-9346.365076
163279.137471,-5107.421000,-14582.057057,-3753.867940
163279.137790,-666.185348,-11843.295072,536.266849
163279.138108,666.185348,-6143.709319,2757.943793
163279.138427,3552.988522,-2442.679609,1838.629195
163279.138746,8216.285956,-4737.318029,6052.154434
163279.139064,4737.318029,-3330.926739,3064.381992
163279.139383,3923.091493,-6291.750507,153.219100
163279.139702,888.247130,-10140.821405,-2451.505594
163279.140020,-3108.864956,-14137.933492,-3907.087040
163279.140339,-6513.812290,-14878.139434,-5439.278036
163279.140657,-2738.761985,-17764.942608,-1302.362347
163279.140976,-2960.823768,-13915.871710,0.000000
163279.141295,0.000000,-9992.780217,536.266849
163279.141613,0.000000,-5403.503377,612.876398
163279.141932,3478.967927,-3404.947333,-76.609550
163279.142251,1480.411884,-4219.173869,0.000000
163279.142569,1702.473667,-4441.235652,-153.219100
163279.142888,2146.597232,-6957.935855,-842.705048
163279.143207,2294.638420,-10362.883188,2068.457845
163279.143525,296.082377,-11843.295072,2834.553343
163279.143844,-74.020594,-11547.212695,3294.210641
163279.144163,0.000000,-10066.800811,2374.896044
163279.144481,0.000000,-7179.997637,612.876398
163279.144800,0.000000,-8364.327145,0.000000
163279.145118,-2442.679609,-7254.018232,-4673.182538
163279.145437,-3552.988522,-8882.471304,-5669.106685
163279.145756,-4589.276840,-9918.759623,-6205.373534
163279.146075,-3997.112087,-11695.253884,-5515.887586
163279.146393,-1258.350101,-13027.624579,-2528.115143
163279.146712,-666.185348,-11843.295072,995.924147
163279.147031,1702.473667,-9474.636058,6052.154434
163279.147349,2442.679609,-4811.338623,5515.887586
163279.147668,4737.318029,-4219.173869,6435.202183
163279.147987,4737.318029,-4811.338623,6435.202183
163279.148305,592.164754,-4959.379811,0.000000
163279.148624,-814.226536,-9030.512492,-2911.162892
163279.148943,-3701.029710,-12583.501014,-6818.249932
163279.149262,-6365.771101,-15322.262999,-7660.954980
163279.149580,-5403.503377,-16284.530724,-7431.126331
163279.149899,-3627.009116,-17764.942608,-689.485948
163279.150218,-74.020594,-12879.583391,2068.457845
163279.150536,1406.391290,-7179.997637,3983.696590
163279.150855,1184.329507,-1850.514855,3753.867940
163279.151174,2960.823768,-74.020594,4903.011187
163279.151493,4663.297435,-2368.659014,2604.724693
163279.151811,3182.885551,-5403.503377,383.047749
163279.152130,0.000000,-9030.512492,-2145.067394
163279.152449,-4959.379811,-10732.986159,-5209.449386
163279.152767,-5921.647536,-14434.015869,-4903.011187
163279.153086,-6217.729913,-16950.716072,-2681.334243
163279.153405,-3330.926739,-15396.283594,-76.609550
163279.153724,-74.020594,-11843.295072,-76.609550
163279.154042,-2072.576638,-5995.668130,1225.752797
163279.154361,0.000000,-2590.720797,-1378.971896
163279.154680,444.123565,-4367.215058,-1225.752797
163279.154998,888.247130,-5329.482782,-1378.971896
163279.155317,1998.556043,-7698.141797,-1532.190996
163279.155636,3478.967927,-9474.636058,-1608.800546
163279.155954,1480.411884,-11103.089130,2221.676944
163279.156273,2294.638420,-12065.356855,3370.820191
163279.156592,2812.782580,-11399.171507,4596.572988
163279.156911,2590.720797,-9918.759623,4366.744339
163279.157229,2960.823768,-9474.636058,3524.039291
163279.157548,0.000000,-7772.162391,0.000000
163279.157867,-222.061783,-9474.636058,-3907.087040
163279.158185,-4589.276840,-9992.780217,-6052.154434
163279.158504,-5181.441594,-11473.192101,-6128.763984
163279.158823,-5107.421000,-10140.821405,-4903.011187
163279.159142,-1776.494261,-11621.233289,229.828649
163279.159460,518.144159,-8956.491898,4213.525239
163279.159779,3182.885551,-6291.750507,7048.078582
163279.160098,5847.626942,-4737.318029,7890.783629
163279.160416,4663.297435,-3108.864956,4826.401637
163279.160735,2368.659014,-5847.626942,1915.238745
163279.161054,-74.020594,-8290.306550,-2145.067394
163279.161373,-2442.679609,-13027.624579,-5592.497135
163279.161691,-7105.977043,-14878.139434,-8427.050478
163279.162010,-8734.430116,-15470.304188,-9193.145976
163279.162329,-5995.668130,-16876.695478,-4979.620737
163279.162647,-2960.823768,-14211.954086,-153.219100
163279.162966,518.144159,-9844.739029,2834.553343
163279.163285,4663.297435,-4515.256246,3753.867940
163279.163603,5551.544565,-814.226536,4366.744339
163279.163922,7402.059420,-2368.659014,5056.230287
163279.164241,8068.244768,-5921.647536,3600.648841
163279.164560,3478.967927,-7994.224174,-383.047749
163279.164878,-74.020594,-14211.954086,-1302.362347
163279.165197,-5255.462188,-14211.954086,-4903.011187
163279.165516,-5995.668130,-17098.757260,-3524.039291
163279.165834,-4811.338623,-16876.695478,-1302.362347
163279.166153,-2590.720797,-13249.686362,1072.533697
163279.166472,-1776.494261,-7772.162391,1225.752797
163279.166791,0.000000,-4515.256246,0.000000
163279.167109,592.164754,-4219.173869,919.314598
163279.167428,2294.638420,-5033.400406,-76.609550
163279.167747,1998.556043,-4811.338623,-2374.896044
163279.168065,4071.132681,-9474.636058,-76.609550
163279.168384,370.102971,-10214.842000,1072.533697
163279.168703,148.041188,-12065.356855,2145.067394
163279.169022,-370.102971,-11843.295072,2834.553343
163279.169340,1480.411884,-11843.295072,3753.867940
163279.169659,296.082377,-8364.327145,0.000000
163279.169978,-2368.659014,-8364.327145,-2145.067394
163279.170296,-2072.576638,-8956.491898,-3983.696590
163279.170615,-1258.350101,-12139.377449,-3600.648841
163279.170934,-5329.482782,-9548.656652,-7354.516781
163279.171252,-2442.679609,-11547.212695,-3753.867940
163279.171571,-1258.350101,-10510.924376,536.266849
163279.171890,1258.350101,-9104.533087,4903.011187
163279.172209,3997.112087,-6809.894666,7660.954980
163279.172527,6957.935855,-4811.338623,9652.803275
163279.172846,4293.194464,-2516.700203,5822.325785
163279.173165,3849.070898,-5847.626942,3217.601092
163279.173483,-74.020594,-9474.636058,-76.609550
163279.173802,-3627.009116,-11251.130318,-6205.373534
163279.174121,-8290.306550,-14285.974681,-8580.269578
163279.174440,-6883.915261,-15988.448347,-7737.564530
163279.174758,-6069.688724,-16284.530724,-5056.230287
163279.175077,-3108.864956,-14063.912898,-76.609550
163279.175396,592.164754,-8956.491898,1225.752797
163279.175714,3034.844362,-4071.132681,2451.505594
163279.176033,4737.318029,-1258.350101,4903.011187
163279.176352,2960.823768,-74.020594,2451.505594
163279.176671,5847.626942,-5625.565159,2374.896044
163279.176989,2886.803174,-9178.553681,-689.485948
163279.177308,-888.247130,-12953.603985,-2298.286494
163279.177627,-5107.421000,-15100.201217,-5362.668486
163279.177945,-6365.771101,-17542.880825,-4596.572988
163279.178264,-4737.318029,-16876.695478,-2298.286494
163279.178583,-4737.318029,-11917.315666,0.000000
163279.178901,0.000000,-7179.997637,919.314598
163279.179220,222.061783,-3034.844362,0.000000
163279.179539,592.164754,-3627.009116,1225.752797
163279.179858,3478.967927,-4441.235652,1149.143247
163279.180176,3478.967927,-4737.318029,-1915.238745
163279.180495,3182.885551,-8586.388927,-76.609550
163279.180814,592.164754,-9844.739029,612.876398
163279.181132,370.102971,-12805.562797,1838.629195
163279.181451,0.000000,-12953.603985,2528.115143
163279.181770,0.000000,-10732.986159,2451.505594
163279.182089,-74.020594,-8290.306550,-76.609550
163279.182407,-2072.576638,-7772.162391,-1838.629195
163279.182726,-2664.741391,-8068.244768,-3064.381992
163279.183045,-1554.432478,-10658.965565,-4366.744339
163279.183363,-5995.668130,-8364.327145,-8580.269578
163279.183682,-3330.926739,-12213.398043,-3907.087040
163279.184001,-3034.844362,-11325.150913,-1302.362347
163279.184320,-962.267725,-9548.656652,2068.457845
163279.184638,1998.556043,-7105.977043,6052.154434
163279.184957,4293.194464,-4737.318029,7277.907231
163279.185276,4071.132681,-3330.926739,5209.449386
163279.185594,2960.823768,-4811.338623,612.876398
163279.185913,0.000000,-7179.997637,306.438199
163279.186232,-1554.432478,-12287.418637,-3753.867940
163279.186550,-8142.265362,-13101.645173,-8580.269578
163279.186869,-6365.771101,-16654.633695,-8427.050478
163279.187188,-5847.626942,-16580.613101,-5362.668486
163279.187507,-3404.947333,-14582.057057,-1302.362347
163279.187825,-74.020594,-9178.553681,1149.143247
163279.188144,3478.967927,-5699.585753,4826.401637
163279.188463,5033.400406,-1776.494261,4826.401637
163279.188781,4737.318029,-74.020594,3677.258390
163279.189100,6809.894666,-3330.926739,4749.792088
163279.189419,6439.791695,-8290.306550,2068.457845
163279.189738,0.000000,-9696.697840,-2451.505594
163279.190056,-4145.153275,-14063.912898,-4136.915689
163279.190375,-7179.997637,-17098.757260,-4366.744339
163279.190694,-7031.956449,-17172.777854,-3370.820191
163279.191012,-6513.812290,-11917.315666,0.000000
163279.191331,-1554.432478,-10658.965565,-76.609550
163279.191650,-1924.535449,-5699.585753,-1072.533697
163279.191969,-1184.329507,-3627.009116,-919.314598
163279.192287,2886.803174,-6809.894666,-76.609550
163279.192606,2664.741391,-6587.832884,919.314598
163279.192925,3182.885551,-8068.244768,-1149.143247
163279.193243,1480.411884,-9548.656652,0.000000
163279.193562,1110.308913,-12139.377449,2221.676944
163279.193881,0.000000,-11325.150913,2451.505594
163279.194199,2738.761985,-12509.480420,4136.915689
163279.194518,2294.638420,-10584.944971,2374.896044
163279.194837,-74.020594,-8586.388927,-76.609550
163279.195156,-666.185348,-8290.306550,-3753.867940
163279.195474,-1332.370696,-10510.924376,-3753.867940
163279.195793,-4737.318029,-10140.821405,-5515.887586
163279.196112,-3404.947333,-10955.047942,-3983.696590
163279.196430,-2590.720797,-10955.047942,-1532.190996
163279.196749,-592.164754,-10140.821405,2528.115143
163279.197068,1110.308913,-5255.462188,3677.258390
163279.197387,5551.544565,-5255.462188,8503.660028
163279.197705,5551.544565,-3034.844362,7354.516781
163279.198024,3552.988522,-3627.009116,4366.744339
163279.198343,-222.061783,-6217.729913,0.000000
163279.198661,-1850.514855,-10658.965565,-3753.867940
163279.198980,-5699.585753,-15248.242405,-6205.373534
163279.199299,-7179.997637,-17172.777854,-8810.098227
163279.199618,-8882.471304,-16062.468941,-7354.516781
163279.199936,-5847.626942,-15026.180623,-1915.238745
163279.200255,-3552.988522,-9548.656652,1225.752797
163279.200574,2294.638420,-7624.121203,3447.429741
163279.200892,4367.215058,-3256.906145,4903.011187
163279.201211,5847.626942,-1850.514855,4366.744339
163279.201530,5255.462188,-2072.576638,2681.334243
163279.201848,4663.297435,-5403.503377,306.438199
163279.202167,2516.700203,-11843.295072,-1072.533697
163279.202486,-2442.679609,-14211.954086,-3753.867940
163279.202805,-6587.832884,-14878.139434,-6128.763984
163279.203123,-4811.338623,-18949.272115,-1302.362347
163279.203442,-4441.235652,-15026.180623,612.876398
163279.203761,-1184.329507,-10584.944971,1149.143247
163279.204079,74.020594,-6883.915261,1608.800546
163279.204398,666.185348,-2442.679609,0.000000
163279.204717,2664.741391,-2294.638420,612.876398
163279.205036,2368.659014,-4219.173869,689.485948
163279.205354,4071.132681,-6513.812290,2068.457845
163279.205673,4663.297435,-8882.471304,-76.609550
163279.205992,0.000000,-10881.027347,1378.971896
163279.206310,-74.020594,-13027.624579,2374.896044
163279.206629,-740.205942,-12065.356855,3140.991542
163279.206948,-518.144159,-10362.883188,1225.752797
163279.207267,-1628.453072,-9326.594869,-1225.752797
163279.207585,-3478.967927,-8290.306550,-3447.429741
163279.207904,-3552.988522,-9104.533087,-4903.011187
163279.208223,-3330.926739,-10436.903782,-5209.449386
163279.208541,-666.185348,-11843.295072,-3753.867940
163279.208860,-2368.659014,-9844.739029,-2451.505594
163279.209179,148.041188,-9548.656652,1838.629195
163279.209497,2294.638420,-5921.647536,4213.525239
163279.209816,5329.482782,-6513.812290,8580.269578
163279.210135,6513.812290,-4663.297435,7124.688131
163279.210454,4811.338623,-4367.215058,4519.963438
163279.210772,2886.803174,-9474.636058,-76.609550
163279.211091,-74.020594,-11843.295072,-3370.820191
163279.211410,-3923.091493,-14508.036463,-6205.373534
163279.211728,-6587.832884,-15396.283594,-8886.707777
163279.212047,-7105.977043,-15988.448347,-7431.126331
163279.212366,-4737.318029,-14285.974681,-1225.752797
163279.212685,-1628.453072,-9918.759623,1225.752797
163279.213003,3108.864956,-6661.853478,5362.668486
163279.213322,5107.421000,-2516.700203,6435.202183
163279.213641,6069.688724,-1406.391290,5745.716235
163279.213959,6439.791695,-3256.906145,2834.553343
163279.214278,2960.823768,-4959.379811,766.095498
163279.214597,-74.020594,-10362.883188,-3140.991542
163279.214916,-5255.462188,-13619.789333,-6511.811733
163279.215234,-8882.471304,-16062.468941,-7354.516781
163279.215553,-6513.812290,-19911.539840,-1608.800546
163279.215872,-5921.647536,-15396.283594,-2451.505594
163279.216190,-2812.782580,-11251.130318,612.876398
163279.216509,-592.164754,-6439.791695,766.095498
163279.216828,1480.411884,-2664.741391,1225.752797
163279.217146,2368.659014,-2442.679609,306.438199
163279.217465,4515.256246,-5255.462188,1532.190996
163279.217784,4441.235652,-6587.832884,1532.190996
163279.218103,4663.297435,-9474.636058,-76.609550
163279.218421,148.041188,-9548.656652,-1302.362347
163279.218740,2886.803174,-15396.283594,2374.896044
163279.219059,-518.144159,-13693.809927,2145.067394
163279.219377,0.000000,-12213.398043,2068.457845
163279.219696,-370.102971,-9326.594869,306.438199
163279.220015,-1184.329507,-9548.656652,-919.314598
163279.220334,-2960.823768,-7772.162391,-3064.381992
163279.220652,-2368.659014,-8364.327145,-3983.696590
163279.220971,-1406.391290,-10955.047942,-2528.115143
163279.221290,-2368.659014,-9548.656652,-2451.505594
163279.221608,-2072.576638,-7476.080014,0.000000
163279.221927,2294.638420,-9178.553681,6052.154434
163279.222246,3404.947333,-6143.709319,7737.564530
163279.222565,3997.112087,-4885.359217,6052.154434
163279.222883,2590.720797,-5403.503377,4290.134789
163279.223202,1110.308913,-7402.059420,-76.609550
163279.223521,-5773.606348,-7476.080014,-4903.011187
163279.223839,-6217.729913,-11917.315666,-7354.516781
163279.224158,-6291.750507,-15396.283594,-8580.269578
163279.224477,-4811.338623,-17764.942608,-6511.811733
163279.224795,-5921.647536,-14285.974681,-3677.258390
163279.225114,-814.226536,-12435.459826,536.266849
163279.225433,2146.597232,-7698.141797,4519.963438
163279.225752,5107.421000,-3849.070898,6511.811733
163279.226070,6883.915261,-666.185348,4903.011187
163279.226389,8142.265362,-2442.679609,3677.258390
163279.226708,4737.318029,-3923.091493,1838.629195
163279.227026,2886.803174,-8512.368333,-1838.629195
163279.227345,-74.020594,-14211.954086,-3140.991542
163279.227664,-6365.771101,-17172.777854,-6818.249932
163279.227983,-7105.977043,-19023.292709,-3983.696590
163279.228301,-5995.668130,-17098.757260,-2528.115143
163279.228620,-3034.844362,-12583.501014,383.047749
163279.228939,0.000000,-7105.977043,1455.581446
163279.229257,0.000000,-1258.350101,0.000000
163279.229576,1480.411884,-1258.350101,459.657299
163279.229895,3034.844362,-2590.720797,0.000000
163279.230214,5255.462188,-7105.977043,-76.609550
163279.230532,2146.597232,-7402.059420,-1608.800546
163279.230851,1998.556043,-11843.295072,-76.609550
163279.231170,-74.020594,-14878.139434,1455.581446
163279.231488,-1332.370696,-15026.180623,612.876398
163279.231807,-1184.329507,-12731.542202,0.000000
163279.232126,-666.185348,-10658.965565,-536.266849
163279.232444,-2960.823768,-7772.162391,-2451.505594
163279.232763,-2516.700203,-5995.668130,-6358.592633
163279.233082,-2368.659014,-8364.327145,-3524.039291
163279.233401,-370.102971,-10362.883188,-3753.867940
163279.233719,-1184.329507,-8586.388927,-1302.362347
163279.234038,2886.803174,-10658.965565,3600.648841
163279.234357,2072.576638,-8512.368333,5822.325785
163279.234675,4071.132681,-6587.832884,7814.174080
163279.234994,4737.318029,-5181.441594,7967.393179
163279.235313,4441.235652,-5995.668130,7124.688131
163279.235632,518.144159,-6439.791695,1685.410096
163279.235950,-2442.679609,-8882.471304,-3140.991542
163279.236269,-7105.977043,-10881.027347,-7814.174080
163279.236588,-10066.800811,-12805.562797,-9806.022374
163279.236906,-7254.018232,-16580.613101,-6818.249932
163279.237225,-4589.276840,-16062.468941,-2911.162892
163279.237544,-2738.761985,-11695.253884,153.219100
163279.237863,814.226536,-8142.265362,3600.648841
163279.238181,4145.153275,-4219.173869,6205.373534
163279.238500,3552.988522,-74.020594,4903.011187
163279.238819,6069.688724,-1850.514855,5132.839837
163279.239137,4663.297435,-4737.318029,1838.629195
163279.239456,2886.803174,-9474.636058,-1608.800546
163279.239775,-3923.091493,-12287.418637,-6358.592633
163279.240094,-5551.544565,-18801.230927,-5439.278036
163279.240412,-9178.553681,-18653.189738,-6741.640382
163279.240731,-6365.771101,-17838.963202,-3447.429741
163279.241050,-2664.741391,-12879.583391,229.828649
163279.241368,592.164754,-7624.121203,2757.943793
163279.241687,0.000000,-666.185348,1225.752797
163279.242006,4663.297435,518.144159,2374.896044
163279.242324,5995.668130,-1924.535449,2451.505594
163279.242643,4663.297435,-3849.070898,1762.019645
163279.242962,4663.297435,-8290.306550,-76.609550
163279.243281,1702.473667,-10288.862594,-1072.533697
163279.243599,-74.020594,-15692.365970,-76.609550
163279.243918,-2220.617826,-14137.933492,0.000000
163279.244237,-2738.761985,-12509.480420,0.000000
163279.244555,-148.041188,-10732.986159,2298.286494
163279.244874,-2368.659014,-7179.997637,-3370.820191
163279.245193,-2072.576638,-7624.121203,-3140.991542
163279.245512,-2146.597232,-7328.038826,-4903.011187
163279.245830,-2960.823768,-9030.512492,-4596.572988
163279.246149,-1554.432478,-9030.512492,-3677.258390
163279.246468,-296.082377,-8660.409521,306.438199
163279.246786,2294.638420,-9326.594869,4826.401637
163279.247105,1702.473667,-5403.503377,4213.525239
163279.247424,3701.029710,-5995.668130,7354.516781
163279.247755,6439.791695,-7105.977043,7277.907231
163279.248074,1480.411884,-5995.668130,766.095498
163279.248393,-2072.576638,-8586.388927,-2911.162892
163279.248711,-4811.338623,-11399.171507,-6894.859482
163279.249030,-6957.935855,-14359.995275,-8044.002729
163279.249349,-7105.977043,-14878.139434,-7660.954980
163279.249668,-5329.482782,-14656.077652,-4749.792088
163279.249986,-1184.329507,-11917.315666,1225.752797
163279.250305,4367.215058,-9474.636058,5439.278036
163279.250624,4959.379811,-3627.009116,6894.859482
163279.250942,9400.615463,-2368.659014,7048.078582
163279.251261,6809.894666,-1332.370696,7048.078582
163279.251580,4737.318029,-2960.823768,2681.334243
163279.251898,1184.329507,-7624.121203,-1225.752797
163279.252217,-2442.679609,-13619.789333,-3753.867940
163279.252536,-7105.977043,-16950.716072,-5209.449386
163279.252855,-9178.553681,-19023.292709,-5209.449386
163279.253173,-6587.832884,-18949.272115,-3753.867940
163279.253492,-5921.647536,-13693.809927,-1302.362347
163279.253811,-4145.153275,-7179.997637,0.000000
163279.254129,518.144159,-3182.885551,842.705048
163279.254448,2146.597232,-2294.638420,2221.676944
163279.254767,4145.153275,-2220.617826,1149.143247
163279.255086,4663.297435,-4515.256246,1455.581446
163279.255404,5847.626942,-8734.430116,-76.609550
163279.255723,1184.329507,-10732.986159,612.876398
163279.256042,-74.020594,-15692.365970,-76.609550
163279.256360,-2146.597232,-15396.283594,-383.047749
163279.256679,-1554.432478,-13767.830521,-536.266849
163279.256998,0.000000,-10140.821405,1225.752797
163279.257316,-814.226536,-7994.224174,-1685.410096
163279.257635,-1258.350101,-7550.100608,-2221.676944
163279.257954,-1184.329507,-6513.812290,-3370.820191
163279.258273,-1554.432478,-7994.224174,-2757.943793
163279.258591,-74.020594,-9548.656652,-3064.381992
163279.258910,1332.370696,-9400.615463,1991.848295
163279.259229,1998.556043,-8734.430116,4826.401637
163279.259547,2294.638420,-6513.812290,5592.497135
163279.259866,2368.659014,-5995.668130,7354.516781
163279.260185,3256.906145,-7994.224174,7277.907231
163279.260504,518.144159,-5625.565159,1225.752797
163279.260822,-2590.720797,-7476.080014,-2604.724693
163279.261141,-4811.338623,-11029.068536,-6665.030833
163279.261460,-8290.306550,-13101.645173,-9193.145976
163279.261778,-9474.636058,-14285.974681,-9499.584175
163279.262097,-5329.482782,-14285.974681,-7354.516781
163279.262416,-2368.659014,-13101.645173,0.000000
163279.262734,2294.638420,-10362.883188,4060.306139
163279.263053,4663.297435,-4293.194464,4826.401637
163279.263372,8660.409521,-4145.153275,8503.660028
163279.263691,7105.977043,-1998.556043,5286.058936
163279.264009,6069.688724,-3923.091493,3370.820191
163279.264328,3108.864956,-7254.018232,-1072.533697
163279.264647,-1776.494261,-11325.150913,-3064.381992
163279.264965,-5921.647536,-14285.974681,-8886.707777
163279.265284,-8290.306550,-17838.963202,-6128.763984
163279.265603,-5995.668130,-18801.230927,-3447.429741
163279.265922,-4071.132681,-14804.118840,-383.047749
163279.266240,-2220.617826,-6735.874072,0.000000
163279.266559,2146.597232,-5847.626942,4060.306139
163279.266878,2368.659014,-1406.391290,3524.039291
163279.267196,4737.318029,-444.123565,2145.067394
163279.267515,5033.400406,-3108.864956,1532.190996
163279.267834,3552.988522,-6587.832884,612.876398
163279.268152,0.000000,-9548.656652,-2145.067394
163279.268471,-1480.411884,-14508.036463,-76.609550
163279.268790,-1258.350101,-17764.942608,1685.410096
163279.269109,-2738.761985,-16580.613101,-76.609550
163279.269427,-4737.318029,-9548.656652,0.000000
163279.269746,-1998.556043,-9474.636058,-1455.581446
163279.270065,-2516.700203,-7328.038826,-3600.648841
163279.270383,-2220.617826,-7550.100608,-4060.306139
163279.270702,-2146.597232,-7105.977043,-4979.620737
163279.271021,-666.185348,-8290.306550,-2911.162892
163279.271340,0.000000,-8660.409521,306.438199
163279.271658,1776.494261,-9548.656652,4903.011187
163279.271977,4071.132681,-9178.553681,6052.154434
163279.272296,5847.626942,-9400.615463,9729.412825
163279.272614,3552.988522,-5995.668130,6128.763984
163279.272933,2442.679609,-6587.832884,2528.115143
163279.273252,-1258.350101,-8438.347739,-1225.752797
163279.273570,-4219.173869,-9992.780217,-5209.449386
163279.273889,-8290.306550,-11029.068536,-9806.022374
163279.274208,-7624.121203,-14952.160028,-7967.393179
163279.274527,-8290.306550,-13101.645173,-7048.078582
163279.274845,-2960.823768,-13101.645173,459.657299
163279.275164,1702.473667,-9474.636058,4826.401637
163279.275483,4145.153275,-5403.503377,8120.612279
163279.275801,5625.565159,-1480.411884,7431.126331
163279.276120,5625.565159,-1036.288319,5975.544884
163279.276439,4367.215058,-2590.720797,2451.505594
163279.276757,1184.329507,-7179.997637,-2451.505594
163279.277076,-2442.679609,-11843.295072,-4979.620737
163279.277395,-5403.503377,-17764.942608,-7431.126331
163279.277714,-8956.491898,-18357.107362,-8197.221829
163279.278032,-8438.347739,-17468.860231,-6205.373534
163279.278351,-5551.544565,-15026.180623,-612.876398
163279.278670,0.000000,-9548.656652,2451.505594
163279.278988,3256.906145,-4885.359217,3294.210641
163279.279307,4293.194464,-3330.926739,4136.915689
163279.279626,4663.297435,-740.205942,2451.505594
163279.279945,4663.297435,-1258.350101,-1608.800546
163279.280263,3997.112087,-7105.977043,612.876398
163279.280582,888.247130,-10732.986159,-536.266849
163279.280901,-74.020594,-17172.777854,-76.609550
163279.281219,-2442.679609,-15396.283594,-2068.457845
163279.281538,-3256.906145,-14285.974681,0.000000
163279.281857,-2368.659014,-12213.398043,0.000000
163279.282175,-296.082377,-8438.347739,-995.924147
163279.282494,-592.164754,-7476.080014,-1608.800546
163279.282813,-1110.308913,-5995.668130,-2681.334243
163279.283132,-74.020594,-6513.812290,-4979.620737
163279.283450,-666.185348,-8068.244768,-1991.848295
163279.283769,0.000000,-9326.594869,-612.876398
163279.284088,148.041188,-9474.636058,2221.676944
163279.284406,1702.473667,-10658.965565,4826.401637
163279.284725,3552.988522,-10658.965565,6128.763984
163279.285044,3849.070898,-8290.306550,6741.640382
163279.285363,2294.638420,-7105.977043,2374.896044
163279.285681,-1702.473667,-7105.977043,-1302.362347
163279.286000,-4737.318029,-8660.409521,-4903.011187
163279.286319,-6883.915261,-10288.862594,-9422.974625
163279.286637,-7179.997637,-14137.933492,-9193.145976
163279.286956,-5699.585753,-15174.221811,-6818.249932
163279.287275,-2590.720797,-13471.748144,-1838.629195
163279.287593,1998.556043,-11251.130318,2987.772442
163279.287912,3775.050304,-7031.956449,7048.078582
163279.288231,7031.956449,-4219.173869,8503.660028
163279.288550,7624.121203,-3552.988522,7277.907231
163279.288868,4737.318029,-1258.350101,3370.820191
163279.289187,2960.823768,-6587.832884,2604.724693
163279.289506,-1776.494261,-9548.656652,-3907.087040
163279.289824,-4737.318029,-14063.912898,-6205.373534
163279.290143,-7624.121203,-16950.716072,-6665.030833
163279.290462,-7698.141797,-17542.880825,-5286.058936
163279.290781,-7105.977043,-13767.830521,-3677.258390
163279.291099,-2664.741391,-11325.150913,1915.238745
163279.291418,1184.329507,-7328.038826,4903.011187
163279.291737,3478.967927,-4145.153275,4213.525239
163279.292055,3775.050304,-1480.411884,2374.896044
163279.292374,5107.421000,-4737.318029,2987.772442
163279.292693,2442.679609,-5107.421000,-612.876398
163279.293011,1332.370696,-9548.656652,-1149.143247
163279.293330,-814.226536,-13027.624579,-1455.581446
163279.293649,-2368.659014,-14878.139434,0.000000
163279.293968,-3552.988522,-14285.974681,0.000000
163279.294286,-3552.988522,-11325.150913,-1838.629195
163279.294605,-888.247130,-9844.739029,0.000000
163279.294924,-74.020594,-9400.615463,-2451.505594
163279.295242,-2442.679609,-5625.565159,-4673.182538
163279.295561,1702.473667,-8290.306550,-3140.991542
163279.295880,0.000000,-8808.450710,-2451.505594
163279.296199,518.144159,-8882.471304,0.000000
163279.296517,1776.494261,-9548.656652,2604.724693
163279.296836,3552.988522,-8660.409521,6128.763984
163279.297155,2738.761985,-6217.729913,6741.640382
163279.297473,2664.741391,-6587.832884,6128.763984
163279.297792,2960.823768,-7179.997637,3677.258390
163279.298111,1998.556043,-8290.306550,995.924147
163279.298429,-4737.318029,-5995.668130,-4903.011187
163279.298748,-5403.503377,-11251.130318,-7737.564530
163279.299067,-7328.038826,-13619.789333,-9193.145976
163279.299386,-7550.100608,-15174.221811,-7354.516781
163279.299704,-5181.441594,-13915.871710,-3983.696590
163279.300023,-1480.411884,-11029.068536,1149.143247
163279.300342,592.164754,-6291.750507,4903.011187
163279.300660,5773.606348,-3923.091493,7967.393179
163279.300979,8808.450710,-3552.988522,8503.660028
163279.301298,7031.956449,-1776.494261,4826.401637
163279.301617,3552.988522,-3627.009116,2451.505594
163279.301935,370.102971,-8660.409521,-3294.210641
163279.302254,-4663.297435,-13101.645173,-6665.030833
163279.302573,-7772.162391,-17987.004391,-8427.050478
163279.302891,-9474.636058,-18135.045579,-8580.269578
163279.303210,-8660.409521,-15766.386565,-5515.887586
163279.303529,-3552.988522,-11325.150913,-1455.581446
163279.303847,0.000000,-5403.503377,2145.067394
163279.304166,3108.864956,-1850.514855,4290.134789
163279.304485,7031.956449,-2960.823768,4826.401637
163279.304804,6513.812290,-1850.514855,4136.915689
163279.305122,5329.482782,-4515.256246,2221.676944
163279.305441,3552.988522,-7772.162391,-229.828649
163279.305760,-814.226536,-11473.192101,-1608.800546
163279.306078,-4737.318029,-13101.645173,-2451.505594
163279.306397,-5107.421000,-15248.242405,-1915.238745
163279.306716,-5329.482782,-13101.645173,-1225.752797
163279.307035,-1998.556043,-11769.274478,-229.828649
163279.307353,-1332.370696,-9548.656652,-612.876398
163279.307672,-1258.350101,-7105.977043,-4979.620737
163279.307991,-1702.473667,-6809.894666,-3370.820191
163279.308309,-1554.432478,-7994.224174,-3064.381992
163279.308628,370.102971,-8364.327145,-1149.143247
163279.308947,1850.514855,-7994.224174,2298.286494
163279.309265,592.164754,-7179.997637,4903.011187
163279.309584,2886.803174,-6365.771101,5362.668486
163279.309903,2664.741391,-6883.915261,6281.983084
163279.310222,0.000000,-4811.338623,2757.943793
163279.310540,0.000000,-7772.162391,1225.752797
163279.310859,-4737.318029,-6587.832884,-5515.887586
163279.311178,-5181.441594,-11621.233289,-7507.735880
163279.311496,-6661.853478,-13693.809927,-8810.098227
163279.311815,-5773.606348,-14952.160028,-7814.174080
163279.312134,-2442.679609,-14211.954086,-3753.867940
163279.312453,1110.308913,-11547.212695,1455.581446
163279.312771,3108.864956,-6883.915261,5898.935335
163279.313090,3701.029710,-1850.514855,7354.516781
163279.313409,8290.306550,-2146.597232,10112.460574
163279.313727,8808.450710,-2146.597232,8886.707777
163279.314046,2960.823768,-2442.679609,1225.752797
163279.314365,222.061783,-8586.388927,-2451.505594
163279.314683,-4515.256246,-13545.768739,-6665.030833
163279.315002,-7994.224174,-17024.736666,-8810.098227
163279.315321,-9548.656652,-18209.066173,-9499.584175
163279.315640,-8142.265362,-18209.066173,-5592.497135
163279.315958,-5403.503377,-12435.459826,-2757.943793
163279.316277,-2368.659014,-8364.327145,1838.629195
163279.316596,3478.967927,-3108.864956,4290.134789
163279.316914,4737.318029,-74.020594,3217.601092
163279.317233,5847.626942,-888.247130,3217.601092
163279.317552,6365.771101,-3701.029710,2145.067394
163279.317871,4885.359217,-6365.771101,0.000000
163279.318189,888.247130,-11325.150913,-2451.505594
163279.318508,-74.020594,-17024.736666,-1685.410096
163279.318827,-2368.659014,-17838.963202,-459.657299
163279.319145,-1554.432478,-15396.283594,-76.609550
163279.319464,-1702.473667,-13027.624579,-76.609550
163279.319783,-1184.329507,-8660.409521,-919.314598
163279.320101,-3552.988522,-5403.503377,-4290.134789
163279.320420,-666.185348,-6217.729913,-2528.115143
163279.320739,0.000000,-7105.977043,-2145.067394
163279.321058,814.226536,-7994.224174,-459.657299
163279.321376,2294.638420,-8586.388927,-76.609550
163279.321695,1110.308913,-8438.347739,4060.306139
163279.322014,1184.329507,-8068.244768,6741.640382
163279.322332,2368.659014,-7772.162391,8580.269578
163279.322651,2886.803174,-7698.141797,5439.278036
163279.322970,-3552.988522,-4811.338623,0.000000
163279.323289,-3478.967927,-8586.388927,-3753.867940
163279.323607,-6069.688724,-11177.109724,-6971.469032
163279.323926,-8290.306550,-13101.645173,-9882.631924
163279.324245,-8364.327145,-14582.057057,-9576.193725
163279.324563,-3627.009116,-16580.613101,-4979.620737
163279.324882,-2960.823768,-13101.645173,-612.876398
163279.325201,1110.308913,-9474.636058,4290.134789
163279.325519,4737.318029,-5033.400406,7660.954980
163279.325838,8364.327145,-3182.885551,9193.145976
163279.326157,7105.977043,-74.020594,4903.011187
163279.326476,4737.318029,-2738.761985,3677.258390
163279.326794,4071.132681,-8586.388927,612.876398
163279.327113,-1628.453072,-13027.624579,-3753.867940
163279.327432,-8586.388927,-14285.974681,-8580.269578
163279.327750,-7772.162391,-18653.189738,-7431.126331
163279.328069,-8364.327145,-17764.942608,-4903.011187
163279.328388,-5033.400406,-14434.015869,-536.266849
163279.328707,-444.123565,-8882.471304,3064.381992
163279.329025,2664.741391,-5033.400406,4366.744339
163279.329344,4071.132681,-1702.473667,4519.963438
163279.329663,4811.338623,-370.102971,2757.943793
163279.329981,6513.812290,-4811.338623,4290.134789
163279.330300,4663.297435,-7105.977043,-76.609550
163279.330619,0.000000,-9548.656652,0.000000
163279.330937,-2442.679609,-15026.180623,-2528.115143
163279.331256,-4071.132681,-16728.654289,-2298.286494
163279.331575,-4367.215058,-17024.736666,-1149.143247
163279.331894,-3108.864956,-12805.562797,-2068.457845
163279.332212,-1554.432478,-8808.450710,-2987.772442
163279.332531,-2368.659014,-6291.750507,-3370.820191
163279.332850,-1184.329507,-5995.668130,-2451.505594
163279.333168,1702.473667,-8290.306550,-2221.676944
163279.333487,1850.514855,-9030.512492,-1608.800546
163279.333806,2368.659014,-10732.986159,2451.505594
163279.334124,1776.494261,-8956.491898,3370.820191
163279.334443,3404.947333,-9622.677246,6511.811733
163279.334762,4589.276840,-8216.285956,7737.564530
163279.335081,3552.988522,-5995.668130,4903.011187
163279.335399,0.000000,-4811.338623,1225.752797
163279.335718,-1776.494261,-7772.162391,0.000000
163279.336037,-3330.926739,-10362.883188,-4443.353888
163279.336355,-5403.503377,-11843.295072,-7507.735880
163279.336674,-5995.668130,-13619.789333,-8656.879127
163279.336993,-4293.194464,-15396.283594,-4979.620737
163279.337312,-2442.679609,-12731.542202,-1149.143247
163279.337630,666.185348,-9474.636058,2987.772442
163279.337949,3775.050304,-6365.771101,7354.516781
163279.338268,4737.318029,-1850.514855,7354.516781
163279.338586,5255.462188,-74.020594,5056.230287
163279.338905,3552.988522,-3034.844362,2451.505594
163279.339224,2220.617826,-7698.141797,-76.609550
163279.339542,-2442.679609,-10658.965565,-5592.497135
163279.339861,-6587.832884,-13397.727550,-9576.193725
163279.340180,-7698.141797,-18431.127956,-7737.564530
163279.340499,-8438.347739,-18061.024985,-6435.202183
163279.340817,-5921.647536,-16506.592507,-2451.505594
163279.341136,-1776.494261,-11029.068536,1149.143247
163279.341455,2590.720797,-5921.647536,4826.401637
163279.341773,4219.173869,-1184.329507,3907.087040
163279.342092,5921.647536,1998.556043,2451.505594
163279.342411,5921.647536,-3182.885551,3830.477490
163279.342730,5699.585753,-7402.059420,2987.772442
163279.343048,0.000000,-7179.997637,-2451.505594
163279.343367,-1332.370696,-14434.015869,-1915.238745
163279.343686,-3775.050304,-15396.283594,-1762.019645
163279.344004,-4145.153275,-16062.468941,-1378.971896
163279.344323,-3034.844362,-12731.542202,-1302.362347
163279.344642,-74.020594,-9474.636058,-1915.238745
163279.344960,-2368.659014,-5625.565159,-2528.115143
163279.345279,-3552.988522,-4811.338623,-3064.381992
163279.345598,-148.041188,-7698.141797,-1991.848295
163279.345917,2294.638420,-9474.636058,-76.609550
163279.346235,0.000000,-7624.121203,0.000000
163279.346554,74.020594,-10140.821405,1608.800546
163279.346873,444.123565,-10732.986159,3983.696590
163279.347192,1480.411884,-9400.615463,5286.058936
163279.347511,0.000000,-7179.997637,3677.258390
163279.347829,1184.329507,-5995.668130,536.266849
163279.348148,-2368.659014,-5995.668130,-2145.067394
163279.348467,-3849.070898,-9252.574275,-4290.134789
163279.348786,-4441.235652,-11325.150913,-6281.983084
163279.349105,-4811.338623,-13027.624579,-10189.070123
163279.349424,-4071.132681,-15248.242405,-4903.011187
163279.349742,-1850.514855,-13471.748144,-2221.676944
163279.350061,1184.329507,-10955.047942,3677.258390
163279.350380,4145.153275,-5773.606348,6052.154434
163279.350699,4737.318029,-3330.926739,7967.393179
163279.351018,5329.482782,-74.020594,5515.887586
163279.351337,6291.750507,-3849.070898,4903.011187
163279.351655,4663.297435,-8290.306550,2374.896044
163279.351974,-1998.556043,-8364.327145,-5822.325785
163279.352293,-6291.750507,-12509.480420,-7890.783629
163279.352612,-7920.203579,-16728.654289,-7124.688131
163279.352931,-7772.162391,-17024.736666,-5209.449386
163279.353249,-5329.482782,-15174.221811,-1685.410096
163279.353568,-666.185348,-11547.212695,2374.896044
163279.353887,2886.803174,-5625.565159,4519.963438
163279.354206,2368.659014,-1702.473667,3600.648841
163279.354525,1184.329507,-74.020594,612.876398
163279.354844,4145.153275,-3627.009116,1608.800546
163279.355162,3330.926739,-6735.874072,1072.533697
163279.355481,0.000000,-9548.656652,-3370.820191
163279.355800,-1776.494261,-14211.954086,-2911.162892
163279.356119,-3775.050304,-16358.551318,-2451.505594
163279.356438,-3256.906145,-16358.551318,-842.705048
163279.356757,-1258.350101,-12731.542202,-689.485948
163279.357075,-74.020594,-9770.718434,-76.609550
163279.357394,-2368.659014,-4811.338623,-2911.162892
163279.357713,-1628.453072,-4811.338623,-2451.505594
163279.358032,1406.391290,-7105.977043,-766.095498
163279.358351,0.000000,-5995.668130,0.000000
163279.358670,1998.556043,-9474.636058,-76.609550
163279.358988,296.082377,-10362.883188,1532.190996
163279.359307,592.164754,-10807.006753,3830.477490
163279.359626,1406.391290,-9548.656652,3370.820191
163279.359945,3330.926739,-9474.636058,5515.887586
163279.360264,2368.659014,-8660.409521,5286.058936
163279.360582,-74.020594,-6365.771101,536.266849
163279.360901,-2442.679609,-7105.977043,-3140.991542
163279.361220,-5921.647536,-8364.327145,-5822.325785
163279.361539,-7550.100608,-10140.821405,-8886.707777
163279.361858,-5699.585753,-13841.851115,-6588.421283
163279.362177,-4219.173869,-13767.830521,-3677.258390
163279.362495,-1776.494261,-11399.171507,76.609550
163279.362814,2294.638420,-9178.553681,4826.401637
163279.363133,3923.091493,-4737.318029,6358.592633
163279.363452,4737.318029,-2812.782580,5822.325785
163279.363771,6217.729913,-4219.173869,6128.763984
163279.364090,4663.297435,-5329.482782,-76.609550
163279.364408,-2368.659014,-5995.668130,-3677.258390
163279.364727,-2738.761985,-13027.624579,-6128.763984
163279.365046,-6365.771101,-16432.571912,-7048.078582
163279.365365,-7105.977043,-16876.695478,-5822.325785
163279.365684,-4885.359217,-15766.386565,-2221.676944
163279.366002,-74.020594,-14211.954086,3600.648841
163279.366321,740.205942,-6587.832884,3677.258390
163279.366640,3627.009116,-3256.906145,4596.572988
163279.366959,4663.297435,-1184.329507,3830.477490
163279.367278,5329.482782,-3627.009116,3064.381992
163279.367597,2664.741391,-4811.338623,0.000000
163279.367915,592.164754,-8364.327145,-1225.752797
163279.368234,-74.020594,-13323.706956,-1302.362347
163279.368553,-2738.761985,-16580.613101,-1302.362347
163279.368872,-5773.606348,-14285.974681,-3064.381992
163279.369191,-1850.514855,-14804.118840,-689.485948
163279.369510,-2220.617826,-10140.821405,0.000000
163279.369828,-1332.370696,-7031.956449,-2221.676944
163279.370147,-1332.370696,-6291.750507,-2681.334243
163279.370466,0.000000,-6735.874072,-2911.162892
163279.370785,0.000000,-6587.832884,-2451.505594
163279.371104,592.164754,-8956.491898,-1225.752797
163279.371423,2294.638420,-13027.624579,2068.457845
163279.371741,370.102971,-10362.883188,2145.067394
163279.372060,0.000000,-8364.327145,5515.887586
163279.372379,2886.803174,-8734.430116,5975.544884
163279.372698,3034.844362,-7105.977043,4443.353888
163279.373017,814.226536,-5921.647536,1225.752797
163279.373335,-1776.494261,-7105.977043,-1991.848295
163279.373654,-3775.050304,-8734.430116,-6358.592633
163279.373973,-5329.482782,-11621.233289,-7354.516781
163279.374292,-7105.977043,-11917.315666,-7967.393179
163279.374611,-3849.070898,-13397.727550,-2451.505594
163279.374930,-592.164754,-12435.459826,1149.143247
163279.375248,2368.659014,-10140.821405,7354.516781
163279.375567,4663.297435,-5773.606348,7277.907231
163279.375886,6439.791695,-3775.050304,7584.345430
163279.376205,5403.503377,-2442.679609,5056.230287
163279.376524,2368.659014,-2738.761985,0.000000
163279.376843,-2960.823768,-5995.668130,-3983.696590
163279.377161,-7105.977043,-10140.821405,-7354.516781
163279.377480,-6957.935855,-17690.922014,-6665.030833
163279.377799,-8512.368333,-16654.633695,-6818.249932
163279.378118,-6735.874072,-14730.098246,-4979.620737
163279.378437,-2442.679609,-14211.954086,1762.019645
163279.378756,370.102971,-7105.977043,2834.553343
163279.379074,3478.967927,-3552.988522,4290.134789
163279.379393,4219.173869,-1406.391290,3753.867940
163279.379712,3552.988522,-1554.432478,2451.505594
163279.380031,2220.617826,-3034.844362,-1072.533697
163279.380350,1184.329507,-8660.409521,-1838.629195
163279.380668,-74.020594,-13471.748144,-76.609550
163279.380987,-1850.514855,-16580.613101,-2528.115143
163279.381306,-5921.647536,-14285.974681,-2451.505594
163279.381625,-1850.514855,-14211.954086,-153.219100
163279.381944,222.061783,-10955.047942,919.314598
163279.382263,-962.267725,-6809.894666,0.000000
163279.382581,0.000000,-5107.421000,-1378.971896
163279.382900,1036.288319,-6365.771101,-1685.410096
163279.383219,0.000000,-5403.503377,-1225.752797
163279.383538,1554.432478,-9252.574275,0.000000
163279.383857,3478.967927,-11251.130318,-76.609550
163279.384176,518.144159,-10362.883188,2068.457845
163279.384494,-1406.391290,-9548.656652,1838.629195
163279.384813,1036.288319,-10214.842000,4826.401637
163279.385132,814.226536,-7698.141797,3524.039291
163279.385451,-592.164754,-6809.894666,306.438199
163279.385770,-2442.679609,-7994.224174,-3140.991542
163279.386089,-3330.926739,-9474.636058,-4979.620737
163279.386407,-5551.544565,-10140.821405,-7737.564530
163279.386726,-7105.977043,-10732.986159,-8580.269578
163279.387045,-2368.659014,-13693.809927,-3217.601092
163279.387364,-74.020594,-13027.624579,2911.162892
163279.387683,0.000000,-7772.162391,3064.381992
163279.388001,4515.256246,-6809.894666,6588.421283
163279.388320,6365.771101,-3923.091493,6818.249932
163279.388639,6291.750507,-3034.844362,4826.401637
163279.388958,4663.297435,-4737.318029,536.266849
163279.389277,1998.556043,-8290.306550,-689.485948
163279.389596,-1258.350101,-11843.295072,-5286.058936
163279.389914,-7105.977043,-14285.974681,-7354.516781
163279.390233,-5107.421000,-17098.757260,-6741.640382
163279.390552,-3627.009116,-18949.272115,-76.609550
163279.390871,-3552.988522,-12509.480420,1532.190996
163279.391190,666.185348,-8660.409521,4060.306139
163279.391509,2812.782580,-3923.091493,4903.011187
163279.391827,3330.926739,-1258.350101,4213.525239
163279.392146,2886.803174,-888.247130,1762.019645
163279.392465,4663.297435,-5921.647536,-76.609550
163279.392784,1110.308913,-7402.059420,-2681.334243
163279.393103,-1036.288319,-11917.315666,-4290.134789
163279.393421,-3552.988522,-15766.386565,-3064.381992
163279.393740,-3627.009116,-17764.942608,-2528.115143
163279.394059,-4589.276840,-14730.098246,-612.876398
163279.394378,-1628.453072,-11695.253884,0.000000
163279.394697,-296.082377,-8290.306550,-306.438199
163279.395016,-74.020594,-7476.080014,-76.609550
163279.395334,1110.308913,-5847.626942,-459.657299
163279.395653,2294.638420,-6809.894666,-1915.238745
163279.395972,1554.432478,-8290.306550,-1302.362347
163279.396291,0.000000,-8364.327145,0.000000
163279.396610,0.000000,-9844.739029,0.000000
163279.396929,1110.308913,-10658.965565,3447.429741
163279.397247,1406.391290,-9992.780217,5669.106685
163279.397566,2072.576638,-8142.265362,4826.401637
163279.397885,888.247130,-6217.729913,1991.848295
163279.398204,-74.020594,-9474.636058,-76.609550
163279.398523,-2664.741391,-8660.409521,-3983.696590
163279.398842,-4811.338623,-11843.295072,-5592.497135
163279.399160,-6291.750507,-10140.821405,-8273.831378
163279.399479,-4737.318029,-12509.480420,-4903.011187
163279.399798,-2368.659014,-11917.315666,0.000000
163279.400117,74.020594,-9622.677246,3140.991542
163279.400436,3849.070898,-7476.080014,6818.249932
163279.400754,5107.421000,-4515.256246,6894.859482
163279.401073,4885.359217,-3775.050304,4213.525239
163279.401392,4071.132681,-5921.647536,1762.019645
163279.401711,1110.308913,-9474.636058,-76.609550
163279.402030,-3034.844362,-10214.842000,-6588.421283
163279.402349,-5921.647536,-14285.974681,-7354.516781
163279.402667,-7105.977043,-16062.468941,-5515.887586
163279.402986,-9474.636058,-14285.974681,-6741.640382
163279.403305,-3627.009116,-14063.912898,-76.609550
163279.403624,592.164754,-8956.491898,3830.477490
163279.403943,4293.194464,-4589.276840,5515.887586
163279.404262,5847.626942,-888.247130,4826.401637
163279.404580,4737.318029,-740.205942,3064.381992
163279.404899,3552.988522,-3627.009116,1838.629195
163279.405218,3256.906145,-8438.347739,-153.219100
163279.405537,1702.473667,-12731.542202,-2528.115143
163279.405856,-5921.647536,-11917.315666,-4903.011187
163279.406175,-4811.338623,-16284.530724,-3294.210641
163279.406493,-3627.009116,-16062.468941,-306.438199
163279.406812,-2294.638420,-12435.459826,995.924147
163279.407131,-814.226536,-7624.121203,612.876398
163279.407450,1998.556043,-6513.812290,-76.609550
163279.407769,814.226536,-3552.988522,-1225.752797
163279.408087,296.082377,-3627.009116,-3753.867940
163279.408406,592.164754,-7476.080014,0.000000
163279.408725,-74.020594,-9474.636058,-1302.362347
163279.409044,-3256.906145,-9548.656652,-4290.134789
163279.409363,-1258.350101,-13027.624579,1685.410096
163279.409682,-1110.308913,-11695.253884,3370.820191
163279.410000,148.041188,-9474.636058,3140.991542
163279.410319,1036.288319,-7994.224174,2068.457845
163279.410638,740.205942,-9178.553681,1149.143247
163279.410957,-2368.659014,-7402.059420,-3370.820191
163279.411276,-3034.844362,-9474.636058,-5209.449386
163279.411595,-2886.803174,-11177.109724,-6205.373534
163279.411913,-3849.070898,-12213.398043,-4903.011187
163279.412232,-2294.638420,-10732.986159,-2451.505594
163279.412551,0.000000,-9548.656652,2451.505594
163279.412870,2960.823768,-8364.327145,6128.763984
163279.413189,7031.956449,-6957.935855,8503.660028
163279.413508,4663.297435,-1480.411884,3600.648841
163279.413826,4663.297435,-5921.647536,2987.772442
163279.414145,296.082377,-6735.874072,-1378.971896
163279.414464,-2368.659014,-10436.903782,-4213.525239
163279.414783,-5107.421000,-13101.645173,-6358.592633
163279.415102,-6291.750507,-16580.613101,-6205.373534
163279.415420,-6291.750507,-16062.468941,-4290.134789
163279.415739,-4737.318029,-11917.315666,-2451.505594
163279.416058,0.000000,-9548.656652,4290.134789
163279.416377,2516.700203,-4811.338623,5286.058936
163279.416696,2368.659014,-74.020594,2757.943793
163279.417015,4071.132681,-2368.659014,2374.896044
163279.417333,2294.638420,-4589.276840,536.266849
163279.417652,1258.350101,-7994.224174,-2298.286494
163279.417971,-592.164754,-10658.965565,-4366.744339
163279.418290,-2442.679609,-15100.201217,-4979.620737
163279.418609,-4885.359217,-16580.613101,-3753.867940
163279.418928,-4663.297435,-15470.304188,-2374.896044
163279.419246,-888.247130,-12805.562797,1072.533697
163279.419565,2294.638420,-10066.800811,3447.429741
163279.419884,0.000000,-3627.009116,0.000000
163279.420203,2886.803174,-3849.070898,0.000000
163279.420522,2812.782580,-5107.421000,-383.047749
163279.420840,2664.741391,-7105.977043,-995.924147
163279.421159,962.267725,-8068.244768,-1915.238745
163279.421478,-74.020594,-13027.624579,-76.609550
163279.421797,-962.267725,-12287.418637,842.705048
163279.422116,-1702.473667,-12065.356855,2834.553343
163279.422435,0.000000,-9548.656652,4903.011187
163279.422753,2294.638420,-9474.636058,4213.525239
163279.423072,-1184.329507,-6587.832884,766.095498
163279.423391,-2072.576638,-6587.832884,-2834.553343
163279.423710,-3478.967927,-7624.121203,-4749.792088
163279.424029,-4071.132681,-10436.903782,-6511.811733
163279.424348,-3923.091493,-11325.150913,-5056.230287
163279.424666,-2146.597232,-12435.459826,-2834.553343
163279.424985,-1776.494261,-10140.821405,306.438199
163279.425304,222.061783,-7031.956449,2757.943793
163279.425623,3552.988522,-6883.915261,6435.202183
163279.425942,5847.626942,-5625.565159,3600.648841
163279.426261,3330.926739,-5403.503377,2145.067394
163279.426579,1850.514855,-6809.894666,-306.438199
163279.426898,-740.205942,-9696.697840,-3524.039291
163279.427217,-3627.009116,-14211.954086,-3753.867940
163279.427536,-5551.544565,-17468.860231,-4979.620737
163279.427855,-5107.421000,-16136.489536,-2528.115143
163279.428173,-666.185348,-15100.201217,1762.019645
163279.428492,1110.308913,-9474.636058,4060.306139
163279.428811,1184.329507,-4219.173869,4903.011187
163279.429130,2442.679609,-222.061783,3830.477490
163279.429449,3627.009116,-1776.494261,3370.820191
163279.429768,2886.803174,-3849.070898,1302.362347
163279.430086,1184.329507,-7031.956449,-1455.581446
163279.430405,-74.020594,-11251.130318,-2528.115143
163279.430724,-2442.679609,-15100.201217,-2604.724693
163279.431043,-3627.009116,-17764.942608,-2834.553343
163279.431362,-4515.256246,-15396.283594,-1915.238745
163279.431681,-2960.823768,-11917.315666,-76.609550
163279.431999,0.000000,-9548.656652,3370.820191
163279.432318,0.000000,-4811.338623,0.000000
163279.432637,888.247130,-4811.338623,-842.705048
163279.432956,1702.473667,-4737.318029,-1072.533697
163279.433275,1998.556043,-7031.956449,-1991.848295
163279.433594,2294.638420,-10066.800811,-1915.238745
163279.433912,0.000000,-12361.439231,459.657299
163279.434231,-74.020594,-13027.624579,1149.143247
163279.434550,-1258.350101,-13027.624579,2374.896044
163279.434869,148.041188,-9918.759623,2757.943793
163279.435188,3108.864956,-11251.130318,6052.154434
163279.435506,666.185348,-5995.668130,919.314598
163279.435825,0.000000,-6291.750507,-1915.238745
163279.436144,-1036.288319,-7772.162391,-3907.087040
163279.436463,-2960.823768,-9548.656652,-4903.011187
163279.436782,-2368.659014,-10732.986159,-4596.572988
163279.437101,-1258.350101,-13471.748144,-2221.676944
163279.437419,1702.473667,-14211.954086,3294.210641
163279.437738,2294.638420,-10066.800811,4826.401637
163279.438057,2146.597232,-4811.338623,4213.525239
163279.438376,5847.626942,-6513.812290,6358.592633
163279.438695,2960.823768,-4219.173869,2374.896044
163279.439014,1258.350101,-5551.544565,-383.047749
163279.439332,-1258.350101,-8512.368333,-3600.648841
163279.439651,-4737.318029,-12509.480420,-4443.353888
163279.439970,-7105.977043,-15174.221811,-7354.516781
163279.440289,-6513.812290,-16654.633695,-3677.258390
163279.440608,-3034.844362,-14804.118840,-1915.238745
163279.440927,-1850.514855,-10732.986159,1149.143247
163279.441245,0.000000,-4811.338623,2451.505594
163279.441564,4663.297435,-3552.988522,4826.401637
163279.441883,4219.173869,-1554.432478,4060.306139
163279.442202,3478.967927,-3923.091493,1608.800546
163279.442521,2220.617826,-6883.915261,-1149.143247
163279.442839,1702.473667,-11695.253884,-2528.115143
163279.443158,-3256.906145,-12509.480420,-3677.258390
163279.443477,-2960.823768,-17172.777854,-2374.896044
163279.443796,-3034.844362,-16580.613101,-383.047749
163279.444115,-666.185348,-14211.954086,612.876398
163279.444434,-962.267725,-7105.977043,229.828649
163279.444752,1110.308913,-6069.688724,1838.629195
163279.445071,1332.370696,-4145.153275,612.876398
163279.445390,1480.411884,-4441.235652,-536.266849
163279.445709,2294.638420,-8290.306550,-689.485948
163279.446028,148.041188,-8290.306550,-2374.896044
163279.446347,-1998.556043,-9844.739029,-2374.896044
163279.446665,-2368.659014,-11325.150913,-1225.752797
163279.446984,-3552.988522,-12213.398043,2451.505594
163279.447303,-2072.576638,-9548.656652,1225.752797
163279.447622,1702.473667,-9474.636058,2374.896044
163279.447941,0.000000,-6587.832884,919.314598
163279.448260,-1554.432478,-6587.832884,-2068.457845
163279.448578,-2516.700203,-7476.080014,-4366.744339
163279.448897,-1258.350101,-11843.295072,-4366.744339
163279.449216,-3478.967927,-11325.150913,-6281.983084
163279.449534,-2220.617826,-12435.459826,-3677.258390
163279.449853,-740.205942,-12583.501014,153.219100
163279.450172,1776.494261,-11029.068536,4596.572988
163279.450490,2664.741391,-5995.668130,6741.640382
163279.450809,2368.659014,-3627.009116,4903.011187
163279.451128,4737.318029,-4515.256246,4903.011187
163279.451446,4071.132681,-5699.585753,0.000000
163279.451765,0.000000,-7772.162391,-2451.505594
163279.452084,-3034.844362,-10066.800811,-6205.373534
163279.452403,-4737.318029,-15396.283594,-4979.620737
163279.452721,-6069.688724,-15174.221811,-5056.230287
163279.453040,-4441.235652,-14730.098246,-1225.752797
163279.453359,-74.020594,-13619.789333,3294.210641
163279.453677,1702.473667,-7698.141797,4213.525239
163279.453996,1776.494261,-2590.720797,5209.449386
163279.454315,3775.050304,-1554.432478,3677.258390
163279.454633,3552.988522,-3034.844362,2528.115143
163279.454952,1184.329507,-4811.338623,612.876398
163279.455271,-1184.329507,-7772.162391,-4596.572988
163279.455590,-2738.761985,-12731.542202,-4519.963438
163279.455908,-4885.359217,-15174.221811,-5286.058936
163279.456227,-4885.359217,-16654.633695,-3370.820191
163279.456546,-3034.844362,-13989.892304,-2298.286494
163279.456864,-888.247130,-10658.965565,536.266849
163279.457183,1480.411884,-7698.141797,1532.190996
163279.457502,3478.967927,-6809.894666,1762.019645
163279.457820,2886.803174,-4737.318029,-76.609550
163279.458139,3627.009116,-7476.080014,1455.581446
163279.458458,1554.432478,-7550.100608,-1991.848295
163279.458776,814.226536,-10436.903782,-995.924147
163279.459095,-74.020594,-12139.377449,536.266849
163279.459414,-1036.288319,-12953.603985,2451.505594
163279.459733,0.000000,-10732.986159,3064.381992
163279.460051,1110.308913,-8660.409521,2451.505594
163279.460370,1184.329507,-8364.327145,3600.648841
163279.460689,-74.020594,-6809.894666,-383.047749
163279.461007,-2590.720797,-4811.338623,-4060.306139
163279.461326,-666.185348,-9474.636058,-3753.867940
163279.461645,-3701.029710,-9918.759623,-5898.935335
163279.461963,-2812.782580,-12583.501014,-3753.867940
163279.462282,-2442.679609,-12435.459826,-1072.533697
163279.462601,0.000000,-11917.315666,3677.258390
163279.462920,296.082377,-7772.162391,3217.601092
163279.463238,592.164754,-4811.338623,3677.258390
163279.463557,2516.700203,-5329.482782,3294.210641
163279.463876,3923.091493,-7624.121203,3447.429741
163279.464194,0.000000,-5995.668130,-4290.134789
163279.464513,-1850.514855,-11251.130318,-4979.620737
163279.464832,-5033.400406,-13249.686362,-7277.907231
163279.465150,-5921.647536,-15026.180623,-5898.935335
163279.465469,-4293.194464,-15618.345376,-2374.896044
163279.465788,-1184.329507,-12509.480420,1991.848295
163279.466107,962.267725,-7550.100608,4060.306139
163279.466425,3256.906145,-3923.091493,5822.325785
163279.466744,4737.318029,-1258.350101,6128.763984
163279.467063,5847.626942,-3552.988522,2987.772442
163279.467381,1184.329507,-3034.844362,1225.752797
163279.467700,1702.473667,-8142.265362,-2221.676944
163279.468019,-1480.411884,-12213.398043,-3830.477490
163279.468337,-3775.050304,-14804.118840,-3983.696590
163279.468656,-4367.215058,-15470.304188,-4826.401637
163279.468975,-3627.009116,-14063.912898,-2834.553343
163279.469293,-1776.494261,-10732.986159,1149.143247
163279.469612,-2072.576638,-5995.668130,612.876398
163279.469931,0.000000,-4811.338623,1225.752797
163279.470250,1924.535449,-5921.647536,1149.143247
163279.470568,1184.329507,-5995.668130,0.000000
163279.470887,962.267725,-8438.347739,-2145.067394
163279.471206,-74.020594,-10436.903782,-2298.286494
163279.471524,-1554.432478,-11843.295072,-612.876398
163279.471843,-3552.988522,-10732.986159,0.000000
163279.472162,-2220.617826,-11029.068536,1608.800546
163279.472480,222.061783,-8438.347739,2068.457845
163279.472799,0.000000,-6587.832884,1838.629195
163279.473118,296.082377,-5403.503377,-689.485948
163279.473437,-74.020594,-7698.141797,-2528.115143
163279.473755,-1480.411884,-8734.430116,-3830.477490
163279.474074,-2368.659014,-10732.986159,-5592.497135
163279.474393,-2072.576638,-12287.418637,-4213.525239
163279.474711,-740.205942,-12731.542202,-1225.752797
163279.475030,0.000000,-10140.821405,1838.629195
163279.475349,2886.803174,-9474.636058,4826.401637
163279.475667,2516.700203,-4811.338623,5209.449386
163279.475986,3552.988522,-4811.338623,2451.505594
163279.476305,2960.823768,-5403.503377,2451.505594
163279.476624,814.226536,-5181.441594,-3600.648841
163279.476942,-1998.556043,-9326.594869,-3524.039291
163279.477261,-4811.338623,-12361.439231,-6435.202183
163279.477580,-6217.729913,-14508.036463,-6358.592633
163279.477898,-6291.750507,-15396.283594,-3753.867940
163279.478217,-4737.318029,-13619.789333,-76.609550
163279.478536,-1480.411884,-9104.533087,2604.724693
163279.478854,1776.494261,-4737.318029,4213.525239
163279.479173,3552.988522,-2442.679609,6128.763984
163279.479492,5625.565159,-3108.864956,5056.230287
163279.479810,592.164754,-2442.679609,0.000000
163279.480129,1110.308913,-8438.347739,-2528.115143
163279.480448,-2072.576638,-11399.171507,-4596.572988
163279.480767,-4663.297435,-14137.933492,-5132.839837
163279.481085,-3923.091493,-16580.613101,-4979.620737
163279.481404,-3034.844362,-16284.530724,-1302.362347
163279.481723,-1258.350101,-12879.583391,1149.143247
163279.482041,0.000000,-5995.668130,1532.190996
163279.482360,2294.638420,-5329.482782,2374.896044
163279.482679,4663.297435,-5921.647536,3600.648841
163279.482997,2368.659014,-4367.215058,0.000000
163279.483316,2812.782580,-7105.977043,-76.609550
163279.483635,518.144159,-10066.800811,-1378.971896
163279.483954,-1184.329507,-11991.336260,-1072.533697
163279.484272,-3923.091493,-11325.150913,-1608.800546
163279.484591,-2590.720797,-13027.624579,2374.896044
163279.484910,-2960.823768,-10140.821405,1838.629195
163279.485228,0.000000,-8734.430116,3217.601092
163279.485547,-74.020594,-8216.285956,3294.210641
163279.485866,-2368.659014,-5699.585753,0.000000
163279.486184,-1480.411884,-7105.977043,-4519.963438
163279.486503,-2516.700203,-9548.656652,-5132.839837
163279.486822,-2738.761985,-11547.212695,-4903.011187
163279.487140,-3256.906145,-10732.986159,-3677.258390
163279.487459,-74.020594,-11917.315666,2145.067394
163279.487778,3404.947333,-11843.295072,5439.278036
163279.488097,3404.947333,-7402.059420,5286.058936
163279.488415,5847.626942,-7105.977043,4826.401637
163279.488734,4071.132681,-6143.709319,2911.162892
163279.489053,0.000000,-5995.668130,-2145.067394
163279.489371,-962.267725,-9474.636058,-4213.525239
163279.489690,-3330.926739,-11843.295072,-5515.887586
163279.490009,-4219.173869,-14211.954086,-5515.887586
163279.490327,-3923.091493,-13471.748144,-5132.839837
163279.490646,-1036.288319,-13915.871710,1302.362347
163279.490965,740.205942,-9622.677246,4903.011187
163279.491284,3552.988522,-6143.709319,6358.592633
163279.491602,4737.318029,-3034.844362,6052.154434
163279.491921,5551.544565,-4145.153275,6052.154434
163279.492240,2368.659014,-5255.462188,3064.381992
163279.492558,1702.473667,-7994.224174,-2528.115143
163279.492877,-2516.700203,-10288.862594,-5132.839837
163279.493196,-4811.338623,-14804.118840,-4979.620737
163279.493514,-8290.306550,-13101.645173,-6741.640382
163279.493833,-4219.173869,-15988.448347,-2145.067394
163279.494152,-2072.576638,-13323.706956,995.924147
163279.494471,296.082377,-8734.430116,1991.848295
163279.494789,2294.638420,-5921.647536,1608.800546
163279.495108,1998.556043,-2738.761985,612.876398
163279.495427,2664.741391,-5699.585753,383.047749
163279.495745,2590.720797,-7698.141797,-76.609550
163279.496064,2294.638420,-11843.295072,-1915.238745
163279.496383,-148.041188,-12879.583391,-76.609550
163279.496701,-3552.988522,-12509.480420,0.000000
163279.497020,-1554.432478,-13619.789333,1685.410096
163279.497339,0.000000,-11399.171507,3294.210641
163279.497657,1480.411884,-8068.244768,3447.429741
163279.497976,518.144159,-5625.565159,1225.752797
163279.498295,0.000000,-5107.421000,0.000000
163279.498614,-74.020594,-6513.812290,-1532.190996
163279.498932,-74.020594,-9474.636058,-3753.867940
163279.499251,-3182.885551,-9992.780217,-4673.182538
163279.499570,-74.020594,-13619.789333,-1302.362347
163279.499888,-1184.329507,-11917.315666,842.705048
163279.500207,592.164754,-10881.027347,3294.210641
163279.500526,1406.391290,-8216.285956,4366.744339
163279.500844,1924.535449,-6365.771101,4826.401637
163279.501163,1480.411884,-5995.668130,2451.505594
163279.501482,814.226536,-6661.853478,-612.876398
163279.501801,-74.020594,-9474.636058,-3140.991542
163279.502119,-4589.276840,-11325.150913,-6358.592633
163279.502438,-5921.647536,-13693.809927,-7354.516781
163279.502757,-4811.338623,-14804.118840,-4979.620737
163279.503075,-3256.906145,-13249.686362,-842.705048
163279.503394,-370.102971,-10584.944971,3140.991542
163279.503713,2738.761985,-6735.874072,5362.668486
163279.504031,7031.956449,-4737.318029,8503.660028
163279.504350,7031.956449,-4589.276840,3064.381992
163279.504669,4145.153275,-5107.421000,2604.724693
163279.504988,2146.597232,-7550.100608,-1455.581446
163279.505306,-962.267725,-11843.295072,-2528.115143
163279.505625,-4737.318029,-11917.315666,-6128.763984
163279.505944,-4811.338623,-15544.324782,-5132.839837
163279.506262,-3256.906145,-16210.510130,-1302.362347
163279.506581,-518.144159,-13101.645173,1915.238745
163279.506900,1036.288319,-8956.491898,3140.991542
163279.507218,3478.967927,-6291.750507,3600.648841
163279.507537,1480.411884,-2738.761985,1991.848295
163279.507856,2960.823768,-3923.091493,1072.533697
163279.508174,3256.906145,-8956.491898,1072.533697
163279.508493,1702.473667,-9474.636058,-2528.115143
163279.508812,-2368.659014,-11917.315666,-1225.752797
163279.509131,-4367.215058,-13397.727550,-2451.505594
163279.509449,-4071.132681,-14582.057057,-995.924147
163279.509768,-2516.700203,-13323.706956,1838.629195
163279.510087,-888.247130,-9252.574275,1225.752797
163279.510405,0.000000,-5403.503377,0.000000
163279.510724,148.041188,-5699.585753,0.000000
163279.511043,-2368.659014,-4811.338623,-2451.505594
163279.511361,1110.308913,-8882.471304,-2834.553343
163279.511680,-74.020594,-9474.636058,-4366.744339
163279.511999,-74.020594,-14211.954086,-1302.362347
163279.512318,0.000000,-12953.603985,0.000000
163279.512636,888.247130,-12287.418637,2528.115143
163279.512955,2368.659014,-9844.739029,4749.792088
163279.513274,2368.659014,-6587.832884,5515.887586
