#time,accel_x,accel_y,accel_z
163479.618794,1184.329507,-10658.965565,2374.896044
163479.619114,0.000000,-9400.615463,1225.752797
163479.619433,0.000000,-7772.162391,612.876398
163479.619753,740.205942,-10066.800811,995.924147
163479.620073,-74.020594,-9474.636058,-76.609550
163479.620392,-2146.597232,-7179.997637,0.000000
163479.620712,-74.020594,-9474.636058,-76.609550
163479.621031,-444.123565,-8956.491898,-383.047749
163479.621351,-666.185348,-9252.574275,-76.609550
163479.621671,-888.247130,-9400.615463,-689.485948
163479.621990,0.000000,-9696.697840,919.314598
163479.622310,-814.226536,-8290.306550,-2374.896044
163479.622630,-592.164754,-9844.739029,153.219100
163479.622949,-74.020594,-9474.636058,-689.485948
163479.623269,-2886.803174,-7476.080014,-2298.286494
163479.623588,-1776.494261,-8364.327145,-3677.258390
163479.623908,-74.020594,-10510.924376,-383.047749
163479.624228,-296.082377,-9548.656652,-612.876398
163479.624547,-296.082377,-9252.574275,-306.438199
163479.624867,0.000000,-9474.636058,-689.485948
163479.625187,0.000000,-9474.636058,-76.609550
163479.625506,222.061783,-8808.450710,-842.705048
163479.625826,0.000000,-7179.997637,-2221.676944
163479.626145,0.000000,-9548.656652,0.000000
163479.626465,592.164754,-9548.656652,1838.629195
163479.626785,-2368.659014,-7179.997637,0.000000
163479.627104,-370.102971,-9104.533087,229.828649
163479.627424,0.000000,-9252.574275,153.219100
163479.627744,-296.082377,-9326.594869,153.219100
163479.628063,-74.020594,-9474.636058,-76.609550
163479.628383,-74.020594,-9696.697840,1149.143247
163479.628702,-74.020594,-11843.295072,-76.609550
163479.629022,-1554.432478,-8364.327145,-1608.800546
163479.629342,-1776.494261,-8956.491898,0.000000
163479.629661,-2368.659014,-7772.162391,0.000000
163479.629981,-962.267725,-8734.430116,-1072.533697
163479.630301,-370.102971,-9696.697840,-689.485948
163479.630620,-592.164754,-9844.739029,0.000000
163479.630940,-1036.288319,-9400.615463,-612.876398
163479.631260,2294.638420,-11843.295072,-76.609550
163479.631579,0.000000,-9548.656652,0.000000
163479.631899,-74.020594,-10658.965565,-383.047749
163479.632218,-1480.411884,-8512.368333,-1072.533697
163479.632538,-2368.659014,-7179.997637,0.000000
163479.632858,-666.185348,-8290.306550,-1532.190996
163479.633177,148.041188,-9770.718434,0.000000
163479.633497,148.041188,-9030.512492,-229.828649
163479.633817,296.082377,-9622.677246,0.000000
163479.634136,1702.473667,-11695.253884,2987.772442
163479.634456,518.144159,-9474.636058,-76.609550
163479.634775,-74.020594,-9178.553681,-153.219100
163479.635095,-888.247130,-7179.997637,-2451.505594
163479.635415,0.000000,-9548.656652,1225.752797
163479.635734,-74.020594,-9178.553681,-76.609550
163479.636054,444.123565,-10066.800811,459.657299
163479.636374,-740.205942,-8956.491898,-766.095498
163479.636693,-592.164754,-9400.615463,-383.047749
163479.637013,-740.205942,-9326.594869,-536.266849
163479.637332,-2368.659014,-8364.327145,0.000000
163479.637652,-592.164754,-9548.656652,-1302.362347
163479.637972,-1036.288319,-9474.636058,-842.705048
163479.638291,-814.226536,-9696.697840,-995.924147
163479.638611,-962.267725,-8364.327145,-1915.238745
163479.638931,-74.020594,-9474.636058,-459.657299
163479.639250,1702.473667,-11843.295072,-76.609550
163479.639570,-666.185348,-9104.533087,-1302.362347
163479.639889,-592.164754,-9548.656652,0.000000
163479.640209,1702.473667,-11251.130318,1762.019645
163479.640529,0.000000,-8364.327145,0.000000
163479.640848,222.061783,-9474.636058,0.000000
163479.641168,0.000000,-9104.533087,0.000000
163479.641488,148.041188,-9178.553681,153.219100
163479.641807,-74.020594,-9474.636058,0.000000
163479.642127,-592.164754,-8660.409521,-766.095498
163479.642446,1628.453072,-9474.636058,842.705048
163479.642766,2294.638420,-11547.212695,1762.019645
163479.643086,1110.308913,-8290.306550,-383.047749
163479.643405,1776.494261,-10732.986159,1762.019645
163479.643725,0.000000,-8364.327145,0.000000
163479.644045,1332.370696,-9326.594869,-383.047749
163479.644364,1110.308913,-9548.656652,-536.266849
163479.644684,814.226536,-9548.656652,-459.657299
163479.645004,370.102971,-8512.368333,-2298.286494
163479.645323,2442.679609,-9548.656652,0.000000
163479.645643,4663.297435,-11843.295072,2068.457845
163479.645962,2072.576638,-7550.100608,-1072.533697
163479.646282,4145.153275,-9548.656652,536.266849
163479.646602,4737.318029,-10881.027347,2681.334243
163479.646921,5033.400406,-9548.656652,0.000000
163479.647241,5255.462188,-9622.677246,-306.438199
163479.647561,4885.359217,-9770.718434,-689.485948
163479.647880,3256.906145,-8364.327145,-2451.505594
163479.648200,3034.844362,-7179.997637,-1915.238745
163479.648519,4663.297435,-8586.388927,-2681.334243
163479.648839,5033.400406,-8660.409521,-1225.752797
163479.649159,8290.306550,-9474.636058,0.000000
163479.649478,9400.615463,-11843.295072,-76.609550
163479.649798,8290.306550,-9844.739029,1378.971896
163479.650118,6439.791695,-10362.883188,0.000000
163479.650437,5033.400406,-11473.192101,306.438199
163479.650757,2664.741391,-12139.377449,0.000000
163479.651076,1036.288319,-10658.965565,229.828649
163479.651396,1480.411884,-10732.986159,1225.752797
163479.651716,4071.132681,-9474.636058,1149.143247
163479.652035,3923.091493,-5921.647536,-76.609550
163479.652355,2664.741391,-3627.009116,-1532.190996
163479.652675,5255.462188,-7105.977043,-76.609550
163479.652994,3108.864956,-5403.503377,-2604.724693
163479.653314,3775.050304,-7994.224174,-2604.724693
163479.653633,3034.844362,-10732.986159,-2374.896044
163479.653953,2146.597232,-13545.768739,-2145.067394
163479.654273,1184.329507,-15470.304188,0.000000
163479.654592,3108.864956,-16358.551318,2604.724693
163479.654912,3849.070898,-12213.398043,3983.696590
163479.655232,4663.297435,-9178.553681,1762.019645
163479.655551,1924.535449,-3923.091493,-1455.581446
163479.655871,4071.132681,-7105.977043,-383.047749
163479.656190,1628.453072,-5773.606348,-1302.362347
163479.656510,2368.659014,-7624.121203,-383.047749
163479.656830,666.185348,-8290.306550,-76.609550
163479.657149,-2368.659014,-8660.409521,0.000000
163479.657469,-3552.988522,-8956.491898,0.000000
163479.657789,1110.308913,-9474.636058,383.047749
163479.658108,2368.659014,-7254.018232,1149.143247
163479.658428,2368.659014,-7476.080014,-689.485948
163479.658748,3478.967927,-10362.883188,2374.896044
163479.659067,1702.473667,-11029.068536,2145.067394
163479.659387,0.000000,-8882.471304,-459.657299
163479.659706,-1554.432478,-7772.162391,-4366.744339
163479.660026,-3404.947333,-7624.121203,-6205.373534
163479.660346,-4737.318029,-8512.368333,-6128.763984
163479.660665,2294.638420,-13323.706956,-76.609550
163479.660985,3478.967927,-12731.542202,1762.019645
163479.661305,1184.329507,-8956.491898,842.705048
163479.661624,888.247130,-8660.409521,1838.629195
163479.661944,3478.967927,-7105.977043,-1302.362347
163479.662263,4737.318029,-8290.306550,2145.067394
163479.662583,7254.018232,-8364.327145,4826.401637
163479.662903,7105.977043,-7254.018232,4136.915689
163479.663222,4663.297435,-7698.141797,-76.609550
163479.663542,-962.267725,-8512.368333,-5209.449386
163479.663862,-1850.514855,-13027.624579,-6818.249932
163479.664181,-592.164754,-16580.613101,-4060.306139
163479.664501,-74.020594,-15988.448347,-3140.991542
163479.664820,0.000000,-11325.150913,-4213.525239
163479.665140,3478.967927,-11547.212695,-76.609550
163479.665460,8290.306550,-8882.471304,4290.134789
163479.665779,12953.603985,-5403.503377,8503.660028
163479.666099,12435.459826,-2072.576638,7660.954980
163479.666419,8882.471304,-2590.720797,6665.030833
163479.666738,4737.318029,-4811.338623,1225.752797
163479.667058,3552.988522,-9548.656652,1225.752797
163479.667377,3330.926739,-13619.789333,-76.609550
163479.667697,-1258.350101,-13323.706956,-1915.238745
163479.668017,-4811.338623,-11917.315666,-9499.584175
163479.668336,-3034.844362,-13989.892304,-6894.859482
163479.668656,-518.144159,-12657.521608,-4673.182538
163479.668976,2368.659014,-10288.862594,-1532.190996
163479.669295,5033.400406,-8956.491898,995.924147
163479.669615,8290.306550,-7328.038826,4290.134789
163479.669934,5921.647536,-3627.009116,2451.505594
163479.670254,5329.482782,-4811.338623,5515.887586
163479.670574,6735.874072,-7105.977043,5515.887586
163479.670893,7846.182985,-6883.915261,2528.115143
163479.671213,7031.956449,-9474.636058,-76.609550
163479.671533,666.185348,-9992.780217,-2987.772442
163479.671852,-1406.391290,-12879.583391,-4519.963438
163479.672172,-1184.329507,-13915.871710,-4903.011187
163479.672492,0.000000,-13693.809927,-3677.258390
163479.672811,0.000000,-13101.645173,-2681.334243
163479.673131,2294.638420,-11843.295072,-689.485948
163479.673450,3478.967927,-10658.965565,2374.896044
163479.673770,4737.318029,-4811.338623,2068.457845
163479.674090,8142.265362,-7698.141797,6052.154434
163479.674409,6513.812290,-4811.338623,4903.011187
163479.674729,5773.606348,-4737.318029,3830.477490
163479.675049,2960.823768,-7179.997637,995.924147
163479.675368,-370.102971,-9844.739029,-2221.676944
163479.675688,-4219.173869,-9696.697840,-7354.516781
163479.676007,-3256.906145,-13101.645173,-4979.620737
163479.676327,-3182.885551,-12879.583391,-4060.306139
163479.676647,-666.185348,-12361.439231,-2221.676944
163479.676966,2146.597232,-11103.089130,-76.609550
163479.677286,6439.791695,-10362.883188,2298.286494
163479.677606,4737.318029,-5995.668130,3064.381992
163479.677925,5847.626942,-6513.812290,2987.772442
163479.678245,3775.050304,-8290.306550,2374.896044
163479.678564,1184.329507,-6587.832884,0.000000
163479.678884,1406.391290,-7994.224174,-2374.896044
163479.679204,370.102971,-10362.883188,-2528.115143
163479.679523,-1036.288319,-10288.862594,-5209.449386
163479.679843,-592.164754,-11695.253884,-4213.525239
163479.680163,2368.659014,-12435.459826,-1608.800546
163479.680482,4663.297435,-12435.459826,-306.438199
163479.680802,2812.782580,-9696.697840,1608.800546
163479.681121,2368.659014,-7179.997637,2451.505594
163479.681441,4737.318029,-7772.162391,5209.449386
163479.681761,2960.823768,-4811.338623,4903.011187
163479.682080,4515.256246,-6513.812290,4519.963438
163479.682400,1998.556043,-5625.565159,2911.162892
163479.682720,-1554.432478,-5921.647536,-1455.581446
163479.683039,-5551.544565,-7920.203579,-5439.278036
163479.683359,-4811.338623,-11843.295072,-6511.811733
163479.683679,-5403.503377,-13027.624579,-6205.373534
163479.683998,-4219.173869,-13619.789333,-5286.058936
163479.684318,-4737.318029,-12509.480420,-3524.039291
163479.684637,-2960.823768,-11325.150913,842.705048
163479.684957,0.000000,-9548.656652,2451.505594
163479.685277,3478.967927,-8068.244768,5056.230287
163479.685596,4071.132681,-6587.832884,6894.859482
163479.685916,2738.761985,-4737.318029,5132.839837
163479.686236,-74.020594,-3552.988522,-76.609550
163479.686555,-2442.679609,-7994.224174,-3983.696590
163479.686875,-3923.091493,-13027.624579,-2528.115143
163479.687194,-4219.173869,-11547.212695,-5209.449386
163479.687514,-4959.379811,-11843.295072,-3753.867940
163479.687834,-4145.153275,-12509.480420,-2451.505594
163479.688153,-6513.812290,-10732.986159,-4290.134789
163479.688473,-3034.844362,-12213.398043,229.828649
163479.688792,222.061783,-9326.594869,2834.553343
163479.689111,1110.308913,-8734.430116,4903.011187
163479.689431,2294.638420,-7105.977043,5056.230287
163479.689750,-148.041188,-5625.565159,4290.134789
163479.690070,-1924.535449,-5181.441594,1991.848295
163479.690389,-74.020594,-8882.471304,-76.609550
163479.690709,-1924.535449,-7402.059420,-1915.238745
163479.691028,0.000000,-9548.656652,0.000000
163479.691348,-4145.153275,-9548.656652,-2451.505594
163479.691667,-2960.823768,-11695.253884,-3140.991542
163479.691986,-2516.700203,-13841.851115,-2221.676944
163479.692306,-1554.432478,-12213.398043,-3064.381992
163479.692625,-1702.473667,-10732.986159,-1838.629195
163479.692945,-2220.617826,-8438.347739,0.000000
163479.693264,-4737.318029,-4811.338623,-2451.505594
163479.693584,-1776.494261,-8216.285956,-76.609550
163479.693903,2294.638420,-7105.977043,-76.609550
163479.694223,3552.988522,-7772.162391,3370.820191
163479.694542,5181.441594,-7179.997637,1378.971896
163479.694861,3775.050304,-8364.327145,383.047749
163479.695181,1406.391290,-11029.068536,-383.047749
163479.695500,814.226536,-11325.150913,-2451.505594
163479.695820,0.000000,-11917.315666,0.000000
163479.696139,-962.267725,-10732.986159,-1532.190996
163479.696459,-1184.329507,-8956.491898,-1991.848295
163479.696778,-1480.411884,-8660.409521,-3677.258390
163479.697098,1998.556043,-9474.636058,-689.485948
163479.697417,1480.411884,-8364.327145,76.609550
163479.697736,3701.029710,-7105.977043,995.924147
163479.698056,5033.400406,-6735.874072,2068.457845
163479.698375,4959.379811,-7698.141797,2987.772442
163479.698695,3552.988522,-7772.162391,1608.800546
163479.699014,6439.791695,-12435.459826,4213.525239
163479.699334,1702.473667,-9770.718434,842.705048
163479.699653,-2812.782580,-9548.656652,-3677.258390
163479.699973,-7105.977043,-8364.327145,-5515.887586
163479.700292,-5995.668130,-10658.965565,-6205.373534
163479.700611,-6735.874072,-11251.130318,-5822.325785
163479.700931,-2960.823768,-10066.800811,-4290.134789
163479.701250,74.020594,-9548.656652,-919.314598
163479.701570,3256.906145,-7476.080014,3524.039291
163479.701889,3478.967927,-6735.874072,1838.629195
163479.702209,4071.132681,-9474.636058,4596.572988
163479.702528,6735.874072,-11843.295072,6665.030833
163479.702848,4071.132681,-10066.800811,4366.744339
163479.703167,-1184.329507,-7772.162391,383.047749
163479.703486,-666.185348,-10658.965565,-1302.362347
163479.703806,-5995.668130,-9474.636058,-5056.230287
163479.704125,-5403.503377,-9474.636058,-3677.258390
163479.704445,-4219.173869,-8734.430116,-4519.963438
163479.704764,-2368.659014,-9548.656652,0.000000
163479.705084,-1184.329507,-8956.491898,0.000000
163479.705403,0.000000,-7476.080014,2451.505594
163479.705723,1998.556043,-10362.883188,4366.744339
163479.706042,2368.659014,-7624.121203,4596.572988
163479.706361,-962.267725,-7994.224174,1455.581446
163479.706681,-1850.514855,-8438.347739,2145.067394
163479.707000,-4885.359217,-7179.997637,-2834.553343
163479.707320,-6439.791695,-8364.327145,-3753.867940
163479.707639,-4145.153275,-9844.739029,-3753.867940
163479.707959,-2368.659014,-8660.409521,-2451.505594
163479.708278,-3552.988522,-7179.997637,-3677.258390
163479.708598,-1184.329507,-8660.409521,-1532.190996
163479.708917,-74.020594,-10362.883188,-76.609550
163479.709236,3478.967927,-10658.965565,1455.581446
163479.709556,6439.791695,-12435.459826,4213.525239
163479.709875,2664.741391,-11029.068536,4060.306139
163479.710195,0.000000,-8364.327145,1762.019645
163479.710514,-2738.761985,-7476.080014,-1378.971896
163479.710834,-4737.318029,-7772.162391,-1532.190996
163479.711153,-888.247130,-8882.471304,-2451.505594
163479.711473,2294.638420,-9474.636058,-1532.190996
163479.711792,2294.638420,-11843.295072,-76.609550
163479.712112,0.000000,-8364.327145,-2451.505594
163479.712431,1110.308913,-11843.295072,1762.019645
163479.712750,1480.411884,-10732.986159,1838.629195
163479.713070,4441.235652,-10140.821405,2681.334243
163479.713389,2590.720797,-10732.986159,3370.820191
163479.713709,1110.308913,-9252.574275,1762.019645
163479.714028,-2738.761985,-6365.771101,-3983.696590
163479.714348,-3034.844362,-8290.306550,-2068.457845
163479.714667,-1628.453072,-7994.224174,-3370.820191
163479.714987,518.144159,-8290.306550,-1838.629195
163479.715306,1258.350101,-9474.636058,-76.609550
163479.715625,2738.761985,-10066.800811,-1302.362347
163479.715945,0.000000,-11029.068536,0.000000
163479.716264,2886.803174,-11843.295072,536.266849
163479.716584,1776.494261,-10066.800811,1149.143247
163479.716903,0.000000,-9548.656652,2451.505594
163479.717223,-740.205942,-7254.018232,-1302.362347
163479.717542,-1776.494261,-8290.306550,-1532.190996
163479.717862,-2220.617826,-8734.430116,-1532.190996
163479.718181,-296.082377,-7476.080014,-2068.457845
163479.718500,2294.638420,-8660.409521,-383.047749
163479.718820,1702.473667,-9326.594869,-612.876398
163479.719139,0.000000,-8364.327145,-612.876398
163479.719459,0.000000,-9548.656652,612.876398
163479.719778,2516.700203,-11695.253884,2451.505594
163479.720098,592.164754,-9844.739029,2451.505594
163479.720417,-666.185348,-9770.718434,1149.143247
163479.720737,-3775.050304,-8956.491898,0.000000
163479.721056,-5255.462188,-8142.265362,-2145.067394
163479.721375,-4515.256246,-8438.347739,-2451.505594
163479.721695,-1258.350101,-7698.141797,-2528.115143
163479.722014,-1480.411884,-6883.915261,-919.314598
163479.722334,-2072.576638,-5995.668130,0.000000
163479.722653,0.000000,-8364.327145,459.657299
163479.722973,1702.473667,-10658.965565,2374.896044
163479.723292,0.000000,-9548.656652,1225.752797
163479.723612,222.061783,-11843.295072,2298.286494
163479.723931,-2368.659014,-11325.150913,766.095498
163479.724250,-4515.256246,-8734.430116,-2298.286494
163479.724570,-5551.544565,-7846.182985,-4366.744339
163479.724889,-3034.844362,-8882.471304,-2528.115143
163479.725209,-666.185348,-9474.636058,-2528.115143
163479.725528,-814.226536,-7179.997637,-1608.800546
163479.725848,1184.329507,-6735.874072,-76.609550
163479.726167,3256.906145,-9622.677246,4213.525239
163479.726487,2664.741391,-9548.656652,3064.381992
163479.726806,4737.318029,-10066.800811,3753.867940
163479.727125,2294.638420,-10807.006753,3447.429741
163479.727445,-518.144159,-9622.677246,1302.362347
163479.727764,-1258.350101,-10362.883188,-1915.238745
163479.728084,-2960.823768,-10288.862594,-1685.410096
163479.728403,-2442.679609,-10066.800811,-3447.429741
163479.728723,-2590.720797,-9474.636058,-2528.115143
163479.729042,-1258.350101,-7920.203579,-2834.553343
163479.729362,1776.494261,-9992.780217,1608.800546
163479.729681,888.247130,-8216.285956,689.485948
163479.730000,4515.256246,-9326.594869,3064.381992
163479.730320,5255.462188,-10288.862594,4290.134789
163479.730639,3182.885551,-10436.903782,2757.943793
163479.730959,-1036.288319,-8660.409521,0.000000
163479.731278,-4737.318029,-9400.615463,-2451.505594
163479.731598,-4737.318029,-10140.821405,-4749.792088
163479.731917,-2442.679609,-11843.295072,-4366.744339
163479.732237,-1850.514855,-10658.965565,-3140.991542
163479.732556,592.164754,-10584.944971,-536.266849
163479.732875,592.164754,-8364.327145,-2145.067394
163479.733195,3256.906145,-9252.574275,689.485948
163479.733514,5625.565159,-8882.471304,3447.429741
163479.733834,4737.318029,-7476.080014,2451.505594
163479.734153,2516.700203,-8438.347739,3677.258390
163479.734473,-2072.576638,-7179.997637,0.000000
163479.734792,-3552.988522,-9548.656652,-1072.533697
163479.735112,-3627.009116,-10658.965565,-2528.115143
163479.735431,-2442.679609,-11251.130318,-2528.115143
163479.735750,-2368.659014,-9548.656652,-2145.067394
163479.736070,-814.226536,-8512.368333,-1838.629195
163479.736389,-74.020594,-7772.162391,-2068.457845
163479.736709,1110.308913,-9474.636058,689.485948
163479.737028,1776.494261,-7624.121203,1762.019645
163479.737348,6439.791695,-10658.965565,6358.592633
163479.737667,2590.720797,-7772.162391,3600.648841
163479.737987,-3256.906145,-8364.327145,1225.752797
163479.738306,-4811.338623,-10658.965565,-1302.362347
163479.738625,-5403.503377,-10658.965565,-2528.115143
163479.738945,-6809.894666,-10362.883188,-4673.182538
163479.739264,-5699.585753,-9918.759623,-3830.477490
163479.739584,-3478.967927,-8586.388927,-3524.039291
163479.739903,-740.205942,-9252.574275,-689.485948
163479.740223,3108.864956,-9844.739029,1225.752797
163479.740542,4663.297435,-10066.800811,3600.648841
163479.740862,4663.297435,-11843.295072,6052.154434
163479.741181,1702.473667,-7476.080014,2451.505594
163479.741500,-2664.741391,-6587.832884,0.000000
163479.741820,-666.185348,-11251.130318,-76.609550
163479.742139,-2960.823768,-9844.739029,-1225.752797
163479.742459,-3182.885551,-9474.636058,-1455.581446
163479.742778,-2368.659014,-8290.306550,-1991.848295
163479.743098,-1184.329507,-8364.327145,-612.876398
163479.743417,0.000000,-8068.244768,-919.314598
163479.743737,296.082377,-7179.997637,766.095498
163479.744056,3552.988522,-9548.656652,3524.039291
163479.744375,4663.297435,-10066.800811,5745.716235
163479.744695,1110.308913,-6809.894666,0.000000
163479.745014,-3034.844362,-10066.800811,-306.438199
163479.745334,-4293.194464,-9918.759623,-1685.410096
163479.745653,-3330.926739,-9992.780217,-2298.286494
163479.745973,-2368.659014,-10066.800811,-2068.457845
163479.746292,-2960.823768,-8364.327145,-2451.505594
163479.746612,-3404.947333,-7179.997637,-4213.525239
163479.746931,1184.329507,-10214.842000,-306.438199
163479.747250,4663.297435,-10066.800811,3447.429741
163479.747570,7031.956449,-9474.636058,2374.896044
163479.747889,6735.874072,-11843.295072,4826.401637
163479.748209,1628.453072,-10510.924376,1838.629195
163479.748528,-2368.659014,-9400.615463,-2221.676944
163479.748848,-3182.885551,-10807.006753,-2834.553343
163479.749167,-4145.153275,-10140.821405,-2145.067394
163479.749487,-2960.823768,-10436.903782,-2451.505594
163479.749806,-74.020594,-8882.471304,-1915.238745
163479.750126,1406.391290,-8882.471304,-76.609550
163479.750445,2738.761985,-6365.771101,0.000000
163479.750764,7031.956449,-10658.965565,4826.401637
163479.751084,4737.318029,-8808.450710,4136.915689
163479.751403,3404.947333,-9104.533087,3677.258390
163479.751723,-1258.350101,-9696.697840,-536.266849
163479.752042,-3627.009116,-10881.027347,-1072.533697
163479.752362,-3627.009116,-8438.347739,-4903.011187
163479.752681,-2516.700203,-10066.800811,-2145.067394
163479.753001,-2442.679609,-9104.533087,-2681.334243
163479.753320,-1776.494261,-7179.997637,-2911.162892
163479.753639,-666.185348,-8882.471304,-1915.238745
163479.753959,2294.638420,-9474.636058,-76.609550
163479.754278,1184.329507,-10140.821405,2451.505594
163479.754598,2886.803174,-11843.295072,3830.477490
163479.754917,1110.308913,-9474.636058,3600.648841
163479.755237,-3552.988522,-7772.162391,0.000000
163479.755556,-3849.070898,-8512.368333,-2221.676944
163479.755876,-2664.741391,-9992.780217,-1915.238745
163479.756195,-3923.091493,-9474.636058,-2221.676944
163479.756514,-3552.988522,-8364.327145,-2604.724693
163479.756834,-444.123565,-7772.162391,-1685.410096
163479.757153,666.185348,-8290.306550,-1149.143247
163479.757473,2368.659014,-8660.409521,919.314598
163479.757792,2960.823768,-9548.656652,3677.258390
163479.758112,3478.967927,-11251.130318,3983.696590
163479.758431,0.000000,-8364.327145,2451.505594
163479.758751,-3330.926739,-10214.842000,-842.705048
163479.759070,-3923.091493,-10510.924376,-766.095498
163479.759389,-2516.700203,-10510.924376,-229.828649
163479.759709,-2294.638420,-9770.718434,153.219100
163479.760028,-74.020594,-6513.812290,-1302.362347
163479.760348,-1258.350101,-6143.709319,-1225.752797
163479.760667,-1776.494261,-5107.421000,-1838.629195
163479.760987,1480.411884,-8364.327145,1225.752797
163479.761306,2516.700203,-9548.656652,3600.648841
163479.761626,0.000000,-9548.656652,3064.381992
163479.761945,-74.020594,-9918.759623,-689.485948
163479.762264,-4219.173869,-10658.965565,-2451.505594
163479.762584,-5107.421000,-12213.398043,-3447.429741
163479.762903,-4811.338623,-10140.821405,-5132.839837
163479.763223,-3034.844362,-11251.130318,-2528.115143
163479.763542,-74.020594,-9474.636058,-2528.115143
163479.763862,444.123565,-6587.832884,-1838.629195
163479.764181,2368.659014,-6217.729913,-76.609550
163479.764501,7402.059420,-8290.306550,4826.401637
163479.764820,5329.482782,-8364.327145,4290.134789
163479.765139,5551.544565,-9104.533087,4519.963438
163479.765459,1036.288319,-9030.512492,306.438199
163479.765778,-2294.638420,-11547.212695,-1532.190996
163479.766098,-2442.679609,-12435.459826,-3217.601092
163479.766417,-1258.350101,-13471.748144,-995.924147
163479.766737,-1258.350101,-10362.883188,-2528.115143
163479.767056,-1406.391290,-9178.553681,-2528.115143
163479.767376,-1406.391290,-6809.894666,-3830.477490
163479.767695,2220.617826,-9474.636058,2757.943793
163479.768014,2442.679609,-7920.203579,1455.581446
163479.768334,3627.009116,-7846.182985,3064.381992
163479.768653,3552.988522,-8364.327145,3064.381992
163479.768973,0.000000,-7624.121203,0.000000
163479.769292,-3552.988522,-9622.677246,-2451.505594
163479.769612,-3404.947333,-11917.315666,-1072.533697
163479.769931,-1850.514855,-13619.789333,-1302.362347
163479.770251,-4219.173869,-11547.212695,-3140.991542
163479.770570,-3997.112087,-8290.306550,-4366.744339
163479.770889,-740.205942,-11251.130318,-995.924147
163479.771209,1702.473667,-9178.553681,153.219100
163479.771528,4293.194464,-7179.997637,1991.848295
163479.771848,3775.050304,-7476.080014,4290.134789
163479.772167,1480.411884,-5403.503377,2451.505594
163479.772487,0.000000,-7179.997637,0.000000
163479.772806,-4737.318029,-8660.409521,-2451.505594
163479.773126,-3552.988522,-12361.439231,-536.266849
163479.773445,-3182.885551,-11843.295072,-76.609550
163479.773764,-74.020594,-11251.130318,-76.609550
163479.774084,-1702.473667,-9178.553681,-995.924147
163479.774403,-2664.741391,-7994.224174,-1532.190996
163479.774723,518.144159,-8142.265362,-995.924147
163479.775042,2072.576638,-8956.491898,1378.971896
163479.775362,296.082377,-7772.162391,1225.752797
163479.775681,2294.638420,-9474.636058,2374.896044
163479.776001,-2368.659014,-7179.997637,0.000000
163479.776320,-1924.535449,-10732.986159,612.876398
163479.776639,-666.185348,-11843.295072,-76.609550
163479.776959,-2442.679609,-10658.965565,-1302.362347
163479.777278,-4441.235652,-9844.739029,-2681.334243
163479.777598,-5107.421000,-9474.636058,-3983.696590
163479.777917,-3627.009116,-9770.718434,-2451.505594
163479.778237,592.164754,-8660.409521,1225.752797
163479.778556,2960.823768,-7179.997637,2451.505594
163479.778876,5847.626942,-9474.636058,5439.278036
163479.779195,4663.297435,-8956.491898,3907.087040
163479.779514,-3775.050304,-6143.709319,-2451.505594
163479.779834,-3034.844362,-10510.924376,-2221.676944
163479.780153,-74.020594,-13619.789333,-76.609550
163479.780473,0.000000,-10955.047942,-919.314598
163479.780792,-1628.453072,-9474.636058,-1302.362347
163479.781112,-1924.535449,-8438.347739,-2911.162892
163479.781431,0.000000,-7772.162391,0.000000
163479.781751,2368.659014,-7772.162391,229.828649
163479.782070,2368.659014,-7179.997637,2451.505594
163479.782389,5625.565159,-9474.636058,4673.182538
163479.782709,2516.700203,-7031.956449,842.705048
163479.783028,-74.020594,-7698.141797,-1608.800546
163479.783348,-74.020594,-10658.965565,-229.828649
163479.783667,-2146.597232,-10955.047942,-2068.457845
163479.783987,-2294.638420,-11547.212695,-1915.238745
163479.784306,-3108.864956,-10658.965565,-3140.991542
163479.784626,-4737.318029,-7772.162391,-4903.011187
163479.784945,-1258.350101,-9178.553681,-3753.867940
163479.785264,0.000000,-9548.656652,0.000000
163479.785584,3552.988522,-8808.450710,2987.772442
163479.785903,4663.297435,-7105.977043,2374.896044
163479.786223,3478.967927,-7698.141797,-76.609550
163479.786542,-1184.329507,-9548.656652,-919.314598
163479.786862,-1406.391290,-10066.800811,-1608.800546
163479.787181,-2146.597232,-10732.986159,-2068.457845
163479.787501,-2368.659014,-12065.356855,-919.314598
163479.787820,-2368.659014,-10807.006753,-3370.820191
163479.788140,-3034.844362,-11251.130318,-2681.334243
163479.788459,-1258.350101,-10066.800811,-689.485948
163479.788779,1184.329507,-7179.997637,612.876398
163479.789099,8216.285956,-11251.130318,6052.154434
163479.789418,4145.153275,-6587.832884,3677.258390
163479.789738,-222.061783,-6661.853478,1072.533697
163479.790057,-1850.514855,-9178.553681,842.705048
163479.790377,-962.267725,-10362.883188,76.609550
163479.790696,-3552.988522,-9548.656652,0.000000
163479.791016,-2442.679609,-11251.130318,536.266849
163479.791335,-4219.173869,-8586.388927,-1991.848295
163479.791655,-4071.132681,-9178.553681,-2451.505594
163479.791975,-1258.350101,-9474.636058,-1302.362347
163479.792294,1998.556043,-9474.636058,-383.047749
163479.792614,1184.329507,-8956.491898,2757.943793
163479.792933,2294.638420,-8882.471304,2374.896044
163479.793253,-74.020594,-9474.636058,1762.019645
163479.793572,-2368.659014,-9548.656652,0.000000
163479.793892,-3108.864956,-8512.368333,-1838.629195
163479.794211,-1702.473667,-11251.130318,-536.266849
163479.794531,-2812.782580,-10732.986159,-1378.971896
163479.794851,-4145.153275,-10066.800811,-2451.505594
163479.795170,-1850.514855,-10140.821405,-1838.629195
163479.795490,2146.597232,-9474.636058,1762.019645
163479.795809,3849.070898,-8956.491898,2528.115143
163479.796129,4293.194464,-8956.491898,4903.011187
163479.796448,3182.885551,-8586.388927,1762.019645
163479.796768,-1776.494261,-7179.997637,0.000000
163479.797087,-1480.411884,-8956.491898,-1072.533697
163479.797407,-518.144159,-10658.965565,-153.219100
163479.797727,-518.144159,-11547.212695,383.047749
163479.798046,-1480.411884,-9770.718434,-689.485948
163479.798366,-2442.679609,-7550.100608,-2681.334243
163479.798685,-2368.659014,-8660.409521,-612.876398
163479.799005,0.000000,-7179.997637,0.000000
163479.799324,2368.659014,-8364.327145,1532.190996
163479.799644,2886.803174,-8216.285956,2834.553343
163479.799963,0.000000,-6587.832884,1225.752797
163479.800283,-1554.432478,-9326.594869,-1762.019645
163479.800603,-1258.350101,-10732.986159,-2451.505594
163479.800922,-2442.679609,-11103.089130,-1915.238745
163479.801242,-3256.906145,-9696.697840,-2911.162892
163479.801561,-2442.679609,-8734.430116,-1915.238745
163479.801881,-2738.761985,-8734.430116,-4060.306139
163479.802200,-2368.659014,-8956.491898,-1072.533697
163479.802520,2960.823768,-8364.327145,0.000000
163479.802839,7031.956449,-9474.636058,4826.401637
163479.803159,3552.988522,-7179.997637,3064.381992
163479.803478,1480.411884,-6513.812290,766.095498
163479.803798,-1776.494261,-8660.409521,-1378.971896
163479.804118,-888.247130,-11621.233289,-1302.362347
163479.804437,-74.020594,-11843.295072,-1608.800546
163479.804757,-74.020594,-13915.871710,1762.019645
163479.805076,-1628.453072,-10066.800811,-1302.362347
163479.805396,-2664.741391,-9178.553681,-2528.115143
163479.805715,-1628.453072,-7994.224174,-2451.505594
163479.806035,2590.720797,-9474.636058,2374.896044
163479.806354,1850.514855,-7476.080014,2451.505594
163479.806674,2886.803174,-6809.894666,2911.162892
163479.806994,518.144159,-6365.771101,306.438199
163479.807313,-2368.659014,-8142.265362,0.000000
163479.807633,-2368.659014,-10140.821405,-1225.752797
163479.807952,-740.205942,-12805.562797,-153.219100
163479.808272,-74.020594,-14063.912898,-76.609550
163479.808591,-3627.009116,-9770.718434,-2834.553343
163479.808911,-5403.503377,-9548.656652,-3447.429741
163479.809230,-74.020594,-11843.295072,-76.609550
163479.809550,2368.659014,-8364.327145,0.000000
163479.809870,2812.782580,-8290.306550,2145.067394
163479.810189,1332.370696,-6957.935855,766.095498
163479.810509,-3552.988522,-5995.668130,0.000000
163479.810828,-3552.988522,-8364.327145,-1225.752797
163479.811148,-2368.659014,-9548.656652,0.000000
163479.811467,1702.473667,-13027.624579,2068.457845
163479.811787,370.102971,-9918.759623,1455.581446
163479.812106,-74.020594,-8586.388927,-689.485948
163479.812426,1184.329507,-9474.636058,2068.457845
163479.812746,1702.473667,-8586.388927,689.485948
163479.813065,1702.473667,-8734.430116,1302.362347
163479.813385,1332.370696,-8290.306550,1225.752797
163479.813704,0.000000,-6587.832884,-1838.629195
163479.814024,-1554.432478,-7994.224174,-2528.115143
163479.814343,-3552.988522,-9548.656652,-2451.505594
163479.814663,-962.267725,-11843.295072,-76.609550
163479.814982,-74.020594,-11843.295072,-689.485948
163479.815302,-74.020594,-9474.636058,-1302.362347
163479.815622,-2368.659014,-8956.491898,-1302.362347
163479.815941,-1776.494261,-9326.594869,-995.924147
163479.816261,592.164754,-8956.491898,229.828649
163479.816580,2294.638420,-10362.883188,4213.525239
163479.816900,2590.720797,-8734.430116,3370.820191
163479.817219,1110.308913,-6365.771101,-76.609550
163479.817539,-2220.617826,-6809.894666,-3140.991542
163479.817858,-3552.988522,-8364.327145,-2451.505594
163479.818178,-2368.659014,-10140.821405,-3677.258390
163479.818497,-74.020594,-13027.624579,-1608.800546
163479.818817,-1480.411884,-11621.233289,-2221.676944
163479.819137,-2368.659014,-11399.171507,-1608.800546
163479.819456,518.144159,-10140.821405,0.000000
163479.819776,4885.359217,-11251.130318,4519.963438
163479.820095,4145.153275,-7846.182985,3524.039291
163479.820415,3404.947333,-7328.038826,4826.401637
163479.820734,-74.020594,-5921.647536,-76.609550
163479.821054,-2368.659014,-7179.997637,-1685.410096
163479.821373,-3404.947333,-7328.038826,-2451.505594
163479.821693,-666.185348,-11251.130318,-689.485948
163479.822013,-1406.391290,-11991.336260,-536.266849
163479.822332,-2442.679609,-10732.986159,-1302.362347
163479.822652,-3849.070898,-10214.842000,-2298.286494
163479.822971,-2368.659014,-11843.295072,-1225.752797
163479.823291,-2368.659014,-8364.327145,0.000000
163479.823610,1998.556043,-10658.965565,1149.143247
163479.823930,1702.473667,-7254.018232,2374.896044
163479.824249,-370.102971,-4811.338623,-3217.601092
163479.824569,-74.020594,-8290.306550,-76.609550
163479.824889,1184.329507,-8956.491898,76.609550
163479.825208,1036.288319,-10140.821405,-536.266849
163479.825528,-296.082377,-11473.192101,229.828649
163479.825847,-592.164754,-11621.233289,1149.143247
163479.826167,-1702.473667,-13027.624579,-383.047749
163479.826486,-74.020594,-11251.130318,-383.047749
163479.826806,-666.185348,-9474.636058,-76.609550
163479.827125,-1776.494261,-7476.080014,0.000000
163479.827445,1628.453072,-8290.306550,-76.609550
163479.827765,-592.164754,-5995.668130,-1762.019645
163479.828084,-888.247130,-8808.450710,383.047749
163479.828404,4293.194464,-8512.368333,2221.676944
163479.828723,2368.659014,-8364.327145,1608.800546
163479.829043,-2960.823768,-7179.997637,0.000000
163479.829362,-2442.679609,-9474.636058,-1608.800546
163479.829682,-2442.679609,-12361.439231,-689.485948
163479.830001,-1184.329507,-10584.944971,-612.876398
163479.830321,-1258.350101,-10955.047942,-383.047749
163479.830641,-74.020594,-9474.636058,-306.438199
163479.830960,888.247130,-7179.997637,-76.609550
163479.831280,-74.020594,-6809.894666,-2221.676944
163479.831599,0.000000,-7105.977043,-1608.800546
163479.831919,888.247130,-8808.450710,1378.971896
163479.832238,0.000000,-7772.162391,0.000000
163479.832558,2368.659014,-9992.780217,306.438199
163479.832877,-740.205942,-10732.986159,-689.485948
163479.833197,-1406.391290,-11991.336260,0.000000
163479.833516,-74.020594,-11547.212695,76.609550
163479.833836,0.000000,-9548.656652,76.609550
163479.834156,1036.288319,-9474.636058,842.705048
163479.834475,-1184.329507,-8290.306550,-1302.362347
163479.834795,-1850.514855,-6143.709319,-3294.210641
163479.835114,1480.411884,-8956.491898,1225.752797
163479.835434,1480.411884,-7920.203579,0.000000
163479.835753,1628.453072,-9400.615463,842.705048
163479.836073,222.061783,-9770.718434,-459.657299
163479.836392,-1924.535449,-11325.150913,-995.924147
163479.836712,-1480.411884,-10955.047942,-1838.629195
163479.837032,-1184.329507,-10732.986159,0.000000
163479.837351,740.205942,-11473.192101,4136.915689
163479.837671,2294.638420,-8290.306550,842.705048
163479.837990,-1332.370696,-6069.688724,-2068.457845
163479.838310,-2368.659014,-9548.656652,-919.314598
163479.838629,-1554.432478,-7994.224174,-2298.286494
163479.838949,-1258.350101,-9622.677246,-1225.752797
163479.839268,-740.205942,-9918.759623,-459.657299
163479.839588,-2960.823768,-8364.327145,-2451.505594
163479.839908,-3034.844362,-8808.450710,-1838.629195
163479.840227,-2960.823768,-8364.327145,0.000000
163479.840547,888.247130,-11621.233289,2374.896044
163479.840866,-74.020594,-9400.615463,1378.971896
163479.841186,-74.020594,-9474.636058,-76.609550
163479.841505,-3256.906145,-8364.327145,-1838.629195
163479.841825,-2294.638420,-8956.491898,-2451.505594
163479.842144,-444.123565,-9474.636058,-1225.752797
163479.842464,370.102971,-10066.800811,306.438199
163479.842784,0.000000,-8882.471304,536.266849
163479.843103,1110.308913,-11251.130318,1149.143247
163479.843423,1702.473667,-10658.965565,1532.190996
163479.843742,1702.473667,-9474.636058,2374.896044
163479.844062,592.164754,-8586.388927,689.485948
163479.844381,2294.638420,-9474.636058,3600.648841
163479.844701,-1036.288319,-7031.956449,0.000000
163479.845020,-2368.659014,-7105.977043,-2221.676944
163479.845340,-2294.638420,-9326.594869,-1915.238745
163479.845660,-1924.535449,-9400.615463,-459.657299
163479.845979,-1480.411884,-9548.656652,0.000000
163479.846299,-296.082377,-10881.027347,-76.609550
163479.846618,-1258.350101,-11843.295072,-76.609550
163479.846938,-2220.617826,-10140.821405,0.000000
163479.847257,0.000000,-9548.656652,153.219100
163479.847577,3182.885551,-11843.295072,3294.210641
163479.847896,222.061783,-7920.203579,919.314598
163479.848216,-444.123565,-6143.709319,-1915.238745
163479.848535,-1998.556043,-7402.059420,-2757.943793
163479.848855,-2368.659014,-8364.327145,0.000000
163479.849175,0.000000,-9548.656652,0.000000
163479.849494,1480.411884,-9844.739029,1225.752797
163479.849814,4367.215058,-10955.047942,1608.800546
163479.850133,1406.391290,-9770.718434,-76.609550
163479.850453,1110.308913,-9844.739029,-383.047749
163479.850772,2886.803174,-11843.295072,2374.896044
163479.851092,518.144159,-9326.594869,1915.238745
163479.851411,1110.308913,-7698.141797,1149.143247
163479.851731,-592.164754,-7105.977043,-842.705048
163479.852051,-3552.988522,-7179.997637,-2451.505594
163479.852370,-1258.350101,-7550.100608,-2528.115143
163479.852690,-1776.494261,-7772.162391,-1838.629195
163479.853009,296.082377,-10140.821405,0.000000
163479.853329,1258.350101,-11547.212695,842.705048
163479.853648,-1850.514855,-9918.759623,-3907.087040
163479.853968,-888.247130,-12509.480420,229.828649
163479.854287,-814.226536,-11251.130318,459.657299
163479.854607,-148.041188,-10362.883188,1762.019645
163479.854927,518.144159,-8290.306550,1762.019645
163479.855246,-2960.823768,-6809.894666,-1915.238745
163479.855566,-2442.679609,-7402.059420,-3447.429741
163479.855885,-1776.494261,-6587.832884,-4136.915689
163479.856205,0.000000,-8364.327145,-1838.629195
163479.856524,0.000000,-8364.327145,0.000000
163479.856844,-370.102971,-9474.636058,-2834.553343
163479.857163,-1036.288319,-12361.439231,-306.438199
163479.857483,1406.391290,-11769.274478,1302.362347
163479.857803,666.185348,-10436.903782,2374.896044
163479.858122,2294.638420,-11843.295072,4213.525239
163479.858442,-666.185348,-7624.121203,-76.609550
163479.858761,-1258.350101,-8882.471304,-229.828649
163479.859081,-1850.514855,-7105.977043,-1915.238745
163479.859400,-1184.329507,-7476.080014,-919.314598
163479.859720,0.000000,-5995.668130,0.000000
163479.860039,814.226536,-8586.388927,536.266849
163479.860359,-148.041188,-9030.512492,0.000000
163479.860679,0.000000,-10732.986159,612.876398
163479.860998,814.226536,-11843.295072,1838.629195
163479.861318,1110.308913,-13323.706956,2987.772442
163479.861637,-2368.659014,-9548.656652,1225.752797
163479.861957,-2442.679609,-9252.574275,-766.095498
163479.862276,-4811.338623,-7698.141797,-2528.115143
163479.862596,-2442.679609,-8586.388927,-4290.134789
163479.862915,-666.185348,-7105.977043,-2528.115143
163479.863235,0.000000,-7994.224174,-1378.971896
163479.863554,1036.288319,-9548.656652,76.609550
163479.863874,444.123565,-8882.471304,-306.438199
163479.864194,2516.700203,-12287.418637,3447.429741
163479.864513,2886.803174,-12657.521608,2068.457845
163479.864833,1702.473667,-11399.171507,1302.362347
163479.865152,0.000000,-8956.491898,0.000000
163479.865472,-2368.659014,-7476.080014,-1225.752797
163479.865791,-1258.350101,-9474.636058,-2528.115143
163479.866111,-1776.494261,-9474.636058,-1378.971896
163479.866430,370.102971,-7920.203579,-1455.581446
163479.866750,2294.638420,-7698.141797,-306.438199
163479.867070,3404.947333,-8660.409521,459.657299
163479.867389,592.164754,-7772.162391,612.876398
163479.867709,3775.050304,-11547.212695,2374.896044
163479.868028,3923.091493,-10807.006753,3064.381992
163479.868348,1110.308913,-11695.253884,2757.943793
163479.868667,-1184.329507,-8734.430116,612.876398
163479.868987,-2442.679609,-6957.935855,-1915.238745
163479.869306,-3627.009116,-7698.141797,-3753.867940
163479.869626,-3775.050304,-7698.141797,-3753.867940
163479.869946,-1480.411884,-7179.997637,-4596.572988
163479.870265,-74.020594,-9178.553681,-76.609550
163479.870585,0.000000,-6291.750507,0.000000
163479.870904,148.041188,-9548.656652,-766.095498
163479.871224,962.267725,-11621.233289,459.657299
163479.871543,1776.494261,-11325.150913,536.266849
163479.871863,-370.102971,-13027.624579,766.095498
163479.872182,-1776.494261,-10881.027347,-612.876398
163479.872502,-2442.679609,-9178.553681,-3140.991542
163479.872822,-4515.256246,-8364.327145,-4060.306139
163479.873141,-3256.906145,-7476.080014,-1838.629195
163479.873461,3108.864956,-9326.594869,2374.896044
163479.873780,2368.659014,-6291.750507,1838.629195
163479.874100,2738.761985,-7179.997637,842.705048
163479.874419,1480.411884,-9178.553681,1378.971896
163479.874739,3108.864956,-11621.233289,2757.943793
163479.875058,592.164754,-10436.903782,1225.752797
163479.875378,-2442.679609,-12139.377449,1378.971896
163479.875698,-4293.194464,-11325.150913,612.876398
163479.876017,-5403.503377,-9178.553681,-4366.744339
163479.876337,-5107.421000,-8882.471304,-4060.306139
163479.876656,-1628.453072,-10658.965565,-76.609550
163479.876976,222.061783,-7031.956449,0.000000
163479.877295,2590.720797,-7772.162391,1225.752797
163479.877615,1702.473667,-7476.080014,766.095498
163479.877934,-2368.659014,-7179.997637,0.000000
163479.878254,0.000000,-8364.327145,0.000000
163479.878574,0.000000,-9548.656652,0.000000
163479.878893,296.082377,-13915.871710,2681.334243
163479.879213,-2738.761985,-10362.883188,-76.609550
163479.879532,-5403.503377,-8882.471304,-4979.620737
163479.879852,-4071.132681,-10658.965565,-2451.505594
163479.880171,-1998.556043,-8142.265362,-3217.601092
163479.880491,444.123565,-7698.141797,-689.485948
163479.880810,2294.638420,-7031.956449,919.314598
163479.881130,592.164754,-5403.503377,-995.924147
163479.881449,3330.926739,-10362.883188,2374.896044
163479.881769,4219.173869,-9548.656652,3140.991542
163479.882089,3552.988522,-10732.986159,3677.258390
163479.882408,2294.638420,-14211.954086,4213.525239
163479.882728,-666.185348,-9474.636058,-689.485948
163479.883047,-4737.318029,-8808.450710,-3217.601092
163479.883367,-3330.926739,-9400.615463,-3907.087040
163479.883686,-814.226536,-8364.327145,-2604.724693
163479.884006,1480.411884,-8290.306550,-76.609550
163479.884325,2886.803174,-7179.997637,842.705048
163479.884645,1850.514855,-8216.285956,-153.219100
163479.884965,2294.638420,-11843.295072,2374.896044
163479.885284,4071.132681,-11843.295072,1762.019645
163479.885604,1480.411884,-11325.150913,612.876398
163479.885923,-74.020594,-11251.130318,2068.457845
163479.886243,-4145.153275,-8882.471304,-1608.800546
163479.886563,-4663.297435,-8290.306550,-3983.696590
163479.886882,-2738.761985,-9400.615463,-3830.477490
163479.887202,148.041188,-8956.491898,-153.219100
163479.887522,1776.494261,-8364.327145,0.000000
163479.887841,2368.659014,-7772.162391,612.876398
163479.888161,3478.967927,-9474.636058,-689.485948
163479.888480,3330.926739,-10140.821405,1991.848295
163479.888800,3775.050304,-9548.656652,1455.581446
163479.889120,4367.215058,-12731.542202,3600.648841
163479.889439,-444.123565,-9918.759623,1991.848295
163479.889759,-3627.009116,-8438.347739,-1991.848295
163479.890079,-4515.256246,-10288.862594,-2451.505594
163479.890398,-4145.153275,-9548.656652,-2451.505594
163479.890718,-3034.844362,-6217.729913,-3830.477490
163479.891038,0.000000,-7179.997637,0.000000
163479.891357,1628.453072,-6883.915261,0.000000
163479.891677,2294.638420,-9474.636058,-76.609550
163479.891997,0.000000,-8364.327145,612.876398
163479.892316,4071.132681,-11177.109724,3600.648841
163479.892636,518.144159,-12065.356855,2834.553343
163479.892956,-3108.864956,-10584.944971,76.609550
163479.893275,-6809.894666,-7994.224174,-4673.182538
163479.893595,-5625.565159,-9252.574275,-3140.991542
163479.893915,-4219.173869,-8734.430116,-3370.820191
163479.894234,-1776.494261,-6587.832884,-3753.867940
163479.894554,-2368.659014,-7179.997637,0.000000
163479.894874,1702.473667,-8216.285956,1685.410096
163479.895193,0.000000,-7179.997637,0.000000
163479.895513,3552.988522,-10732.986159,3677.258390
163479.895833,3182.885551,-11103.089130,3447.429741
163479.896152,-592.164754,-11547.212695,2451.505594
163479.896472,-1258.350101,-9474.636058,-1302.362347
163479.896792,-4811.338623,-9474.636058,-3294.210641
163479.897111,-5329.482782,-10658.965565,-2528.115143
163479.897431,-4219.173869,-7920.203579,-4290.134789
163479.897751,0.000000,-7179.997637,-1225.752797
163479.898070,2960.823768,-7772.162391,3064.381992
163479.898390,2072.576638,-5995.668130,612.876398
163479.898710,3552.988522,-8660.409521,2681.334243
163479.899029,6291.750507,-9844.739029,4290.134789
163479.899349,5625.565159,-10510.924376,4060.306139
163479.899669,1702.473667,-11251.130318,2374.896044
163479.899988,-3849.070898,-10732.986159,612.876398
163479.900308,-5107.421000,-10362.883188,-3753.867940
163479.900628,-5403.503377,-9770.718434,-4979.620737
163479.900947,-4811.338623,-7254.018232,-4903.011187
163479.901267,-4737.318029,-5699.585753,-4290.134789
163479.901587,0.000000,-7550.100608,-1225.752797
163479.901906,1332.370696,-7476.080014,-1149.143247
163479.902226,3330.926739,-8734.430116,1378.971896
163479.902546,7624.121203,-11843.295072,4826.401637
163479.902865,4737.318029,-10584.944971,4366.744339
163479.903185,592.164754,-9844.739029,1378.971896
163479.903504,-2220.617826,-8364.327145,-3677.258390
163479.903824,-5329.482782,-10140.821405,-3370.820191
163479.904144,-3034.844362,-10066.800811,-5132.839837
163479.904463,-666.185348,-10066.800811,-3140.991542
163479.904783,1184.329507,-8364.327145,-1072.533697
163479.905103,2738.761985,-8290.306550,0.000000
163479.905422,4293.194464,-8734.430116,536.266849
163479.905742,5329.482782,-9548.656652,5669.106685
163479.906062,6809.894666,-8808.450710,5056.230287
163479.906381,4145.153275,-9548.656652,4826.401637
163479.906701,-444.123565,-9548.656652,1455.581446
163479.907021,-5625.565159,-8956.491898,-3370.820191
163479.907340,-7179.997637,-9252.574275,-5592.497135
163479.907660,-5995.668130,-10658.965565,-4979.620737
163479.907980,-6513.812290,-7846.182985,-4903.011187
163479.908299,-2590.720797,-7772.162391,-4596.572988
163479.908619,-222.061783,-8882.471304,-1302.362347
163479.908939,1184.329507,-7476.080014,612.876398
163479.909258,3256.906145,-9474.636058,1302.362347
163479.909578,4885.359217,-10732.986159,4673.182538
163479.909898,2886.803174,-11177.109724,4136.915689
163479.910217,-814.226536,-9400.615463,1378.971896
163479.910537,-3997.112087,-8364.327145,-1838.629195
163479.910857,-3034.844362,-10066.800811,-3140.991542
163479.911176,-4959.379811,-10066.800811,-3140.991542
163479.911496,-4737.318029,-7179.997637,-4519.963438
163479.911816,-370.102971,-10658.965565,-1302.362347
163479.912135,-1184.329507,-7179.997637,-1838.629195
163479.912455,1406.391290,-8586.388927,153.219100
163479.912775,4145.153275,-9548.656652,3830.477490
163479.913094,7105.977043,-8142.265362,5669.106685
163479.913414,2368.659014,-8660.409521,4290.134789
163479.913734,-3256.906145,-8956.491898,153.219100
163479.914053,-4293.194464,-11843.295072,-689.485948
163479.914373,-3627.009116,-11251.130318,-1915.238745
163479.914693,-5477.523971,-9548.656652,-4060.306139
163479.915012,-1554.432478,-9474.636058,-1302.362347
163479.915332,-1776.494261,-7994.224174,-1838.629195
163479.915652,444.123565,-6735.874072,-1302.362347
163479.915971,2664.741391,-8068.244768,383.047749
163479.916291,4737.318029,-8364.327145,3064.381992
163479.916611,3552.988522,-7772.162391,3983.696590
163479.916930,0.000000,-9548.656652,3064.381992
163479.917250,-666.185348,-10658.965565,-76.609550
163479.917570,-3627.009116,-10362.883188,-2221.676944
163479.917889,-4219.173869,-9474.636058,-3753.867940
163479.918209,-3034.844362,-11251.130318,-2068.457845
163479.918528,-3701.029710,-8512.368333,-4213.525239
163479.918848,-888.247130,-7550.100608,-2987.772442
163479.919168,740.205942,-7105.977043,-1762.019645
163479.919487,2960.823768,-7179.997637,0.000000
163479.919807,9104.533087,-9474.636058,4826.401637
163479.920127,7179.997637,-7846.182985,4903.011187
163479.920446,1776.494261,-10140.821405,0.000000
163479.920766,-2072.576638,-10881.027347,766.095498
163479.921086,-3034.844362,-10658.965565,-4060.306139
163479.921405,-3108.864956,-11621.233289,-2145.067394
163479.921725,-4367.215058,-10881.027347,-2528.115143
163479.922045,-2146.597232,-8216.285956,-1915.238745
163479.922364,0.000000,-7476.080014,-689.485948
163479.922684,3478.967927,-7105.977043,536.266849
163479.923004,4663.297435,-7698.141797,1455.581446
163479.923323,5847.626942,-11843.295072,4826.401637
163479.923643,2886.803174,-7476.080014,1915.238745
163479.923963,-1184.329507,-10436.903782,0.000000
163479.924282,-5107.421000,-10658.965565,-3753.867940
163479.924602,-5329.482782,-11325.150913,-2987.772442
163479.924922,-4737.318029,-11473.192101,-3217.601092
163479.925241,-4145.153275,-9844.739029,-2987.772442
163479.925561,-666.185348,-8290.306550,-76.609550
163479.925881,1554.432478,-7550.100608,536.266849
163479.926200,3849.070898,-7179.997637,1838.629195
163479.926520,5847.626942,-9178.553681,2374.896044
163479.926840,4811.338623,-8364.327145,3370.820191
163479.927159,1184.329507,-7179.997637,1225.752797
163479.927479,-370.102971,-10658.965565,-76.609550
163479.927799,-4293.194464,-10658.965565,-1991.848295
163479.928118,-4737.318029,-11177.109724,-2604.724693
163479.928438,-3997.112087,-10955.047942,-1225.752797
163479.928758,-1554.432478,-9844.739029,-612.876398
163479.929077,-4145.153275,-4811.338623,-2451.505594
163479.929397,-1184.329507,-6291.750507,-1225.752797
163479.929717,2738.761985,-7698.141797,1532.190996
163479.930036,6439.791695,-9474.636058,2374.896044
163479.930356,2960.823768,-7179.997637,2451.505594
163479.930676,2886.803174,-9918.759623,3830.477490
163479.930995,-2516.700203,-9918.759623,0.000000
163479.931315,-5033.400406,-11473.192101,-2604.724693
163479.931635,-4737.318029,-11843.295072,-2528.115143
163479.931954,-5329.482782,-11251.130318,-2528.115143
163479.932274,-4811.338623,-8512.368333,-2834.553343
163479.932593,-2664.741391,-7476.080014,-2528.115143
163479.932913,0.000000,-5403.503377,-2451.505594
163479.933233,3256.906145,-7772.162391,3064.381992
163479.933552,2516.700203,-5107.421000,919.314598
163479.933872,3552.988522,-9104.533087,3294.210641
163479.934192,888.247130,-10066.800811,1991.848295
163479.934511,-2442.679609,-11103.089130,-1991.848295
163479.934831,-1850.514855,-13027.624579,-1302.362347
163479.935151,-1998.556043,-12731.542202,-2221.676944
163479.935470,-1554.432478,-13619.789333,-76.609550
163479.935790,-666.185348,-8290.306550,-2068.457845
163479.936110,0.000000,-5403.503377,-1991.848295
163479.936429,1184.329507,-5995.668130,0.000000
163479.936749,5033.400406,-7179.997637,2451.505594
163479.937069,8068.244768,-7920.203579,5056.230287
163479.937388,6587.832884,-7624.121203,5898.935335
163479.937708,1998.556043,-8586.388927,2451.505594
163479.938028,-370.102971,-11251.130318,-689.485948
163479.938347,-3552.988522,-11325.150913,-1838.629195
163479.938667,-3034.844362,-13027.624579,-2528.115143
163479.938987,-4515.256246,-11843.295072,-2528.115143
163479.939306,-2442.679609,-9474.636058,-3524.039291
163479.939626,-3849.070898,-4959.379811,-6435.202183
163479.939946,-666.185348,-7105.977043,-3217.601092
163479.940265,2294.638420,-8290.306550,-76.609550
163479.940585,4737.318029,-9252.574275,2221.676944
163479.940905,7031.956449,-11843.295072,4826.401637
163479.941224,2294.638420,-9474.636058,2145.067394
163479.941544,-3182.885551,-9622.677246,-1838.629195
163479.941864,-2368.659014,-9844.739029,-3447.429741
163479.942183,-2960.823768,-10732.986159,-1685.410096
163479.942503,-1258.350101,-10658.965565,-1915.238745
163479.942823,-740.205942,-10362.883188,-1302.362347
163479.943142,-444.123565,-8808.450710,-1608.800546
163479.943462,814.226536,-7550.100608,-842.705048
163479.943782,3108.864956,-7476.080014,2221.676944
163479.944101,2664.741391,-7179.997637,3983.696590
163479.944421,3330.926739,-7179.997637,3524.039291
163479.944741,0.000000,-7772.162391,1378.971896
163479.945060,-4589.276840,-9770.718434,-689.485948
163479.945380,-3997.112087,-10732.986159,-2451.505594
163479.945700,-3627.009116,-9770.718434,-2298.286494
163479.946019,-2442.679609,-10658.965565,-2528.115143
163479.946339,-6513.812290,-7179.997637,-2451.505594
163479.946659,-3849.070898,-7179.997637,-4903.011187
163479.946978,-370.102971,-9474.636058,-76.609550
163479.947298,1184.329507,-7772.162391,612.876398
163479.947617,3404.947333,-8142.265362,3064.381992
163479.947937,2886.803174,-8290.306550,2834.553343
163479.948257,888.247130,-9030.512492,919.314598
163479.948576,-3034.844362,-10066.800811,-2221.676944
163479.948896,-2516.700203,-10732.986159,-1685.410096
163479.949216,-1850.514855,-11843.295072,-1608.800546
163479.949535,-3701.029710,-10436.903782,-1915.238745
163479.949855,-3182.885551,-7476.080014,-3370.820191
163479.950175,-74.020594,-9474.636058,-383.047749
163479.950494,592.164754,-7476.080014,0.000000
163479.950814,4663.297435,-7994.224174,1838.629195
163479.951134,5773.606348,-7920.203579,3294.210641
163479.951453,4663.297435,-7698.141797,3064.381992
163479.951773,-1776.494261,-7179.997637,0.000000
163479.952093,-3330.926739,-10732.986159,-2604.724693
163479.952412,-1258.350101,-14211.954086,-689.485948
163479.952732,-4071.132681,-10732.986159,-3294.210641
163479.953052,-3552.988522,-8956.491898,-1225.752797
163479.953371,1110.308913,-11251.130318,-76.609550
163479.953691,444.123565,-6735.874072,-919.314598
163479.954011,3330.926739,-7105.977043,1838.629195
163479.954330,4515.256246,-7031.956449,2757.943793
163479.954650,3552.988522,-6291.750507,2451.505594
163479.954970,0.000000,-5995.668130,1225.752797
163479.955289,-4737.318029,-7772.162391,-3064.381992
163479.955609,-2442.679609,-13027.624579,-2221.676944
163479.955929,-4071.132681,-11547.212695,-3524.039291
163479.956248,-3627.009116,-11843.295072,-4060.306139
163479.956568,-1924.535449,-11843.295072,-2221.676944
163479.956888,-3108.864956,-9104.533087,-3447.429741
163479.957207,-1036.288319,-8142.265362,-1455.581446
163479.957527,2442.679609,-7920.203579,1149.143247
163479.957847,3849.070898,-5995.668130,2451.505594
163479.958166,7624.121203,-7402.059420,4826.401637
163479.958486,3478.967927,-7402.059420,2374.896044
163479.958806,-1776.494261,-8364.327145,-3677.258390
163479.959125,-2664.741391,-11621.233289,-766.095498
163479.959445,-1258.350101,-13027.624579,-3140.991542
163479.959765,-3701.029710,-12657.521608,-2145.067394
163479.960084,-3923.091493,-11029.068536,-2757.943793
163479.960404,-4293.194464,-9030.512492,-2451.505594
163479.960724,-2294.638420,-8660.409521,-1302.362347
163479.961043,1332.370696,-8290.306550,1762.019645
163479.961363,4515.256246,-7105.977043,2987.772442
163479.961683,4367.215058,-8290.306550,6052.154434
163479.962002,666.185348,-4811.338623,1225.752797
163479.962322,-2220.617826,-8364.327145,0.000000
163479.962641,-1258.350101,-11251.130318,-1302.362347
163479.962961,-3330.926739,-11473.192101,-1455.581446
163479.963281,-4441.235652,-13101.645173,-2221.676944
163479.963600,-5403.503377,-11399.171507,-2987.772442
163479.963920,-4293.194464,-11325.150913,-1915.238745
163479.964240,-2368.659014,-9548.656652,-459.657299
163479.964559,0.000000,-5995.668130,0.000000
163479.964879,5181.441594,-7254.018232,3677.258390
163479.965199,5551.544565,-6809.894666,4826.401637
163479.965518,666.185348,-3923.091493,0.000000
163479.965838,-74.020594,-9474.636058,-76.609550
163479.966158,-666.185348,-11177.109724,0.000000
163479.966477,-1036.288319,-11843.295072,-612.876398
163479.966797,-2516.700203,-12213.398043,-612.876398
163479.967117,-2368.659014,-12509.480420,-612.876398
163479.967436,-4441.235652,-8364.327145,-3370.820191
163479.967756,0.000000,-7772.162391,-1225.752797
163479.968076,3552.988522,-6587.832884,0.000000
163479.968395,5033.400406,-8068.244768,3140.991542
163479.968715,1332.370696,-5403.503377,1225.752797
163479.969035,1406.391290,-7698.141797,612.876398
163479.969354,-1924.535449,-9474.636058,-766.095498
163479.969674,-1628.453072,-11547.212695,-689.485948
163479.969994,-2072.576638,-10955.047942,-689.485948
163479.970313,-1184.329507,-10732.986159,1149.143247
163479.970633,-3256.906145,-7476.080014,-3447.429741
163479.970953,-3849.070898,-7772.162391,-4749.792088
163479.971272,-3552.988522,-7772.162391,-2145.067394
163479.971592,3552.988522,-9474.636058,2451.505594
163479.971912,1184.329507,-5995.668130,0.000000
163479.972231,2664.741391,-8586.388927,995.924147
163479.972551,-1258.350101,-8364.327145,-1762.019645
163479.972871,-2072.576638,-10288.862594,-2681.334243
163479.973190,-74.020594,-11843.295072,-1608.800546
163479.973510,814.226536,-13323.706956,-76.609550
163479.973830,518.144159,-13027.624579,2374.896044
163479.974149,-74.020594,-8882.471304,-689.485948
163479.974469,0.000000,-7179.997637,-766.095498
163479.974789,2368.659014,-8660.409521,2757.943793
163479.975108,3256.906145,-6587.832884,1225.752797
163479.975428,3775.050304,-7105.977043,2681.334243
163479.975748,1924.535449,-7031.956449,1302.362347
163479.976067,-1850.514855,-7105.977043,-2145.067394
163479.976387,-1850.514855,-11251.130318,-2528.115143
163479.976706,-666.185348,-15100.201217,-76.609550
163479.977026,-1258.350101,-13027.624579,-1302.362347
163479.977346,-3849.070898,-11621.233289,-1532.190996
163479.977665,-6957.935855,-8364.327145,-3677.258390
163479.977985,-5477.523971,-7179.997637,-3983.696590
163479.978305,1110.308913,-8808.450710,1225.752797
163479.978624,3404.947333,-7105.977043,2221.676944
163479.978944,4145.153275,-7105.977043,3983.696590
163479.979264,3182.885551,-7105.977043,3294.210641
163479.979583,-1554.432478,-6809.894666,-229.828649
163479.979903,-2960.823768,-9548.656652,-2145.067394
163479.980223,-2664.741391,-9548.656652,-4443.353888
163479.980542,-4737.318029,-13101.645173,-1532.190996
163479.980862,-3849.070898,-11251.130318,-3294.210641
163479.981182,-2442.679609,-11547.212695,-2528.115143
163479.981501,-1332.370696,-9696.697840,919.314598
163479.981821,2960.823768,-7402.059420,2298.286494
163479.982141,3627.009116,-5921.647536,3217.601092
163479.982460,2368.659014,-5995.668130,5056.230287
163479.982780,370.102971,-4515.256246,536.266849
163479.983100,-2072.576638,-7920.203579,-536.266849
163479.983419,-888.247130,-10288.862594,-1302.362347
163479.983739,-1628.453072,-11695.253884,-2145.067394
163479.984059,-2590.720797,-11103.089130,-1762.019645
163479.984378,-2442.679609,-11843.295072,-2528.115143
163479.984698,-5329.482782,-9548.656652,-3983.696590
163479.985018,-2664.741391,-9548.656652,-3294.210641
163479.985337,814.226536,-11103.089130,-76.609550
163479.985657,2368.659014,-7476.080014,3370.820191
163479.985977,3256.906145,-6069.688724,2298.286494
163479.986296,1776.494261,-5921.647536,459.657299
163479.986616,296.082377,-7772.162391,-766.095498
163479.986936,296.082377,-9400.615463,-766.095498
163479.987255,-888.247130,-10732.986159,-919.314598
163479.987575,-666.185348,-12879.583391,-1302.362347
163479.987895,-3552.988522,-10066.800811,-3753.867940
163479.988214,-3627.009116,-9696.697840,-3600.648841
163479.988534,2886.803174,-11843.295072,-76.609550
163479.988853,2368.659014,-8364.327145,612.876398
163479.989173,2960.823768,-7550.100608,1455.581446
163479.989493,1850.514855,-6587.832884,76.609550
163479.989812,-148.041188,-6735.874072,-1455.581446
163479.990132,0.000000,-7772.162391,-1838.629195
163479.990452,1554.432478,-10140.821405,0.000000
163479.990771,148.041188,-10658.965565,-1915.238745
163479.991091,0.000000,-11029.068536,1225.752797
163479.991411,-1258.350101,-11251.130318,-153.219100
163479.991730,-222.061783,-10658.965565,-1302.362347
163479.992050,-74.020594,-9178.553681,-383.047749
163479.992369,518.144159,-8068.244768,766.095498
163479.992689,888.247130,-7476.080014,1072.533697
163479.993009,2220.617826,-7994.224174,1532.190996
163479.993328,0.000000,-8068.244768,0.000000
163479.993648,0.000000,-7772.162391,0.000000
163479.993968,1110.308913,-11843.295072,-689.485948
163479.994287,-1258.350101,-11325.150913,-689.485948
163479.994607,-4737.318029,-9548.656652,-3677.258390
163479.994927,-2442.679609,-11843.295072,-2528.115143
163479.995246,-2442.679609,-11621.233289,-2221.676944
163479.995566,-74.020594,-11843.295072,-76.609550
163479.995885,740.205942,-9104.533087,1149.143247
163479.996205,1184.329507,-7179.997637,2757.943793
163479.996525,0.000000,-4219.173869,0.000000
163479.996844,0.000000,-7179.997637,0.000000
163479.997164,1110.308913,-9030.512492,1455.581446
163479.997484,1998.556043,-9474.636058,-689.485948
163479.997803,-1924.535449,-9548.656652,-2451.505594
163479.998123,-888.247130,-12213.398043,-229.828649
163479.998443,-2960.823768,-10807.006753,-1991.848295
163479.998762,-2516.700203,-11029.068536,-1149.143247
163479.999082,-888.247130,-10140.821405,0.000000
163479.999401,74.020594,-9178.553681,2068.457845
163479.999721,-444.123565,-6883.915261,842.705048
163480.000041,296.082377,-4811.338623,0.000000
163480.000360,1184.329507,-8142.265362,1838.629195
163480.000680,518.144159,-7698.141797,612.876398
163480.001000,-1480.411884,-7179.997637,-2298.286494
163480.001319,-370.102971,-10807.006753,842.705048
163480.001639,-2294.638420,-10658.965565,-1149.143247
163480.001958,-3923.091493,-11473.192101,-1838.629195
163480.002278,-1554.432478,-13027.624579,-76.609550
163480.002598,-74.020594,-11843.295072,-76.609550
163480.002917,-74.020594,-11547.212695,1149.143247
163480.003237,-74.020594,-9178.553681,-76.609550
163480.003557,-1998.556043,-5995.668130,-2757.943793
163480.003876,0.000000,-7179.997637,0.000000
163480.004196,2294.638420,-7031.956449,0.000000
163480.004516,2960.823768,-8290.306550,1072.533697
163480.004835,2442.679609,-10066.800811,1225.752797
163480.005155,1628.453072,-10732.986159,383.047749
163480.005474,-74.020594,-13619.789333,-76.609550
163480.005794,-2368.659014,-11325.150913,0.000000
163480.006114,-74.020594,-12287.418637,1072.533697
163480.006433,-148.041188,-9178.553681,-76.609550
163480.006753,-74.020594,-7105.977043,-1302.362347
163480.007073,-2368.659014,-4811.338623,0.000000
163480.007392,666.185348,-7105.977043,-689.485948
163480.007712,2368.659014,-7179.997637,1149.143247
163480.008032,1332.370696,-8808.450710,766.095498
163480.008351,592.164754,-7772.162391,0.000000
163480.008671,-2664.741391,-9844.739029,-2068.457845
163480.008990,-5329.482782,-10732.986159,-2145.067394
163480.009310,-2146.597232,-11769.274478,-1225.752797
163480.009630,-666.185348,-13027.624579,-76.609550
163480.009949,-1258.350101,-10658.965565,-76.609550
163480.010269,-2368.659014,-6291.750507,0.000000
163480.010589,666.185348,-7105.977043,-2068.457845
163480.010908,2368.659014,-7994.224174,-612.876398
163480.011228,2960.823768,-8216.285956,612.876398
163480.011548,3478.967927,-9326.594869,-383.047749
163480.011867,1998.556043,-10362.883188,-76.609550
163480.012187,-2072.576638,-9844.739029,-3753.867940
163480.012506,-2368.659014,-12509.480420,0.000000
163480.012826,740.205942,-12065.356855,1149.143247
163480.013146,2886.803174,-11547.212695,3600.648841
163480.013465,0.000000,-7254.018232,1225.752797
163480.013785,1406.391290,-5921.647536,0.000000
163480.014105,444.123565,-5403.503377,-1072.533697
163480.014424,74.020594,-7624.121203,-1072.533697
163480.014744,-370.102971,-7994.224174,-2528.115143
163480.015063,-74.020594,-12731.542202,1762.019645
163480.015383,-666.185348,-11103.089130,-229.828649
163480.015703,-3849.070898,-11917.315666,-1532.190996
163480.016022,-4441.235652,-11029.068536,612.876398
163480.016342,-3552.988522,-7772.162391,0.000000
163480.016662,0.000000,-7698.141797,1225.752797
163480.016981,148.041188,-7105.977043,0.000000
163480.017301,-592.164754,-6217.729913,-1685.410096
163480.017621,-666.185348,-7105.977043,-2528.115143
163480.017940,-592.164754,-7846.182985,-995.924147
163480.018260,0.000000,-9548.656652,0.000000
163480.018579,370.102971,-11029.068536,0.000000
163480.018899,1998.556043,-13323.706956,1149.143247
163480.019219,-518.144159,-9844.739029,0.000000
163480.019538,1110.308913,-12435.459826,1455.581446
163480.019858,0.000000,-10510.924376,1532.190996
163480.020178,-888.247130,-8586.388927,612.876398
163480.020497,-1850.514855,-6513.812290,-612.876398
163480.020817,-1776.494261,-8512.368333,-306.438199
163480.021137,-2368.659014,-7476.080014,-1838.629195
163480.021456,-666.185348,-8364.327145,-536.266849
163480.021776,-444.123565,-9252.574275,-153.219100
163480.022095,148.041188,-10436.903782,0.000000
163480.022415,-1776.494261,-8364.327145,0.000000
163480.022735,-1258.350101,-10658.965565,-383.047749
163480.023054,-1776.494261,-10732.986159,1225.752797
163480.023374,-74.020594,-11251.130318,1685.410096
163480.023694,-1554.432478,-9474.636058,-76.609550
163480.024013,-1184.329507,-9474.636058,1149.143247
163480.024333,-3552.988522,-5995.668130,-3294.210641
163480.024653,-2368.659014,-7698.141797,-2298.286494
163480.024972,-962.267725,-7920.203579,-2068.457845
163480.025292,0.000000,-7772.162391,-842.705048
163480.025611,888.247130,-9178.553681,1072.533697
163480.025931,1998.556043,-11251.130318,-76.609550
163480.026251,592.164754,-11695.253884,-76.609550
163480.026570,0.000000,-10732.986159,612.876398
163480.026890,1702.473667,-10658.965565,-76.609550
163480.027210,-1480.411884,-8956.491898,306.438199
163480.027529,-1850.514855,-7846.182985,-2298.286494
163480.027849,-2368.659014,-7105.977043,-3064.381992
163480.028168,-444.123565,-8364.327145,-2068.457845
163480.028488,592.164754,-7179.997637,0.000000
163480.028808,1036.288319,-8364.327145,0.000000
163480.029127,2886.803174,-10658.965565,-76.609550
163480.029447,1406.391290,-8734.430116,-919.314598
163480.029767,888.247130,-11325.150913,1532.190996
163480.030086,4071.132681,-11843.295072,3600.648841
163480.030406,888.247130,-10436.903782,2451.505594
163480.030726,74.020594,-9104.533087,1915.238745
163480.031045,-2072.576638,-6661.853478,-2068.457845
163480.031365,-3552.988522,-7179.997637,-1302.362347
163480.031684,-2072.576638,-8364.327145,0.000000
163480.032004,0.000000,-7179.997637,-1838.629195
163480.032324,1480.411884,-10510.924376,-76.609550
163480.032643,518.144159,-9918.759623,-995.924147
163480.032963,0.000000,-9696.697840,-2298.286494
163480.033283,2294.638420,-13027.624579,1149.143247
163480.033602,592.164754,-11473.192101,1225.752797
163480.033922,-296.082377,-10362.883188,1915.238745
163480.034242,-592.164754,-8734.430116,612.876398
163480.034561,-3552.988522,-7179.997637,-1685.410096
163480.034881,-3627.009116,-7402.059420,-2834.553343
163480.035200,-3478.967927,-7179.997637,-2298.286494
163480.035520,-888.247130,-7179.997637,-3677.258390
163480.035840,1628.453072,-9400.615463,1685.410096
163480.036159,814.226536,-7476.080014,-2374.896044
163480.036479,1110.308913,-11621.233289,766.095498
163480.036799,740.205942,-11695.253884,1378.971896
163480.037118,370.102971,-11695.253884,1838.629195
163480.037438,-1036.288319,-11177.109724,1455.581446
163480.037758,-2442.679609,-9474.636058,995.924147
163480.038077,-3923.091493,-7105.977043,-2221.676944
163480.038397,-3034.844362,-7105.977043,-1302.362347
163480.038716,0.000000,-5995.668130,0.000000
163480.039036,1480.411884,-7179.997637,1225.752797
163480.039356,1702.473667,-5329.482782,-689.485948
163480.039675,1184.329507,-8660.409521,76.609550
163480.039995,-666.185348,-11325.150913,-995.924147
163480.040315,-1184.329507,-13545.768739,-536.266849
163480.040634,-666.185348,-14804.118840,2068.457845
163480.040954,-1258.350101,-12435.459826,1762.019645
163480.041273,-3404.947333,-8956.491898,-919.314598
163480.041593,-3034.844362,-8290.306550,-3294.210641
163480.041913,-3182.885551,-7550.100608,-2604.724693
163480.042232,0.000000,-5995.668130,0.000000
163480.042552,1702.473667,-7624.121203,-689.485948
163480.042872,2146.597232,-8438.347739,1149.143247
163480.043191,2516.700203,-8808.450710,306.438199
163480.043511,2664.741391,-10658.965565,2068.457845
163480.043831,5255.462188,-14211.954086,3447.429741
163480.044150,0.000000,-11917.315666,612.876398
163480.044470,-592.164754,-12435.459826,1685.410096
163480.044789,-2442.679609,-9474.636058,-1762.019645
163480.045109,-2812.782580,-9474.636058,-3447.429741
163480.045429,-4737.318029,-5995.668130,-3677.258390
163480.045748,888.247130,-7846.182985,-689.485948
163480.046068,1850.514855,-7031.956449,1455.581446
163480.046388,2590.720797,-7328.038826,1302.362347
163480.046707,1480.411884,-7476.080014,-76.609550
163480.047027,1184.329507,-9326.594869,2374.896044
163480.047347,0.000000,-10732.986159,612.876398
163480.047666,-296.082377,-12805.562797,1225.752797
163480.047986,-666.185348,-13027.624579,-76.609550
163480.048305,-5403.503377,-7994.224174,-3830.477490
163480.048625,-7105.977043,-7179.997637,-7354.516781
163480.048945,-2516.700203,-9474.636058,-3907.087040
163480.049264,814.226536,-9104.533087,-995.924147
163480.049584,3182.885551,-7402.059420,306.438199
163480.049904,3182.885551,-5181.441594,0.000000
163480.050223,3108.864956,-8586.388927,536.266849
163480.050543,3701.029710,-11103.089130,2374.896044
163480.050863,2960.823768,-11325.150913,3677.258390
163480.051182,4071.132681,-11843.295072,4519.963438
163480.051502,-74.020594,-12287.418637,2987.772442
163480.051821,-4441.235652,-7328.038826,-2374.896044
163480.052141,-4515.256246,-7402.059420,-3524.039291
163480.052461,-2220.617826,-8364.327145,-2911.162892
163480.052780,-962.267725,-8142.265362,-2451.505594
163480.053100,-666.185348,-7254.018232,-2528.115143
163480.053420,1110.308913,-10658.965565,-76.609550
163480.053739,814.226536,-8660.409521,-229.828649
163480.054059,1184.329507,-11621.233289,2451.505594
163480.054378,1184.329507,-11917.315666,4596.572988
163480.054698,0.000000,-9548.656652,2451.505594
163480.055018,-1554.432478,-8290.306550,-76.609550
163480.055337,-3627.009116,-7624.121203,-2374.896044
163480.055657,-2294.638420,-8290.306550,-2528.115143
163480.055977,-74.020594,-6513.812290,-2221.676944
163480.056296,962.267725,-8290.306550,-689.485948
163480.056616,1702.473667,-7550.100608,-689.485948
163480.056936,-1184.329507,-8734.430116,-3064.381992
163480.057255,-3552.988522,-10732.986159,0.000000
163480.057575,1406.391290,-12953.603985,1149.143247
163480.057894,2368.659014,-11029.068536,4290.134789
163480.058214,1110.308913,-10140.821405,2987.772442
163480.058534,-2516.700203,-8660.409521,0.000000
163480.058853,-4737.318029,-7031.956449,-2451.505594
163480.059173,-5847.626942,-6143.709319,-4903.011187
163480.059493,-1776.494261,-8956.491898,-766.095498
163480.059812,-74.020594,-8882.471304,-1302.362347
163480.060132,74.020594,-7179.997637,0.000000
163480.060452,1554.432478,-7550.100608,-1608.800546
163480.060771,1184.329507,-9548.656652,1532.190996
163480.061091,1776.494261,-14804.118840,3907.087040
163480.061410,0.000000,-11325.150913,1072.533697
163480.061730,1110.308913,-11251.130318,536.266849
163480.062050,-1258.350101,-9252.574275,536.266849
163480.062369,-6217.729913,-8068.244768,-1915.238745
163480.062689,-5477.523971,-7846.182985,-3064.381992
163480.063009,-1776.494261,-7698.141797,-3217.601092
163480.063328,-74.020594,-7179.997637,-842.705048
163480.063648,-666.185348,-7476.080014,-1225.752797
163480.063968,-74.020594,-8882.471304,-1608.800546
163480.064287,0.000000,-10732.986159,0.000000
163480.064607,5255.462188,-13619.789333,2987.772442
163480.064926,1258.350101,-11621.233289,3447.429741
163480.065246,-2368.659014,-7772.162391,0.000000
163480.065566,-592.164754,-9474.636058,-76.609550
163480.065885,-5033.400406,-8068.244768,-4060.306139
163480.066205,-3552.988522,-8734.430116,-3524.039291
163480.066525,-1110.308913,-8216.285956,-3140.991542
163480.066844,0.000000,-7476.080014,0.000000
163480.067164,1184.329507,-8512.368333,1455.581446
163480.067483,1184.329507,-6587.832884,0.000000
163480.067803,4145.153275,-10140.821405,3064.381992
163480.068123,2368.659014,-10140.821405,3064.381992
163480.068442,2886.803174,-10658.965565,2987.772442
163480.068762,-444.123565,-10362.883188,2681.334243
163480.069082,-2738.761985,-7624.121203,-229.828649
163480.069401,-4219.173869,-8660.409521,-1838.629195
163480.069721,-2664.741391,-8142.265362,-1225.752797
163480.070041,-814.226536,-6069.688724,-1685.410096
163480.070360,-592.164754,-7476.080014,-1072.533697
163480.070680,0.000000,-7772.162391,-1685.410096
163480.070999,-1480.411884,-8364.327145,-2298.286494
163480.071319,1480.411884,-11769.274478,1532.190996
163480.071639,3478.967927,-12731.542202,-76.609550
163480.071958,592.164754,-13619.789333,2374.896044
163480.072278,-1554.432478,-10658.965565,153.219100
163480.072598,-3330.926739,-8956.491898,-1532.190996
163480.072917,-4219.173869,-8586.388927,-1608.800546
163480.073237,-1628.453072,-8956.491898,-76.609550
163480.073557,-370.102971,-7624.121203,-1225.752797
163480.073876,2368.659014,-7846.182985,1762.019645
163480.074196,2590.720797,-6735.874072,-383.047749
163480.074515,2664.741391,-9030.512492,0.000000
163480.074835,4071.132681,-11251.130318,-76.609550
163480.075155,1406.391290,-12805.562797,1991.848295
163480.075474,-444.123565,-12657.521608,1149.143247
163480.075794,-2738.761985,-11473.192101,-1072.533697
163480.076114,-2442.679609,-10658.965565,-76.609550
163480.076433,-3849.070898,-7328.038826,-2451.505594
163480.076753,-1776.494261,-7179.997637,0.000000
163480.077073,1628.453072,-7105.977043,842.705048
163480.077392,2886.803174,-8808.450710,2374.896044
163480.077712,0.000000,-3627.009116,-3677.258390
163480.078031,2886.803174,-8882.471304,-76.609550
163480.078351,2516.700203,-11917.315666,1685.410096
163480.078671,1258.350101,-12657.521608,2451.505594
163480.078990,-1850.514855,-11843.295072,995.924147
163480.079310,-4737.318029,-9548.656652,-2757.943793
163480.079630,-7698.141797,-9548.656652,-4903.011187
163480.079949,-5477.523971,-9548.656652,-4290.134789
163480.080269,-4737.318029,-7772.162391,-2451.505594
163480.080588,-1628.453072,-8586.388927,-1608.800546
163480.080908,-2368.659014,-4811.338623,-2451.505594
163480.081228,2294.638420,-6809.894666,612.876398
163480.081547,5329.482782,-8364.327145,2221.676944
163480.081867,6217.729913,-11177.109724,3830.477490
163480.082187,3108.864956,-11621.233289,3600.648841
163480.082506,-666.185348,-11029.068536,76.609550
163480.082826,-4737.318029,-9696.697840,-2145.067394
163480.083146,-8290.306550,-8364.327145,-4903.011187
163480.083465,-4145.153275,-10732.986159,-1608.800546
163480.083785,-666.185348,-10658.965565,-383.047749
163480.084104,0.000000,-5403.503377,0.000000
163480.084424,1406.391290,-6661.853478,536.266849
163480.084744,666.185348,-6069.688724,-306.438199
163480.085063,2294.638420,-8660.409521,1455.581446
163480.085383,1702.473667,-9474.636058,2987.772442
163480.085703,0.000000,-10732.986159,3064.381992
163480.086022,-222.061783,-11843.295072,1762.019645
163480.086342,-3923.091493,-11843.295072,-689.485948
163480.086662,-5403.503377,-9918.759623,-3753.867940
163480.086981,-7105.977043,-7179.997637,-4903.011187
163480.087301,-2146.597232,-8290.306550,-2834.553343
163480.087620,-592.164754,-7402.059420,-1149.143247
163480.087940,1480.411884,-6957.935855,-1225.752797
163480.088259,2368.659014,-7624.121203,-536.266849
163480.088579,7476.080014,-11843.295072,3600.648841
163480.088899,4737.318029,-9548.656652,2451.505594
163480.089218,5033.400406,-11917.315666,5209.449386
163480.089538,2294.638420,-9474.636058,2374.896044
163480.089857,-74.020594,-11843.295072,-689.485948
163480.090177,-4737.318029,-7772.162391,-2451.505594
163480.090496,-2738.761985,-10214.842000,-2528.115143
163480.090816,-2368.659014,-8808.450710,-2681.334243
163480.091136,-74.020594,-8290.306550,-1302.362347
163480.091455,296.082377,-6069.688724,-1762.019645
163480.091775,2664.741391,-8142.265362,-1532.190996
163480.092094,6661.853478,-10362.883188,3600.648841
163480.092414,5403.503377,-10066.800811,3600.648841
163480.092733,3478.967927,-9622.677246,2374.896044
163480.093053,-1184.329507,-9548.656652,612.876398
163480.093373,-4737.318029,-9548.656652,-3677.258390
163480.093692,-3849.070898,-11399.171507,-2528.115143
163480.094012,-3182.885551,-9992.780217,-1838.629195
163480.094331,-2516.700203,-8660.409521,-2221.676944
163480.094651,-74.020594,-8290.306550,-1302.362347
163480.094970,1554.432478,-8290.306550,-1302.362347
163480.095290,3404.947333,-8882.471304,-76.609550
163480.095609,3775.050304,-7550.100608,1838.629195
163480.095929,2368.659014,-8660.409521,2757.943793
163480.096249,0.000000,-9844.739029,2451.505594
163480.096568,-4219.173869,-8660.409521,-2681.334243
163480.096888,-5551.544565,-10510.924376,-3064.381992
163480.097207,-6217.729913,-10881.027347,-3907.087040
163480.097527,-5033.400406,-10436.903782,-2451.505594
163480.097846,-2442.679609,-9474.636058,-1915.238745
163480.098166,-1776.494261,-8364.327145,1072.533697
163480.098486,1110.308913,-8290.306550,-76.609550
163480.098805,3182.885551,-7550.100608,1762.019645
163480.099125,4663.297435,-7994.224174,3217.601092
163480.099444,0.000000,-7772.162391,2451.505594
163480.099764,296.082377,-10288.862594,2987.772442
163480.100083,-3182.885551,-9400.615463,-919.314598
163480.100403,-4515.256246,-11177.109724,-1302.362347
163480.100722,-3923.091493,-11843.295072,-1302.362347
163480.101042,-4219.173869,-9770.718434,-1915.238745
163480.101362,-4737.318029,-7179.997637,-2451.505594
163480.101681,-3775.050304,-5995.668130,-4903.011187
163480.102001,-2072.576638,-9104.533087,-766.095498
163480.102320,1702.473667,-7698.141797,-689.485948
163480.102640,5255.462188,-10362.883188,2911.162892
163480.102959,2072.576638,-10288.862594,3370.820191
163480.103279,0.000000,-9400.615463,1532.190996
163480.103599,-2294.638420,-9992.780217,-995.924147
163480.103918,-2368.659014,-10732.986159,0.000000
163480.104238,-3330.926739,-10362.883188,-2451.505594
163480.104557,-2664.741391,-9474.636058,-1838.629195
163480.104877,-740.205942,-8216.285956,-1685.410096
163480.105196,666.185348,-7179.997637,-3370.820191
163480.105516,2590.720797,-7994.224174,-2374.896044
163480.105835,7031.956449,-11251.130318,2374.896044
163480.106155,4663.297435,-8882.471304,2145.067394
163480.106475,3256.906145,-9548.656652,2374.896044
163480.106794,1406.391290,-11251.130318,2374.896044
163480.107114,-1776.494261,-9548.656652,0.000000
163480.107433,-1110.308913,-9918.759623,-383.047749
163480.107753,-740.205942,-9992.780217,0.000000
163480.108072,-592.164754,-8660.409521,0.000000
163480.108392,-814.226536,-6217.729913,-1838.629195
163480.108712,0.000000,-5551.544565,-3064.381992
163480.109031,2294.638420,-8290.306550,-1455.581446
163480.109351,3182.885551,-9474.636058,-76.609550
163480.109670,3775.050304,-9326.594869,842.705048
163480.109990,4663.297435,-13027.624579,3600.648841
163480.110309,-1184.329507,-10732.986159,0.000000
163480.110629,-2738.761985,-10584.944971,-2757.943793
163480.110948,-2146.597232,-10658.965565,-2451.505594
163480.111268,-1850.514855,-9770.718434,-1762.019645
163480.111588,0.000000,-8364.327145,0.000000
163480.111907,666.185348,-6883.915261,-1532.190996
163480.112227,0.000000,-5403.503377,0.000000
163480.112546,2294.638420,-9474.636058,-689.485948
163480.112866,2738.761985,-9474.636058,-383.047749
163480.113185,4663.297435,-11843.295072,4213.525239
163480.113505,666.185348,-10436.903782,1608.800546
163480.113825,-1554.432478,-11177.109724,-229.828649
163480.114144,-1998.556043,-10288.862594,-1455.581446
163480.114464,-2368.659014,-9548.656652,0.000000
163480.114783,-4737.318029,-7772.162391,0.000000
163480.115103,-4737.318029,-7772.162391,0.000000
163480.115422,-2960.823768,-8290.306550,-383.047749
163480.115742,-666.185348,-7994.224174,-76.609550
163480.116061,1110.308913,-7105.977043,-76.609550
163480.116381,4663.297435,-9474.636058,4826.401637
163480.116701,1776.494261,-8068.244768,2681.334243
163480.117020,-148.041188,-8956.491898,1072.533697
163480.117340,-4811.338623,-9770.718434,-3217.601092
163480.117659,-8290.306550,-11325.150913,-4290.134789
163480.117979,-4811.338623,-11843.295072,-3753.867940
163480.118298,-7328.038826,-10066.800811,-3447.429741
163480.118618,-5477.523971,-7476.080014,-3983.696590
163480.118938,-4737.318029,-7179.997637,-2298.286494
163480.119257,1110.308913,-7105.977043,-1915.238745
163480.119577,3701.029710,-7550.100608,1762.019645
163480.119896,3775.050304,-9104.533087,3294.210641
163480.120216,3404.947333,-8956.491898,3600.648841
163480.120535,2294.638420,-9400.615463,2374.896044
163480.120855,-962.267725,-10732.986159,306.438199
163480.121174,-1850.514855,-12435.459826,-1608.800546
163480.121494,-3256.906145,-11547.212695,-2528.115143
163480.121814,-4737.318029,-8660.409521,0.000000
163480.122133,-2812.782580,-8364.327145,-2451.505594
163480.122453,-1258.350101,-6809.894666,-1915.238745
163480.122772,0.000000,-7031.956449,-995.924147
163480.123092,2590.720797,-7920.203579,1302.362347
163480.123411,3404.947333,-8438.347739,2451.505594
163480.123731,3552.988522,-9992.780217,5286.058936
163480.124051,592.164754,-8956.491898,2451.505594
163480.124370,-1184.329507,-9548.656652,0.000000
163480.124690,-666.185348,-11251.130318,-1915.238745
163480.125009,-1480.411884,-10732.986159,-1378.971896
163480.125329,-2368.659014,-8512.368333,-3677.258390
163480.125648,-74.020594,-9474.636058,-1915.238745
163480.125968,-666.185348,-8438.347739,-3064.381992
163480.126288,1628.453072,-9030.512492,-1685.410096
163480.126607,5255.462188,-9548.656652,766.095498
163480.126927,8290.306550,-10140.821405,4290.134789
163480.127246,3552.988522,-8364.327145,2451.505594
163480.127566,2960.823768,-7550.100608,1532.190996
163480.127885,1702.473667,-9400.615463,-76.609550
163480.128205,2294.638420,-11251.130318,-1302.362347
163480.128524,-2368.659014,-9548.656652,-4903.011187
163480.128844,-1258.350101,-11251.130318,-689.485948
163480.129164,-2960.823768,-9548.656652,-2987.772442
163480.129483,-3034.844362,-9474.636058,-3064.381992
163480.129803,-814.226536,-9474.636058,-1608.800546
163480.130122,1776.494261,-8290.306550,1762.019645
163480.130442,2590.720797,-7031.956449,2145.067394
163480.130761,3701.029710,-5403.503377,1302.362347
163480.131081,1184.329507,-7476.080014,2451.505594
163480.131401,444.123565,-9696.697840,1608.800546
163480.131720,-2664.741391,-8660.409521,-1532.190996
163480.132040,-1628.453072,-11251.130318,-76.609550
163480.132359,-3923.091493,-10955.047942,-1762.019645
163480.132679,-5403.503377,-10066.800811,-2911.162892
163480.132998,-3034.844362,-9474.636058,-2528.115143
163480.133318,-370.102971,-10066.800811,-76.609550
163480.133637,1110.308913,-9474.636058,2374.896044
163480.133957,0.000000,-5995.668130,766.095498
163480.134277,-1184.329507,-6587.832884,1532.190996
163480.134596,-3552.988522,-6587.832884,0.000000
163480.134916,-4515.256246,-8956.491898,-2987.772442
163480.135235,-3775.050304,-11769.274478,-1302.362347
163480.135555,-4515.256246,-11547.212695,-536.266849
163480.135874,-4219.173869,-10436.903782,-919.314598
163480.136194,-2442.679609,-9474.636058,-1302.362347
163480.136514,-2960.823768,-9548.656652,0.000000
163480.136833,2294.638420,-10362.883188,2068.457845
163480.137153,3775.050304,-8142.265362,3294.210641
163480.137472,1998.556043,-5699.585753,2451.505594
163480.137792,1110.308913,-5403.503377,842.705048
163480.138111,296.082377,-8068.244768,0.000000
163480.138431,-1850.514855,-10436.903782,-1225.752797
163480.138750,-3034.844362,-12731.542202,-842.705048
163480.139070,-2442.679609,-14211.954086,-76.609550
163480.139390,-4145.153275,-10510.924376,-1608.800546
163480.139709,-5847.626942,-8364.327145,-3524.039291
163480.140029,-3552.988522,-7179.997637,-4290.134789
163480.140348,1480.411884,-8364.327145,1378.971896
163480.140668,4663.297435,-7402.059420,1455.581446
163480.140987,4663.297435,-8808.450710,2987.772442
163480.141307,740.205942,-7328.038826,153.219100
163480.141627,-1480.411884,-9178.553681,-1762.019645
163480.141946,-1406.391290,-11621.233289,-2374.896044
163480.142266,0.000000,-12509.480420,0.000000
163480.142585,-370.102971,-12213.398043,-1302.362347
163480.142905,-444.123565,-10436.903782,-1302.362347
163480.143224,-518.144159,-8882.471304,-2221.676944
163480.143544,1258.350101,-7772.162391,-2451.505594
163480.143863,4663.297435,-7846.182985,-995.924147
163480.144183,8808.450710,-8290.306550,2987.772442
163480.144503,5847.626942,-7476.080014,3217.601092
163480.144822,2368.659014,-4811.338623,-995.924147
163480.145142,1110.308913,-9474.636058,-689.485948
163480.145461,0.000000,-10732.986159,-2451.505594
163480.145781,-74.020594,-12583.501014,-1378.971896
163480.146100,-1332.370696,-11917.315666,-995.924147
163480.146420,-3256.906145,-10732.986159,-2374.896044
163480.146740,-3034.844362,-9474.636058,-4596.572988
163480.147059,-444.123565,-9770.718434,-919.314598
163480.147379,4071.132681,-8882.471304,2374.896044
163480.147698,6143.709319,-8882.471304,5362.668486
163480.148018,4071.132681,-5921.647536,2374.896044
163480.148337,1702.473667,-8142.265362,2374.896044
163480.148657,-2368.659014,-8364.327145,-1838.629195
163480.148976,-740.205942,-11621.233289,-1302.362347
163480.149296,-2146.597232,-12435.459826,-1302.362347
163480.149616,-3701.029710,-12361.439231,-2374.896044
163480.149935,-5921.647536,-9696.697840,-4290.134789
163480.150255,-5033.400406,-10510.924376,-3524.039291
163480.150574,-2368.659014,-9548.656652,0.000000
163480.150894,2220.617826,-9474.636058,1455.581446
163480.151213,3182.885551,-7698.141797,2374.896044
163480.151533,4071.132681,-9474.636058,4826.401637
163480.151853,0.000000,-6143.709319,-612.876398
163480.152172,-1258.350101,-9400.615463,0.000000
163480.152492,-148.041188,-10214.842000,612.876398
163480.152811,-1184.329507,-10140.821405,0.000000
163480.153131,-4441.235652,-9548.656652,0.000000
163480.153450,-5551.544565,-8364.327145,-3447.429741
163480.153770,-5921.647536,-9548.656652,-2451.505594
163480.154090,-2516.700203,-9548.656652,-2451.505594
163480.154409,-74.020594,-8882.471304,-76.609550
163480.154729,1036.288319,-8734.430116,2221.676944
163480.155048,-740.205942,-6069.688724,612.876398
163480.155368,-2664.741391,-7031.956449,-1608.800546
163480.155687,-2960.823768,-9178.553681,-919.314598
163480.156007,-2368.659014,-9548.656652,-2068.457845
163480.156326,-666.185348,-11843.295072,-76.609550
163480.156646,-4589.276840,-10140.821405,-1532.190996
163480.156966,-4737.318029,-9770.718434,-3677.258390
163480.157285,-4145.153275,-9548.656652,-2145.067394
163480.157605,1998.556043,-9474.636058,-689.485948
163480.157924,2368.659014,-9844.739029,1532.190996
163480.158244,1776.494261,-8142.265362,2298.286494
163480.158563,1110.308913,-6439.791695,0.000000
163480.158883,-296.082377,-8364.327145,-1455.581446
163480.159203,2368.659014,-10732.986159,1225.752797
163480.159522,3478.967927,-11695.253884,1072.533697
163480.159842,-74.020594,-12435.459826,1762.019645
163480.160161,-3552.988522,-9548.656652,-2834.553343
163480.160481,-5329.482782,-9548.656652,-4903.011187
163480.160800,-2442.679609,-11251.130318,-1915.238745
163480.161120,-1850.514855,-10140.821405,76.609550
163480.161439,-1628.453072,-8290.306550,1685.410096
163480.161759,-518.144159,-6883.915261,2987.772442
163480.162079,444.123565,-5995.668130,3524.039291
163480.162398,-2664.741391,-6587.832884,612.876398
163480.162718,-4737.318029,-7179.997637,0.000000
163480.163037,-1850.514855,-11843.295072,-76.609550
163480.163357,-5107.421000,-10955.047942,-919.314598
163480.163676,-6809.894666,-9548.656652,-4290.134789
163480.163996,-5403.503377,-13027.624579,-1915.238745
163480.164316,-6143.709319,-10732.986159,-2834.553343
163480.164635,-5329.482782,-9696.697840,-2911.162892
163480.164955,-4959.379811,-9696.697840,-766.095498
163480.165274,-1184.329507,-7772.162391,1225.752797
163480.165594,-74.020594,-5255.462188,536.266849
163480.165913,-3256.906145,-4811.338623,919.314598
163480.166233,-3701.029710,-7179.997637,0.000000
163480.166552,-4219.173869,-11251.130318,-383.047749
163480.166872,-7624.121203,-8956.491898,-4903.011187
163480.167192,-6883.915261,-12139.377449,-766.095498
163480.167511,-7031.956449,-12361.439231,536.266849
163480.167831,-5699.585753,-10066.800811,1225.752797
163480.168150,-5403.503377,-8290.306550,-76.609550
163480.168470,-7105.977043,-8290.306550,-76.609550
163480.168789,-5699.585753,-7846.182985,-1302.362347
163480.169109,-5921.647536,-7698.141797,-689.485948
163480.169429,-6513.812290,-7179.997637,0.000000
163480.169748,-4737.318029,-9548.656652,1225.752797
163480.170068,-4367.215058,-8364.327145,0.000000
163480.170387,-3108.864956,-9030.512492,383.047749
163480.170707,-4293.194464,-8882.471304,-612.876398
163480.171026,-4737.318029,-9918.759623,-1685.410096
163480.171346,-2442.679609,-11843.295072,-76.609550
163480.171665,-3923.091493,-11103.089130,766.095498
163480.171985,-4219.173869,-11843.295072,2068.457845
163480.172305,-4811.338623,-9474.636058,-1302.362347
163480.172624,-4145.153275,-7920.203579,0.000000
163480.172944,-3552.988522,-5403.503377,0.000000
163480.173263,-3627.009116,-6217.729913,-2221.676944
163480.173583,-4293.194464,-8660.409521,-2221.676944
163480.173902,-3034.844362,-9770.718434,-1455.581446
163480.174222,-2146.597232,-10436.903782,-689.485948
163480.174542,-666.185348,-13027.624579,-76.609550
163480.174861,-3552.988522,-10732.986159,0.000000
163480.175181,-74.020594,-11843.295072,1762.019645
163480.175500,962.267725,-8734.430116,1915.238745
163480.175820,-74.020594,-5403.503377,0.000000
163480.176139,-1554.432478,-5921.647536,-2528.115143
163480.176459,-1110.308913,-8808.450710,-1532.190996
163480.176778,148.041188,-10362.883188,0.000000
163480.177098,-518.144159,-11103.089130,1685.410096
163480.177418,-1258.350101,-12435.459826,2374.896044
163480.177737,-3923.091493,-10066.800811,-2298.286494
163480.178057,-3034.844362,-10214.842000,-2604.724693
163480.178376,-1184.329507,-9696.697840,76.609550
163480.178696,-2368.659014,-7179.997637,2451.505594
163480.179015,-74.020594,-5921.647536,2374.896044
163480.179335,-1258.350101,-5921.647536,-383.047749
163480.179655,-2368.659014,-7550.100608,-2987.772442
163480.179974,-2368.659014,-10658.965565,-1991.848295
163480.180294,-3701.029710,-12805.562797,-536.266849
163480.180613,-8290.306550,-10732.986159,612.876398
163480.180933,-6735.874072,-10362.883188,-2374.896044
163480.181252,-5847.626942,-9844.739029,-3140.991542
163480.181572,-2072.576638,-9548.656652,-1225.752797
163480.181891,1110.308913,-8364.327145,919.314598
163480.182211,2886.803174,-8586.388927,4136.915689
163480.182531,-74.020594,-8290.306550,3294.210641
163480.182850,-3034.844362,-6143.709319,-383.047749
163480.183170,-4219.173869,-3627.009116,-4979.620737
163480.183489,-1850.514855,-10288.862594,-1302.362347
163480.183809,-4737.318029,-10140.821405,-1838.629195
163480.184128,-4367.215058,-13323.706956,-689.485948
163480.184448,-5625.565159,-14285.974681,536.266849
163480.184768,-5699.585753,-12361.439231,1225.752797
163480.185087,-4811.338623,-10066.800811,766.095498
163480.185407,-3849.070898,-6587.832884,919.314598
163480.185726,-1036.288319,-4589.276840,1608.800546
163480.186046,-518.144159,-6143.709319,3524.039291
163480.186365,-666.185348,-7105.977043,2068.457845
163480.186685,-3849.070898,-10288.862594,1991.848295
163480.187005,-8290.306550,-10214.842000,-2451.505594
163480.187324,-9696.697840,-12879.583391,-4519.963438
163480.187644,-10362.883188,-12213.398043,-4366.744339
163480.187963,-9178.553681,-11399.171507,-3677.258390
163480.188283,-6513.812290,-8068.244768,-3677.258390
163480.188602,-2368.659014,-7402.059420,0.000000
163480.188922,0.000000,-4811.338623,0.000000
163480.189241,0.000000,-6291.750507,1762.019645
163480.189561,-2072.576638,-8734.430116,536.266849
163480.189881,-3552.988522,-13323.706956,1762.019645
163480.190200,-5181.441594,-12435.459826,612.876398
163480.190520,-4071.132681,-12805.562797,2374.896044
163480.190839,-3182.885551,-10807.006753,3064.381992
163480.191159,-2960.823768,-7772.162391,612.876398
163480.191478,-3701.029710,-3701.029710,-2451.505594
163480.191798,-3256.906145,-4737.318029,-2528.115143
163480.192117,-4737.318029,-4811.338623,-3677.258390
163480.192437,-3849.070898,-7328.038826,-2451.505594
163480.192756,-3034.844362,-10658.965565,-689.485948
163480.193076,-2442.679609,-10955.047942,-383.047749
163480.193395,-3256.906145,-10732.986159,-1378.971896
163480.193715,-1184.329507,-11177.109724,1072.533697
163480.194034,-1332.370696,-10955.047942,1378.971896
163480.194354,-4145.153275,-9548.656652,1838.629195
163480.194673,-3552.988522,-8216.285956,-995.924147
163480.194993,-4737.318029,-8660.409521,0.000000
163480.195312,-4589.276840,-9548.656652,-1225.752797
163480.195632,-4737.318029,-7772.162391,0.000000
163480.195951,-2442.679609,-9474.636058,-1302.362347
163480.196271,-2368.659014,-9474.636058,-689.485948
163480.196590,-1998.556043,-8734.430116,-766.095498
163480.196910,-592.164754,-9252.574275,842.705048
163480.197229,296.082377,-9326.594869,1532.190996
163480.197549,-666.185348,-9548.656652,2298.286494
163480.197868,-74.020594,-10066.800811,1149.143247
163480.198188,-814.226536,-10214.842000,1762.019645
163480.198507,-370.102971,-9474.636058,536.266849
163480.198827,-2368.659014,-8956.491898,919.314598
163480.199146,-74.020594,-10658.965565,-76.609550
163480.199466,1184.329507,-8734.430116,2145.067394
163480.199785,2886.803174,-8660.409521,2987.772442
163480.200105,3256.906145,-8956.491898,3983.696590
163480.200424,4663.297435,-10584.944971,4826.401637
163480.200744,2368.659014,-9844.739029,4903.011187
163480.201063,1776.494261,-9178.553681,3294.210641
163480.201383,2294.638420,-9474.636058,2374.896044
163480.201702,-1776.494261,-8364.327145,1532.190996
163480.202022,-2368.659014,-8364.327145,2451.505594
163480.202341,-74.020594,-11251.130318,4213.525239
163480.202661,-1036.288319,-10436.903782,4519.963438
163480.202980,-1776.494261,-9474.636058,4673.182538
163480.203300,-2664.741391,-9474.636058,3907.087040
163480.203619,-2960.823768,-10140.821405,5822.325785
163480.203939,-1628.453072,-8364.327145,2451.505594
163480.204258,0.000000,-9548.656652,6741.640382
163480.204578,3182.885551,-10658.965565,7890.783629
163480.204897,2590.720797,-8290.306550,7277.907231
163480.205217,518.144159,-5107.421000,4290.134789
163480.205536,1332.370696,-7105.977043,4749.792088
163480.205856,-592.164754,-7179.997637,2451.505594
163480.206175,-518.144159,-9326.594869,2757.943793
163480.206495,-1258.350101,-11251.130318,3753.867940
163480.206814,-2368.659014,-13249.686362,5898.935335
163480.207134,-1702.473667,-13249.686362,5898.935335
163480.207453,-1184.329507,-12509.480420,9806.022374
163480.207773,-2368.659014,-9548.656652,10418.898773
163480.208092,-74.020594,-7105.977043,11031.775171
163480.208412,-1406.391290,-222.061783,5592.497135
163480.208731,1480.411884,-1998.556043,6665.030833
163480.209051,740.205942,-3849.070898,4596.572988
163480.209370,-666.185348,-8216.285956,3907.087040
163480.209690,-74.020594,-13619.789333,4213.525239
163480.210009,-2442.679609,-13915.871710,3294.210641
163480.210329,-5107.421000,-12879.583391,1149.143247
163480.210648,-7254.018232,-10140.821405,0.000000
163480.210968,-5921.647536,-9844.739029,1838.629195
163480.211287,-2368.659014,-7772.162391,4903.011187
163480.211607,2146.597232,-7328.038826,4596.572988
163480.211926,4071.132681,-9030.512492,7584.345430
163480.212246,2368.659014,-8438.347739,7354.516781
163480.212565,222.061783,-8586.388927,4979.620737
163480.212885,-74.020594,-9474.636058,3294.210641
163480.213204,-2442.679609,-8808.450710,919.314598
163480.213524,-74.020594,-10955.047942,2068.457845
163480.213843,1702.473667,-9474.636058,1762.019645
163480.214163,1776.494261,-9474.636058,1149.143247
163480.214482,-74.020594,-10658.965565,-2528.115143
163480.214802,-2664.741391,-12583.501014,-1072.533697
163480.215121,-3552.988522,-13545.768739,0.000000
163480.215441,-2294.638420,-11917.315666,1302.362347
163480.215760,-1258.350101,-10362.883188,3600.648841
163480.216080,-2072.576638,-6513.812290,3064.381992
163480.216399,1480.411884,-5551.544565,2451.505594
163480.216719,4589.276840,-7254.018232,4826.401637
163480.217038,2590.720797,-8290.306550,4213.525239
163480.217358,-222.061783,-4441.235652,-1915.238745
163480.217677,1702.473667,-10658.965565,-459.657299
163480.217997,1110.308913,-12361.439231,-995.924147
163480.218316,1110.308913,-11621.233289,919.314598
163480.218636,-1480.411884,-10066.800811,-1378.971896
163480.218955,-7105.977043,-9548.656652,-4903.011187
163480.219275,-6661.853478,-12657.521608,-6358.592633
163480.219594,-4293.194464,-14211.954086,-2451.505594
163480.219914,-1036.288319,-12139.377449,3907.087040
163480.220233,1554.432478,-7105.977043,3600.648841
163480.220553,4737.318029,-7105.977043,6971.469032
163480.220872,3997.112087,-3108.864956,2987.772442
163480.221192,4071.132681,-3701.029710,2987.772442
163480.221511,2442.679609,-6365.771101,1072.533697
163480.221831,666.185348,-10584.944971,0.000000
163480.222150,-74.020594,-11843.295072,-1915.238745
163480.222470,-2738.761985,-12953.603985,-1302.362347
163480.222789,-4811.338623,-13249.686362,-1915.238745
163480.223109,-3701.029710,-12731.542202,-1149.143247
163480.223428,-74.020594,-10658.965565,1532.190996
163480.223748,-74.020594,-8290.306550,2221.676944
163480.224067,-1184.329507,-6587.832884,2451.505594
163480.224387,740.205942,-7846.182985,2451.505594
163480.224706,5255.462188,-9030.512492,7201.297681
163480.225026,2368.659014,-5403.503377,4903.011187
163480.225345,3182.885551,-7698.141797,4673.182538
163480.225665,-814.226536,-9326.594869,1838.629195
163480.225984,-2368.659014,-11325.150913,229.828649
163480.226304,-3849.070898,-12287.418637,-1302.362347
163480.226623,-3775.050304,-13323.706956,-383.047749
163480.226943,-4219.173869,-12731.542202,-383.047749
163480.227262,-2812.782580,-9548.656652,-1762.019645
163480.227582,-2368.659014,-7772.162391,1532.190996
163480.227901,0.000000,-8438.347739,4903.011187
163480.228221,-2368.659014,-4811.338623,4903.011187
163480.228540,1406.391290,-5921.647536,5439.278036
163480.228860,3849.070898,-6365.771101,6052.154434
163480.229179,5033.400406,-7994.224174,7431.126331
163480.229499,3701.029710,-8882.471304,6665.030833
163480.229818,1702.473667,-11695.253884,4826.401637
163480.230138,-3330.926739,-13619.789333,1762.019645
163480.230457,-5921.647536,-11917.315666,1225.752797
163480.230777,-5181.441594,-12509.480420,2757.943793
163480.231096,-3849.070898,-11325.150913,4903.011187
163480.231416,-4441.235652,-7179.997637,1838.629195
163480.231735,370.102971,-7254.018232,5822.325785
163480.232055,962.267725,-4219.173869,6128.763984
163480.232374,888.247130,-4293.194464,6665.030833
163480.232694,2886.803174,-7105.977043,7277.907231
163480.233013,4293.194464,-7105.977043,7660.954980
163480.233333,4367.215058,-8290.306550,4826.401637
163480.233652,0.000000,-10510.924376,4213.525239
163480.233972,-3627.009116,-11399.171507,2145.067394
163480.234291,-3552.988522,-13397.727550,3677.258390
163480.234611,-5847.626942,-11991.336260,612.876398
163480.234930,-4737.318029,-10658.965565,-153.219100
163480.235250,-5107.421000,-8956.491898,76.609550
163480.235569,-2738.761985,-6883.915261,1378.971896
163480.235889,1776.494261,-5847.626942,689.485948
163480.236208,2368.659014,-5403.503377,3983.696590
163480.236528,3923.091493,-6957.935855,5592.497135
163480.236847,4663.297435,-7994.224174,3294.210641
163480.237167,962.267725,-9548.656652,2604.724693
163480.237486,592.164754,-11917.315666,5515.887586
163480.237806,1110.308913,-12509.480420,2987.772442
163480.238125,-592.164754,-10436.903782,1455.581446
163480.238445,-2516.700203,-10362.883188,-919.314598
163480.238764,-5329.482782,-8956.491898,-3983.696590
163480.239084,-6143.709319,-6661.853478,-6281.983084
163480.239403,-4293.194464,-7994.224174,-4979.620737
163480.239723,-3552.988522,-5995.668130,-4290.134789
163480.240042,1554.432478,-7698.141797,-2528.115143
163480.240362,3478.967927,-9474.636058,-76.609550
163480.240681,740.205942,-10140.821405,0.000000
163480.241001,2220.617826,-12953.603985,842.705048
163480.241320,1628.453072,-11473.192101,1455.581446
163480.241640,-1036.288319,-10807.006753,-1762.019645
163480.241959,-4071.132681,-8438.347739,-4366.744339
163480.242279,-2442.679609,-11251.130318,-4979.620737
163480.242598,-2738.761985,-9178.553681,-7737.564530
163480.242918,-2294.638420,-7772.162391,-6511.811733
163480.243237,-74.020594,-4737.318029,-8044.002729
163480.243557,3108.864956,-9474.636058,-3753.867940
163480.243876,592.164754,-9252.574275,-5209.449386
163480.244196,1628.453072,-12213.398043,-3140.991542
163480.244515,3404.947333,-12583.501014,0.000000
163480.244835,3701.029710,-11325.150913,1225.752797
163480.245154,814.226536,-9770.718434,-1532.190996
163480.245474,-888.247130,-9918.759623,-1991.848295
163480.245793,-962.267725,-7698.141797,-4596.572988
163480.246113,-74.020594,-9474.636058,-4979.620737
163480.246432,-74.020594,-5625.565159,-6511.811733
163480.246752,-74.020594,-7105.977043,-6205.373534
163480.247071,222.061783,-7920.203579,-6665.030833
163480.247391,222.061783,-11621.233289,-5669.106685
163480.247710,-666.185348,-14211.954086,-2528.115143
163480.248030,0.000000,-13101.645173,0.000000
163480.248349,-1036.288319,-11473.192101,-919.314598
163480.248669,-962.267725,-10584.944971,-2451.505594
163480.248988,-444.123565,-8882.471304,-1072.533697
163480.249308,-370.102971,-6513.812290,-2834.553343
163480.249627,-370.102971,-5329.482782,-4366.744339
163480.249947,2294.638420,-6513.812290,-2528.115143
163480.250266,1332.370696,-7476.080014,-3140.991542
163480.250586,962.267725,-8956.491898,-2757.943793
163480.250905,-592.164754,-11991.336260,-1991.848295
163480.251225,-1776.494261,-12509.480420,612.876398
163480.251544,-1184.329507,-12805.562797,0.000000
163480.251864,0.000000,-12509.480420,1532.190996
163480.252183,1036.288319,-10658.965565,842.705048
163480.252503,-74.020594,-10658.965565,3600.648841
163480.252822,-666.185348,-9474.636058,4213.525239
163480.253142,-518.144159,-4811.338623,1532.190996
163480.253461,1924.535449,-4663.297435,1455.581446
163480.253781,3701.029710,-4441.235652,1838.629195
163480.254100,1776.494261,-7179.997637,1838.629195
163480.254420,1702.473667,-11769.274478,2834.553343
163480.254739,1998.556043,-14211.954086,3294.210641
163480.255059,-222.061783,-13989.892304,3600.648841
163480.255378,-2442.679609,-13471.748144,1455.581446
163480.255698,-4737.318029,-12213.398043,3600.648841
163480.256017,-5329.482782,-8364.327145,1838.629195
163480.256337,-3552.988522,-5773.606348,919.314598
163480.256656,-2664.741391,-4811.338623,1302.362347
163480.256976,222.061783,-3775.050304,995.924147
163480.257295,3478.967927,-5033.400406,1149.143247
163480.257615,2960.823768,-9622.677246,2987.772442
163480.257934,518.144159,-11843.295072,3447.429741
163480.258254,-148.041188,-13323.706956,4826.401637
163480.258573,518.144159,-13027.624579,5745.716235
163480.258893,-888.247130,-14211.954086,4826.401637
163480.259212,-2220.617826,-13471.748144,4749.792088
163480.259532,-1258.350101,-9178.553681,2374.896044
163480.259851,-2146.597232,-7476.080014,2987.772442
163480.260171,-2146.597232,-5995.668130,0.000000
163480.260490,-666.185348,-4441.235652,-689.485948
163480.260810,1110.308913,-6365.771101,1532.190996
163480.261129,2368.659014,-5995.668130,1532.190996
163480.261449,2220.617826,-9622.677246,3677.258390
163480.261768,3478.967927,-13027.624579,6588.421283
163480.262088,3478.967927,-13915.871710,6205.373534
163480.262407,0.000000,-11325.150913,4903.011187
163480.262727,-2590.720797,-11251.130318,3370.820191
163480.263046,-3627.009116,-9178.553681,-76.609550
163480.263366,-6957.935855,-3923.091493,-2451.505594
163480.263685,-1850.514855,-5921.647536,-2528.115143
163480.264005,-1332.370696,-5329.482782,-2298.286494
163480.264324,74.020594,-7031.956449,-2068.457845
163480.264644,148.041188,-8808.450710,-1838.629195
163480.264963,518.144159,-10658.965565,-689.485948
163480.265283,222.061783,-13693.809927,1225.752797
163480.265602,1998.556043,-12287.418637,842.705048
163480.265922,1184.329507,-9548.656652,1838.629195
163480.266241,0.000000,-10881.027347,1455.581446
163480.266561,-4737.318029,-5995.668130,-2451.505594
163480.266880,-2442.679609,-8586.388927,-2911.162892
163480.267200,-2442.679609,-7624.121203,-4290.134789
163480.267519,-888.247130,-5995.668130,-5669.106685
163480.267839,962.267725,-7402.059420,-4366.744339
163480.268158,3478.967927,-9474.636058,-1302.362347
163480.268478,3182.885551,-14211.954086,1762.019645
163480.268797,2886.803174,-13027.624579,1762.019645
163480.269117,2072.576638,-10732.986159,0.000000
163480.269436,888.247130,-11029.068536,2145.067394
163480.269756,-4737.318029,-9548.656652,-1838.629195
163480.270075,-2368.659014,-9474.636058,-1455.581446
163480.270395,-1850.514855,-8068.244768,-2221.676944
163480.270714,-1554.432478,-6143.709319,-3600.648841
163480.271034,-74.020594,-6513.812290,-4366.744339
163480.271353,814.226536,-5699.585753,-3983.696590
163480.271673,1702.473667,-8586.388927,-3140.991542
163480.271992,-74.020594,-10066.800811,-689.485948
163480.272312,2294.638420,-14211.954086,-383.047749
163480.272631,2368.659014,-14285.974681,1685.410096
163480.272951,-888.247130,-13989.892304,-1685.410096
163480.273270,-3330.926739,-13027.624579,-1378.971896
163480.273590,-5551.544565,-8660.409521,-3600.648841
163480.273909,-2442.679609,-6735.874072,-4903.011187
163480.274229,814.226536,-4959.379811,-6128.763984
163480.274548,2368.659014,-4515.256246,-3370.820191
163480.274868,4441.235652,-7994.224174,-3370.820191
163480.275187,4145.153275,-10732.986159,995.924147
163480.275507,2516.700203,-13323.706956,383.047749
163480.275826,0.000000,-15470.304188,1838.629195
163480.276146,-1036.288319,-12139.377449,-1532.190996
163480.276465,-1924.535449,-11325.150913,-1455.581446
163480.276785,-2072.576638,-8512.368333,-1915.238745
163480.277104,-2960.823768,-6587.832884,-3677.258390
163480.277424,-2294.638420,-6365.771101,-2757.943793
163480.277743,0.000000,-5329.482782,-2528.115143
163480.278063,0.000000,-4811.338623,-2451.505594
163480.278382,0.000000,-7476.080014,-1225.752797
163480.278702,2294.638420,-11251.130318,2374.896044
163480.279021,2368.659014,-10732.986159,4290.134789
163480.279341,2886.803174,-10807.006753,2834.553343
163480.279660,222.061783,-12435.459826,2068.457845
163480.279980,-2590.720797,-11251.130318,306.438199
163480.280299,-6883.915261,-7328.038826,-3140.991542
163480.280619,-5107.421000,-11843.295072,-536.266849
163480.280938,-2442.679609,-8882.471304,-1608.800546
163480.281258,-370.102971,-5107.421000,-536.266849
163480.281577,1110.308913,-2738.761985,0.000000
163480.281897,4663.297435,-9474.636058,4213.525239
163480.282216,1776.494261,-8956.491898,2145.067394
163480.282536,2738.761985,-10584.944971,3370.820191
163480.282855,2886.803174,-12879.583391,4290.134789
163480.283175,222.061783,-13989.892304,3983.696590
163480.283494,-2146.597232,-14211.954086,3140.991542
163480.283814,-2590.720797,-12139.377449,2987.772442
163480.284133,-3775.050304,-7698.141797,-76.609550
163480.284453,-2442.679609,-7105.977043,-689.485948
163480.284772,-2146.597232,-3330.926739,-842.705048
163480.285092,4663.297435,-8290.306550,1762.019645
163480.285411,2368.659014,-7550.100608,1915.238745
163480.285731,2664.741391,-9844.739029,3140.991542
163480.286050,1850.514855,-11029.068536,4213.525239
163480.286370,0.000000,-11325.150913,4903.011187
163480.286689,-2072.576638,-11917.315666,2604.724693
163480.287009,-3552.988522,-11917.315666,0.000000
163480.287328,-5921.647536,-9844.739029,1608.800546
163480.287648,-4737.318029,-8734.430116,383.047749
163480.287967,-2442.679609,-6809.894666,-1302.362347
163480.288287,-1258.350101,-5773.606348,-919.314598
163480.288606,-888.247130,-5625.565159,-1225.752797
163480.288926,1110.308913,-7254.018232,-612.876398
163480.289245,3997.112087,-9326.594869,1378.971896
163480.289565,2368.659014,-10732.986159,3677.258390
163480.289885,2738.761985,-10584.944971,2068.457845
163480.290204,0.000000,-11917.315666,1225.752797
163480.290524,-1184.329507,-11621.233289,1378.971896
163480.290843,-3034.844362,-11843.295072,-76.609550
163480.291163,-1776.494261,-12435.459826,-76.609550
163480.291483,-1480.411884,-6587.832884,-1302.362347
163480.291802,0.000000,-6735.874072,-1225.752797
163480.292122,592.164754,-6883.915261,-2451.505594
163480.292441,0.000000,-7179.997637,-3064.381992
163480.292761,3478.967927,-8660.409521,612.876398
163480.293081,4219.173869,-10955.047942,2681.334243
163480.293400,2738.761985,-10658.965565,1149.143247
163480.293720,0.000000,-9548.656652,0.000000
163480.294039,-2072.576638,-11917.315666,2604.724693
163480.294359,-6809.894666,-9844.739029,-3524.039291
163480.294679,-4885.359217,-10066.800811,-3753.867940
163480.294998,-3849.070898,-7105.977043,-5362.668486
163480.295318,-1184.329507,-6365.771101,-3830.477490
163480.295637,2294.638420,-8290.306550,-3140.991542
163480.295957,2368.659014,-7994.224174,-383.047749
163480.296277,3552.988522,-7476.080014,612.876398
163480.296596,2442.679609,-8660.409521,919.314598
163480.296916,1924.535449,-10066.800811,-76.609550
163480.297235,888.247130,-12805.562797,1685.410096
163480.297555,-2368.659014,-13101.645173,1225.752797
163480.297875,-2442.679609,-13619.789333,-76.609550
163480.298194,-3627.009116,-9400.615463,-1915.238745
163480.298514,-2664.741391,-5107.421000,-5822.325785
163480.298833,-74.020594,-4737.318029,-4979.620737
163480.299153,1776.494261,-6513.812290,-2757.943793
163480.299473,4071.132681,-8216.285956,-153.219100
163480.299792,4441.235652,-10955.047942,2374.896044
163480.300112,2368.659014,-11991.336260,2451.505594
163480.300431,-666.185348,-11843.295072,-76.609550
163480.300751,-4737.318029,-10732.986159,-1685.410096
163480.301071,-3330.926739,-10140.821405,-1838.629195
163480.301390,-2368.659014,-10140.821405,-306.438199
163480.301710,-2960.823768,-5995.668130,-3677.258390
163480.302029,-74.020594,-7105.977043,-2834.553343
163480.302349,-592.164754,-6587.832884,-3294.210641
163480.302669,-444.123565,-8808.450710,-3140.991542
163480.302988,1924.535449,-10140.821405,-766.095498
163480.303308,2738.761985,-11843.295072,1762.019645
163480.303628,1628.453072,-12139.377449,1762.019645
163480.303947,0.000000,-10510.924376,-76.609550
163480.304267,-4737.318029,-10140.821405,0.000000
163480.304586,-2812.782580,-10732.986159,-612.876398
163480.304906,-4737.318029,-7179.997637,-4903.011187
163480.305226,-888.247130,-9104.533087,-1915.238745
163480.305545,-444.123565,-6587.832884,-2068.457845
163480.305865,1332.370696,-6735.874072,-1225.752797
163480.306184,2886.803174,-8290.306550,1149.143247
163480.306504,6439.791695,-9474.636058,2374.896044
163480.306824,4071.132681,-11843.295072,4213.525239
163480.307143,1258.350101,-9030.512492,76.609550
163480.307463,0.000000,-11621.233289,612.876398
163480.307782,-1480.411884,-12805.562797,2451.505594
163480.308102,-4737.318029,-10140.821405,0.000000
163480.308422,-3330.926739,-10066.800811,229.828649
163480.308741,-2516.700203,-6291.750507,-1149.143247
163480.309061,-1480.411884,-4737.318029,-1608.800546
163480.309380,2294.638420,-6809.894666,-76.609550
163480.309700,2664.741391,-7179.997637,1532.190996
163480.310020,4663.297435,-9474.636058,2987.772442
163480.310339,1702.473667,-9844.739029,2221.676944
163480.310659,-2368.659014,-9548.656652,306.438199
163480.310978,-2960.823768,-11917.315666,1838.629195
163480.311298,-4367.215058,-11325.150913,0.000000
163480.311618,-4589.276840,-10584.944971,-383.047749
163480.311937,-3256.906145,-8734.430116,-919.314598
163480.312257,-1554.432478,-7031.956449,-536.266849
163480.312576,1036.288319,-6587.832884,0.000000
163480.312896,0.000000,-7179.997637,383.047749
163480.313216,1776.494261,-7179.997637,0.000000
163480.313535,2368.659014,-7179.997637,2451.505594
163480.313855,4663.297435,-10362.883188,3600.648841
163480.314174,1776.494261,-10140.821405,3677.258390
163480.314494,1184.329507,-12361.439231,2681.334243
163480.314814,-2220.617826,-12361.439231,842.705048
163480.315133,-4441.235652,-11325.150913,-383.047749
163480.315453,-5773.606348,-8364.327145,-2451.505594
163480.315772,-3775.050304,-5921.647536,-3600.648841
163480.316092,-1332.370696,-7994.224174,-1302.362347
163480.316412,222.061783,-6439.791695,-689.485948
163480.316731,1184.329507,-7179.997637,1532.190996
163480.317051,4663.297435,-9474.636058,4826.401637
163480.317370,1184.329507,-8660.409521,2451.505594
163480.317690,814.226536,-10658.965565,689.485948
163480.318010,-1184.329507,-11843.295072,153.219100
163480.318329,-3182.885551,-11917.315666,-612.876398
163480.318649,-4811.338623,-10807.006753,-3140.991542
163480.318969,-2442.679609,-12435.459826,-689.485948
163480.319288,-1554.432478,-9474.636058,-3140.991542
163480.319608,-2146.597232,-6957.935855,-2681.334243
163480.319927,-370.102971,-5921.647536,-2528.115143
163480.320247,3923.091493,-9474.636058,-76.609550
163480.320567,3182.885551,-8364.327145,306.438199
163480.320886,3330.926739,-9474.636058,1455.581446
163480.321206,1850.514855,-9400.615463,1225.752797
163480.321525,0.000000,-10288.862594,0.000000
163480.321845,-962.267725,-10214.842000,-1532.190996
163480.322165,-2368.659014,-12213.398043,-612.876398
163480.322484,-1702.473667,-10510.924376,-1302.362347
163480.322804,-74.020594,-9474.636058,-3140.991542
163480.323123,-962.267725,-7698.141797,-2528.115143
163480.323443,-74.020594,-9474.636058,-76.609550
163480.323763,1332.370696,-7476.080014,-459.657299
163480.324082,3256.906145,-7920.203579,1455.581446
163480.324402,3552.988522,-7846.182985,1762.019645
163480.324721,0.000000,-6587.832884,1225.752797
163480.325041,-1776.494261,-8364.327145,0.000000
163480.325361,-2368.659014,-10584.944971,0.000000
163480.325680,-1258.350101,-13027.624579,-689.485948
163480.326000,-3627.009116,-10066.800811,-3907.087040
163480.326319,-2442.679609,-9474.636058,-3753.867940
163480.326639,-1924.535449,-9178.553681,-2681.334243
163480.326959,-888.247130,-8068.244768,-2451.505594
163480.327278,2294.638420,-8068.244768,-689.485948
163480.327598,4367.215058,-8438.347739,1149.143247
163480.327917,2368.659014,-8364.327145,1225.752797
163480.328237,1776.494261,-10066.800811,-76.609550
163480.328557,-3256.906145,-10140.821405,0.000000
163480.328876,-1850.514855,-11843.295072,-689.485948
163480.329196,-1554.432478,-12435.459826,-842.705048
163480.329515,-1924.535449,-11251.130318,-919.314598
163480.329835,-1850.514855,-8808.450710,-2911.162892
163480.330155,-962.267725,-8882.471304,-1685.410096
163480.330474,518.144159,-8512.368333,0.000000
163480.330794,1184.329507,-7179.997637,0.000000
163480.331113,3404.947333,-8216.285956,1532.190996
163480.331433,2812.782580,-9474.636058,2374.896044
163480.331753,1110.308913,-9104.533087,995.924147
163480.332072,-1850.514855,-8364.327145,-995.924147
163480.332392,-3552.988522,-10436.903782,0.000000
163480.332711,-4737.318029,-9844.739029,-2451.505594
163480.333031,-3701.029710,-8882.471304,-3140.991542
163480.333351,-3330.926739,-8512.368333,-2681.334243
163480.333670,-2146.597232,-8438.347739,-1302.362347
163480.333990,2294.638420,-8882.471304,-76.609550
163480.334309,2738.761985,-8512.368333,2068.457845
163480.334629,3627.009116,-8290.306550,2757.943793
163480.334949,2442.679609,-7698.141797,1915.238745
163480.335268,296.082377,-8882.471304,1149.143247
163480.335588,-2368.659014,-10436.903782,0.000000
163480.335908,-666.185348,-14211.954086,-76.609550
163480.336227,-2146.597232,-10658.965565,-2221.676944
163480.336547,-2368.659014,-10732.986159,-1225.752797
163480.336866,-1036.288319,-9400.615463,-2145.067394
163480.337186,-74.020594,-8290.306550,-689.485948
163480.337506,1184.329507,-6735.874072,1225.752797
163480.337825,3923.091493,-6217.729913,2451.505594
163480.338145,5329.482782,-7254.018232,3064.381992
163480.338464,5033.400406,-8956.491898,3217.601092
163480.338784,2590.720797,-10955.047942,2374.896044
163480.339104,-3552.988522,-11029.068536,0.000000
163480.339423,-3552.988522,-12213.398043,0.000000
163480.339743,-2442.679609,-13619.789333,-76.609550
163480.340062,-4737.318029,-7476.080014,-4749.792088
163480.340382,-1258.350101,-8882.471304,-689.485948
163480.340702,-1036.288319,-7698.141797,229.828649
163480.341021,888.247130,-7105.977043,612.876398
163480.341341,1776.494261,-7476.080014,1225.752797
163480.341660,2590.720797,-9178.553681,2374.896044
163480.341980,1184.329507,-8586.388927,229.828649
163480.342300,-1776.494261,-9474.636058,-689.485948
163480.342619,-4737.318029,-9844.739029,0.000000
163480.342939,-1850.514855,-13323.706956,-306.438199
163480.343258,-3849.070898,-9548.656652,-4903.011187
163480.343578,-1998.556043,-10658.965565,-1685.410096
163480.343898,-2368.659014,-9548.656652,-1685.410096
163480.344217,-1480.411884,-8512.368333,-1225.752797
163480.344537,2294.638420,-9474.636058,-76.609550
163480.344856,4663.297435,-9474.636058,3600.648841
163480.345176,5255.462188,-9474.636058,3447.429741
163480.345496,2294.638420,-7105.977043,229.828649
163480.345815,0.000000,-9548.656652,612.876398
163480.346135,-1480.411884,-10140.821405,0.000000
163480.346454,-3923.091493,-9770.718434,-2221.676944
163480.346774,-2738.761985,-11621.233289,-1378.971896
163480.347094,-2442.679609,-10140.821405,-1991.848295
163480.347413,-2294.638420,-9252.574275,-1225.752797
163480.347733,-74.020594,-9474.636058,-76.609550
163480.348052,0.000000,-5699.585753,0.000000
163480.348372,1184.329507,-7328.038826,536.266849
163480.348692,2738.761985,-8512.368333,1149.143247
163480.349011,74.020594,-6587.832884,-1455.581446
163480.349331,-2368.659014,-9548.656652,1838.629195
163480.349650,-2220.617826,-9844.739029,-612.876398
163480.349970,-1702.473667,-10288.862594,-1838.629195
163480.350290,-1332.370696,-10066.800811,-2298.286494
163480.350609,-888.247130,-10436.903782,-1991.848295
163480.350929,-814.226536,-9400.615463,-3064.381992
163480.351248,-888.247130,-9252.574275,-153.219100
163480.351568,1406.391290,-9252.574275,612.876398
163480.351888,4663.297435,-9474.636058,-76.609550
163480.352207,1776.494261,-7550.100608,306.438199
163480.352527,2516.700203,-11399.171507,2374.896044
163480.352847,-592.164754,-10436.903782,383.047749
163480.353166,-2146.597232,-10807.006753,-995.924147
163480.353486,-1924.535449,-10436.903782,-1302.362347
163480.353805,-3256.906145,-8660.409521,-4290.134789
163480.354125,-2960.823768,-7179.997637,-3677.258390
163480.354445,-2072.576638,-9770.718434,-1302.362347
163480.354764,-1850.514855,-7994.224174,-919.314598
163480.355084,0.000000,-8068.244768,919.314598
163480.355403,2294.638420,-9474.636058,-76.609550
163480.355723,2368.659014,-8142.265362,1072.533697
163480.356043,-74.020594,-8512.368333,0.000000
163480.356362,-1258.350101,-9178.553681,-306.438199
163480.356682,-1554.432478,-9992.780217,-1072.533697
163480.357001,-4145.153275,-8364.327145,-2451.505594
163480.357321,-2368.659014,-10658.965565,-1915.238745
163480.357641,-2442.679609,-10658.965565,-2987.772442
163480.357960,-2960.823768,-8660.409521,-2374.896044
163480.358280,-1702.473667,-7920.203579,-1838.629195
163480.358599,4663.297435,-9474.636058,2374.896044
163480.358919,2368.659014,-7624.121203,919.314598
163480.359239,1776.494261,-7550.100608,766.095498
163480.359558,0.000000,-7846.182985,0.000000
163480.359878,-296.082377,-8512.368333,-76.609550
163480.360197,-74.020594,-9622.677246,-383.047749
163480.360517,2294.638420,-11843.295072,-383.047749
163480.360837,0.000000,-10140.821405,-842.705048
163480.361156,-2368.659014,-9548.656652,-1532.190996
163480.361476,-2368.659014,-9548.656652,0.000000
163480.361795,2294.638420,-9474.636058,-76.609550
163480.362115,592.164754,-7402.059420,766.095498
163480.362435,2146.597232,-6735.874072,1608.800546
163480.362754,1776.494261,-6957.935855,919.314598
163480.363074,592.164754,-8808.450710,3064.381992
163480.363393,-1184.329507,-8956.491898,153.219100
163480.363713,-296.082377,-10807.006753,1149.143247
163480.364033,-1850.514855,-9474.636058,-2834.553343
