#time,accel_x,accel_y,accel_z
59448.748491,-592.164754,-8660.409521,0.000000
59448.748801,148.041188,-9548.656652,1838.629195
59448.749110,-74.020594,-9178.553681,-76.609550
59448.749420,0.000000,-9548.656652,2451.505594
59448.749730,-74.020594,-9474.636058,-76.609550
59448.750039,0.000000,-9548.656652,1532.190996
59448.750349,-74.020594,-9474.636058,1149.143247
59448.750659,-444.123565,-9030.512492,536.266849
59448.750969,-444.123565,-8956.491898,842.705048
59448.751278,-740.205942,-7920.203579,229.828649
59448.751588,-1480.411884,-7772.162391,0.000000
59448.751898,-1776.494261,-7772.162391,612.876398
59448.752207,-74.020594,-9474.636058,1762.019645
59448.752517,-2072.576638,-7476.080014,0.000000
59448.752827,-74.020594,-9474.636058,-76.609550
59448.753137,-1480.411884,-7179.997637,612.876398
59448.753446,-74.020594,-9326.594869,995.924147
59448.753756,-370.102971,-9252.574275,842.705048
59448.754066,0.000000,-9178.553681,1149.143247
59448.754375,-74.020594,-9474.636058,1149.143247
59448.754685,-1628.453072,-7476.080014,-689.485948
59448.754995,-2368.659014,-7476.080014,0.000000
59448.755305,296.082377,-9918.759623,2911.162892
59448.755614,-74.020594,-7994.224174,-1302.362347
59448.755924,0.000000,-9548.656652,2451.505594
59448.756234,-1628.453072,-7179.997637,0.000000
59448.756543,-296.082377,-9178.553681,919.314598
59448.756853,-222.061783,-9030.512492,919.314598
59448.757163,-370.102971,-9178.553681,995.924147
59448.757473,-74.020594,-10658.965565,2374.896044
59448.757782,-518.144159,-8290.306550,1762.019645
59448.758092,-1258.350101,-7698.141797,0.000000
59448.758402,148.041188,-9696.697840,2374.896044
59448.758711,-1998.556043,-6661.853478,-1455.581446
59448.759021,0.000000,-8364.327145,0.000000
59448.759331,-370.102971,-8586.388927,-383.047749
59448.759640,-1036.288319,-8660.409521,383.047749
59448.759950,-222.061783,-8956.491898,919.314598
59448.760260,-518.144159,-8882.471304,383.047749
59448.760570,-74.020594,-10436.903782,2681.334243
59448.760879,-74.020594,-9474.636058,2374.896044
59448.761189,-222.061783,-8290.306550,229.828649
59448.761499,0.000000,-8956.491898,1225.752797
59448.761808,-74.020594,-7994.224174,-689.485948
59448.762118,-2368.659014,-7179.997637,0.000000
59448.762428,-74.020594,-9474.636058,1149.143247
59448.762738,-740.205942,-8734.430116,383.047749
59448.763047,-148.041188,-8956.491898,766.095498
59448.763357,-370.102971,-9252.574275,689.485948
59448.763667,0.000000,-8956.491898,1838.629195
59448.763976,-74.020594,-11251.130318,2374.896044
59448.764286,-74.020594,-9474.636058,-76.609550
59448.764596,-1628.453072,-7772.162391,0.000000
59448.764906,-74.020594,-10658.965565,-76.609550
59448.765215,-2368.659014,-5995.668130,0.000000
59448.765525,1702.473667,-10362.883188,1149.143247
59448.765835,-296.082377,-8882.471304,766.095498
59448.766144,-296.082377,-8956.491898,919.314598
59448.766454,-222.061783,-9104.533087,689.485948
59448.766764,-2072.576638,-7772.162391,0.000000
59448.767074,592.164754,-9548.656652,2451.505594
59448.767383,1702.473667,-10658.965565,2068.457845
59448.767693,-1406.391290,-7550.100608,0.000000
59448.768003,2294.638420,-11843.295072,2374.896044
59448.768312,-2072.576638,-8068.244768,842.705048
59448.768622,1110.308913,-10955.047942,1762.019645
59448.768932,-518.144159,-9104.533087,612.876398
59448.769241,-592.164754,-8956.491898,766.095498
59448.769551,-296.082377,-9104.533087,919.314598
59448.769861,-1776.494261,-7179.997637,0.000000
59448.770171,0.000000,-7179.997637,0.000000
59448.770480,740.205942,-10066.800811,1762.019645
59448.770790,-370.102971,-6957.935855,-1991.848295
59448.771100,0.000000,-8364.327145,1225.752797
59448.771409,-74.020594,-9474.636058,2374.896044
59448.771719,148.041188,-8660.409521,1685.410096
59448.772029,1258.350101,-8734.430116,1302.362347
59448.772339,1258.350101,-8438.347739,1149.143247
59448.772648,1258.350101,-8882.471304,689.485948
59448.772958,1406.391290,-7994.224174,-689.485948
59448.773268,0.000000,-7476.080014,0.000000
59448.773577,592.164754,-8364.327145,612.876398
59448.773887,3182.885551,-9696.697840,0.000000
59448.774197,4737.318029,-10732.986159,3370.820191
59448.774507,4663.297435,-10658.965565,2987.772442
59448.774816,1776.494261,-8364.327145,0.000000
59448.775126,2516.700203,-9326.594869,459.657299
59448.775436,3108.864956,-9030.512492,842.705048
59448.775745,4293.194464,-9252.574275,1149.143247
59448.776055,5551.544565,-9474.636058,1762.019645
59448.776365,4367.215058,-7328.038826,229.828649
59448.776675,3849.070898,-7179.997637,612.876398
59448.776984,7476.080014,-11843.295072,3600.648841
59448.777294,2368.659014,-6587.832884,0.000000
59448.777604,7105.977043,-9548.656652,1838.629195
59448.777913,4145.153275,-7328.038826,0.000000
59448.778223,6069.688724,-9030.512492,229.828649
59448.778533,6143.709319,-9474.636058,76.609550
59448.778842,6069.688724,-9770.718434,76.609550
59448.779152,7031.956449,-13027.624579,-76.609550
59448.779462,5847.626942,-13027.624579,-76.609550
59448.779772,2590.720797,-11843.295072,-995.924147
59448.780081,1776.494261,-12509.480420,2451.505594
59448.780391,1702.473667,-9474.636058,-689.485948
59448.780701,0.000000,-7179.997637,0.000000
59448.781010,3997.112087,-5847.626942,842.705048
59448.781320,5329.482782,-4737.318029,2451.505594
59448.781630,7476.080014,-3849.070898,2451.505594
59448.781940,9104.533087,-4145.153275,2987.772442
59448.782249,9400.615463,-6069.688724,4443.353888
59448.782559,10584.944971,-9474.636058,2374.896044
59448.782869,5255.462188,-12879.583391,-76.609550
59448.783178,0.000000,-14285.974681,-2451.505594
59448.783488,-1258.350101,-18949.272115,-2528.115143
59448.783798,-5625.565159,-13101.645173,-5822.325785
59448.784108,-2442.679609,-12731.542202,-2528.115143
59448.784417,-3256.906145,-8660.409521,-1762.019645
59448.784727,0.000000,-7031.956449,1378.971896
59448.785037,3923.091493,-3627.009116,3294.210641
59448.785346,4737.318029,-3627.009116,6128.763984
59448.785656,5329.482782,-5033.400406,6205.373534
59448.785966,3478.967927,-4737.318029,4826.401637
59448.786275,0.000000,-1258.350101,1225.752797
59448.786585,5255.462188,-5921.647536,4213.525239
59448.786895,2886.803174,-3849.070898,-689.485948
59448.787205,814.226536,-10658.965565,-383.047749
59448.787514,-3330.926739,-16580.613101,-2834.553343
59448.787824,-5403.503377,-18949.272115,-3907.087040
59448.788134,-6661.853478,-18949.272115,-4213.525239
59448.788443,-7105.977043,-13101.645173,-3677.258390
59448.788753,-2368.659014,-9844.739029,0.000000
59448.789063,2294.638420,-8586.388927,3600.648841
59448.789373,814.226536,-3627.009116,1991.848295
59448.789682,6365.771101,-7105.977043,6665.030833
59448.789992,5847.626942,-6513.812290,4826.401637
59448.790302,8882.471304,-5625.565159,7201.297681
59448.790611,8512.368333,-4515.256246,5439.278036
59448.790921,5995.668130,-5477.523971,4213.525239
59448.791231,2072.576638,-9252.574275,919.314598
59448.791541,-3404.947333,-11917.315666,-3677.258390
59448.791850,-3552.988522,-15470.304188,-4903.011187
59448.792160,-2368.659014,-16358.551318,-4596.572988
59448.792470,-3034.844362,-15100.201217,-5592.497135
59448.792779,-5921.647536,-13101.645173,-3677.258390
59448.793089,-74.020594,-17764.942608,-76.609550
59448.793399,4145.153275,-8660.409521,2757.943793
59448.793709,9252.574275,-5995.668130,6052.154434
59448.794018,14137.933492,-2664.741391,7354.516781
59448.794328,12583.501014,-4663.297435,7890.783629
59448.794638,10584.944971,-6143.709319,4213.525239
59448.794947,5477.523971,-7328.038826,2451.505594
59448.795257,1776.494261,-9548.656652,0.000000
59448.795567,2294.638420,-14211.954086,-1302.362347
59448.795876,-4071.132681,-14804.118840,-5898.935335
59448.796186,-2072.576638,-15470.304188,-2451.505594
59448.796496,1480.411884,-12509.480420,-2145.067394
59448.796806,3627.009116,-8956.491898,-76.609550
59448.797115,2294.638420,-7994.224174,-842.705048
59448.797425,3478.967927,-8216.285956,536.266849
59448.797735,8216.285956,-4737.318029,2374.896044
59448.798044,8216.285956,-2960.823768,2987.772442
59448.798354,4737.318029,-2442.679609,0.000000
59448.798664,6809.894666,-7846.182985,3524.039291
59448.798974,5995.668130,-6217.729913,842.705048
59448.799283,7105.977043,-9548.656652,3064.381992
59448.799593,1924.535449,-11029.068536,536.266849
59448.799903,-2146.597232,-12657.521608,-2298.286494
59448.800212,-3256.906145,-16506.592507,-2451.505594
59448.800522,-1998.556043,-12509.480420,-1915.238745
59448.800832,-74.020594,-11843.295072,-76.609550
59448.801142,2294.638420,-7105.977043,842.705048
59448.801451,5477.523971,-1628.453072,0.000000
59448.801761,7698.141797,-5403.503377,4903.011187
59448.802071,4515.256246,-5181.441594,2068.457845
59448.802380,0.000000,-4811.338623,2451.505594
59448.802690,1554.432478,-7105.977043,229.828649
59448.803000,1258.350101,-9548.656652,306.438199
59448.803310,740.205942,-10510.924376,536.266849
59448.803619,296.082377,-9696.697840,-229.828649
59448.803929,962.267725,-13915.871710,-76.609550
59448.804239,-74.020594,-13619.789333,-842.705048
59448.804548,-1850.514855,-13619.789333,-1302.362347
59448.804858,-3552.988522,-9548.656652,0.000000
59448.805168,4071.132681,-9474.636058,2374.896044
59448.805477,2368.659014,-3627.009116,0.000000
59448.805787,6439.791695,-7698.141797,4826.401637
59448.806097,5181.441594,-5773.606348,3447.429741
59448.806407,3701.029710,-7624.121203,2604.724693
59448.806716,2294.638420,-8290.306550,1532.190996
59448.807026,1776.494261,-9548.656652,3064.381992
59448.807336,1998.556043,-11029.068536,1838.629195
59448.807645,-2664.741391,-13619.789333,-76.609550
59448.807955,-7994.224174,-9844.739029,-4903.011187
59448.808265,-4737.318029,-13545.768739,-1225.752797
59448.808575,-2442.679609,-9474.636058,-2834.553343
59448.808884,-74.020594,-8882.471304,2068.457845
59448.809194,1998.556043,-6217.729913,2834.553343
59448.809504,2960.823768,-6217.729913,4673.182538
59448.809813,2886.803174,-6439.791695,4060.306139
59448.810123,0.000000,-5403.503377,1225.752797
59448.810433,-1184.329507,-7772.162391,1838.629195
59448.810743,1110.308913,-11843.295072,3600.648841
59448.811052,-2960.823768,-7772.162391,-1532.190996
59448.811362,-4145.153275,-11917.315666,0.000000
59448.811672,-4811.338623,-11843.295072,-2528.115143
59448.811981,-6069.688724,-11695.253884,-2911.162892
59448.812291,-6069.688724,-10584.944971,-1915.238745
59448.812601,-3701.029710,-7698.141797,-306.438199
59448.812911,666.185348,-6365.771101,2145.067394
59448.813220,0.000000,-3034.844362,2451.505594
59448.813530,592.164754,-5107.421000,3064.381992
59448.813840,3182.885551,-10584.944971,5439.278036
59448.814149,-1850.514855,-6883.915261,689.485948
59448.814459,444.123565,-10140.821405,2451.505594
59448.814769,-74.020594,-11843.295072,2374.896044
59448.815078,-4071.132681,-11177.109724,-612.876398
59448.815388,-4885.359217,-12583.501014,-1455.581446
59448.815698,-5107.421000,-11769.274478,-2221.676944
59448.816008,-4515.256246,-8882.471304,-1915.238745
59448.816318,-4219.173869,-5921.647536,-2145.067394
59448.816628,0.000000,-3627.009116,612.876398
59448.816938,3701.029710,-5699.585753,6128.763984
59448.817247,3478.967927,-4737.318029,1762.019645
59448.817557,1184.329507,-7476.080014,2451.505594
59448.817867,4071.132681,-11843.295072,4826.401637
59448.818177,1998.556043,-9474.636058,-76.609550
59448.818487,0.000000,-11325.150913,612.876398
59448.818797,-1406.391290,-12509.480420,-383.047749
59448.819107,-3404.947333,-13323.706956,-1762.019645
59448.819417,-4737.318029,-11325.150913,-4290.134789
59448.819726,-5921.647536,-10140.821405,-2451.505594
59448.820036,-2368.659014,-9252.574275,0.000000
59448.820346,4663.297435,-9474.636058,3294.210641
59448.820656,4737.318029,-2590.720797,3677.258390
59448.820966,7031.956449,-8882.471304,6665.030833
59448.821276,4737.318029,-6735.874072,3830.477490
59448.821586,4811.338623,-5921.647536,3064.381992
59448.821896,4367.215058,-9252.574275,2987.772442
59448.822205,3256.906145,-8808.450710,536.266849
59448.822515,-2442.679609,-12287.418637,-1915.238745
59448.822825,-4145.153275,-11325.150913,-3064.381992
59448.823135,-4737.318029,-15470.304188,-2451.505594
59448.823445,-1258.350101,-15396.283594,-1302.362347
59448.823755,-6513.812290,-9548.656652,-2451.505594
59448.824065,3108.864956,-8290.306550,2834.553343
59448.824375,2960.823768,-5699.585753,3677.258390
59448.824685,4515.256246,-3404.947333,4596.572988
59448.824994,3849.070898,-4737.318029,3370.820191
59448.825304,3997.112087,-6883.915261,3983.696590
59448.825614,4663.297435,-7105.977043,2374.896044
59448.825924,1406.391290,-8512.368333,842.705048
59448.826234,-1628.453072,-9548.656652,0.000000
59448.826544,-370.102971,-15396.283594,-76.609550
59448.826854,-6661.853478,-13101.645173,-4136.915689
59448.827164,-7105.977043,-14285.974681,-1225.752797
59448.827473,-7698.141797,-11325.150913,-2911.162892
59448.827783,-2146.597232,-8882.471304,383.047749
59448.828093,2220.617826,-5255.462188,2987.772442
59448.828403,2072.576638,-3923.091493,3677.258390
59448.828713,4663.297435,-4737.318029,4826.401637
59448.829023,3478.967927,-4145.153275,2374.896044
59448.829333,1776.494261,-4811.338623,0.000000
59448.829643,3478.967927,-10658.965565,2987.772442
59448.829952,-4737.318029,-9548.656652,-2451.505594
59448.830262,-7105.977043,-12509.480420,0.000000
59448.830572,-7328.038826,-14582.057057,-3830.477490
59448.830882,-8068.244768,-14656.077652,-3524.039291
59448.831192,-7772.162391,-13619.789333,-2221.676944
59448.831502,-2812.782580,-8882.471304,459.657299
59448.831812,4071.132681,-8290.306550,4826.401637
59448.832122,3478.967927,-4145.153275,4519.963438
59448.832431,2442.679609,-1998.556043,2374.896044
59448.832741,5921.647536,-5995.668130,6741.640382
59448.833051,4071.132681,-3997.112087,3753.867940
59448.833361,0.000000,-4811.338623,2451.505594
59448.833671,-814.226536,-10955.047942,-689.485948
59448.833981,-3849.070898,-11251.130318,-2451.505594
59448.834291,-5921.647536,-15470.304188,-2604.724693
59448.834601,-7031.956449,-15618.345376,-4596.572988
59448.834910,-6957.935855,-16432.571912,-2221.676944
59448.835220,-666.185348,-11843.295072,-76.609550
59448.835530,1850.514855,-6513.812290,536.266849
59448.835840,4737.318029,-4811.338623,6128.763984
59448.836150,4663.297435,-3552.988522,6052.154434
59448.836460,2442.679609,-74.020594,2451.505594
59448.836770,7920.203579,-4737.318029,5439.278036
59448.837080,4219.173869,-5699.585753,3983.696590
59448.837389,962.267725,-8956.491898,383.047749
59448.837699,-2368.659014,-11251.130318,-1991.848295
59448.838009,-4737.318029,-15174.221811,-3064.381992
59448.838319,-6587.832884,-18357.107362,-4673.182538
59448.838629,-6587.832884,-17764.942608,-4979.620737
59448.838939,-6217.729913,-11325.150913,-3907.087040
59448.839249,2368.659014,-9844.739029,2145.067394
59448.839559,4663.297435,-4589.276840,2068.457845
59448.839868,7031.956449,-4737.318029,6665.030833
59448.840178,7624.121203,-3404.947333,5898.935335
59448.840488,7698.141797,-3775.050304,6435.202183
59448.840798,7105.977043,-4737.318029,4290.134789
59448.841108,2960.823768,-6587.832884,3064.381992
59448.841418,370.102971,-11325.150913,919.314598
59448.841728,-2442.679609,-15988.448347,-1302.362347
59448.842038,-9178.553681,-14285.974681,-6971.469032
59448.842348,-9474.636058,-16654.633695,-4903.011187
59448.842657,-5995.668130,-14211.954086,-4979.620737
59448.842967,-1258.350101,-11399.171507,-383.047749
59448.843277,1776.494261,-6809.894666,3064.381992
59448.843587,3775.050304,-4219.173869,4903.011187
59448.843897,5403.503377,-3552.988522,5439.278036
59448.844207,4737.318029,-74.020594,4903.011187
59448.844517,5329.482782,-3034.844362,4903.011187
59448.844827,4663.297435,-9474.636058,4826.401637
59448.845136,-3404.947333,-6587.832884,-1991.848295
59448.845446,-4145.153275,-13471.748144,-1608.800546
59448.845756,-7179.997637,-16580.613101,-4979.620737
59448.846066,-10510.924376,-17690.922014,-5515.887586
59448.846376,-8660.409521,-15248.242405,-5056.230287
59448.846686,-3997.112087,-12065.356855,-1225.752797
59448.846996,-296.082377,-8290.306550,1455.581446
59448.847306,-1776.494261,-4811.338623,2757.943793
59448.847615,2516.700203,-3627.009116,4903.011187
59448.847925,8068.244768,-4071.132681,9346.365076
59448.848235,5847.626942,-1036.288319,5439.278036
59448.848545,6365.771101,-4663.297435,5592.497135
59448.848855,3478.967927,-9474.636058,3600.648841
59448.849165,-3849.070898,-11029.068536,-1225.752797
59448.849475,-8956.491898,-15544.324782,-5286.058936
59448.849785,-12953.603985,-17690.922014,-7354.516781
59448.850094,-12139.377449,-17172.777854,-6588.421283
59448.850404,-7179.997637,-11621.233289,-6741.640382
59448.850714,-2960.823768,-9548.656652,-1225.752797
59448.851024,592.164754,-7179.997637,4903.011187
59448.851334,5847.626942,-5921.647536,5439.278036
59448.851644,7105.977043,-3034.844362,7354.516781
59448.851954,12361.439231,-4737.318029,9729.412825
59448.852264,5921.647536,-2738.761985,6128.763984
59448.852573,4589.276840,-5403.503377,4290.134789
59448.852883,962.267725,-8586.388927,689.485948
59448.853193,-4589.276840,-12953.603985,-2834.553343
59448.853503,-8364.327145,-15988.448347,-7124.688131
59448.853813,-12435.459826,-16802.674883,-7660.954980
59448.854123,-8290.306550,-13101.645173,-4903.011187
59448.854433,-666.185348,-13027.624579,-383.047749
59448.854743,0.000000,-7772.162391,1532.190996
59448.855052,1480.411884,-5995.668130,4903.011187
59448.855362,8660.409521,-4589.276840,6971.469032
59448.855672,11769.274478,-3849.070898,8503.660028
59448.855982,10288.862594,-2368.659014,7890.783629
59448.856292,7105.977043,-3849.070898,5515.887586
59448.856602,2960.823768,-8512.368333,2834.553343
59448.856912,-2146.597232,-12287.418637,-1225.752797
59448.857222,-7179.997637,-16580.613101,-6205.373534
59448.857531,-13619.789333,-14878.139434,-8580.269578
59448.857841,-7476.080014,-16580.613101,-6205.373534
59448.858151,-1258.350101,-13619.789333,-1915.238745
59448.858461,0.000000,-10732.986159,1608.800546
59448.858771,3627.009116,-8142.265362,4903.011187
59448.859081,7772.162391,-4737.318029,6511.811733
59448.859391,11399.171507,-2442.679609,8580.269578
59448.859701,10807.006753,-296.082377,7660.954980
59448.860011,7402.059420,-666.185348,3830.477490
59448.860320,3552.988522,-7328.038826,4903.011187
59448.860630,-1258.350101,-10362.883188,-1915.238745
59448.860940,-9474.636058,-14582.057057,-7354.516781
59448.861250,-13619.789333,-16654.633695,-8120.612279
59448.861560,-11325.150913,-14952.160028,-8656.879127
59448.861870,-8882.471304,-14878.139434,-5362.668486
59448.862180,-2590.720797,-10881.027347,-919.314598
59448.862490,-740.205942,-10288.862594,2834.553343
59448.862799,5033.400406,-7402.059420,6435.202183
59448.863109,10584.944971,-5921.647536,9729.412825
59448.863419,8364.327145,-74.020594,7584.345430
59448.863729,10658.965565,-962.267725,9806.022374
59448.864039,5699.585753,-2368.659014,4213.525239
59448.864349,-1258.350101,-6883.915261,-1608.800546
59448.864659,-8290.306550,-12805.562797,-3983.696590
59448.864969,-12509.480420,-17690.922014,-7584.345430
59448.865278,-12731.542202,-17172.777854,-8044.002729
59448.865588,-9918.759623,-15100.201217,-5669.106685
59448.865898,-6957.935855,-10732.986159,-3830.477490
59448.866208,-5625.565159,-11917.315666,612.876398
59448.866518,2368.659014,-7772.162391,5515.887586
59448.866828,9400.615463,-4737.318029,8503.660028
59448.867138,9474.636058,-74.020594,9806.022374
59448.867448,10362.883188,-1110.308913,10418.898773
59448.867757,7920.203579,-2294.638420,6281.983084
59448.868067,814.226536,-5107.421000,229.828649
59448.868377,-6809.894666,-10955.047942,-3064.381992
59448.868687,-12879.583391,-15470.304188,-8350.440928
59448.868997,-11917.315666,-17616.901420,-7431.126331
59448.869307,-7772.162391,-16580.613101,-6818.249932
59448.869617,-8956.491898,-12435.459826,-5592.497135
59448.869927,-5921.647536,-10732.986159,0.000000
59448.870236,2294.638420,-10066.800811,3294.210641
59448.870546,7105.977043,-2442.679609,5745.716235
59448.870856,10955.047942,-3034.844362,10418.898773
59448.871166,13323.706956,-740.205942,10342.289223
59448.871476,12213.398043,-2368.659014,9729.412825
59448.871786,7031.956449,-5625.565159,5439.278036
59448.872096,-3552.988522,-7772.162391,-2528.115143
59448.872406,-12435.459826,-13101.645173,-7354.516781
59448.872715,-11695.253884,-17616.901420,-7201.297681
59448.873025,-9844.739029,-15100.201217,-9882.631924
59448.873335,-10658.965565,-15618.345376,-6128.763984
59448.873645,-4811.338623,-15766.386565,-1685.410096
59448.873955,814.226536,-9770.718434,2374.896044
59448.874265,6217.729913,-5773.606348,6741.640382
59448.874575,11399.171507,-1924.535449,8273.831378
59448.874885,11251.130318,-666.185348,8273.831378
59448.875194,15026.180623,-1998.556043,11031.775171
59448.875504,11177.109724,-5921.647536,4826.401637
59448.875814,-2368.659014,-5995.668130,-2451.505594
59448.876124,-7105.977043,-13693.809927,-3064.381992
59448.876434,-11917.315666,-18579.169144,-6128.763984
59448.876744,-10066.800811,-13397.727550,-9806.022374
59448.877054,-8068.244768,-15174.221811,-5898.935335
59448.877364,-5625.565159,-14285.974681,-2374.896044
59448.877674,-1776.494261,-11695.253884,1838.629195
59448.877983,4663.297435,-9474.636058,6665.030833
59448.878293,7328.038826,-2294.638420,6588.421283
59448.878603,9474.636058,-1850.514855,10112.460574
59448.878913,13841.851115,0.000000,10955.165621
59448.879223,6513.812290,-74.020594,5209.449386
59448.879533,3701.029710,-5033.400406,-76.609550
59448.879843,-4811.338623,-11843.295072,-3140.991542
59448.880153,-11917.315666,-14804.118840,-7277.907231
59448.880462,-12287.418637,-17838.963202,-9882.631924
59448.880772,-11621.233289,-17764.942608,-8656.879127
59448.881082,-14211.954086,-15470.304188,-7048.078582
59448.881392,-4219.173869,-15692.365970,1532.190996
59448.881702,2294.638420,-10658.965565,2987.772442
59448.882012,6513.812290,-4811.338623,6128.763984
59448.882322,13545.768739,-7105.977043,14019.547613
59448.882632,14137.933492,-444.123565,12793.794817
59448.882941,12435.459826,3478.967927,9806.022374
59448.883251,5699.585753,-3330.926739,4290.134789
59448.883561,-4367.215058,-7624.121203,-2374.896044
59448.883871,-11843.295072,-14137.933492,-6894.859482
59448.884181,-10732.986159,-16580.613101,-7431.126331
59448.884491,-13767.830521,-14582.057057,-11031.775171
59448.884801,-13915.871710,-17246.798449,-6128.763984
59448.885111,-7772.162391,-14211.954086,-2528.115143
59448.885420,0.000000,-10732.986159,2451.505594
59448.885730,6735.874072,-8586.388927,6971.469032
59448.886040,12657.521608,-4737.318029,13406.671215
59448.886350,13545.768739,74.020594,11261.603821
59448.886660,13915.871710,3775.050304,10189.070123
59448.886970,7105.977043,-2738.761985,4596.572988
59448.887280,-4737.318029,-7179.997637,0.000000
59448.887590,-9548.656652,-13545.768739,-6358.592633
59448.887899,-13619.789333,-15988.448347,-9576.193725
59448.888209,-13027.624579,-16654.633695,-9806.022374
59448.888519,-11917.315666,-18949.272115,-6205.373534
59448.888829,-9992.780217,-15914.427753,-2451.505594
59448.889139,0.000000,-9844.739029,1378.971896
59448.889449,6439.791695,-10658.965565,7354.516781
59448.889759,11103.089130,-4737.318029,11874.480219
59448.890069,14730.098246,-1184.329507,12793.794817
59448.890378,17690.922014,2960.823768,10955.165621
59448.890688,10955.047942,1554.432478,4443.353888
59448.890998,296.082377,-8068.244768,2374.896044
59448.891308,-9844.739029,-9178.553681,-7431.126331
59448.891618,-11251.130318,-15692.365970,-7354.516781
59448.891928,-13841.851115,-14359.995275,-12180.918418
59448.892238,-12805.562797,-17468.860231,-9882.631924
59448.892548,-11177.109724,-15988.448347,-5439.278036
59448.892857,-3034.844362,-13841.851115,-229.828649
59448.893167,4515.256246,-9548.656652,4060.306139
59448.893477,9474.636058,-7772.162391,11338.213370
59448.893787,13693.809927,-3997.112087,12180.918418
59448.894097,16580.613101,1776.494261,12027.699319
59448.894407,14285.974681,222.061783,9806.022374
59448.894717,4811.338623,-4515.256246,1072.533697
59448.895027,-7179.997637,-7698.141797,-5362.668486
59448.895337,-10066.800811,-11843.295072,-8044.002729
59448.895646,-13027.624579,-14878.139434,-8580.269578
59448.895956,-12213.398043,-18357.107362,-9882.631924
59448.896266,-13027.624579,-15766.386565,-7354.516781
59448.896576,-8290.306550,-14285.974681,-3064.381992
59448.896886,1998.556043,-10955.047942,2834.553343
59448.897196,6809.894666,-9104.533087,7354.516781
59448.897506,11769.274478,-5625.565159,11568.042020
59448.897816,14285.974681,-1776.494261,12104.308868
59448.898125,16506.592507,1776.494261,9729.412825
59448.898435,8586.388927,-2442.679609,3907.087040
59448.898745,-4737.318029,-8364.327145,-1225.752797
59448.899055,-9548.656652,-11251.130318,-6818.249932
59448.899365,-13619.789333,-14878.139434,-9499.584175
59448.899675,-13323.706956,-16210.510130,-10418.898773
59448.899985,-13989.892304,-17172.777854,-7737.564530
59448.900295,-9844.739029,-14285.974681,-5209.449386
59448.900604,0.000000,-11843.295072,842.705048
59448.900914,7328.038826,-8956.491898,7507.735880
59448.901224,12953.603985,-6513.812290,12180.918418
59448.901534,14359.995275,-74.020594,10418.898773
59448.901844,16580.613101,1110.308913,12257.527968
59448.902154,11177.109724,-2072.576638,7277.907231
59448.902464,-1702.473667,-4811.338623,-1225.752797
59448.902774,-10288.862594,-7179.997637,-4903.011187
59448.903083,-12583.501014,-14730.098246,-9039.926876
59448.903393,-13397.727550,-15840.407159,-9729.412825
59448.903703,-14582.057057,-16950.716072,-9576.193725
59448.904013,-12731.542202,-14730.098246,-5745.716235
59448.904323,-2442.679609,-14211.954086,-76.609550
59448.904633,5255.462188,-9474.636058,6665.030833
59448.904943,7105.977043,-3627.009116,8273.831378
59448.905253,14211.954086,-1258.350101,12563.966167
59448.905562,15914.427753,592.164754,11874.480219
59448.905872,11029.068536,-74.020594,7967.393179
59448.906182,2960.823768,-5403.503377,2145.067394
59448.906492,-5995.668130,-9030.512492,-2911.162892
59448.906802,-10288.862594,-12361.439231,-7737.564530
59448.907112,-11325.150913,-16802.674883,-7277.907231
59448.907422,-11991.336260,-18949.272115,-8044.002729
59448.907732,-13101.645173,-16284.530724,-6205.373534
59448.908041,-9030.512492,-11917.315666,-4213.525239
59448.908351,2664.741391,-10436.903782,4903.011187
59448.908661,8808.450710,-9474.636058,9269.755526
59448.908971,14137.933492,0.000000,9806.022374
59448.909281,15692.365970,3330.926739,11797.870669
59448.909591,13841.851115,2738.761985,10112.460574
59448.909901,7105.977043,-1998.556043,2911.162892
59448.910211,-4145.153275,-6143.709319,-1302.362347
59448.910520,-9474.636058,-11029.068536,-6435.202183
59448.910830,-11325.150913,-16580.613101,-6511.811733
59448.911140,-15100.201217,-16062.468941,-12257.527968
59448.911450,-11843.295072,-16654.633695,-6435.202183
59448.911760,-7179.997637,-15100.201217,-3447.429741
59448.912070,2294.638420,-12139.377449,536.266849
59448.912380,6217.729913,-10066.800811,8733.488677
59448.912690,12583.501014,-4367.215058,11338.213370
59448.913000,14508.036463,0.000000,12180.918418
59448.913309,15174.221811,2664.741391,11261.603821
59448.913619,10658.965565,-666.185348,6435.202183
59448.913929,1110.308913,-9474.636058,-76.609550
59448.914239,-5995.668130,-5551.544565,-7431.126331
59448.914549,-10066.800811,-13397.727550,-7967.393179
59448.914859,-13101.645173,-18357.107362,-8963.317327
59448.915168,-12213.398043,-20059.581028,-8656.879127
59448.915478,-11843.295072,-18431.127956,-5592.497135
59448.915788,-2664.741391,-14582.057057,-995.924147
59448.916098,4071.132681,-11621.233289,6052.154434
59448.916407,9474.636058,-8660.409521,12257.527968
59448.916717,13027.624579,-74.020594,11644.651570
59448.917027,14211.954086,3627.009116,8810.098227
59448.917336,8586.388927,0.000000,6128.763984
59448.917646,3478.967927,-4737.318029,-76.609550
59448.917956,-7105.977043,-7179.997637,-4136.915689
59448.918266,-9474.636058,-11029.068536,-9039.926876
59448.918575,-12805.562797,-15396.283594,-8350.440928
59448.918885,-13619.789333,-14582.057057,-10189.070123
59448.919195,-11251.130318,-14730.098246,-7660.954980
59448.919504,-6365.771101,-13471.748144,-76.609550
59448.919814,2960.823768,-11325.150913,4903.011187
59448.920124,10510.924376,-8882.471304,11261.603821
59448.920434,14137.933492,-888.247130,9729.412825
59448.920743,14211.954086,5699.585753,8886.707777
59448.921053,9622.677246,-3404.947333,10189.070123
59448.921363,4071.132681,-4737.318029,2987.772442
59448.921673,-3108.864956,-5551.544565,-766.095498
59448.921982,-7920.203579,-7698.141797,-6205.373534
59448.922292,-11917.315666,-12583.501014,-9422.974625
59448.922602,-15470.304188,-18801.230927,-7354.516781
59448.922911,-13619.789333,-15470.304188,-7967.393179
59448.923221,-9474.636058,-16654.633695,-2911.162892
59448.923531,-1554.432478,-14211.954086,1762.019645
59448.923841,3627.009116,-8512.368333,6128.763984
59448.924150,10955.047942,-5107.421000,11644.651570
59448.924460,16506.592507,-1184.329507,12793.794817
59448.924770,11177.109724,-74.020594,9039.926876
59448.925080,7402.059420,-6217.729913,7507.735880
59448.925389,74.020594,-7402.059420,-612.876398
59448.925699,-6587.832884,-9844.739029,-5515.887586
59448.926009,-13027.624579,-13101.645173,-7967.393179
59448.926318,-14211.954086,-16654.633695,-9193.145976
59448.926628,-11325.150913,-16580.613101,-8044.002729
59448.926938,-11843.295072,-13101.645173,-7354.516781
59448.927248,-4145.153275,-14582.057057,766.095498
59448.927557,4737.318029,-12435.459826,9422.974625
59448.927867,11917.315666,-3775.050304,11108.384721
59448.928177,15248.242405,2812.782580,11414.822920
59448.928486,12583.501014,-370.102971,10725.336972
59448.928796,8216.285956,-666.185348,2757.943793
59448.929106,444.123565,-2442.679609,-3064.381992
59448.929416,-7105.977043,-7179.997637,-3677.258390
59448.929725,-5995.668130,-12731.542202,-5669.106685
59448.930035,-12213.398043,-14508.036463,-9269.755526
59448.930345,-12731.542202,-16210.510130,-9729.412825
59448.930655,-11103.089130,-17172.777854,-5898.935335
59448.930964,-4811.338623,-15692.365970,-2068.457845
59448.931274,3034.844362,-11621.233289,4136.915689
59448.931584,9474.636058,-8808.450710,9499.584175
59448.931893,13841.851115,-74.020594,10112.460574
59448.932203,11473.192101,2368.659014,8197.221829
59448.932513,9400.615463,-148.041188,8503.660028
59448.932823,5329.482782,-74.020594,0.000000
59448.933132,-2146.597232,-7031.956449,-919.314598
59448.933442,-7179.997637,-9474.636058,-4979.620737
59448.933752,-10955.047942,-14878.139434,-7048.078582
59448.934062,-11917.315666,-17320.819043,-8427.050478
59448.934371,-11029.068536,-16210.510130,-8044.002729
59448.934681,-8142.265362,-17246.798449,-4903.011187
59448.934991,-2072.576638,-12435.459826,1149.143247
59448.935300,9400.615463,-5847.626942,7507.735880
59448.935610,13841.851115,-2368.659014,9729.412825
59448.935920,11843.295072,1998.556043,8580.269578
59448.936230,11769.274478,-3552.988522,9729.412825
59448.936539,7105.977043,-962.267725,4826.401637
59448.936849,-3849.070898,-4811.338623,-2451.505594
59448.937159,-4293.194464,-7772.162391,-5286.058936
59448.937468,-8808.450710,-13471.748144,-6205.373534
59448.937778,-12509.480420,-15914.427753,-7660.954980
59448.938088,-12509.480420,-15988.448347,-7737.564530
59448.938398,-8364.327145,-16580.613101,-4979.620737
59448.938707,-5995.668130,-10362.883188,-842.705048
59448.939017,3552.988522,-4811.338623,4903.011187
59448.939327,12361.439231,-3552.988522,11568.042020
59448.939637,10510.924376,2368.659014,10418.898773
59448.939946,9474.636058,5847.626942,7354.516781
59448.940256,5921.647536,-888.247130,5669.106685
59448.940566,814.226536,-740.205942,-383.047749
59448.940875,-4589.276840,-6291.750507,-3140.991542
59448.941185,-9696.697840,-11843.295072,-4979.620737
59448.941495,-10140.821405,-15100.201217,-6511.811733
59448.941805,-10732.986159,-16284.530724,-9882.631924
59448.942114,-12213.398043,-13693.809927,-7354.516781
59448.942424,-5773.606348,-13101.645173,0.000000
59448.942734,4515.256246,-10066.800811,4903.011187
59448.943044,9030.512492,-2442.679609,7890.783629
59448.943353,11843.295072,444.123565,10725.336972
59448.943663,12139.377449,1184.329507,8963.317327
59448.943973,8808.450710,-222.061783,7048.078582
59448.944282,4663.297435,-4145.153275,2374.896044
59448.944592,-2072.576638,-6735.874072,-3064.381992
59448.944902,-5403.503377,-10658.965565,-3140.991542
59448.945212,-9548.656652,-13619.789333,-7431.126331
59448.945521,-11843.295072,-15470.304188,-9806.022374
59448.945831,-11251.130318,-20207.622217,-6741.640382
59448.946141,-7772.162391,-17172.777854,-3140.991542
59448.946450,296.082377,-12509.480420,1991.848295
59448.946760,7105.977043,-7772.162391,6588.421283
59448.947070,10881.027347,-3552.988522,9193.145976
59448.947380,12139.377449,-3627.009116,11031.775171
59448.947689,9474.636058,-3330.926739,7124.688131
59448.947999,4737.318029,-3034.844362,3677.258390
59448.948309,-74.020594,-8290.306550,-76.609550
59448.948619,-4737.318029,-11325.150913,0.000000
59448.948928,-4811.338623,-10436.903782,-6511.811733
59448.949238,-9548.656652,-13619.789333,-8656.879127
59448.949548,-11843.295072,-17838.963202,-6741.640382
59448.949857,-8068.244768,-18135.045579,-3370.820191
59448.950167,-1628.453072,-13767.830521,2298.286494
59448.950477,5329.482782,-7772.162391,6128.763984
59448.950787,9474.636058,-4811.338623,9729.412825
59448.951096,9474.636058,-666.185348,7967.393179
59448.951406,12361.439231,-2886.803174,9729.412825
59448.951716,5107.421000,-1480.411884,2374.896044
59448.952026,-1184.329507,-3182.885551,-1378.971896
59448.952335,-2442.679609,-9474.636058,-3447.429741
59448.952645,-7476.080014,-12065.356855,-5362.668486
59448.952955,-9918.759623,-14730.098246,-8044.002729
59448.953264,-11695.253884,-17098.757260,-7354.516781
59448.953574,-9474.636058,-16062.468941,-5975.544884
59448.953884,-2368.659014,-13323.706956,1762.019645
59448.954194,4737.318029,-7772.162391,4903.011187
59448.954503,10066.800811,-6883.915261,9959.241474
59448.954813,10584.944971,-3849.070898,8503.660028
59448.955123,9474.636058,-2368.659014,8503.660028
59448.955432,8216.285956,-6217.729913,6665.030833
59448.955742,1702.473667,-5329.482782,536.266849
59448.956052,-2442.679609,-6291.750507,-2068.457845
59448.956362,-5033.400406,-9844.739029,-3217.601092
59448.956671,-10362.883188,-11029.068536,-6818.249932
59448.956981,-13915.871710,-14656.077652,-3753.867940
59448.957291,-13027.624579,-16654.633695,-7354.516781
59448.957601,-6513.812290,-15470.304188,-2451.505594
59448.957910,-74.020594,-11843.295072,3600.648841
59448.958220,8290.306550,-7698.141797,7890.783629
59448.958530,9178.553681,-7031.956449,9806.022374
59448.958839,9400.615463,-3849.070898,8044.002729
59448.959149,7920.203579,-3034.844362,5975.544884
59448.959459,3552.988522,-4589.276840,2757.943793
59448.959769,-666.185348,-4589.276840,-229.828649
59448.960078,-5403.503377,-9474.636058,-689.485948
59448.960388,-8586.388927,-9844.739029,-6052.154434
59448.960698,-10362.883188,-14878.139434,-5822.325785
59448.961008,-10732.986159,-18949.272115,-4979.620737
59448.961317,-5995.668130,-14804.118840,-1915.238745
59448.961627,0.000000,-10140.821405,1838.629195
59448.961937,5033.400406,-7846.182985,5745.716235
59448.962246,5625.565159,-4737.318029,6358.592633
59448.962556,7402.059420,-4589.276840,7507.735880
59448.962866,6439.791695,-3256.906145,4826.401637
59448.963176,4071.132681,-5921.647536,6052.154434
59448.963485,0.000000,-2442.679609,0.000000
59448.963795,-962.267725,-7476.080014,1149.143247
59448.964105,-4219.173869,-9474.636058,-2528.115143
59448.964414,-7402.059420,-11917.315666,-4903.011187
59448.964724,-11843.295072,-14878.139434,-7048.078582
59448.965034,-8956.491898,-16950.716072,-3753.867940
59448.965344,-2442.679609,-13397.727550,229.828649
59448.965653,2886.803174,-11177.109724,3753.867940
59448.965963,5847.626942,-9474.636058,6052.154434
59448.966273,9104.533087,-7698.141797,7584.345430
59448.966583,8216.285956,-3552.988522,4826.401637
59448.966892,3552.988522,-1850.514855,3983.696590
59448.967202,5847.626942,-8290.306550,6052.154434
59448.967512,1184.329507,-4811.338623,1838.629195
59448.967821,-4071.132681,-7179.997637,-2145.067394
59448.968131,-6661.853478,-12213.398043,-4749.792088
59448.968441,-11325.150913,-15396.283594,-6741.640382
59448.968751,-10066.800811,-17987.004391,-4596.572988
59448.969060,-1850.514855,-13915.871710,-1302.362347
59448.969370,592.164754,-11029.068536,919.314598
59448.969680,6439.791695,-9474.636058,6665.030833
59448.969990,4811.338623,-4885.359217,4519.963438
59448.970299,4737.318029,-2442.679609,4903.011187
59448.970609,4737.318029,-1850.514855,2451.505594
59448.970919,2886.803174,-3404.947333,2374.896044
59448.971228,2516.700203,-4811.338623,1532.190996
59448.971538,-222.061783,-6883.915261,-612.876398
59448.971848,-3923.091493,-11251.130318,-3447.429741
59448.972158,-7105.977043,-14878.139434,-4903.011187
59448.972467,-8586.388927,-16062.468941,-5669.106685
59448.972777,-2738.761985,-16580.613101,-1608.800546
59448.973087,-74.020594,-12139.377449,-76.609550
59448.973396,0.000000,-9548.656652,2451.505594
59448.973706,3256.906145,-7179.997637,3677.258390
59448.974016,7920.203579,-5773.606348,5439.278036
59448.974326,5773.606348,-3775.050304,4979.620737
59448.974635,4737.318029,-2590.720797,4673.182538
59448.974945,4959.379811,-3775.050304,3830.477490
59448.975255,1184.329507,-4811.338623,1225.752797
59448.975565,-5921.647536,-7772.162391,-3370.820191
59448.975874,-7624.121203,-14656.077652,-3983.696590
59448.976184,-10436.903782,-15840.407159,-6665.030833
59448.976494,-9474.636058,-14285.974681,-4903.011187
59448.976803,-3627.009116,-12435.459826,-2221.676944
59448.977113,-74.020594,-13027.624579,2374.896044
59448.977423,1924.535449,-9326.594869,3983.696590
59448.977733,4959.379811,-5921.647536,5056.230287
59448.978042,4737.318029,-4145.153275,5669.106685
59448.978352,2960.823768,-2442.679609,3830.477490
59448.978662,5107.421000,-2072.576638,4519.963438
59448.978972,1776.494261,-4811.338623,3064.381992
59448.979281,-666.185348,-8142.265362,-689.485948
59448.979591,-8882.471304,-9548.656652,-4903.011187
59448.979901,-7772.162391,-15988.448347,-4979.620737
59448.980210,-5403.503377,-15692.365970,-2987.772442
59448.980520,-3627.009116,-13323.706956,-1991.848295
59448.980830,-2368.659014,-12139.377449,842.705048
59448.981140,-296.082377,-10955.047942,2911.162892
59448.981449,1258.350101,-7328.038826,2987.772442
59448.981759,4515.256246,-5921.647536,4213.525239
59448.982069,1776.494261,-2442.679609,3677.258390
59448.982378,6587.832884,-4589.276840,6665.030833
59448.982688,2886.803174,-814.226536,2068.457845
59448.982998,1554.432478,-8290.306550,2374.896044
59448.983308,-4219.173869,-10584.944971,-1378.971896
59448.983617,-8512.368333,-15100.201217,-4060.306139
59448.983927,-7624.121203,-14878.139434,-4826.401637
59448.984237,-4737.318029,-13989.892304,-3140.991542
59448.984547,-3330.926739,-12139.377449,-76.609550
59448.984856,-814.226536,-11843.295072,2604.724693
59448.985166,1850.514855,-8438.347739,2681.334243
59448.985476,2960.823768,-5403.503377,4290.134789
59448.985785,5847.626942,-5921.647536,4826.401637
59448.986095,6735.874072,-4737.318029,7277.907231
59448.986405,6217.729913,-2442.679609,4903.011187
59448.986715,2590.720797,-5551.544565,2374.896044
59448.987024,-2664.741391,-8882.471304,-1685.410096
59448.987334,-5995.668130,-12953.603985,-3677.258390
59448.987644,-4811.338623,-15100.201217,-4366.744339
59448.987954,-3849.070898,-13693.809927,-3983.696590
59448.988263,-4515.256246,-13101.645173,-3600.648841
59448.988573,-3552.988522,-12509.480420,0.000000
59448.988883,2886.803174,-14211.954086,3600.648841
59448.989192,4145.153275,-8660.409521,4826.401637
59448.989502,3108.864956,-4811.338623,3907.087040
59448.989812,6735.874072,-4145.153275,5669.106685
59448.990122,7550.100608,-2886.803174,5439.278036
59448.990431,4367.215058,-4145.153275,3830.477490
59448.990741,-74.020594,-8290.306550,-76.609550
59448.991051,-3552.988522,-10881.027347,-1225.752797
59448.991360,-4367.215058,-12509.480420,-3140.991542
59448.991670,-3849.070898,-13397.727550,-1838.629195
59448.991980,-1554.432478,-14211.954086,-2528.115143
59448.992290,-1554.432478,-15100.201217,1149.143247
59448.992599,-2368.659014,-11325.150913,0.000000
59448.992909,74.020594,-10362.883188,1455.581446
59448.993219,296.082377,-7105.977043,2145.067394
59448.993529,4293.194464,-4811.338623,4443.353888
59448.993838,8216.285956,-4589.276840,5209.449386
59448.994148,4737.318029,-2738.761985,5209.449386
59448.994458,518.144159,-5477.523971,536.266849
59448.994767,-2368.659014,-7920.203579,0.000000
59448.995077,-1850.514855,-11251.130318,-2528.115143
59448.995387,-2960.823768,-13989.892304,-383.047749
59448.995697,-6513.812290,-13693.809927,-2451.505594
59448.996006,-4663.297435,-14804.118840,-1915.238745
59448.996316,-3256.906145,-12287.418637,-536.266849
59448.996626,-1480.411884,-10510.924376,919.314598
59448.996936,-370.102971,-9178.553681,2068.457845
59448.997245,1184.329507,-5107.421000,3064.381992
59448.997555,6143.709319,-4737.318029,4213.525239
59448.997865,4145.153275,-2442.679609,4903.011187
59448.998174,4663.297435,-7105.977043,4213.525239
59448.998484,-1184.329507,-7846.182985,919.314598
59448.998794,-1480.411884,-11177.109724,612.876398
59448.999104,-2590.720797,-12435.459826,-1149.143247
59448.999413,-3849.070898,-12509.480420,-2374.896044
59448.999723,-5329.482782,-14137.933492,-1378.971896
59449.000033,-3627.009116,-11843.295072,-1608.800546
59449.000342,-1850.514855,-12731.542202,-76.609550
59449.000652,-2590.720797,-8808.450710,536.266849
59449.000962,0.000000,-5403.503377,0.000000
59449.001272,7624.121203,-6513.812290,7277.907231
59449.001581,7920.203579,-5625.565159,7277.907231
59449.001891,1184.329507,-4219.173869,3064.381992
59449.002201,-222.061783,-6883.915261,1762.019645
59449.002511,-1480.411884,-9474.636058,-153.219100
59449.002820,-2146.597232,-11547.212695,-1302.362347
59449.003130,-3330.926739,-14211.954086,-2374.896044
59449.003440,-3627.009116,-15988.448347,-1608.800546
59449.003749,-5699.585753,-12583.501014,-3294.210641
59449.004059,-3256.906145,-11029.068536,-2451.505594
59449.004369,-222.061783,-12583.501014,2987.772442
59449.004679,1184.329507,-8068.244768,4290.134789
59449.004988,3552.988522,-3923.091493,3677.258390
59449.005298,7550.100608,-3701.029710,6128.763984
59449.005608,4737.318029,-3478.967927,4826.401637
59449.005918,148.041188,-6513.812290,2221.676944
59449.006227,2294.638420,-9474.636058,1991.848295
59449.006537,3108.864956,-10658.965565,2221.676944
59449.006847,-74.020594,-12435.459826,-689.485948
59449.007156,-4145.153275,-11917.315666,-2451.505594
59449.007466,-4811.338623,-17764.942608,-383.047749
59449.007776,-4145.153275,-11917.315666,-3064.381992
59449.008086,-4219.173869,-11917.315666,-2451.505594
59449.008395,-2960.823768,-9104.533087,766.095498
59449.008705,2368.659014,-6069.688724,2451.505594
59449.009015,6661.853478,-3923.091493,5132.839837
59449.009324,7179.997637,-4219.173869,5515.887586
59449.009634,3552.988522,-5995.668130,4596.572988
59449.009944,3182.885551,-6957.935855,1149.143247
59449.010254,1184.329507,-8956.491898,2451.505594
59449.010563,-74.020594,-9474.636058,-1915.238745
59449.010873,-5921.647536,-10732.986159,-2451.505594
59449.011183,-4811.338623,-12879.583391,-3217.601092
59449.011493,-4885.359217,-14137.933492,-3140.991542
59449.011802,-4293.194464,-13397.727550,-2451.505594
59449.012112,-3849.070898,-10955.047942,-459.657299
59449.012422,1184.329507,-6735.874072,2604.724693
59449.012731,5329.482782,-3627.009116,4903.011187
59449.013041,7624.121203,-4737.318029,6665.030833
59449.013351,3775.050304,-1850.514855,1302.362347
59449.013661,2368.659014,-4811.338623,3677.258390
59449.013970,962.267725,-5995.668130,612.876398
59449.014280,-74.020594,-9474.636058,-76.609550
59449.014590,-3627.009116,-12065.356855,-1915.238745
59449.014900,-5107.421000,-14211.954086,-2987.772442
59449.015209,-6809.894666,-14137.933492,-3677.258390
59449.015519,-8882.471304,-14285.974681,-3907.087040
59449.015829,-6587.832884,-13249.686362,-1915.238745
59449.016139,-2368.659014,-8956.491898,1838.629195
59449.016448,4663.297435,-7105.977043,4826.401637
59449.016758,3701.029710,-1258.350101,4903.011187
59449.017068,4663.297435,-1258.350101,3294.210641
59449.017378,6439.791695,-5181.441594,5822.325785
59449.017687,3923.091493,-5847.626942,2757.943793
59449.017997,1554.432478,-9178.553681,1455.581446
59449.018307,-4145.153275,-11177.109724,-1225.752797
59449.018617,-7105.977043,-13989.892304,-3753.867940
59449.018926,-6365.771101,-15692.365970,-4366.744339
59449.019236,-8290.306550,-14878.139434,-4290.134789
59449.019546,-5995.668130,-15396.283594,-689.485948
59449.019856,-4515.256246,-7772.162391,-995.924147
59449.020165,3478.967927,-5625.565159,2987.772442
59449.020475,5255.462188,-4737.318029,6971.469032
59449.020785,4737.318029,-2886.803174,5745.716235
59449.021095,5625.565159,-3256.906145,5132.839837
59449.021404,5033.400406,-4737.318029,4596.572988
59449.021714,2294.638420,-6587.832884,2068.457845
59449.022024,-370.102971,-10140.821405,-76.609550
59449.022334,-5921.647536,-11917.315666,-3370.820191
59449.022643,-4811.338623,-18357.107362,-1302.362347
59449.022953,-7772.162391,-16580.613101,-5592.497135
59449.023263,-5403.503377,-15988.448347,-3753.867940
59449.023573,-3849.070898,-11843.295072,-766.095498
59449.023882,1850.514855,-7105.977043,1762.019645
59449.024192,4663.297435,-3923.091493,4596.572988
59449.024502,5699.585753,-3256.906145,5822.325785
59449.024812,8216.285956,-3552.988522,6128.763984
59449.025121,7846.182985,-4219.173869,5822.325785
59449.025431,4515.256246,-5033.400406,2757.943793
59449.025741,1776.494261,-10140.821405,3677.258390
59449.026050,-3034.844362,-11843.295072,-1915.238745
59449.026360,-4959.379811,-15988.448347,-2528.115143
59449.026670,-9178.553681,-16358.551318,-5362.668486
59449.026980,-8660.409521,-16284.530724,-5362.668486
59449.027289,-5329.482782,-12213.398043,-2757.943793
59449.027599,296.082377,-8512.368333,459.657299
59449.027909,4515.256246,-5921.647536,4903.011187
59449.028219,5033.400406,-3627.009116,5286.058936
59449.028528,7031.956449,-2960.823768,4826.401637
59449.028838,5921.647536,-2442.679609,4903.011187
59449.029148,9400.615463,-7105.977043,6052.154434
59449.029458,4663.297435,-9474.636058,3524.039291
59449.029767,-1776.494261,-9844.739029,0.000000
59449.030077,-3775.050304,-13545.768739,-1991.848295
59449.030387,-6809.894666,-15988.448347,-4060.306139
59449.030697,-8586.388927,-15544.324782,-4903.011187
59449.031006,-7179.997637,-13471.748144,-3677.258390
59449.031316,-3182.885551,-9696.697840,0.000000
59449.031626,3182.885551,-7994.224174,3600.648841
59449.031936,0.000000,-1258.350101,2451.505594
59449.032245,7031.956449,-5329.482782,6971.469032
59449.032555,7105.977043,-4663.297435,7048.078582
59449.032865,5181.441594,-3627.009116,3983.696590
59449.033175,3330.926739,-6883.915261,2528.115143
59449.033484,-888.247130,-9696.697840,306.438199
59449.033794,-4589.276840,-12657.521608,-2145.067394
59449.034104,-7402.059420,-15174.221811,-4903.011187
59449.034414,-9474.636058,-17838.963202,-4213.525239
59449.034723,-8364.327145,-15100.201217,-3753.867940
59449.035033,-7105.977043,-8364.327145,-3677.258390
59449.035343,2516.700203,-9474.636058,3217.601092
59449.035653,1776.494261,-4811.338623,6128.763984
59449.035962,4737.318029,-2590.720797,5132.839837
59449.036272,7920.203579,-2294.638420,6665.030833
59449.036582,8068.244768,-3552.988522,6741.640382
59449.036892,5255.462188,-5403.503377,4596.572988
59449.037201,296.082377,-7550.100608,153.219100
59449.037511,-4145.153275,-10732.986159,-1225.752797
59449.037821,-5995.668130,-14804.118840,-3140.991542
59449.038131,-12657.521608,-14434.015869,-7737.564530
59449.038440,-11843.295072,-14285.974681,-4903.011187
59449.038750,-7105.977043,-9548.656652,-3370.820191
59449.039060,-1554.432478,-8882.471304,-383.047749
59449.039370,74.020594,-7031.956449,2757.943793
59449.039679,2146.597232,-5477.523971,4673.182538
59449.039989,6957.935855,-3552.988522,5669.106685
59449.040299,8586.388927,-2368.659014,6511.811733
59449.040609,7328.038826,-4959.379811,5975.544884
59449.040918,4737.318029,-7105.977043,5439.278036
59449.041228,1110.308913,-8290.306550,-689.485948
59449.041538,-4737.318029,-12805.562797,-2451.505594
59449.041848,-10955.047942,-15026.180623,-6128.763984
59449.042157,-10436.903782,-17172.777854,-5592.497135
59449.042467,-7328.038826,-13989.892304,-3830.477490
59449.042777,-2072.576638,-9548.656652,-1838.629195
59449.043087,148.041188,-7179.997637,1915.238745
59449.043396,1406.391290,-5329.482782,4213.525239
59449.043706,7031.956449,-4071.132681,5592.497135
59449.044016,9474.636058,-2442.679609,7354.516781
59449.044326,10584.944971,-4737.318029,6665.030833
59449.044635,2664.741391,-3627.009116,2451.505594
59449.044945,222.061783,-7624.121203,0.000000
59449.045255,-3923.091493,-11769.274478,-2068.457845
59449.045565,-8882.471304,-15766.386565,-4673.182538
59449.045874,-11251.130318,-16580.613101,-5975.544884
59449.046184,-8660.409521,-14434.015869,-5592.497135
59449.046494,-2738.761985,-13027.624579,-2528.115143
59449.046804,-666.185348,-9252.574275,1072.533697
59449.047113,0.000000,-5403.503377,0.000000
59449.047423,8660.409521,-7105.977043,7277.907231
59449.047733,9400.615463,-1480.411884,6052.154434
59449.048043,11769.274478,-4145.153275,6052.154434
59449.048352,7402.059420,-5699.585753,6741.640382
59449.048662,4663.297435,-7031.956449,3140.991542
59449.048972,-666.185348,-9696.697840,-919.314598
59449.049282,-9622.677246,-14730.098246,-4136.915689
59449.049591,-11917.315666,-18209.066173,-4979.620737
59449.049901,-10288.862594,-14211.954086,-6511.811733
59449.050211,-8290.306550,-13101.645173,-4903.011187
59449.050521,-74.020594,-11251.130318,2068.457845
59449.050830,-666.185348,-8882.471304,3294.210641
59449.051140,6439.791695,-4737.318029,4826.401637
59449.051450,5921.647536,-2886.803174,6741.640382
59449.051760,9104.533087,-2146.597232,7277.907231
59449.052069,8216.285956,-3108.864956,5745.716235
59449.052379,4515.256246,-5847.626942,4136.915689
59449.052689,2294.638420,-9696.697840,1455.581446
59449.052999,-6513.812290,-14359.995275,-2911.162892
59449.053308,-11917.315666,-14434.015869,-8963.317327
59449.053618,-11843.295072,-16654.633695,-6128.763984
59449.053928,-7179.997637,-15396.283594,-4979.620737
59449.054237,-3182.885551,-13915.871710,-689.485948
59449.054547,-2368.659014,-8364.327145,1685.410096
59449.054857,4293.194464,-5921.647536,5669.106685
59449.055167,8734.430116,-3701.029710,7737.564530
59449.055476,9918.759623,-1628.453072,8580.269578
59449.055786,10066.800811,-2442.679609,9806.022374
59449.056096,6439.791695,-3627.009116,5975.544884
59449.056406,2146.597232,-5255.462188,229.828649
59449.056715,-6513.812290,-11029.068536,-2451.505594
59449.057025,-11917.315666,-17172.777854,-6818.249932
59449.057335,-12139.377449,-18061.024985,-7048.078582
59449.057645,-9622.677246,-15322.262999,-7584.345430
59449.057954,-7772.162391,-14285.974681,-4213.525239
59449.058264,-4589.276840,-12139.377449,536.266849
59449.058574,2220.617826,-8068.244768,4673.182538
59449.058884,7105.977043,-3034.844362,6435.202183
59449.059193,11251.130318,-1554.432478,9193.145976
59449.059503,12953.603985,-3552.988522,11568.042020
59449.059813,7105.977043,-74.020594,6128.763984
59449.060123,7031.956449,-6513.812290,4826.401637
59449.060432,-2368.659014,-10140.821405,-306.438199
59449.060742,-10955.047942,-15026.180623,-5745.716235
59449.061052,-13323.706956,-16210.510130,-9193.145976
59449.061362,-10140.821405,-14804.118840,-8886.707777
59449.061671,-9400.615463,-15692.365970,-5898.935335
59449.061981,-7846.182985,-11917.315666,-2451.505594
59449.062291,296.082377,-8956.491898,3064.381992
59449.062601,9400.615463,-8290.306550,8503.660028
59449.062910,7328.038826,-1406.391290,7048.078582
59449.063220,9474.636058,-1258.350101,9806.022374
59449.063530,9770.718434,-1258.350101,8580.269578
59449.063840,7550.100608,-3849.070898,4519.963438
59449.064149,0.000000,-8512.368333,-995.924147
59449.064459,-8142.265362,-12879.583391,-4519.963438
59449.064769,-11917.315666,-16654.633695,-7431.126331
59449.065079,-10510.924376,-13471.748144,-10878.556072
59449.065388,-9474.636058,-16062.468941,-6741.640382
59449.065698,-7698.141797,-16358.551318,-919.314598
59449.066008,-74.020594,-11251.130318,1762.019645
59449.066318,3552.988522,-5699.585753,4903.011187
59449.066627,8290.306550,-2442.679609,7354.516781
59449.066937,11769.274478,-2516.700203,10495.508323
59449.067247,12583.501014,-1110.308913,9959.241474
59449.067557,9992.780217,-2146.597232,7048.078582
59449.067866,3627.009116,-5329.482782,2298.286494
59449.068176,-4811.338623,-10658.965565,-3753.867940
59449.068486,-14211.954086,-14285.974681,-7354.516781
59449.068796,-13027.624579,-16654.633695,-7354.516781
59449.069105,-9548.656652,-16284.530724,-8044.002729
59449.069415,-10658.965565,-14878.139434,-5515.887586
59449.069725,-5625.565159,-11029.068536,-919.314598
59449.070035,4071.132681,-8216.285956,4060.306139
59449.070344,8216.285956,-5551.544565,7660.954980
59449.070654,9474.636058,-3182.885551,9806.022374
59449.070964,11177.109724,-814.226536,9729.412825
59449.071274,12361.439231,-2960.823768,8503.660028
59449.071583,3552.988522,-3701.029710,2221.676944
59449.071893,-4145.153275,-9548.656652,0.000000
59449.072203,-9548.656652,-15396.283594,-6205.373534
59449.072513,-13619.789333,-14878.139434,-8580.269578
59449.072822,-11029.068536,-14656.077652,-11031.775171
59449.073132,-10066.800811,-16654.633695,-5286.058936
59449.073442,-6217.729913,-14211.954086,-1455.581446
59449.073752,2368.659014,-10436.903782,3677.258390
59449.074061,7920.203579,-6365.771101,7584.345430
59449.074371,10288.862594,-5921.647536,11568.042020
59449.074681,11473.192101,-1184.329507,9729.412825
59449.074991,7698.141797,-74.020594,6128.763984
59449.075300,7179.997637,-6069.688724,5592.497135
59449.075610,-666.185348,-8882.471304,-76.609550
59449.075920,-7772.162391,-13249.686362,-6128.763984
59449.076230,-11843.295072,-14878.139434,-7660.954980
59449.076539,-12139.377449,-15396.283594,-8886.707777
59449.076849,-10584.944971,-16136.489536,-6052.154434
59449.077159,-7476.080014,-14285.974681,-1915.238745
59449.077469,-74.020594,-12435.459826,3140.991542
59449.077778,6439.791695,-8734.430116,6665.030833
59449.078088,7920.203579,-2368.659014,6665.030833
59449.078398,10658.965565,-1258.350101,10112.460574
59449.078708,14137.933492,0.000000,9576.193725
59449.079017,8216.285956,-4145.153275,4213.525239
59449.079327,-1184.329507,-7846.182985,153.219100
59449.079637,-6883.915261,-12583.501014,-3140.991542
59449.079947,-9622.677246,-14508.036463,-7277.907231
59449.080256,-10214.842000,-15174.221811,-7967.393179
59449.080566,-9474.636058,-14285.974681,-6741.640382
59449.080876,-7772.162391,-15988.448347,-2528.115143
59449.081186,-1258.350101,-9474.636058,-1302.362347
59449.081495,3552.988522,-8660.409521,4903.011187
59449.081805,9326.594869,-6513.812290,10112.460574
59449.082115,12065.356855,-2368.659014,12180.918418
59449.082424,13915.871710,814.226536,9959.241474
59449.082734,11177.109724,-1998.556043,6588.421283
59449.083044,2368.659014,-6809.894666,2068.457845
59449.083354,-5107.421000,-10658.965565,-3677.258390
59449.083663,-11251.130318,-14285.974681,-7354.516781
59449.083973,-10436.903782,-15544.324782,-7431.126331
59449.084283,-11029.068536,-15100.201217,-9882.631924
59449.084593,-10658.965565,-14285.974681,-6128.763984
59449.084902,-1332.370696,-12731.542202,-76.609550
59449.085212,3701.029710,-11251.130318,6052.154434
59449.085522,7624.121203,-6513.812290,7890.783629
59449.085832,9918.759623,-2590.720797,10112.460574
59449.086141,13619.789333,222.061783,10112.460574
59449.086451,12287.418637,-74.020594,6128.763984
59449.086761,2960.823768,-2442.679609,2451.505594
59449.087071,-2368.659014,-9548.656652,0.000000
59449.087380,-5995.668130,-15396.283594,-3753.867940
59449.087690,-13619.789333,-11917.315666,-9806.022374
59449.088000,-11399.171507,-14656.077652,-8350.440928
59449.088310,-13323.706956,-17764.942608,-5209.449386
59449.088619,-7476.080014,-12879.583391,-4673.182538
59449.088929,-592.164754,-11843.295072,689.485948
59449.089239,5255.462188,-8216.285956,5669.106685
59449.089549,9474.636058,-3627.009116,8197.221829
59449.089858,10881.027347,-74.020594,7967.393179
59449.090168,13027.624579,2294.638420,7354.516781
59449.090478,9326.594869,-5995.668130,7507.735880
59449.090788,-1554.432478,-6809.894666,-76.609550
59449.091097,-8290.306550,-11621.233289,-2987.772442
59449.091407,-9400.615463,-13693.809927,-5975.544884
59449.091717,-11621.233289,-16210.510130,-8656.879127
59449.092027,-13471.748144,-13693.809927,-7814.174080
59449.092336,-11251.130318,-15174.221811,-4749.792088
59449.092646,-2738.761985,-7772.162391,-995.924147
59449.092956,3478.967927,-6957.935855,2068.457845
59449.093266,6291.750507,-3627.009116,6128.763984
59449.093575,9474.636058,-1258.350101,9806.022374
59449.093885,14730.098246,0.000000,9729.412825
59449.094195,7698.141797,-1258.350101,7277.907231
59449.094505,666.185348,-5995.668130,1225.752797
59449.094814,-5847.626942,-11769.274478,-1532.190996
59449.095124,-8660.409521,-13693.809927,-7048.078582
59449.095434,-10807.006753,-15766.386565,-8656.879127
59449.095744,-12805.562797,-16580.613101,-8044.002729
59449.096053,-7772.162391,-15100.201217,-6205.373534
59449.096363,-4737.318029,-11547.212695,-2834.553343
59449.096673,592.164754,-9548.656652,3677.258390
59449.096983,9400.615463,-9474.636058,10878.556072
59449.097292,11473.192101,-2960.823768,10572.117872
59449.097602,12435.459826,2294.638420,8580.269578
59449.097912,12139.377449,-1258.350101,9116.536426
59449.098222,4367.215058,-4441.235652,3294.210641
59449.098531,-3256.906145,-8734.430116,-306.438199
59449.098841,-6587.832884,-13027.624579,-4979.620737
59449.099151,-8364.327145,-15988.448347,-7431.126331
59449.099461,-12509.480420,-15988.448347,-9882.631924
59449.099770,-13619.789333,-14285.974681,-8580.269578
59449.100080,-5921.647536,-15174.221811,-2145.067394
59449.100390,1702.473667,-11695.253884,1225.752797
59449.100700,4737.318029,-6661.853478,6128.763984
59449.101009,11695.253884,-3923.091493,10112.460574
59449.101319,13693.809927,592.164754,9959.241474
59449.101629,13101.645173,0.000000,10418.898773
59449.101939,9104.533087,-4737.318029,4826.401637
59449.102248,-74.020594,-9474.636058,3600.648841
59449.102558,-5107.421000,-11843.295072,-4979.620737
59449.102868,-11251.130318,-11917.315666,-9806.022374
59449.103178,-11917.315666,-18653.189738,-7584.345430
59449.103487,-11917.315666,-15692.365970,-9499.584175
59449.103797,-8660.409521,-14730.098246,-5592.497135
59449.104107,-2072.576638,-13397.727550,1225.752797
59449.104417,4663.297435,-10288.862594,6511.811733
59449.104726,9770.718434,-5551.544565,11261.603821
59449.105036,15248.242405,0.000000,12257.527968
59449.105346,13619.789333,74.020594,12180.918418
59449.105656,9400.615463,-4145.153275,7277.907231
59449.105965,-1332.370696,-4811.338623,842.705048
59449.106275,-4811.338623,-10362.883188,-1378.971896
59449.106585,-9548.656652,-10140.821405,-9882.631924
59449.106895,-11917.315666,-15396.283594,-9882.631924
59449.107204,-14656.077652,-17098.757260,-9576.193725
59449.107514,-10732.986159,-16802.674883,-7124.688131
59449.107824,-5107.421000,-15396.283594,-1225.752797
59449.108134,1184.329507,-10732.986159,5209.449386
59449.108443,7105.977043,-7476.080014,11644.651570
59449.108753,13619.789333,-1850.514855,13483.280765
59449.109063,15322.262999,0.000000,11568.042020
59449.109372,8290.306550,1702.473667,7354.516781
59449.109682,4885.359217,-2812.782580,3600.648841
59449.109992,-666.185348,-8882.471304,-689.485948
59449.110302,-8290.306550,-11917.315666,-3983.696590
59449.110611,-13545.768739,-14656.077652,-8963.317327
59449.110921,-14878.139434,-17098.757260,-10265.679673
59449.111231,-14211.954086,-16654.633695,-9193.145976
59449.111541,-8882.471304,-14285.974681,-3677.258390
59449.111850,0.000000,-13101.645173,4903.011187
59449.112160,8216.285956,-9474.636058,8503.660028
59449.112470,10658.965565,-1554.432478,10418.898773
59449.112780,14063.912898,0.000000,10955.165621
59449.113089,11769.274478,-1480.411884,9729.412825
59449.113399,6439.791695,-2516.700203,2834.553343
59449.113709,-1258.350101,-7772.162391,229.828649
59449.114019,-5773.606348,-10584.944971,-4213.525239
59449.114328,-11251.130318,-11917.315666,-9806.022374
59449.114638,-16580.613101,-14285.974681,-11031.775171
59449.114948,-14211.954086,-16062.468941,-8580.269578
59449.115258,-6291.750507,-20725.766376,-3753.867940
59449.115567,-2146.597232,-14656.077652,1991.848295
59449.115877,5255.462188,-12953.603985,8197.221829
59449.116187,13175.665768,-5403.503377,11797.870669
59449.116497,15766.386565,592.164754,9959.241474
59449.116806,10658.965565,-444.123565,10418.898773
59449.117116,9104.533087,-2442.679609,5822.325785
59449.117426,1554.432478,-4811.338623,1455.581446
59449.117736,-4811.338623,-8068.244768,-3907.087040
59449.118045,-11251.130318,-9548.656652,-9499.584175
59449.118355,-16580.613101,-15470.304188,-9806.022374
59449.118665,-14211.954086,-16950.716072,-8120.612279
59449.118974,-9548.656652,-21021.848753,-4979.620737
59449.119284,-3923.091493,-17616.901420,-229.828649
59449.119594,2368.659014,-12509.480420,6128.763984
59449.119904,11177.109724,-7550.100608,9576.193725
59449.120213,13545.768739,-1036.288319,10342.289223
59449.120523,9474.636058,2294.638420,6894.859482
59449.120833,7105.977043,-74.020594,4903.011187
59449.121143,1184.329507,-5403.503377,612.876398
59449.121452,-2146.597232,-13471.748144,2068.457845
59449.121762,-7920.203579,-12583.501014,-4979.620737
59449.122072,-7476.080014,-18949.272115,-5286.058936
59449.122381,-12435.459826,-16950.716072,-7967.393179
59449.122691,-12509.480420,-17542.880825,-7431.126331
59449.123001,-5847.626942,-17468.860231,-2681.334243
59449.123311,1036.288319,-16284.530724,5056.230287
59449.123620,7031.956449,-8882.471304,7890.783629
59449.123930,9992.780217,-74.020594,7431.126331
59449.124240,5921.647536,-74.020594,8580.269578
59449.124549,9770.718434,-2664.741391,8886.707777
59449.124859,4367.215058,-4293.194464,2374.896044
59449.125169,-2368.659014,-7179.997637,612.876398
59449.125479,-7105.977043,-8660.409521,-4903.011187
59449.125788,-9252.574275,-15100.201217,-5975.544884
59449.126098,-12287.418637,-16284.530724,-7584.345430
59449.126408,-12435.459826,-15692.365970,-8503.660028
59449.126718,-6291.750507,-17764.942608,-3140.991542
59449.127027,-74.020594,-13619.789333,3600.648841
59449.127337,6439.791695,-8290.306550,5745.716235
59449.127647,7698.141797,-1850.514855,7967.393179
59449.127956,12435.459826,-1702.473667,12180.918418
59449.128266,8882.471304,-1702.473667,8580.269578
59449.128576,4885.359217,-2442.679609,3677.258390
59449.128886,962.267725,-8808.450710,919.314598
59449.129195,-4515.256246,-10658.965565,-2528.115143
59449.129505,-9400.615463,-14211.954086,-5362.668486
59449.129815,-10732.986159,-17764.942608,-4979.620737
59449.130125,-10732.986159,-17764.942608,-6205.373534
59449.130434,-9548.656652,-15988.448347,-6818.249932
59449.130744,-4737.318029,-15470.304188,612.876398
59449.131054,3478.967927,-11843.295072,6052.154434
59449.131363,6513.812290,-2442.679609,6128.763984
59449.131673,9474.636058,1702.473667,8044.002729
59449.131983,9178.553681,-740.205942,7660.954980
59449.132293,6513.812290,-3701.029710,5362.668486
59449.132602,2738.761985,-6661.853478,2451.505594
59449.132912,-518.144159,-11769.274478,2068.457845
59449.133222,-3034.844362,-14211.954086,-1532.190996
59449.133532,-7179.997637,-15988.448347,-6205.373534
59449.133841,-14211.954086,-13101.645173,-9806.022374
59449.134151,-10436.903782,-18949.272115,-4979.620737
59449.134461,-5921.647536,-13101.645173,-3064.381992
59449.134770,3182.885551,-9474.636058,2681.334243
59449.135080,7105.977043,-5107.421000,7201.297681
59449.135390,9178.553681,740.205942,6128.763984
59449.135700,8882.471304,-2146.597232,7814.174080
59449.136009,7698.141797,-4219.173869,8273.831378
59449.136319,3997.112087,-6587.832884,3983.696590
59449.136629,-74.020594,-9474.636058,-76.609550
59449.136938,-5773.606348,-7179.997637,-3677.258390
59449.137248,-6365.771101,-12213.398043,-3677.258390
59449.137558,-10140.821405,-15100.201217,-7431.126331
59449.137868,-10140.821405,-16580.613101,-7431.126331
59449.138177,-7402.059420,-19171.333898,-2221.676944
59449.138487,888.247130,-12805.562797,3600.648841
59449.138797,6217.729913,-7254.018232,5515.887586
59449.139107,9474.636058,-3034.844362,7354.516781
59449.139416,9474.636058,-1258.350101,6128.763984
59449.139726,9844.739029,-5921.647536,8427.050478
59449.140036,3182.885551,-2886.803174,2068.457845
59449.140345,148.041188,-5995.668130,3064.381992
59449.140655,-1258.350101,-8290.306550,-2528.115143
59449.140965,-3627.009116,-12879.583391,-2528.115143
59449.141275,-8290.306550,-13915.871710,-6588.421283
59449.141584,-11399.171507,-15692.365970,-7584.345430
59449.141894,-6957.935855,-16506.592507,-3524.039291
59449.142204,-2368.659014,-11917.315666,612.876398
59449.142514,4737.318029,-5403.503377,2451.505594
59449.142823,7698.141797,-6291.750507,9806.022374
59449.143133,10584.944971,-4737.318029,8503.660028
59449.143443,6513.812290,-2442.679609,4903.011187
59449.143752,6143.709319,-5921.647536,4826.401637
59449.144062,1406.391290,-5773.606348,2145.067394
59449.144372,-1998.556043,-7105.977043,-842.705048
59449.144682,-3552.988522,-9918.759623,-2451.505594
59449.144991,-8364.327145,-13619.789333,-5592.497135
59449.145301,-13249.686362,-12213.398043,-9882.631924
59449.145611,-14211.954086,-15914.427753,-6205.373534
59449.145921,-6513.812290,-11917.315666,-2451.505594
59449.146230,4441.235652,-11177.109724,5209.449386
59449.146540,7031.956449,-2960.823768,4826.401637
59449.146850,9326.594869,-4737.318029,9116.536426
59449.147159,9474.636058,-3182.885551,7660.954980
59449.147469,5773.606348,-4959.379811,6435.202183
59449.147779,1554.432478,-4737.318029,2451.505594
59449.148089,0.000000,-6439.791695,766.095498
59449.148398,-3034.844362,-7698.141797,-2528.115143
59449.148708,-7476.080014,-11843.295072,-3753.867940
59449.149018,-13619.789333,-12213.398043,-9193.145976
59449.149327,-10436.903782,-18357.107362,-6052.154434
59449.149637,-5995.668130,-15396.283594,-3753.867940
59449.149947,592.164754,-13101.645173,3600.648841
59449.150257,2368.659014,-7772.162391,4903.011187
59449.150566,5107.421000,-4737.318029,5898.935335
59449.150876,6587.832884,-5551.544565,6511.811733
59449.151186,5551.544565,-3923.091493,5362.668486
59449.151496,3478.967927,-4737.318029,4213.525239
59449.151805,1702.473667,-4737.318029,-76.609550
59449.152115,-3182.885551,-4811.338623,-2451.505594
59449.152425,-2294.638420,-11547.212695,-995.924147
59449.152734,-8512.368333,-11103.089130,-8044.002729
59449.153044,-11843.295072,-16062.468941,-5515.887586
59449.153354,-7105.977043,-15174.221811,-4673.182538
59449.153664,-518.144159,-14211.954086,76.609550
59449.153973,3182.885551,-10214.842000,3753.867940
59449.154283,5255.462188,-6217.729913,5132.839837
59449.154593,9400.615463,-8882.471304,8503.660028
59449.154903,9400.615463,-8290.306550,8503.660028
59449.155212,2294.638420,-2368.659014,2681.334243
59449.155522,1184.329507,-3627.009116,3983.696590
59449.155832,2294.638420,-5625.565159,-76.609550
59449.156141,-4737.318029,-5403.503377,-2451.505594
59449.156451,-7772.162391,-11103.089130,-6358.592633
59449.156761,-10658.965565,-16062.468941,-6588.421283
59449.157071,-7476.080014,-18135.045579,-4673.182538
59449.157380,-2072.576638,-13989.892304,-766.095498
59449.157690,3997.112087,-12213.398043,3677.258390
59449.158000,6069.688724,-7772.162391,6128.763984
59449.158309,9400.615463,-7105.977043,7277.907231
59449.158619,6661.853478,-4071.132681,5592.497135
59449.158929,6809.894666,-7031.956449,7967.393179
59449.159239,296.082377,-2442.679609,1838.629195
59449.159548,2294.638420,-4737.318029,1455.581446
59449.159858,444.123565,-7031.956449,229.828649
59449.160168,-3997.112087,-10807.006753,-2911.162892
59449.160478,-9326.594869,-13767.830521,-5745.716235
59449.160787,-8216.285956,-16358.551318,-3983.696590
59449.161097,-4737.318029,-14878.139434,-1838.629195
59449.161407,-74.020594,-14211.954086,2068.457845
59449.161716,2294.638420,-10658.965565,3294.210641
59449.162026,592.164754,-4811.338623,2451.505594
59449.162336,5921.647536,-3034.844362,4903.011187
59449.162646,5255.462188,-4737.318029,5745.716235
59449.162955,2738.761985,-2812.782580,3524.039291
59449.163265,3701.029710,-3552.988522,3217.601092
59449.163575,1184.329507,-6217.729913,1915.238745
59449.163885,-4737.318029,-7772.162391,-2451.505594
59449.164194,-11843.295072,-11917.315666,-6741.640382
59449.164504,-7772.162391,-16580.613101,-4979.620737
59449.164814,-6587.832884,-14656.077652,-4673.182538
59449.165123,-3552.988522,-10732.986159,0.000000
59449.165433,2294.638420,-10658.965565,1455.581446
59449.165743,4515.256246,-10066.800811,5439.278036
59449.166053,4737.318029,-7105.977043,4979.620737
59449.166362,4441.235652,-4959.379811,5515.887586
59449.166672,2738.761985,-3627.009116,4596.572988
59449.166982,592.164754,-1258.350101,1532.190996
59449.167292,0.000000,-1850.514855,0.000000
59449.167601,-2072.576638,-7476.080014,0.000000
59449.167911,-5995.668130,-11843.295072,-3753.867940
59449.168221,-9474.636058,-14285.974681,-4290.134789
59449.168530,-5403.503377,-16580.613101,-4979.620737
59449.168840,-4293.194464,-15840.407159,-1608.800546
59449.169150,-1998.556043,-11843.295072,536.266849
59449.169460,888.247130,-10362.883188,2604.724693
59449.169769,3849.070898,-7550.100608,3294.210641
59449.170079,2590.720797,-3849.070898,2068.457845
59449.170389,2294.638420,-2738.761985,2528.115143
59449.170698,5329.482782,-4219.173869,5209.449386
59449.171008,4663.297435,-4737.318029,3600.648841
59449.171318,0.000000,-4811.338623,0.000000
59449.171628,-1554.432478,-13027.624579,-76.609550
59449.171937,-7698.141797,-14285.974681,-3064.381992
59449.172247,-6069.688724,-14656.077652,-3524.039291
59449.172557,-3552.988522,-14063.912898,-2298.286494
59449.172867,-2146.597232,-12361.439231,-153.219100
59449.173176,-74.020594,-10066.800811,2374.896044
59449.173486,4071.132681,-8882.471304,2987.772442
59449.173796,1184.329507,-4811.338623,2451.505594
59449.174105,3552.988522,-4367.215058,6511.811733
59449.174415,5847.626942,-3256.906145,3294.210641
59449.174725,5329.482782,-5329.482782,5286.058936
59449.175035,0.000000,-5107.421000,1225.752797
59449.175344,-2516.700203,-9474.636058,-1685.410096
59449.175654,-6143.709319,-13101.645173,-3294.210641
59449.175964,-5477.523971,-14285.974681,-3677.258390
59449.176274,-2442.679609,-14211.954086,-1915.238745
59449.176583,-1258.350101,-14211.954086,-76.609550
59449.176893,-370.102971,-12435.459826,1149.143247
59449.177203,1776.494261,-7179.997637,1532.190996
59449.177512,5847.626942,-9474.636058,4826.401637
59449.177822,2664.741391,-5995.668130,4903.011187
59449.178132,3256.906145,-4219.173869,4290.134789
59449.178442,6587.832884,-2590.720797,4443.353888
59449.178751,2516.700203,-5329.482782,2834.553343
59449.179061,-1628.453072,-7920.203579,-919.314598
59449.179371,-2738.761985,-14211.954086,-1149.143247
59449.179681,-2442.679609,-16580.613101,-383.047749
59449.179990,-4367.215058,-12361.439231,-4060.306139
59449.180300,-4737.318029,-13249.686362,-1225.752797
59449.180610,-74.020594,-14211.954086,-76.609550
59449.180919,0.000000,-10732.986159,1378.971896
59449.181229,444.123565,-7772.162391,1378.971896
59449.181539,888.247130,-6587.832884,3524.039291
59449.181849,3775.050304,-4145.153275,3907.087040
59449.182158,5847.626942,-3034.844362,4596.572988
59449.182468,4885.359217,-5107.421000,4443.353888
59449.182778,-74.020594,-8586.388927,2374.896044
59449.183087,-2442.679609,-10362.883188,-1302.362347
59449.183397,-4589.276840,-12509.480420,0.000000
59449.183707,-148.041188,-14211.954086,-76.609550
59449.184017,-4737.318029,-10732.986159,-2451.505594
59449.184326,-3923.091493,-12139.377449,-689.485948
59449.184636,-1850.514855,-12065.356855,306.438199
59449.184946,0.000000,-9918.759623,1225.752797
59449.185256,-222.061783,-6661.853478,1762.019645
59449.185565,2960.823768,-4811.338623,3677.258390
59449.185875,7105.977043,-3627.009116,6128.763984
59449.186185,5255.462188,-4737.318029,3907.087040
59449.186494,-1776.494261,-4811.338623,0.000000
59449.186804,-148.041188,-11843.295072,1608.800546
59449.187114,-4737.318029,-10732.986159,-1991.848295
59449.187424,-2146.597232,-12435.459826,-1915.238745
59449.187733,-4219.173869,-12805.562797,-2681.334243
59449.188043,-5329.482782,-13397.727550,-2145.067394
59449.188353,-3701.029710,-13471.748144,-995.924147
59449.188663,-2368.659014,-10732.986159,0.000000
59449.188972,-2368.659014,-7179.997637,306.438199
59449.189282,2590.720797,-7105.977043,4749.792088
59449.189592,7031.956449,-1924.535449,2681.334243
59449.189901,4737.318029,-1850.514855,6128.763984
59449.190211,1110.308913,-3478.967927,1685.410096
59449.190521,-74.020594,-7550.100608,1149.143247
59449.190831,-1332.370696,-10510.924376,0.000000
59449.191140,-2220.617826,-12213.398043,-919.314598
59449.191450,-5107.421000,-12583.501014,-3600.648841
59449.191760,-8290.306550,-12213.398043,-4366.744339
59449.192070,-8142.265362,-12213.398043,-3677.258390
59449.192379,-4441.235652,-12509.480420,0.000000
59449.192689,-74.020594,-14211.954086,3600.648841
59449.192999,0.000000,-4219.173869,689.485948
59449.193308,7031.956449,-3404.947333,3907.087040
59449.193618,7254.018232,-1850.514855,6128.763984
59449.193928,3627.009116,-3552.988522,4366.744339
59449.194238,1332.370696,-6143.709319,1991.848295
59449.194547,-296.082377,-8956.491898,919.314598
59449.194857,-962.267725,-10658.965565,-76.609550
59449.195167,-3034.844362,-11251.130318,-2834.553343
59449.195476,-4737.318029,-13101.645173,-1838.629195
59449.195786,-3034.844362,-15396.283594,-1302.362347
59449.196096,-7105.977043,-11917.315666,-3677.258390
59449.196406,-1258.350101,-13915.871710,-689.485948
59449.196715,-296.082377,-9252.574275,1915.238745
59449.197025,4959.379811,-5699.585753,4136.915689
59449.197335,7476.080014,-3034.844362,5822.325785
59449.197645,5329.482782,-2738.761985,5209.449386
59449.197954,3478.967927,-4441.235652,4213.525239
59449.198264,2294.638420,-7105.977043,2374.896044
59449.198574,0.000000,-7920.203579,0.000000
59449.198883,-74.020594,-14211.954086,-76.609550
59449.199193,-4811.338623,-13619.789333,-3140.991542
59449.199503,-4515.256246,-15840.407159,-2834.553343
59449.199813,-6217.729913,-14582.057057,-4136.915689
59449.200122,-5033.400406,-14063.912898,-2451.505594
59449.200432,-3330.926739,-11547.212695,-536.266849
59449.200742,2738.761985,-6513.812290,2681.334243
59449.201052,8216.285956,-5477.523971,7277.907231
59449.201361,8216.285956,-2368.659014,6052.154434
59449.201671,3552.988522,-1850.514855,3830.477490
59449.201981,3849.070898,-5995.668130,5515.887586
59449.202290,2886.803174,-6513.812290,1608.800546
59449.202600,0.000000,-10881.027347,1302.362347
59449.202910,-4515.256246,-12509.480420,-2068.457845
59449.203220,-7105.977043,-13915.871710,-3600.648841
59449.203529,-7328.038826,-15174.221811,-4290.134789
59449.203839,-7476.080014,-14952.160028,-3753.867940
59449.204149,-3997.112087,-13693.809927,0.000000
59449.204458,2294.638420,-9474.636058,2987.772442
59449.204768,6143.709319,-4737.318029,4826.401637
59449.205078,2368.659014,-74.020594,2757.943793
59449.205388,4737.318029,-3627.009116,5515.887586
59449.205697,4145.153275,-4515.256246,4903.011187
59449.206007,2886.803174,-7105.977043,2681.334243
59449.206317,74.020594,-8956.491898,0.000000
59449.206627,-3849.070898,-11177.109724,-1838.629195
59449.206936,-5995.668130,-14730.098246,-3294.210641
59449.207246,-8290.306550,-15470.304188,-6741.640382
59449.207556,-9178.553681,-16950.716072,-3677.258390
59449.207865,-5403.503377,-15988.448347,-76.609550
59449.208175,-74.020594,-8290.306550,383.047749
59449.208485,3552.988522,-5995.668130,5209.449386
59449.208795,3552.988522,-2442.679609,5822.325785
59449.209104,4959.379811,-2368.659014,5439.278036
59449.209414,5403.503377,-2294.638420,4903.011187
59449.209724,4811.338623,-4885.359217,4519.963438
59449.210034,2294.638420,-7105.977043,2068.457845
59449.210343,-2368.659014,-7920.203579,-1685.410096
59449.210653,-4737.318029,-13101.645173,-1225.752797
59449.210963,-5995.668130,-14211.954086,-4979.620737
59449.211272,-11325.150913,-14285.974681,-8503.660028
59449.211582,-8290.306550,-16654.633695,-3064.381992
59449.211892,-4145.153275,-11917.315666,-1838.629195
59449.212202,3182.885551,-9326.594869,3294.210641
59449.212511,5033.400406,-3997.112087,4826.401637
59449.212821,6439.791695,-2442.679609,6205.373534
59449.213131,7920.203579,-2886.803174,6281.983084
59449.213441,6513.812290,-1850.514855,4979.620737
59449.213750,1184.329507,-3923.091493,2451.505594
59449.214060,-74.020594,-9474.636058,1608.800546
59449.214370,-4737.318029,-8364.327145,-2451.505594
59449.214679,-3923.091493,-16580.613101,-1608.800546
59449.214989,-9548.656652,-14137.933492,-6741.640382
59449.215299,-8808.450710,-17542.880825,-4366.744339
59449.215609,-3849.070898,-14285.974681,-1685.410096
59449.215918,1554.432478,-8956.491898,1915.238745
59449.216228,4441.235652,-4663.297435,4519.963438
59449.216538,5255.462188,-3256.906145,4826.401637
59449.216848,6883.915261,-1258.350101,4060.306139
59449.217157,8290.306550,-4219.173869,7354.516781
59449.217467,5847.626942,-4737.318029,3600.648841
59449.217777,0.000000,-7179.997637,1225.752797
59449.218086,-1850.514855,-11547.212695,-1225.752797
59449.218396,-4737.318029,-14878.139434,-1991.848295
59449.218706,-8734.430116,-15174.221811,-5209.449386
59449.219016,-9400.615463,-16136.489536,-4443.353888
59449.219325,-3627.009116,-13249.686362,-1302.362347
59449.219635,-74.020594,-10658.965565,1762.019645
59449.219945,592.164754,-3627.009116,1838.629195
59449.220255,3849.070898,-5921.647536,7277.907231
59449.220564,4663.297435,-1628.453072,2987.772442
59449.220874,4737.318029,-2442.679609,4903.011187
59449.221184,4663.297435,-5329.482782,3600.648841
59449.221493,1184.329507,-5403.503377,2451.505594
59449.221803,-1554.432478,-8956.491898,-383.047749
59449.222113,-3701.029710,-12509.480420,-2374.896044
59449.222423,-9030.512492,-15914.427753,-2834.553343
59449.222732,-9548.656652,-17764.942608,-3753.867940
59449.223042,-7179.997637,-15988.448347,-3753.867940
59449.223352,-2812.782580,-9844.739029,-2528.115143
59449.223662,592.164754,-7179.997637,2451.505594
59449.223971,4663.297435,-7105.977043,5439.278036
59449.224281,7031.956449,-4145.153275,4826.401637
59449.224591,6143.709319,-3034.844362,4903.011187
59449.224901,5625.565159,-4663.297435,5286.058936
59449.225210,3034.844362,-5847.626942,3140.991542
59449.225520,-666.185348,-7624.121203,1378.971896
59449.225830,-1924.535449,-11473.192101,-153.219100
59449.226139,-7179.997637,-16284.530724,-4366.744339
59449.226449,-11843.295072,-14285.974681,-9039.926876
59449.226759,-10658.965565,-15766.386565,-4290.134789
59449.227069,-2738.761985,-13915.871710,-1302.362347
59449.227378,1406.391290,-9326.594869,2374.896044
59449.227688,2442.679609,-5995.668130,3983.696590
59449.227998,5255.462188,-5107.421000,5592.497135
59449.228308,8808.450710,-3923.091493,6741.640382
59449.228617,7550.100608,-4219.173869,5515.887586
59449.228927,4145.153275,-5403.503377,6128.763984
59449.229237,2294.638420,-8882.471304,2987.772442
59449.229546,-1406.391290,-7254.018232,-2528.115143
59449.229856,-4737.318029,-14285.974681,-612.876398
59449.230166,-8364.327145,-15100.201217,-6205.373534
59449.230476,-10066.800811,-16580.613101,-4060.306139
59449.230785,-5403.503377,-13027.624579,-4443.353888
59449.231095,-1184.329507,-10955.047942,0.000000
59449.231405,1110.308913,-7994.224174,2834.553343
59449.231715,3701.029710,-4367.215058,2757.943793
59449.232024,5921.647536,-2738.761985,6128.763984
59449.232334,9622.677246,-4219.173869,7507.735880
59449.232644,8216.285956,-6513.812290,8503.660028
59449.232954,2368.659014,-4811.338623,2757.943793
59449.233263,2886.803174,-9474.636058,2068.457845
59449.233573,-3182.885551,-12953.603985,-1532.190996
59449.233883,-9104.533087,-16432.571912,-5132.839837
59449.234192,-11473.192101,-16284.530724,-6894.859482
59449.234502,-7846.182985,-15174.221811,-5515.887586
59449.234812,-2960.823768,-9548.656652,-3600.648841
59449.235122,0.000000,-6587.832884,0.000000
59449.235431,2516.700203,-5995.668130,5209.449386
59449.235741,9400.615463,-8290.306550,9729.412825
59449.236051,7698.141797,-1258.350101,5822.325785
59449.236361,7698.141797,-3627.009116,8580.269578
59449.236670,4737.318029,-3923.091493,6128.763984
59449.236980,1850.514855,-7105.977043,766.095498
59449.237290,-2146.597232,-10955.047942,-2068.457845
59449.237600,-8290.306550,-14434.015869,-5286.058936
59449.237909,-12065.356855,-16876.695478,-8044.002729
59449.238219,-11473.192101,-13989.892304,-10801.946522
59449.238529,-5921.647536,-12213.398043,-4903.011187
59449.238838,0.000000,-11917.315666,2451.505594
59449.239148,2294.638420,-8290.306550,4213.525239
59449.239458,3552.988522,-3627.009116,6741.640382
59449.239768,8290.306550,-1258.350101,7354.516781
59449.240077,9622.677246,-2738.761985,8886.707777
59449.240387,7550.100608,-2146.597232,7354.516781
59449.240697,4885.359217,-4515.256246,4749.792088
59449.241007,370.102971,-7105.977043,-689.485948
59449.241316,-4811.338623,-13027.624579,-4366.744339
59449.241626,-13841.851115,-16358.551318,-7890.783629
59449.241936,-14211.954086,-15470.304188,-8580.269578
59449.242245,-7476.080014,-17468.860231,-6205.373534
59449.242555,-6513.812290,-11177.109724,-4290.134789
59449.242865,-3256.906145,-7772.162391,0.000000
59449.243175,3701.029710,-6439.791695,4903.011187
59449.243484,7031.956449,-4663.297435,6741.640382
59449.243794,8142.265362,-2368.659014,7584.345430
59449.244104,8808.450710,-3552.988522,9422.974625
59449.244414,7624.121203,-3552.988522,7277.907231
59449.244723,962.267725,-5255.462188,1991.848295
59449.245033,-3552.988522,-11917.315666,0.000000
59449.245343,-9548.656652,-16580.613101,-4979.620737
59449.245653,-12879.583391,-13249.686362,-9806.022374
59449.245962,-9104.533087,-13397.727550,-8197.221829
59449.246272,-6291.750507,-13693.809927,-3370.820191
59449.246582,-3182.885551,-10732.986159,229.828649
59449.246891,2072.576638,-8808.450710,3983.696590
59449.247201,7920.203579,-7254.018232,9039.926876
59449.247511,9400.615463,-6513.812290,9729.412825
59449.247821,10288.862594,-1776.494261,7277.907231
59449.248130,7698.141797,-1850.514855,7354.516781
59449.248440,4663.297435,-4737.318029,2374.896044
59449.248750,-3552.988522,-9548.656652,-3677.258390
59449.249060,-8364.327145,-14211.954086,-4979.620737
59449.249369,-12435.459826,-16062.468941,-8580.269578
59449.249679,-10584.944971,-15988.448347,-8427.050478
59449.249989,-8956.491898,-15914.427753,-5439.278036
59449.250298,-3849.070898,-12509.480420,612.876398
59449.250608,4885.359217,-10288.862594,6741.640382
59449.250918,9400.615463,-6513.812290,7890.783629
59449.251228,8808.450710,-888.247130,6052.154434
59449.251537,10658.965565,-2442.679609,10112.460574
59449.251847,11769.274478,-888.247130,7890.783629
59449.252157,8216.285956,-3552.988522,5745.716235
59449.252467,-148.041188,-7476.080014,-995.924147
59449.252776,-6291.750507,-12509.480420,-3370.820191
59449.253086,-9178.553681,-17394.839637,-5132.839837
59449.253396,-10658.965565,-14582.057057,-9193.145976
59449.253706,-9474.636058,-16062.468941,-6128.763984
59449.254015,-6217.729913,-16580.613101,-1378.971896
59449.254325,-74.020594,-11843.295072,-76.609550
59449.254635,2368.659014,-7179.997637,4903.011187
59449.254944,9326.594869,-5329.482782,8503.660028
59449.255254,12361.439231,-3552.988522,9729.412825
59449.255564,12065.356855,-814.226536,9116.536426
59449.255874,9104.533087,-1702.473667,7354.516781
59449.256183,2368.659014,-4737.318029,2145.067394
59449.256493,-7105.977043,-8364.327145,-4903.011187
59449.256803,-9474.636058,-11917.315666,-6128.763984
59449.257113,-9992.780217,-14582.057057,-7048.078582
59449.257422,-7772.162391,-17764.942608,-7431.126331
59449.257732,-10658.965565,-15470.304188,-4903.011187
59449.258042,-1554.432478,-14211.954086,2221.676944
59449.258351,4441.235652,-8438.347739,4290.134789
59449.258661,6291.750507,-5625.565159,6818.249932
59449.258971,8438.347739,-2294.638420,7967.393179
59449.259281,11103.089130,-1258.350101,8656.879127
59449.259590,8364.327145,-74.020594,5592.497135
59449.259900,1184.329507,-666.185348,1225.752797
59449.260210,-4145.153275,-8956.491898,0.000000
59449.260520,-7179.997637,-14211.954086,-3753.867940
59449.260829,-13027.624579,-13101.645173,-8427.050478
59449.261139,-10732.986159,-17764.942608,-6818.249932
59449.261449,-11843.295072,-16950.716072,-5515.887586
59449.261759,-5995.668130,-12953.603985,-2221.676944
59449.262068,222.061783,-10658.965565,2451.505594
59449.262378,5699.585753,-6291.750507,4596.572988
59449.262688,8512.368333,-4441.235652,9729.412825
59449.262997,10288.862594,1628.453072,7201.297681
59449.263307,10066.800811,-74.020594,6128.763984
59449.263617,8512.368333,-5551.544565,7277.907231
59449.263927,-1554.432478,-6661.853478,-1838.629195
59449.264236,-7105.977043,-13101.645173,-2451.505594
59449.264546,-11843.295072,-14285.974681,-8273.831378
59449.264856,-12731.542202,-15988.448347,-10035.851024
59449.265166,-11325.150913,-15988.448347,-7890.783629
59449.265475,-7994.224174,-15470.304188,-3830.477490
59449.265785,-74.020594,-11843.295072,-76.609550
59449.266095,5847.626942,-5921.647536,4826.401637
59449.266404,8290.306550,-5403.503377,6128.763984
59449.266714,13915.871710,-5033.400406,13176.842566
59449.267024,11769.274478,0.000000,8503.660028
59449.267334,7105.977043,-1258.350101,4903.011187
59449.267643,0.000000,-5255.462188,0.000000
59449.267953,-5847.626942,-11029.068536,-3524.039291
59449.268263,-10140.821405,-14878.139434,-6205.373534
59449.268573,-11325.150913,-16210.510130,-10035.851024
59449.268882,-9548.656652,-18357.107362,-6205.373534
59449.269192,-5995.668130,-18949.272115,-3753.867940
59449.269502,-1850.514855,-11843.295072,-1302.362347
59449.269812,1184.329507,-5403.503377,2451.505594
59449.270121,11473.192101,-7105.977043,9729.412825
59449.270431,11843.295072,-370.102971,7967.393179
59449.270741,12213.398043,-74.020594,9576.193725
59449.271050,9474.636058,-1110.308913,7507.735880
59449.271360,3627.009116,-5255.462188,2681.334243
59449.271670,-2664.741391,-8734.430116,-1225.752797
59449.271980,-7179.997637,-13545.768739,-2834.553343
59449.272289,-7772.162391,-15396.283594,-7431.126331
59449.272599,-10140.821405,-18949.272115,-6205.373534
59449.272909,-11473.192101,-16580.613101,-7277.907231
59449.273219,-5329.482782,-15470.304188,-1225.752797
59449.273528,740.205942,-11177.109724,1225.752797
59449.273838,7624.121203,-5773.606348,6052.154434
59449.274148,11103.089130,-2738.761985,10648.727422
59449.274457,14359.995275,2590.720797,9882.631924
59449.274767,10658.965565,1184.329507,7584.345430
59449.275077,4737.318029,-1850.514855,4903.011187
59449.275387,-148.041188,-8586.388927,1991.848295
59449.275696,-4811.338623,-13027.624579,-1302.362347
59449.276006,-11399.171507,-12213.398043,-8427.050478
59449.276316,-11843.295072,-15470.304188,-8427.050478
59449.276626,-10140.821405,-15840.407159,-8044.002729
59449.276935,-5107.421000,-17172.777854,-2528.115143
59449.277245,74.020594,-12657.521608,2681.334243
59449.277555,4811.338623,-10881.027347,6971.469032
59449.277865,9326.594869,-7254.018232,9346.365076
59449.278174,11843.295072,-3034.844362,11644.651570
59449.278484,11843.295072,-1850.514855,10112.460574
59449.278794,6513.812290,-4811.338623,7354.516781
59449.279103,-74.020594,-9178.553681,-76.609550
59449.279413,-7105.977043,-10732.986159,-3064.381992
59449.279723,-8364.327145,-15396.283594,-6818.249932
59449.280033,-11917.315666,-15396.283594,-8963.317327
59449.280342,-14063.912898,-17690.922014,-7967.393179
59449.280652,-9252.574275,-16432.571912,-4826.401637
59449.280962,-1924.535449,-13989.892304,2757.943793
59449.281272,2368.659014,-6291.750507,4903.011187
59449.281581,7105.977043,-666.185348,8580.269578
59449.281891,13175.665768,-1850.514855,12870.404366
59449.282201,14137.933492,0.000000,9729.412825
59449.282510,5921.647536,-74.020594,4903.011187
59449.282820,3478.967927,-9474.636058,4826.401637
59449.283130,-4737.318029,-11029.068536,-1225.752797
59449.283440,-8660.409521,-12879.583391,-7431.126331
59449.283749,-13545.768739,-17764.942608,-8580.269578
59449.284059,-14359.995275,-17024.736666,-10342.289223
59449.284369,-11917.315666,-16802.674883,-9116.536426
59449.284679,-7105.977043,-13693.809927,-2451.505594
59449.284988,3552.988522,-11917.315666,6741.640382
59449.285298,8808.450710,-9474.636058,9729.412825
59449.285608,13027.624579,-74.020594,10418.898773
59449.285918,17394.839637,-3552.988522,14632.424012
59449.286227,10658.965565,-814.226536,7967.393179
59449.286537,4219.173869,-4737.318029,2528.115143
59449.286847,-6143.709319,-9252.574275,-2987.772442
59449.287156,-6365.771101,-12213.398043,-6128.763984
59449.287466,-9548.656652,-13471.748144,-8656.879127
59449.287776,-14582.057057,-14878.139434,-10801.946522
59449.288086,-14211.954086,-11917.315666,-9806.022374
59449.288395,-3034.844362,-15396.283594,-1915.238745
59449.288705,814.226536,-9622.677246,612.876398
59449.289015,5921.647536,-9548.656652,10418.898773
59449.289325,12435.459826,-666.185348,9806.022374
59449.289634,15544.324782,518.144159,10648.727422
59449.289944,12509.480420,962.267725,9806.022374
59449.290254,7402.059420,-962.267725,3524.039291
59449.290563,-74.020594,-6513.812290,-76.609550
59449.290873,-5403.503377,-9474.636058,-4979.620737
59449.291183,-11843.295072,-10732.986159,-8580.269578
59449.291493,-11103.089130,-18357.107362,-7431.126331
59449.291802,-11029.068536,-15988.448347,-8044.002729
59449.292112,-9474.636058,-16062.468941,-4903.011187
59449.292422,-2368.659014,-13693.809927,0.000000
59449.292732,3997.112087,-9326.594869,5362.668486
59449.293041,10066.800811,-9696.697840,10112.460574
59449.293351,13989.892304,-3552.988522,11721.261119
59449.293661,14137.933492,-2960.823768,11568.042020
59449.293971,7624.121203,-5625.565159,7277.907231
59449.294280,1110.308913,-6809.894666,1149.143247
59449.294590,-4737.318029,-9548.656652,-2451.505594
59449.294900,-5995.668130,-13323.706956,-4979.620737
59449.295209,-15396.283594,-14285.974681,-7354.516781
59449.295519,-14285.974681,-16358.551318,-9422.974625
59449.295829,-11251.130318,-17394.839637,-6971.469032
59449.296139,-6513.812290,-17394.839637,-1838.629195
59449.296448,1258.350101,-12287.418637,4519.963438
59449.296758,9770.718434,-9178.553681,10648.727422
59449.297068,13989.892304,-2738.761985,13636.499864
59449.297378,13545.768739,2368.659014,7890.783629
59449.297687,5921.647536,-74.020594,7354.516781
59449.297997,3478.967927,-6513.812290,4519.963438
59449.298307,-4441.235652,-7476.080014,0.000000
59449.298617,-7698.141797,-10732.986159,-4903.011187
59449.298926,-9992.780217,-14730.098246,-9039.926876
59449.299236,-13841.851115,-18135.045579,-8810.098227
59449.299546,-13027.624579,-17394.839637,-8197.221829
59449.299855,-5847.626942,-18653.189738,-1302.362347
59449.300165,2886.803174,-14063.912898,6665.030833
59449.300475,7031.956449,-8290.306550,7277.907231
59449.300785,9474.636058,-666.185348,11031.775171
59449.301094,14063.912898,1406.391290,12180.918418
59449.301404,7105.977043,2294.638420,7354.516781
59449.301714,5847.626942,-2664.741391,2834.553343
59449.302024,-2960.823768,-6883.915261,153.219100
59449.302333,-4737.318029,-9474.636058,-4596.572988
59449.302643,-10140.821405,-12213.398043,-6588.421283
59449.302953,-13027.624579,-16506.592507,-8273.831378
59449.303262,-10732.986159,-18653.189738,-6205.373534
59449.303572,-7772.162391,-18949.272115,-4979.620737
59449.303882,-4737.318029,-14582.057057,0.000000
59449.304192,5329.482782,-10140.821405,9729.412825
59449.304501,9770.718434,-962.267725,9806.022374
59449.304811,12953.603985,1036.288319,10342.289223
59449.305121,10214.842000,370.102971,9039.926876
59449.305431,7105.977043,-3034.844362,5515.887586
59449.305740,592.164754,-5551.544565,1149.143247
59449.306050,-3849.070898,-8586.388927,-1991.848295
59449.306360,-5995.668130,-13027.624579,-4979.620737
59449.306670,-13397.727550,-12509.480420,-11031.775171
59449.306979,-13619.789333,-17246.798449,-8580.269578
59449.307289,-10732.986159,-20133.601622,-5898.935335
59449.307599,-4737.318029,-15470.304188,0.000000
59449.307908,6439.791695,-10658.965565,6665.030833
59449.308218,10658.965565,-6365.771101,9806.022374
59449.308528,16210.510130,-518.144159,11721.261119
59449.308838,12435.459826,-740.205942,10112.460574
59449.309147,10881.027347,-4441.235652,8044.002729
59449.309457,2886.803174,-11251.130318,3600.648841
59449.309767,-3627.009116,-9474.636058,-2528.115143
59449.310077,-9474.636058,-13101.645173,-6128.763984
59449.310386,-10732.986159,-17764.942608,-7431.126331
59449.310696,-14656.077652,-14878.139434,-11031.775171
59449.311006,-9548.656652,-18949.272115,-6205.373534
59449.311315,-7550.100608,-16580.613101,-2451.505594
59449.311625,1110.308913,-12953.603985,3907.087040
59449.311935,10362.883188,-5477.523971,8810.098227
59449.312245,13323.706956,-666.185348,12257.527968
59449.312554,13915.871710,1406.391290,11031.775171
59449.312864,12361.439231,-4737.318029,9729.412825
59449.313174,5255.462188,-2960.823768,2987.772442
59449.313484,-3997.112087,-7179.997637,-2451.505594
59449.313793,-5403.503377,-7550.100608,-7124.688131
59449.314103,-6883.915261,-12731.542202,-5898.935335
59449.314413,-11325.150913,-16358.551318,-8580.269578
59449.314723,-13397.727550,-17987.004391,-9269.755526
59449.315032,-10214.842000,-20429.683999,-4749.792088
59449.315342,-2072.576638,-13101.645173,2451.505594
59449.315652,7105.977043,-7179.997637,6128.763984
59449.315961,15322.262999,-5773.606348,14325.985813
59449.316271,12361.439231,-1776.494261,10342.289223
59449.316581,6513.812290,-74.020594,4903.011187
59449.316891,5847.626942,-4737.318029,4826.401637
59449.317200,814.226536,-8882.471304,-76.609550
59449.317510,-5995.668130,-10066.800811,-4290.134789
59449.317820,-8956.491898,-12657.521608,-6281.983084
59449.318129,-11843.295072,-15026.180623,-8656.879127
59449.318439,-15396.283594,-13101.645173,-9806.022374
59449.318749,-13027.624579,-15470.304188,-7354.516781
59449.319059,-2368.659014,-13693.809927,1225.752797
59449.319368,6513.812290,-9844.739029,7354.516781
59449.319678,11769.274478,-5921.647536,9729.412825
59449.319988,12953.603985,0.000000,10648.727422
59449.320297,9844.739029,666.185348,7967.393179
59449.320607,6587.832884,0.000000,4826.401637
59449.320917,-888.247130,-3330.926739,0.000000
59449.321226,-4737.318029,-6883.915261,-3370.820191
59449.321536,-9474.636058,-7179.997637,-7048.078582
59449.321846,-14211.954086,-14285.974681,-9806.022374
59449.322155,-12435.459826,-16580.613101,-8197.221829
59449.322465,-11917.315666,-18949.272115,-6818.249932
59449.322775,-5921.647536,-14285.974681,-2451.505594
59449.323085,6439.791695,-10658.965565,4826.401637
59449.323394,10584.944971,-4737.318029,9729.412825
59449.323704,12213.398043,0.000000,10035.851024
59449.324014,11621.233289,-296.082377,9499.584175
59449.324323,8808.450710,-2294.638420,6971.469032
59449.324633,296.082377,-3034.844362,0.000000
59449.324943,-3552.988522,-4811.338623,-4213.525239
59449.325252,-2738.761985,-11251.130318,-2528.115143
59449.325562,-9400.615463,-11917.315666,-7967.393179
59449.325872,-11251.130318,-15914.427753,-7431.126331
59449.326181,-11325.150913,-18949.272115,-6205.373534
59449.326491,-6957.935855,-19023.292709,-1838.629195
59449.326801,1998.556043,-10955.047942,1685.410096
59449.327111,7476.080014,-4959.379811,7354.516781
59449.327420,11399.171507,-1554.432478,9652.803275
59449.327730,9622.677246,-222.061783,7890.783629
59449.328040,7698.141797,-74.020594,4826.401637
59449.328349,5033.400406,-3923.091493,4903.011187
59449.328659,-74.020594,-5921.647536,-76.609550
59449.328969,-4145.153275,-8364.327145,-2451.505594
59449.329278,-4219.173869,-14211.954086,-1302.362347
59449.329588,-10362.883188,-14285.974681,-7354.516781
59449.329898,-11621.233289,-18209.066173,-8197.221829
59449.330207,-9030.512492,-18727.210333,-4443.353888
59449.330517,-370.102971,-14211.954086,1225.752797
59449.330827,6735.874072,-7402.059420,5439.278036
59449.331137,9400.615463,-2368.659014,7277.907231
59449.331446,7698.141797,-3627.009116,8580.269578
59449.331756,11177.109724,-7698.141797,10648.727422
59449.332066,3552.988522,-4219.173869,612.876398
59449.332375,-1776.494261,-7772.162391,0.000000
59449.332685,-5921.647536,-7772.162391,-3983.696590
59449.332995,-4367.215058,-13323.706956,-2757.943793
59449.333304,-7179.997637,-14582.057057,-5362.668486
59449.333614,-12065.356855,-17468.860231,-8044.002729
59449.333924,-9548.656652,-18949.272115,-3753.867940
59449.334233,-666.185348,-16580.613101,-76.609550
59449.334543,0.000000,-8364.327145,3064.381992
59449.334853,8586.388927,-3849.070898,8580.269578
59449.335163,9104.533087,-74.020594,4826.401637
59449.335472,9474.636058,-1554.432478,9806.022374
59449.335782,6291.750507,-2442.679609,5056.230287
59449.336092,1184.329507,-4219.173869,2451.505594
59449.336401,-1406.391290,-6291.750507,-995.924147
59449.336711,-4441.235652,-10140.821405,-2911.162892
59449.337021,-5995.668130,-15396.283594,-3907.087040
59449.337330,-11917.315666,-18949.272115,-6205.373534
59449.337640,-16062.468941,-18949.272115,-8044.002729
59449.337950,-11251.130318,-15766.386565,-3677.258390
59449.338259,-74.020594,-13027.624579,3600.648841
59449.338569,0.000000,-4811.338623,6128.763984
59449.338879,3478.967927,-3108.864956,8810.098227
59449.339189,6291.750507,-2738.761985,9576.193725
59449.339498,3701.029710,-1110.308913,7048.078582
59449.339808,-3923.091493,-2072.576638,2374.896044
59449.340118,-4737.318029,-4071.132681,153.219100
59449.340427,-5477.523971,-9252.574275,612.876398
59449.340737,-8364.327145,-9474.636058,-4979.620737
59449.341047,-15988.448347,-11917.315666,-9346.365076
59449.341356,-14878.139434,-18727.210333,-6205.373534
59449.341666,-15396.283594,-16062.468941,-5975.544884
59449.341976,-7772.162391,-16580.613101,-76.609550
59449.342285,-5551.544565,-11325.150913,3524.039291
59449.342595,666.185348,-5329.482782,7584.345430
59449.342905,6735.874072,-740.205942,9499.584175
59449.343215,6069.688724,-4219.173869,12257.527968
59449.343524,592.164754,-3627.009116,9806.022374
59449.343834,-1850.514855,-8290.306550,6052.154434
59449.344144,-7846.182985,-6587.832884,0.000000
59449.344453,-7179.997637,-9474.636058,-1915.238745
59449.344763,-14878.139434,-11695.253884,-7890.783629
59449.345073,-13323.706956,-13693.809927,-6818.249932
59449.345382,-10584.944971,-14582.057057,-6894.859482
59449.345692,-10066.800811,-15026.180623,-4673.182538
59449.346002,-8586.388927,-15914.427753,-2221.676944
59449.346311,-3552.988522,-9548.656652,2451.505594
59449.346621,2368.659014,-2442.679609,6128.763984
59449.346931,7328.038826,-4737.318029,9959.241474
59449.347241,1110.308913,-4145.153275,7584.345430
59449.347550,0.000000,-1258.350101,3677.258390
59449.347860,4071.132681,-4737.318029,3600.648841
59449.348170,2294.638420,-4145.153275,3140.991542
59449.348479,-3034.844362,-8734.430116,1149.143247
59449.348789,-8734.430116,-13101.645173,-3830.477490
59449.349099,-9030.512492,-13175.665768,-7354.516781
59449.349408,-10658.965565,-14285.974681,-7890.783629
59449.349718,-10658.965565,-12509.480420,-6128.763984
59449.350028,-7105.977043,-14285.974681,0.000000
59449.350338,-74.020594,-13619.789333,2987.772442
59449.350647,2960.823768,-2442.679609,1378.971896
59449.350957,11769.274478,-3552.988522,9116.536426
59449.351267,9474.636058,2590.720797,8886.707777
59449.351576,5773.606348,-444.123565,5745.716235
59449.351886,0.000000,-5699.585753,1532.190996
59449.352196,-4589.276840,-8956.491898,-2834.553343
59449.352505,-6587.832884,-11177.109724,-4979.620737
59449.352815,-8956.491898,-10362.883188,-7584.345430
59449.353125,-11843.295072,-14285.974681,-6128.763984
59449.353434,-9548.656652,-16580.613101,-4979.620737
59449.353744,-6513.812290,-14582.057057,306.438199
59449.354054,-74.020594,-11251.130318,3600.648841
59449.354364,1998.556043,-4071.132681,5132.839837
59449.354673,6809.894666,-1406.391290,8580.269578
59449.354983,8882.471304,666.185348,8197.221829
59449.355293,5403.503377,-5181.441594,7201.297681
59449.355602,-74.020594,-8290.306550,2987.772442
59449.355912,-7179.997637,-13027.624579,-3753.867940
59449.356222,-11843.295072,-12509.480420,-5822.325785
59449.356531,-9844.739029,-12731.542202,-6205.373534
59449.356841,-14211.954086,-7772.162391,-9806.022374
59449.357151,-11547.212695,-14508.036463,-4060.306139
59449.357460,-8956.491898,-14656.077652,-3217.601092
59449.357770,-5403.503377,-16062.468941,2374.896044
59449.358080,-1776.494261,-11029.068536,5592.497135
59449.358390,740.205942,-3775.050304,6894.859482
59449.358699,4663.297435,0.000000,10955.165621
59449.359009,9400.615463,3552.988522,9729.412825
59449.359319,3552.988522,4663.297435,4903.011187
59449.359628,2590.720797,-2368.659014,3600.648841
59449.359938,-5699.585753,-6883.915261,-3140.991542
59449.360248,-13619.789333,-15470.304188,-4903.011187
59449.360557,-18061.024985,-21317.931130,-9576.193725
59449.360867,-19763.498651,-20429.683999,-10648.727422
59449.361177,-15766.386565,-16876.695478,-7124.688131
59449.361486,-9474.636058,-13841.851115,-2298.286494
59449.361796,-888.247130,-8660.409521,3677.258390
59449.362106,5477.523971,-5625.565159,9729.412825
59449.362416,8216.285956,0.000000,9729.412825
59449.362725,7698.141797,1110.308913,10418.898773
59449.363035,8216.285956,-4737.318029,9729.412825
59449.363345,0.000000,-3627.009116,4903.011187
59449.363654,-3775.050304,-8882.471304,995.924147
59449.363964,-8956.491898,-11917.315666,-2451.505594
59449.364274,-12509.480420,-16358.551318,-4979.620737
59449.364583,-15174.221811,-18283.086767,-7737.564530
59449.364893,-14656.077652,-16654.633695,-8580.269578
59449.365203,-13915.871710,-16062.468941,-3677.258390
59449.365512,-1850.514855,-11695.253884,-76.609550
59449.365822,1702.473667,-4811.338623,2068.457845
59449.366132,5921.647536,-1850.514855,8580.269578
59449.366442,8512.368333,1406.391290,7660.954980
59449.366751,9400.615463,148.041188,8503.660028
59449.367061,5329.482782,-2738.761985,6281.983084
59449.367371,1628.453072,-4737.318029,2145.067394
59449.367680,-2664.741391,-8734.430116,-689.485948
59449.367990,-7105.977043,-10732.986159,-4903.011187
59449.368300,-10658.965565,-14285.974681,-5822.325785
59449.368609,-9548.656652,-18949.272115,-6511.811733
59449.368919,-9326.594869,-17838.963202,-7967.393179
59449.369229,-7105.977043,-17838.963202,-2451.505594
59449.369538,-2960.823768,-11917.315666,612.876398
59449.369848,2294.638420,-7402.059420,5209.449386
59449.370158,5847.626942,-666.185348,6128.763984
59449.370468,6439.791695,814.226536,8810.098227
59449.370777,5773.606348,3330.926739,7814.174080
59449.371087,2368.659014,2294.638420,3830.477490
59449.371397,0.000000,-74.020594,2451.505594
59449.371706,-370.102971,-7105.977043,2374.896044
59449.372016,-5995.668130,-8364.327145,-4826.401637
59449.372326,-6217.729913,-14211.954086,-1991.848295
59449.372635,-8660.409521,-15396.283594,-6358.592633
59449.372945,-7920.203579,-16728.654289,-4136.915689
59449.373255,-5995.668130,-16876.695478,-1378.971896
59449.373564,-1628.453072,-12583.501014,2374.896044
59449.373874,3182.885551,-7254.018232,5745.716235
59449.374184,6439.791695,-4145.153275,7277.907231
59449.374494,8364.327145,-74.020594,8273.831378
59449.374803,8290.306550,-5699.585753,12563.966167
59449.375113,7920.203579,-4515.256246,7354.516781
59449.375423,4959.379811,-8290.306550,8120.612279
59449.375732,-1258.350101,-11843.295072,3600.648841
59449.376042,-5921.647536,-12213.398043,0.000000
59449.376352,-6957.935855,-16358.551318,766.095498
59449.376661,-6217.729913,-15248.242405,-536.266849
59449.376971,-4737.318029,-16432.571912,3140.991542
59449.377281,-4219.173869,-14804.118840,2987.772442
59449.377590,-1258.350101,-13027.624579,4826.401637
59449.377900,0.000000,-8660.409521,7354.516781
59449.378210,5847.626942,-7105.977043,9729.412825
59449.378520,2442.679609,-1850.514855,7967.393179
59449.378829,7031.956449,0.000000,9729.412825
59449.379139,4145.153275,-740.205942,10112.460574
59449.379449,3256.906145,-518.144159,7431.126331
59449.379758,1184.329507,-4885.359217,5822.325785
59449.380068,0.000000,-9770.718434,6128.763984
59449.380378,-2442.679609,-16580.613101,7277.907231
59449.380687,-4811.338623,-17172.777854,2987.772442
59449.380997,-9326.594869,-15470.304188,1225.752797
59449.381307,-9474.636058,-16062.468941,3677.258390
59449.381616,-3627.009116,-10658.965565,4826.401637
59449.381926,2368.659014,-5329.482782,9729.412825
59449.382236,7105.977043,3404.947333,10725.336972
59449.382546,6143.709319,1628.453072,13406.671215
59449.382855,5921.647536,1258.350101,11951.089769
59449.383165,3775.050304,-3923.091493,11031.775171
59449.383475,1406.391290,-7105.977043,10878.556072
59449.383784,-370.102971,-7105.977043,4826.401637
59449.384094,-6513.812290,-8956.491898,2451.505594
59449.384404,-2442.679609,-11843.295072,3600.648841
59449.384713,-3552.988522,-10732.986159,612.876398
59449.385023,-2960.823768,-17172.777854,4826.401637
59449.385333,-5995.668130,-18653.189738,3753.867940
59449.385642,-5699.585753,-17690.922014,2451.505594
59449.385952,-2294.638420,-11769.274478,4366.744339
59449.386262,1554.432478,-4811.338623,5515.887586
59449.386572,5033.400406,-1258.350101,8580.269578
59449.386881,6291.750507,-2072.576638,10648.727422
59449.387191,4071.132681,888.247130,6511.811733
59449.387501,2368.659014,-5403.503377,7967.393179
59449.387810,2294.638420,-7105.977043,4826.401637
59449.388120,-2812.782580,-12657.521608,2757.943793
59449.388430,-4367.215058,-16284.530724,689.485948
59449.388739,-7550.100608,-17764.942608,-2604.724693
59449.389049,-9918.759623,-21021.848753,-2221.676944
59449.389359,-7698.141797,-15470.304188,-4366.744339
59449.389669,-3552.988522,-11621.233289,-2451.505594
59449.389978,888.247130,-8068.244768,3217.601092
59449.390288,4367.215058,-3552.988522,3600.648841
59449.390598,4737.318029,-74.020594,4903.011187
59449.390907,11177.109724,-2368.659014,7277.907231
59449.391217,5477.523971,-1850.514855,5515.887586
59449.391527,2442.679609,-6809.894666,3600.648841
59449.391836,-444.123565,-8734.430116,1149.143247
59449.392146,-1406.391290,-11251.130318,76.609550
59449.392456,-1554.432478,-10510.924376,-1455.581446
59449.392765,-4737.318029,-10140.821405,-4290.134789
59449.393075,-5921.647536,-12213.398043,-2451.505594
59449.393385,-666.185348,-14211.954086,-1302.362347
59449.393695,-4145.153275,-10732.986159,-4596.572988
59449.394004,-444.123565,-14952.160028,3140.991542
59449.394314,-1480.411884,-9548.656652,1225.752797
59449.394624,2368.659014,-11473.192101,4366.744339
59449.394933,4589.276840,-4663.297435,5132.839837
59449.395243,4145.153275,-1998.556043,4903.011187
59449.395553,2886.803174,-3256.906145,4213.525239
59449.395862,1184.329507,-3627.009116,1149.143247
59449.396172,0.000000,-7772.162391,612.876398
59449.396482,-74.020594,-13027.624579,-76.609550
59449.396791,-7105.977043,-15470.304188,0.000000
59449.397101,-4589.276840,-17987.004391,919.314598
59449.397411,-5625.565159,-12657.521608,-2451.505594
59449.397721,-2886.803174,-10436.903782,0.000000
59449.398030,740.205942,-7550.100608,2757.943793
59449.398340,3775.050304,-3997.112087,4290.134789
59449.398650,4589.276840,-5921.647536,6665.030833
59449.398959,1406.391290,-5625.565159,4826.401637
59449.399269,-2146.597232,-8660.409521,4290.134789
59449.399579,1036.288319,-9844.739029,7277.907231
59449.399888,-2960.823768,-5995.668130,1838.629195
59449.400198,-962.267725,-10288.862594,4903.011187
59449.400508,-1258.350101,-5921.647536,2528.115143
59449.400817,592.164754,-8956.491898,4903.011187
59449.401127,-888.247130,-10881.027347,3370.820191
59449.401437,-3552.988522,-12361.439231,1608.800546
59449.401747,-1850.514855,-15396.283594,5439.278036
59449.402056,1702.473667,-11843.295072,6052.154434
59449.402366,1998.556043,-7476.080014,4826.401637
59449.402676,296.082377,-5995.668130,5515.887586
59449.402985,-74.020594,-9474.636058,6052.154434
59449.403295,0.000000,-5107.421000,3677.258390
59449.403605,518.144159,-9178.553681,6971.469032
59449.403914,-2368.659014,-8364.327145,6435.202183
59449.404224,-2368.659014,-9252.574275,5439.278036
59449.404534,-1406.391290,-8586.388927,5362.668486
59449.404843,-1480.411884,-8956.491898,5669.106685
59449.405153,-1554.432478,-8882.471304,4826.401637
59449.405463,-1258.350101,-4145.153275,2221.676944
59449.405773,0.000000,-4811.338623,2451.505594
59449.406082,5255.462188,-5921.647536,6665.030833
59449.406392,-74.020594,-5403.503377,842.705048
59449.406702,-1258.350101,-11843.295072,3294.210641
59449.407011,-2146.597232,-12657.521608,2451.505594
59449.407321,-1924.535449,-13841.851115,2987.772442
59449.407631,-2146.597232,-10807.006753,3370.820191
59449.407940,-1776.494261,-7772.162391,4903.011187
59449.408250,1702.473667,-8142.265362,5515.887586
59449.408560,-74.020594,-8882.471304,2374.896044
59449.408869,-2368.659014,-7179.997637,0.000000
59449.409179,2294.638420,-11843.295072,2374.896044
59449.409489,-1998.556043,-7402.059420,-383.047749
59449.409799,3182.885551,-8216.285956,1149.143247
59449.410108,1258.350101,-5255.462188,-383.047749
59449.410418,-2220.617826,-9474.636058,-766.095498
59449.410728,-1776.494261,-8438.347739,-919.314598
59449.411037,0.000000,-8364.327145,-3677.258390
59449.411347,-444.123565,-11325.150913,0.000000
59449.411657,-74.020594,-13915.871710,-76.609550
59449.411966,-74.020594,-11843.295072,-2528.115143
59449.412276,0.000000,-13101.645173,0.000000
59449.412586,-370.102971,-9474.636058,-1302.362347
59449.412895,1036.288319,-10510.924376,-383.047749
59449.413205,2442.679609,-6513.812290,-1302.362347
59449.413515,3775.050304,-4737.318029,-1532.190996
59449.413825,3034.844362,-5773.606348,-2298.286494
59449.414134,-1628.453072,-7476.080014,-4903.011187
59449.414444,-2368.659014,-11325.150913,-3677.258390
59449.414754,-74.020594,-14211.954086,-3064.381992
59449.415063,-1924.535449,-13323.706956,-4979.620737
59449.415373,-2368.659014,-11917.315666,-1838.629195
59449.415683,-74.020594,-13027.624579,-689.485948
59449.415992,592.164754,-9548.656652,-612.876398
59449.416302,296.082377,-8734.430116,-1608.800546
59449.416612,-962.267725,-8882.471304,-2221.676944
59449.416922,740.205942,-8438.347739,-1608.800546
59449.417232,1702.473667,-5181.441594,-2528.115143
59449.417541,0.000000,-5995.668130,-3677.258390
59449.417851,-1776.494261,-8068.244768,-2451.505594
59449.418161,-74.020594,-11843.295072,-2528.115143
59449.418471,-2072.576638,-7772.162391,-4903.011187
59449.418781,222.061783,-12657.521608,-76.609550
59449.419090,-3256.906145,-11621.233289,-1225.752797
59449.419400,-962.267725,-12953.603985,-689.485948
59449.419710,-666.185348,-12139.377449,76.609550
59449.420020,-2368.659014,-10214.842000,0.000000
59449.420330,-1258.350101,-7105.977043,-76.609550
59449.420639,-1480.411884,-4811.338623,229.828649
59449.420949,2960.823768,-1850.514855,1838.629195
59449.421259,4663.297435,-5921.647536,4213.525239
59449.421569,-1554.432478,-3330.926739,-1532.190996
59449.421879,-1776.494261,-10140.821405,1225.752797
59449.422188,-2072.576638,-9696.697840,0.000000
59449.422498,-1702.473667,-12583.501014,0.000000
59449.422808,-3478.967927,-13027.624579,536.266849
59449.423118,-740.205942,-12509.480420,1608.800546
59449.423428,2294.638420,-13027.624579,3600.648841
59449.423737,-666.185348,-9770.718434,2374.896044
59449.424047,-3256.906145,-7772.162391,1532.190996
59449.424357,2294.638420,-10658.965565,6971.469032
59449.424667,2146.597232,-2516.700203,3447.429741
59449.424977,2368.659014,-1850.514855,6128.763984
59449.425287,0.000000,-3701.029710,3064.381992
59449.425596,-592.164754,-7328.038826,2834.553343
59449.425906,0.000000,-10066.800811,2451.505594
59449.426216,-666.185348,-11769.274478,2068.457845
59449.426526,-2442.679609,-15100.201217,2987.772442
59449.426836,-1258.350101,-13027.624579,1149.143247
59449.427145,-2442.679609,-11251.130318,995.924147
59449.427455,-4737.318029,-9548.656652,1225.752797
59449.427765,-1554.432478,-13027.624579,2987.772442
59449.428075,-4737.318029,-7476.080014,612.876398
59449.428385,74.020594,-5773.606348,4060.306139
59449.428694,2664.741391,-2442.679609,5056.230287
59449.429004,2516.700203,-2368.659014,4519.963438
59449.429314,1554.432478,-2960.823768,3983.696590
59449.429624,3108.864956,-7105.977043,5745.716235
59449.429934,4071.132681,-10658.965565,3600.648841
59449.430243,-3182.885551,-10732.986159,612.876398
59449.430553,-4737.318029,-11917.315666,1225.752797
59449.430863,-74.020594,-14211.954086,1762.019645
59449.431173,-5403.503377,-9844.739029,0.000000
59449.431483,-3627.009116,-11547.212695,-76.609550
59449.431793,-2960.823768,-9178.553681,229.828649
59449.432102,222.061783,-8586.388927,2374.896044
59449.432412,3034.844362,-3923.091493,3140.991542
59449.432722,1776.494261,-4811.338623,4903.011187
59449.433032,4663.297435,-7105.977043,4826.401637
59449.433342,3182.885551,-5329.482782,2834.553343
59449.433651,1184.329507,-4811.338623,2451.505594
59449.433961,2294.638420,-11251.130318,2987.772442
59449.434271,-3330.926739,-9548.656652,-1149.143247
59449.434581,-74.020594,-15396.283594,1149.143247
59449.434891,-4515.256246,-15618.345376,-1762.019645
59449.435200,-6587.832884,-14730.098246,-2451.505594
59449.435510,-4515.256246,-12953.603985,-1072.533697
59449.435820,-2368.659014,-7772.162391,1225.752797
59449.436130,3552.988522,-4219.173869,3370.820191
59449.436440,3478.967927,-2664.741391,2374.896044
59449.436749,3849.070898,-4811.338623,4903.011187
59449.437059,2590.720797,-4885.359217,1455.581446
59449.437369,4663.297435,-8586.388927,1762.019645
59449.437679,2146.597232,-11695.253884,-76.609550
59449.437989,-2146.597232,-12287.418637,-766.095498
59449.438298,-1258.350101,-13249.686362,-1685.410096
59449.438608,-2738.761985,-13989.892304,-2451.505594
59449.438918,-8290.306550,-11917.315666,-4903.011187
59449.439228,-6809.894666,-12805.562797,-3370.820191
59449.439538,-1850.514855,-12657.521608,-76.609550
59449.439848,2294.638420,-7105.977043,-689.485948
59449.440157,1184.329507,-4811.338623,1225.752797
59449.440467,4663.297435,-7105.977043,2374.896044
59449.440777,4589.276840,-5107.421000,3524.039291
59449.441087,4663.297435,-4737.318029,1838.629195
59449.441397,2294.638420,-7402.059420,919.314598
59449.441706,-1110.308913,-9326.594869,-383.047749
59449.442016,-2294.638420,-9696.697840,-4290.134789
59449.442326,-4145.153275,-11917.315666,-3064.381992
59449.442636,-5329.482782,-14878.139434,-2451.505594
59449.442946,-4811.338623,-14211.954086,-4979.620737
59449.443255,-5921.647536,-11917.315666,-3677.258390
59449.443565,2294.638420,-13027.624579,2374.896044
59449.443875,1924.535449,-5403.503377,1532.190996
59449.444185,3034.844362,-4737.318029,2068.457845
59449.444495,4737.318029,-3256.906145,3294.210641
59449.444804,5477.523971,-4367.215058,2145.067394
59449.445114,4663.297435,-5033.400406,76.609550
59449.445424,0.000000,-7476.080014,0.000000
59449.445734,0.000000,-10214.842000,0.000000
59449.446044,-74.020594,-14211.954086,-1302.362347
59449.446354,-7105.977043,-12509.480420,-3677.258390
59449.446663,-4811.338623,-16506.592507,-689.485948
59449.446973,-7105.977043,-12509.480420,-3064.381992
59449.447283,-3034.844362,-9992.780217,-1455.581446
59449.447593,-888.247130,-6365.771101,-153.219100
59449.447903,518.144159,-6217.729913,1685.410096
59449.448212,4663.297435,-5625.565159,2374.896044
59449.448522,4071.132681,-4145.153275,2528.115143
59449.448832,3552.988522,-5403.503377,3064.381992
59449.449142,3478.967927,-9474.636058,3600.648841
59449.449452,1184.329507,-9548.656652,2451.505594
59449.449761,1406.391290,-12509.480420,2681.334243
59449.450071,-5699.585753,-12213.398043,-1225.752797
59449.450381,-7254.018232,-14730.098246,-2298.286494
59449.450691,-6069.688724,-14211.954086,-1991.848295
59449.451001,-3849.070898,-12361.439231,-153.219100
59449.451310,-74.020594,-9178.553681,2374.896044
59449.451620,1110.308913,-4737.318029,2374.896044
59449.451930,1776.494261,-2146.597232,2451.505594
59449.452240,7624.121203,-6513.812290,7277.907231
59449.452550,2960.823768,-2442.679609,3677.258390
59449.452859,2368.659014,-7179.997637,7354.516781
59449.453169,1258.350101,-7179.997637,3447.429741
59449.453479,1036.288319,-10732.986159,2451.505594
59449.453789,-2812.782580,-11843.295072,459.657299
59449.454099,-6809.894666,-14063.912898,-1532.190996
59449.454409,-4515.256246,-15988.448347,-76.609550
59449.454718,-3627.009116,-13619.789333,-76.609550
59449.455028,-2812.782580,-6365.771101,-1608.800546
59449.455338,1036.288319,-9474.636058,4366.744339
59449.455648,740.205942,-3330.926739,4290.134789
59449.455958,2960.823768,-2442.679609,5209.449386
59449.456267,5847.626942,-2960.823768,4519.963438
59449.456577,3923.091493,-5921.647536,4903.011187
59449.456887,3034.844362,-8438.347739,5132.839837
59449.457197,2294.638420,-11029.068536,3370.820191
59449.457507,-1776.494261,-14804.118840,2374.896044
59449.457816,-5403.503377,-15396.283594,-1608.800546
59449.458126,-7179.997637,-14211.954086,-3753.867940
59449.458436,-8882.471304,-10732.986159,-3677.258390
59449.458746,-2442.679609,-11251.130318,-76.609550
59449.459056,-3627.009116,-6069.688724,-2451.505594
59449.459365,1702.473667,-7994.224174,2987.772442
59449.459675,3775.050304,-5403.503377,4060.306139
59449.459985,5551.544565,-4367.215058,4903.011187
59449.460295,5181.441594,-3923.091493,4903.011187
59449.460605,3552.988522,-4811.338623,5515.887586
59449.460914,5625.565159,-7772.162391,4213.525239
59449.461224,1110.308913,-11843.295072,-76.609550
59449.461534,-7105.977043,-13101.645173,-2451.505594
59449.461844,-6291.750507,-16580.613101,-4979.620737
59449.462154,-8808.450710,-11917.315666,-7277.907231
59449.462464,-4811.338623,-13027.624579,-3294.210641
59449.462773,-3627.009116,-8438.347739,-2451.505594
59449.463083,666.185348,-6587.832884,919.314598
59449.463393,3997.112087,-4737.318029,2834.553343
59449.463703,4737.318029,-1258.350101,3677.258390
59449.464013,7105.977043,-4811.338623,4443.353888
59449.464322,7031.956449,-7105.977043,4826.401637
59449.464632,2960.823768,-5403.503377,1225.752797
59449.464942,3775.050304,-12731.542202,1762.019645
59449.465252,-3627.009116,-13027.624579,-3753.867940
59449.465562,-7031.956449,-17320.819043,-4979.620737
59449.465871,-8364.327145,-14508.036463,-6665.030833
59449.466181,-7254.018232,-13175.665768,-5132.839837
59449.466491,-5033.400406,-9474.636058,-4290.134789
59449.466801,-3552.988522,-7179.997637,0.000000
59449.467111,2664.741391,-5995.668130,2451.505594
59449.467420,8216.285956,-8290.306550,6052.154434
59449.467730,3997.112087,-2738.761985,2451.505594
59449.468040,7476.080014,-7105.977043,6358.592633
59449.468350,8216.285956,-5921.647536,3600.648841
59449.468660,3256.906145,-7772.162391,1532.190996
59449.468970,-2738.761985,-11103.089130,-1608.800546
59449.469279,-6661.853478,-14211.954086,-3983.696590
59449.469589,-7698.141797,-16358.551318,-4903.011187
59449.469899,-10658.965565,-13397.727550,-6128.763984
59449.470209,-8290.306550,-10140.821405,-5822.325785
59449.470519,-2220.617826,-11325.150913,1225.752797
59449.470828,2146.597232,-5773.606348,1762.019645
59449.471138,5033.400406,-3775.050304,4903.011187
59449.471448,11177.109724,-6513.812290,8503.660028
59449.471758,8290.306550,-2442.679609,7354.516781
59449.472068,7920.203579,-3478.967927,6665.030833
59449.472377,4811.338623,-7179.997637,3983.696590
59449.472687,-1258.350101,-11843.295072,1072.533697
59449.472997,-5995.668130,-14211.954086,-4213.525239
59449.473307,-9474.636058,-15026.180623,-4903.011187
59449.473617,-8882.471304,-14285.974681,-2451.505594
59449.473926,-5995.668130,-11843.295072,-3753.867940
59449.474236,-5921.647536,-7772.162391,-2451.505594
59449.474546,-2220.617826,-6587.832884,2451.505594
59449.474856,4071.132681,-3849.070898,3600.648841
59449.475166,5699.585753,-3849.070898,5286.058936
59449.475475,7031.956449,-4367.215058,6971.469032
59449.475785,7550.100608,-3849.070898,7354.516781
59449.476095,6513.812290,-6661.853478,7277.907231
59449.476405,814.226536,-8882.471304,3600.648841
