#time,accel_x,accel_y,accel_z
59397.521319,-2368.659014,-7179.997637,0.000000
59397.521629,1702.473667,-11843.295072,2374.896044
59397.521939,0.000000,-9548.656652,1225.752797
59397.522249,-222.061783,-9474.636058,689.485948
59397.522558,0.000000,-9178.553681,689.485948
59397.522868,-370.102971,-9104.533087,536.266849
59397.523178,-74.020594,-8290.306550,-76.609550
59397.523488,-2368.659014,-7179.997637,0.000000
59397.523797,-1776.494261,-8068.244768,0.000000
59397.524107,518.144159,-9474.636058,-76.609550
59397.524417,0.000000,-9548.656652,1225.752797
59397.524727,-74.020594,-9474.636058,1225.752797
59397.525036,0.000000,-7772.162391,306.438199
59397.525346,-74.020594,-9474.636058,612.876398
59397.525656,-296.082377,-9030.512492,919.314598
59397.525966,-148.041188,-9030.512492,766.095498
59397.526275,1702.473667,-9474.636058,-76.609550
59397.526585,-74.020594,-8290.306550,536.266849
59397.526895,-1776.494261,-7772.162391,0.000000
59397.527205,1110.308913,-10658.965565,-76.609550
59397.527514,-2368.659014,-8364.327145,306.438199
59397.527824,0.000000,-8512.368333,1225.752797
59397.528134,-2072.576638,-7772.162391,0.000000
59397.528444,-592.164754,-9104.533087,919.314598
59397.528753,-518.144159,-8808.450710,842.705048
59397.529063,-148.041188,-8956.491898,919.314598
59397.529373,-74.020594,-10955.047942,2374.896044
59397.529683,-74.020594,-9474.636058,1149.143247
59397.529992,-444.123565,-8290.306550,229.828649
59397.530302,222.061783,-11843.295072,2987.772442
59397.530612,-2960.823768,-7179.997637,0.000000
59397.530922,0.000000,-8956.491898,0.000000
59397.531231,-370.102971,-8438.347739,76.609550
59397.531541,-518.144159,-9030.512492,842.705048
59397.531851,-222.061783,-9474.636058,766.095498
59397.532161,-370.102971,-9030.512492,536.266849
59397.532470,0.000000,-9844.739029,3217.601092
59397.532780,-74.020594,-10658.965565,2374.896044
59397.533090,-74.020594,-9474.636058,1149.143247
59397.533400,0.000000,-8364.327145,1225.752797
59397.533709,-74.020594,-9474.636058,-76.609550
59397.534019,-2368.659014,-6587.832884,0.000000
59397.534329,-74.020594,-9474.636058,1149.143247
59397.534639,-444.123565,-8734.430116,689.485948
59397.534948,-444.123565,-9030.512492,995.924147
59397.535258,-148.041188,-9104.533087,1149.143247
59397.535568,0.000000,-7772.162391,0.000000
59397.535878,592.164754,-9844.739029,2451.505594
59397.536187,-74.020594,-9474.636058,1762.019645
59397.536497,-2368.659014,-7179.997637,0.000000
59397.536807,-74.020594,-10658.965565,1762.019645
59397.537117,-1110.308913,-7402.059420,-383.047749
59397.537426,-74.020594,-10362.883188,1762.019645
59397.537736,-666.185348,-8882.471304,383.047749
59397.538046,-592.164754,-8882.471304,842.705048
59397.538356,-666.185348,-9030.512492,612.876398
59397.538665,-2368.659014,-6587.832884,0.000000
59397.538975,0.000000,-8364.327145,1225.752797
59397.539285,518.144159,-9474.636058,3294.210641
59397.539595,-2368.659014,-6587.832884,-1455.581446
59397.539904,888.247130,-10362.883188,2145.067394
59397.540214,-74.020594,-9474.636058,-76.609550
59397.540524,592.164754,-9992.780217,1608.800546
59397.540834,-74.020594,-9252.574275,1149.143247
59397.541143,-370.102971,-9178.553681,1072.533697
59397.541453,-222.061783,-8882.471304,1225.752797
59397.541763,-1332.370696,-7476.080014,-1838.629195
59397.542073,-2368.659014,-7772.162391,0.000000
59397.542382,0.000000,-8956.491898,1838.629195
59397.542692,-74.020594,-8290.306550,-76.609550
59397.543002,0.000000,-9548.656652,1838.629195
59397.543312,2294.638420,-11843.295072,3294.210641
59397.543621,0.000000,-8660.409521,766.095498
59397.543931,-148.041188,-9178.553681,1302.362347
59397.544241,-370.102971,-9104.533087,842.705048
59397.544551,-370.102971,-9252.574275,536.266849
59397.544860,-74.020594,-8290.306550,229.828649
59397.545170,-1776.494261,-7476.080014,0.000000
59397.545480,-1776.494261,-8068.244768,0.000000
59397.545790,2294.638420,-11843.295072,2374.896044
59397.546099,0.000000,-7179.997637,0.000000
59397.546409,2590.720797,-10288.862594,3524.039291
59397.546719,0.000000,-7476.080014,306.438199
59397.547029,1036.288319,-8882.471304,689.485948
59397.547338,1406.391290,-8882.471304,689.485948
59397.547648,2220.617826,-8956.491898,1072.533697
59397.547958,3478.967927,-9474.636058,1762.019645
59397.548268,1998.556043,-8882.471304,-76.609550
59397.548577,888.247130,-7772.162391,-2451.505594
59397.548887,5551.544565,-11843.295072,2987.772442
59397.549197,1850.514855,-8068.244768,0.000000
59397.549507,2368.659014,-9548.656652,2451.505594
59397.549816,1628.453072,-8364.327145,0.000000
59397.550126,3404.947333,-9252.574275,689.485948
59397.550436,4367.215058,-9326.594869,1149.143247
59397.550746,4885.359217,-8956.491898,1608.800546
59397.551055,7031.956449,-10658.965565,3600.648841
59397.551365,7031.956449,-9474.636058,2068.457845
59397.551675,5847.626942,-6883.915261,-995.924147
59397.551985,5921.647536,-9548.656652,2451.505594
59397.552294,6439.791695,-9178.553681,-76.609550
59397.552604,2368.659014,-5995.668130,0.000000
59397.552914,6439.791695,-9400.615463,-536.266849
59397.553224,5625.565159,-9696.697840,0.000000
59397.553533,5625.565159,-10214.842000,-383.047749
59397.553843,4885.359217,-11325.150913,0.000000
59397.554153,4737.318029,-13693.809927,2451.505594
59397.554463,3478.967927,-14063.912898,1149.143247
59397.554772,3478.967927,-11843.295072,-76.609550
59397.555082,0.000000,-7476.080014,0.000000
59397.555392,4663.297435,-8882.471304,2374.896044
59397.555702,2886.803174,-3034.844362,0.000000
59397.556011,7031.956449,-4737.318029,2987.772442
59397.556321,7846.182985,-3775.050304,2911.162892
59397.556631,9548.656652,-4737.318029,3447.429741
59397.556941,10066.800811,-5699.585753,2834.553343
59397.557250,5329.482782,-9548.656652,1838.629195
59397.557560,2960.823768,-12509.480420,-1225.752797
59397.557870,-666.185348,-18949.272115,-229.828649
59397.558180,-4811.338623,-15248.242405,-5362.668486
59397.558489,-4737.318029,-16062.468941,-2451.505594
59397.558799,-2442.679609,-11843.295072,-3140.991542
59397.559109,-740.205942,-9252.574275,-76.609550
59397.559418,1480.411884,-7254.018232,2451.505594
59397.559728,5477.523971,-5107.421000,5439.278036
59397.560038,5995.668130,-4811.338623,6435.202183
59397.560348,2368.659014,-2442.679609,4903.011187
59397.560657,1480.411884,-3034.844362,3983.696590
59397.560967,3552.988522,-4811.338623,5822.325785
59397.561277,4663.297435,-4737.318029,2068.457845
59397.561587,1184.329507,-5995.668130,0.000000
59397.561896,2294.638420,-13915.871710,-76.609550
59397.562206,-4589.276840,-16876.695478,-3370.820191
59397.562516,-7179.997637,-20355.663405,-4366.744339
59397.562826,-7105.977043,-17098.757260,-4826.401637
59397.563135,-4737.318029,-12953.603985,-3294.210641
59397.563445,-2442.679609,-6143.709319,-2451.505594
59397.563755,1184.329507,-4811.338623,919.314598
59397.564065,2960.823768,-3627.009116,4903.011187
59397.564374,8216.285956,-5921.647536,7277.907231
59397.564684,5921.647536,-3034.844362,5515.887586
59397.564994,11473.192101,-5921.647536,9116.536426
59397.565304,8290.306550,-2590.720797,5822.325785
59397.565613,6217.729913,-5477.523971,4749.792088
59397.565923,1332.370696,-9844.739029,306.438199
59397.566233,-3108.864956,-14656.077652,-3753.867940
59397.566543,-2738.761985,-16580.613101,-6281.983084
59397.566852,-4219.173869,-15766.386565,-6894.859482
59397.567162,-8290.306550,-14285.974681,-7354.516781
59397.567472,-3627.009116,-15396.283594,-2528.115143
59397.567782,-2072.576638,-9548.656652,-2221.676944
59397.568091,6217.729913,-4515.256246,3983.696590
59397.568401,13545.768739,-1184.329507,7584.345430
59397.568711,14508.036463,-222.061783,9269.755526
59397.569021,13175.665768,-4515.256246,9806.022374
59397.569330,10732.986159,-5699.585753,4903.011187
59397.569640,5921.647536,-7476.080014,3677.258390
59397.569950,2220.617826,-9178.553681,-1225.752797
59397.570260,-74.020594,-14211.954086,-2834.553343
59397.570569,-4737.318029,-13101.645173,-7124.688131
59397.570879,-888.247130,-16654.633695,-2451.505594
59397.571189,4663.297435,-17024.736666,-76.609550
59397.571499,2368.659014,-11473.192101,-995.924147
59397.571808,1628.453072,-10584.944971,-536.266849
59397.572118,3997.112087,-10066.800811,1762.019645
59397.572428,8438.347739,-5699.585753,4673.182538
59397.572738,7624.121203,-3256.906145,4749.792088
59397.573047,4367.215058,-4737.318029,2374.896044
59397.573357,1184.329507,-4811.338623,306.438199
59397.573667,7328.038826,-11399.171507,3600.648841
59397.573977,2738.761985,-9548.656652,0.000000
59397.574286,-4145.153275,-12509.480420,0.000000
59397.574596,-4811.338623,-17024.736666,-3140.991542
59397.574906,-5255.462188,-15396.283594,-4060.306139
59397.575216,-5625.565159,-13619.789333,-2298.286494
59397.575525,-5699.585753,-11029.068536,-689.485948
59397.575835,-592.164754,-8956.491898,919.314598
59397.576145,4737.318029,-4811.338623,3064.381992
59397.576455,7920.203579,-6513.812290,6665.030833
59397.576764,0.000000,-4811.338623,3753.867940
59397.577074,-1258.350101,-8882.471304,4826.401637
59397.577384,-1258.350101,-7402.059420,-76.609550
59397.577694,-6513.812290,-8438.347739,-1532.190996
59397.578003,-8734.430116,-11473.192101,-1072.533697
59397.578313,-6587.832884,-10807.006753,-1532.190996
59397.578623,-2738.761985,-9400.615463,0.000000
59397.578933,-3923.091493,-10658.965565,-995.924147
59397.579242,-5995.668130,-13027.624579,-76.609550
59397.579552,-7105.977043,-7772.162391,0.000000
59397.579862,740.205942,-8290.306550,3600.648841
59397.580172,-3034.844362,-3775.050304,1762.019645
59397.580481,-3256.906145,-6291.750507,2451.505594
59397.580791,222.061783,-7031.956449,3830.477490
59397.581101,2886.803174,-4885.359217,3370.820191
59397.581411,148.041188,-7476.080014,1685.410096
59397.581720,-4959.379811,-10658.965565,-76.609550
59397.582030,-7105.977043,-12805.562797,0.000000
59397.582340,-6513.812290,-11029.068536,-1838.629195
59397.582650,-6587.832884,-12435.459826,-1915.238745
59397.582959,-9474.636058,-10732.986159,-2451.505594
59397.583269,-74.020594,-11251.130318,1762.019645
59397.583579,5551.544565,-5921.647536,3294.210641
59397.583889,3182.885551,-5995.668130,3294.210641
59397.584198,2294.638420,-7846.182985,4213.525239
59397.584508,2294.638420,-7402.059420,3830.477490
59397.584818,2368.659014,-5403.503377,2451.505594
59397.585128,-74.020594,-8882.471304,-76.609550
59397.585437,-1258.350101,-8882.471304,-689.485948
59397.585747,1184.329507,-10140.821405,1225.752797
59397.586057,4663.297435,-13619.789333,-76.609550
59397.586367,0.000000,-10140.821405,-459.657299
59397.586676,-2368.659014,-12213.398043,0.000000
59397.586986,1406.391290,-12139.377449,383.047749
59397.587296,1850.514855,-9474.636058,536.266849
59397.587606,-296.082377,-7772.162391,-612.876398
59397.587915,-74.020594,-8882.471304,-76.609550
59397.588225,3552.988522,-5995.668130,1225.752797
59397.588535,9474.636058,-5699.585753,4290.134789
59397.588845,5847.626942,-5847.626942,2374.896044
59397.589154,1776.494261,-9548.656652,3677.258390
59397.589464,-74.020594,-9474.636058,-383.047749
59397.589774,2294.638420,-9474.636058,-1302.362347
59397.590084,-2146.597232,-10362.883188,-2298.286494
59397.590393,-2368.659014,-12435.459826,-1455.581446
59397.590703,2294.638420,-10140.821405,76.609550
59397.591013,4737.318029,-8364.327145,612.876398
59397.591322,3478.967927,-10362.883188,1762.019645
59397.591632,-1554.432478,-9622.677246,0.000000
59397.591942,592.164754,-9548.656652,2451.505594
59397.592251,2294.638420,-6513.812290,-689.485948
59397.592561,-962.267725,-8882.471304,-76.609550
59397.592871,-1406.391290,-10066.800811,2681.334243
59397.593180,2294.638420,-9178.553681,-76.609550
59397.593490,1184.329507,-5403.503377,0.000000
59397.593800,-666.185348,-9178.553681,766.095498
59397.594109,-5921.647536,-8364.327145,-2145.067394
59397.594419,-1776.494261,-10732.986159,1225.752797
59397.594728,-74.020594,-9474.636058,-76.609550
59397.595038,-4737.318029,-8364.327145,0.000000
59397.595348,-2442.679609,-10658.965565,-76.609550
59397.595657,0.000000,-5995.668130,1225.752797
59397.595967,1628.453072,-6069.688724,1532.190996
59397.596277,-1628.453072,-7772.162391,766.095498
59397.596586,-4515.256246,-10288.862594,459.657299
59397.596896,-3108.864956,-10066.800811,689.485948
59397.597206,-74.020594,-11547.212695,2374.896044
59397.597515,-4515.256246,-8660.409521,-1302.362347
59397.597825,-5921.647536,-8956.491898,0.000000
59397.598135,2294.638420,-11547.212695,4826.401637
59397.598444,0.000000,-4811.338623,612.876398
59397.598754,-74.020594,-8882.471304,2374.896044
59397.599064,-2738.761985,-11103.089130,2681.334243
59397.599373,-814.226536,-8290.306550,1915.238745
59397.599683,0.000000,-7772.162391,1838.629195
59397.599993,-2146.597232,-7328.038826,229.828649
59397.600302,-4737.318029,-7476.080014,0.000000
59397.600612,1924.535449,-8364.327145,1991.848295
59397.600922,3775.050304,-9178.553681,2374.896044
59397.601231,-3330.926739,-7179.997637,0.000000
59397.601541,-814.226536,-13619.789333,2451.505594
59397.601851,-2368.659014,-11029.068536,1225.752797
59397.602160,-1184.329507,-9548.656652,0.000000
59397.602470,-3182.885551,-9992.780217,-383.047749
59397.602780,-2368.659014,-9622.677246,76.609550
59397.603089,3108.864956,-8068.244768,2451.505594
59397.603399,7031.956449,-7105.977043,3600.648841
59397.603708,370.102971,-6957.935855,1149.143247
59397.604018,-2368.659014,-8512.368333,612.876398
59397.604328,2294.638420,-9474.636058,-76.609550
59397.604637,1480.411884,-8956.491898,919.314598
59397.604947,-74.020594,-8290.306550,-1915.238745
59397.605257,0.000000,-10584.944971,612.876398
59397.605566,4145.153275,-8956.491898,1915.238745
59397.605876,4589.276840,-8512.368333,1455.581446
59397.606186,0.000000,-9326.594869,-229.828649
59397.606495,-2960.823768,-10732.986159,0.000000
59397.606805,-74.020594,-11399.171507,-689.485948
59397.607115,0.000000,-9030.512492,-1149.143247
59397.607424,-2442.679609,-9030.512492,-1378.971896
59397.607734,-1554.432478,-9326.594869,-536.266849
59397.608044,4663.297435,-7698.141797,1149.143247
59397.608353,5255.462188,-4811.338623,0.000000
59397.608663,3478.967927,-10584.944971,3907.087040
59397.608973,-2368.659014,-9548.656652,612.876398
59397.609282,1554.432478,-11029.068536,2221.676944
59397.609592,-666.185348,-7328.038826,612.876398
59397.609902,-2368.659014,-9474.636058,-76.609550
59397.610211,-1628.453072,-9696.697840,612.876398
59397.610521,2590.720797,-8216.285956,1762.019645
59397.610831,3034.844362,-7179.997637,1302.362347
59397.611140,-74.020594,-9474.636058,-76.609550
59397.611450,-4367.215058,-10658.965565,-1608.800546
59397.611760,-3552.988522,-10140.821405,0.000000
59397.612069,-74.020594,-11843.295072,-383.047749
59397.612379,-5255.462188,-9252.574275,-2681.334243
59397.612689,-3552.988522,-9622.677246,-1838.629195
59397.612998,2368.659014,-8882.471304,2451.505594
59397.613308,2886.803174,-7105.977043,2604.724693
59397.613617,-1258.350101,-8956.491898,2451.505594
59397.613927,-2886.803174,-10140.821405,3064.381992
59397.614237,1036.288319,-10510.924376,4826.401637
59397.614546,-74.020594,-9474.636058,3600.648841
59397.614856,-6513.812290,-5403.503377,0.000000
59397.615166,-2812.782580,-9474.636058,2451.505594
59397.615475,1998.556043,-7105.977043,1762.019645
59397.615785,4071.132681,-6809.894666,766.095498
59397.616095,-1628.453072,-8956.491898,1378.971896
59397.616404,-3627.009116,-11325.150913,153.219100
59397.616714,-2368.659014,-11251.130318,-842.705048
59397.617024,-2442.679609,-11695.253884,-76.609550
59397.617333,-3849.070898,-11769.274478,612.876398
59397.617643,-74.020594,-13619.789333,2987.772442
59397.617953,2664.741391,-6291.750507,2451.505594
59397.618262,5181.441594,-7179.997637,4596.572988
59397.618572,1110.308913,-8290.306550,3600.648841
59397.618882,-74.020594,-9474.636058,1762.019645
59397.619191,592.164754,-7846.182985,2298.286494
59397.619501,444.123565,-7105.977043,1149.143247
59397.619811,-2960.823768,-8586.388927,383.047749
59397.620120,-1850.514855,-8956.491898,1838.629195
59397.620430,2368.659014,-7476.080014,2451.505594
59397.620740,4441.235652,-8956.491898,3524.039291
59397.621049,-74.020594,-9474.636058,-842.705048
59397.621359,-3552.988522,-11917.315666,0.000000
59397.621669,-74.020594,-13027.624579,-383.047749
59397.621978,-518.144159,-11547.212695,-1302.362347
59397.622288,-4737.318029,-11029.068536,-2834.553343
59397.622598,-1258.350101,-10214.842000,-306.438199
59397.622907,4737.318029,-7698.141797,2298.286494
59397.623217,4811.338623,-5329.482782,2451.505594
59397.623526,0.000000,-6291.750507,1225.752797
59397.623836,888.247130,-10436.903782,3830.477490
59397.624146,1702.473667,-7698.141797,1455.581446
59397.624455,1480.411884,-8364.327145,2145.067394
59397.624765,-666.185348,-9400.615463,-76.609550
59397.625075,-296.082377,-9474.636058,2987.772442
59397.625384,3182.885551,-7254.018232,995.924147
59397.625694,2812.782580,-7550.100608,536.266849
59397.626004,-1924.535449,-10140.821405,-842.705048
59397.626313,-3034.844362,-11843.295072,-2451.505594
59397.626623,-2368.659014,-10140.821405,-2451.505594
59397.626933,-4737.318029,-8364.327145,-4290.134789
59397.627242,-3552.988522,-11325.150913,-919.314598
59397.627552,-1258.350101,-9178.553681,-842.705048
59397.627862,4145.153275,-7179.997637,3370.820191
59397.628171,5033.400406,-7105.977043,4749.792088
59397.628481,1702.473667,-7920.203579,3294.210641
59397.628791,444.123565,-9252.574275,3524.039291
59397.629100,1776.494261,-9030.512492,2911.162892
59397.629410,-518.144159,-7772.162391,0.000000
59397.629720,-4515.256246,-7698.141797,0.000000
59397.630029,-4737.318029,-7179.997637,0.000000
59397.630339,3034.844362,-9474.636058,2681.334243
59397.630649,814.226536,-6957.935855,76.609550
59397.630958,-3552.988522,-10140.821405,-76.609550
59397.631268,-4367.215058,-11621.233289,0.000000
59397.631578,-1850.514855,-11251.130318,-383.047749
59397.631887,-3330.926739,-10066.800811,-1378.971896
59397.632197,-4811.338623,-9918.759623,-766.095498
59397.632507,-1480.411884,-8956.491898,536.266849
59397.632816,4663.297435,-7105.977043,2681.334243
59397.633126,1554.432478,-3923.091493,1532.190996
59397.633435,-74.020594,-10066.800811,4596.572988
59397.633745,-1554.432478,-9326.594869,2374.896044
59397.634055,0.000000,-9548.656652,3983.696590
59397.634364,-2368.659014,-7179.997637,1225.752797
59397.634674,-4367.215058,-9918.759623,306.438199
59397.634984,-2590.720797,-9474.636058,995.924147
59397.635293,2220.617826,-7254.018232,1455.581446
59397.635603,1998.556043,-7105.977043,1762.019645
59397.635913,-74.020594,-11251.130318,-76.609550
59397.636222,-74.020594,-11251.130318,-76.609550
59397.636532,-2886.803174,-9548.656652,-1838.629195
59397.636842,-2368.659014,-10140.821405,-76.609550
59397.637151,-4219.173869,-11251.130318,-919.314598
59397.637461,-2960.823768,-7772.162391,0.000000
59397.637771,3627.009116,-8290.306550,2528.115143
59397.638080,3478.967927,-6735.874072,2068.457845
59397.638390,-1628.453072,-9474.636058,1838.629195
59397.638700,-962.267725,-10658.965565,3447.429741
59397.639009,2294.638420,-10362.883188,4213.525239
59397.639319,-74.020594,-7698.141797,-76.609550
59397.639629,-4737.318029,-7772.162391,0.000000
59397.639938,1110.308913,-9474.636058,2374.896044
59397.640248,3701.029710,-5551.544565,0.000000
59397.640558,3330.926739,-6365.771101,76.609550
59397.640867,-666.185348,-9548.656652,76.609550
59397.641177,-2294.638420,-11251.130318,-842.705048
59397.641487,-740.205942,-11103.089130,-1532.190996
59397.641796,-666.185348,-12361.439231,-612.876398
59397.642106,-4145.153275,-12139.377449,-2757.943793
59397.642415,1110.308913,-12731.542202,1149.143247
59397.642725,4367.215058,-7105.977043,536.266849
59397.643035,4145.153275,-7179.997637,2451.505594
59397.643344,814.226536,-9400.615463,612.876398
59397.643654,-74.020594,-10066.800811,1762.019645
59397.643964,1406.391290,-8660.409521,2221.676944
59397.644273,666.185348,-8290.306550,1378.971896
59397.644583,-1998.556043,-8586.388927,1378.971896
59397.644893,888.247130,-8364.327145,3064.381992
59397.645202,4737.318029,-5995.668130,2451.505594
59397.645512,4737.318029,-8512.368333,3064.381992
59397.645822,-1258.350101,-10066.800811,-383.047749
59397.646131,-4441.235652,-9548.656652,-3677.258390
59397.646441,-2960.823768,-10288.862594,-2987.772442
59397.646751,-1554.432478,-11843.295072,-2528.115143
59397.647060,-4737.318029,-10955.047942,-2221.676944
59397.647370,-444.123565,-10066.800811,153.219100
59397.647680,4885.359217,-6587.832884,2298.286494
59397.647989,2960.823768,-5995.668130,2451.505594
59397.648299,0.000000,-9030.512492,3294.210641
59397.648609,-1776.494261,-10140.821405,3677.258390
59397.648918,2294.638420,-9474.636058,3600.648841
59397.649228,-2368.659014,-7476.080014,1225.752797
59397.649538,-2442.679609,-9474.636058,2374.896044
59397.649847,1110.308913,-9474.636058,2987.772442
59397.650157,3478.967927,-6217.729913,2145.067394
59397.650467,1554.432478,-6735.874072,1225.752797
59397.650776,-2812.782580,-10140.821405,0.000000
59397.651086,-4737.318029,-9548.656652,-1225.752797
59397.651396,-2886.803174,-11103.089130,-76.609550
59397.651705,-5921.647536,-7179.997637,-3064.381992
59397.652015,-5329.482782,-11177.109724,-919.314598
59397.652324,-666.185348,-7920.203579,-2221.676944
59397.652634,4737.318029,-7254.018232,2528.115143
59397.652944,4663.297435,-9474.636058,2987.772442
59397.653253,-1110.308913,-9622.677246,1915.238745
59397.653563,-1776.494261,-11177.109724,2451.505594
59397.653873,740.205942,-8142.265362,2145.067394
59397.654182,-3552.988522,-7179.997637,0.000000
59397.654492,-4737.318029,-8290.306550,1762.019645
59397.654802,0.000000,-8512.368333,2604.724693
59397.655111,5847.626942,-5921.647536,3294.210641
59397.655421,1776.494261,-5995.668130,1225.752797
59397.655731,-1258.350101,-11843.295072,1762.019645
59397.656040,-2294.638420,-11843.295072,-76.609550
59397.656350,-1850.514855,-10881.027347,-2068.457845
59397.656660,-3923.091493,-9770.718434,-2987.772442
59397.656969,-5329.482782,-11251.130318,-1991.848295
59397.657279,-2146.597232,-7920.203579,-1302.362347
59397.657589,3775.050304,-7994.224174,153.219100
59397.657898,1184.329507,-7179.997637,612.876398
59397.658208,-74.020594,-12139.377449,3064.381992
59397.658518,-74.020594,-9770.718434,1149.143247
59397.658827,1110.308913,-9474.636058,2374.896044
59397.659137,-1184.329507,-8364.327145,1225.752797
59397.659447,-2442.679609,-9104.533087,1608.800546
59397.659756,888.247130,-7254.018232,1762.019645
59397.660066,5181.441594,-5403.503377,2757.943793
59397.660376,3182.885551,-5921.647536,2374.896044
59397.660685,-1850.514855,-10881.027347,1225.752797
59397.660995,-1258.350101,-11251.130318,-1302.362347
59397.661305,-2368.659014,-9548.656652,-2451.505594
59397.661614,-3552.988522,-9548.656652,-1225.752797
59397.661924,-3182.885551,-12139.377449,-842.705048
59397.662233,0.000000,-9548.656652,-1225.752797
59397.662543,5181.441594,-8068.244768,1149.143247
59397.662853,2664.741391,-9326.594869,1608.800546
59397.663162,-1554.432478,-11177.109724,1608.800546
59397.663472,-74.020594,-11843.295072,2374.896044
59397.663782,2294.638420,-9474.636058,4366.744339
59397.664091,-2590.720797,-6883.915261,229.828649
59397.664401,-3552.988522,-8364.327145,2757.943793
59397.664711,814.226536,-7105.977043,1149.143247
59397.665020,4737.318029,-4811.338623,3677.258390
59397.665330,1480.411884,-5403.503377,1532.190996
59397.665640,-2220.617826,-10362.883188,919.314598
59397.665949,-2368.659014,-10658.965565,-612.876398
59397.666259,-1998.556043,-9622.677246,-1915.238745
59397.666569,-3034.844362,-11769.274478,-2145.067394
59397.666878,-5625.565159,-10732.986159,-3294.210641
59397.667188,2294.638420,-11843.295072,2068.457845
59397.667498,4515.256246,-7328.038826,76.609550
59397.667807,2368.659014,-8364.327145,3677.258390
59397.668117,-2072.576638,-9548.656652,1225.752797
59397.668427,-1480.411884,-9622.677246,1608.800546
59397.668736,0.000000,-8068.244768,1991.848295
59397.669046,-2664.741391,-8068.244768,1225.752797
59397.669356,-3478.967927,-8364.327145,1915.238745
59397.669665,2960.823768,-7328.038826,3677.258390
59397.669975,4737.318029,-4515.256246,2451.505594
59397.670285,3182.885551,-8734.430116,2681.334243
59397.670594,-3627.009116,-9548.656652,-383.047749
59397.670904,-4737.318029,-9548.656652,-3064.381992
59397.671213,-2960.823768,-8364.327145,-3677.258390
59397.671523,-4219.173869,-10362.883188,-3140.991542
59397.671833,-4885.359217,-11251.130318,-2374.896044
59397.672142,1554.432478,-9474.636058,766.095498
59397.672452,5477.523971,-7994.224174,1608.800546
59397.672762,1184.329507,-8364.327145,612.876398
59397.673071,-2368.659014,-10955.047942,1455.581446
59397.673381,-1628.453072,-11621.233289,2451.505594
59397.673691,-74.020594,-9474.636058,1762.019645
59397.674000,-4737.318029,-7179.997637,0.000000
59397.674310,-2590.720797,-8290.306550,1149.143247
59397.674620,4071.132681,-8290.306550,3600.648841
59397.674929,5699.585753,-4293.194464,3370.820191
59397.675239,2072.576638,-6809.894666,2451.505594
59397.675549,-2146.597232,-10214.842000,459.657299
59397.675858,-3552.988522,-8956.491898,-2451.505594
59397.676168,-2960.823768,-7772.162391,-3370.820191
59397.676478,-5921.647536,-9548.656652,-2451.505594
59397.676787,-3034.844362,-11843.295072,-1302.362347
59397.677097,0.000000,-5995.668130,-2451.505594
59397.677407,6439.791695,-9474.636058,1762.019645
59397.677716,3404.947333,-11029.068536,2911.162892
59397.678026,-666.185348,-11769.274478,1915.238745
59397.678336,222.061783,-11251.130318,2374.896044
59397.678645,444.123565,-8586.388927,1685.410096
59397.678955,-3923.091493,-7402.059420,536.266849
59397.679265,-2738.761985,-7402.059420,229.828649
59397.679574,592.164754,-5995.668130,2451.505594
59397.679884,7031.956449,-5625.565159,4673.182538
59397.680194,0.000000,-4811.338623,0.000000
59397.680503,-370.102971,-12435.459826,3600.648841
59397.680813,-1184.329507,-10807.006753,0.000000
59397.681122,-1258.350101,-9844.739029,-1991.848295
59397.681432,-4367.215058,-10140.821405,-2681.334243
59397.681742,-3701.029710,-10807.006753,-1685.410096
59397.682051,2294.638420,-9474.636058,-76.609550
59397.682361,5625.565159,-9104.533087,1838.629195
59397.682671,592.164754,-8364.327145,766.095498
59397.682980,-888.247130,-11621.233289,2987.772442
59397.683290,-74.020594,-9474.636058,-76.609550
59397.683600,-74.020594,-10362.883188,2987.772442
59397.683909,-4737.318029,-9548.656652,612.876398
59397.684219,-3849.070898,-8882.471304,1608.800546
59397.684529,1702.473667,-7105.977043,2604.724693
59397.684838,4885.359217,-4219.173869,3217.601092
59397.685148,2886.803174,-8290.306550,2604.724693
59397.685458,-74.020594,-11251.130318,2374.896044
59397.685767,-1258.350101,-8512.368333,-689.485948
59397.686077,-2368.659014,-7772.162391,-4903.011187
59397.686387,-3034.844362,-12361.439231,-76.609550
59397.686696,-4145.153275,-12213.398043,-612.876398
59397.687006,0.000000,-8808.450710,0.000000
59397.687316,3775.050304,-9400.615463,766.095498
59397.687625,518.144159,-10288.862594,1149.143247
59397.687935,-2146.597232,-11991.336260,1685.410096
59397.688245,-74.020594,-11843.295072,2451.505594
59397.688554,-74.020594,-10658.965565,2681.334243
59397.688864,-3034.844362,-9474.636058,1149.143247
59397.689174,-4737.318029,-7179.997637,0.000000
59397.689483,5847.626942,-9474.636058,6665.030833
59397.689801,4737.318029,-2442.679609,3677.258390
59397.690111,962.267725,-5699.585753,1991.848295
59397.690421,-1924.535449,-9326.594869,1225.752797
59397.690730,-1184.329507,-9548.656652,0.000000
59397.691040,-2294.638420,-9178.553681,-1838.629195
59397.691350,-4441.235652,-11917.315666,-2451.505594
59397.691660,-2368.659014,-11917.315666,-1225.752797
59397.691970,2886.803174,-10658.965565,-76.609550
59397.692279,2960.823768,-7179.997637,0.000000
59397.692589,2294.638420,-13027.624579,3294.210641
59397.692899,-3552.988522,-9548.656652,0.000000
59397.693209,0.000000,-9548.656652,1838.629195
59397.693518,-592.164754,-8660.409521,1225.752797
59397.693828,-2812.782580,-9474.636058,2068.457845
59397.694138,-1924.535449,-8290.306550,1915.238745
59397.694448,5847.626942,-7698.141797,4826.401637
59397.694757,9400.615463,-6513.812290,6052.154434
59397.695067,2886.803174,-7105.977043,2374.896044
59397.695377,-2960.823768,-9548.656652,306.438199
59397.695687,-74.020594,-10658.965565,-76.609550
59397.695996,-3552.988522,-8364.327145,-3064.381992
59397.696306,-5403.503377,-10658.965565,-3294.210641
59397.696616,-3849.070898,-11029.068536,-2451.505594
59397.696926,2368.659014,-9992.780217,-306.438199
59397.697235,3997.112087,-8660.409521,536.266849
59397.697545,2146.597232,-11325.150913,1838.629195
59397.697855,-1776.494261,-11029.068536,306.438199
59397.698165,2294.638420,-11251.130318,2374.896044
59397.698474,-1480.411884,-7179.997637,0.000000
59397.698784,-1258.350101,-11843.295072,3600.648841
59397.699094,-4737.318029,-5995.668130,612.876398
59397.699404,2368.659014,-5995.668130,3370.820191
59397.699713,5477.523971,-4589.276840,3447.429741
59397.700023,518.144159,-7402.059420,2451.505594
59397.700333,-2368.659014,-9696.697840,919.314598
59397.700643,-74.020594,-11251.130318,-76.609550
59397.700952,-74.020594,-11843.295072,-76.609550
59397.701262,-4811.338623,-10066.800811,-2528.115143
59397.701572,-4737.318029,-9548.656652,-1838.629195
59397.701882,4071.132681,-11843.295072,2374.896044
59397.702192,4293.194464,-7772.162391,2145.067394
59397.702501,0.000000,-8660.409521,0.000000
59397.702811,-2368.659014,-11695.253884,1225.752797
59397.703121,-814.226536,-10807.006753,689.485948
59397.703431,-1998.556043,-9178.553681,-612.876398
59397.703740,-3627.009116,-9474.636058,-76.609550
59397.704050,-2442.679609,-11251.130318,2374.896044
59397.704360,1184.329507,-4959.379811,1608.800546
59397.704670,5329.482782,-5107.421000,4903.011187
59397.704979,2294.638420,-8290.306550,3600.648841
59397.705289,-296.082377,-9252.574275,2757.943793
59397.705599,0.000000,-7179.997637,0.000000
59397.705909,-1480.411884,-7772.162391,-306.438199
59397.706218,-4293.194464,-9622.677246,-1915.238745
59397.706528,-3034.844362,-10732.986159,-842.705048
59397.706838,3478.967927,-9474.636058,536.266849
59397.707148,4145.153275,-10732.986159,2145.067394
59397.707457,-1258.350101,-10658.965565,-1302.362347
59397.707767,-4737.318029,-10732.986159,0.000000
59397.708077,-370.102971,-13619.789333,2374.896044
59397.708387,-4737.318029,-5995.668130,-3677.258390
59397.708696,-4737.318029,-9548.656652,0.000000
59397.709006,-740.205942,-9252.574275,2528.115143
59397.709316,4737.318029,-6291.750507,4749.792088
59397.709626,5847.626942,-4219.173869,4213.525239
59397.709935,2294.638420,-8290.306550,5209.449386
59397.710245,-148.041188,-9548.656652,3677.258390
59397.710555,-74.020594,-7994.224174,-76.609550
59397.710865,-4441.235652,-8364.327145,-1838.629195
59397.711174,-1258.350101,-11769.274478,-76.609550
59397.711484,-4145.153275,-9548.656652,-3370.820191
59397.711794,2294.638420,-7402.059420,-842.705048
59397.712104,888.247130,-9400.615463,-689.485948
59397.712413,-2368.659014,-10214.842000,-1149.143247
59397.712723,-2812.782580,-12731.542202,-383.047749
59397.713033,-592.164754,-11029.068536,612.876398
59397.713343,-3552.988522,-9548.656652,0.000000
59397.713653,-1850.514855,-12435.459826,2987.772442
59397.713962,0.000000,-7328.038826,1225.752797
59397.714272,6143.709319,-7105.977043,6665.030833
59397.714582,4071.132681,-1406.391290,1838.629195
59397.714892,1110.308913,-8882.471304,3600.648841
59397.715201,-1480.411884,-8660.409521,1685.410096
59397.715511,-444.123565,-9918.759623,612.876398
59397.715821,-1480.411884,-8512.368333,-1302.362347
59397.716131,-6513.812290,-8956.491898,-3370.820191
59397.716440,-4737.318029,-8364.327145,-3064.381992
59397.716750,2664.741391,-9326.594869,766.095498
59397.717060,3775.050304,-9474.636058,-76.609550
59397.717370,-3552.988522,-8364.327145,-2374.896044
59397.717679,-1850.514855,-11843.295072,-76.609550
59397.717989,1110.308913,-10658.965565,842.705048
59397.718299,-814.226536,-9622.677246,229.828649
59397.718609,-2886.803174,-10140.821405,1302.362347
59397.718918,-222.061783,-8734.430116,2068.457845
59397.719228,2664.741391,-5403.503377,2451.505594
59397.719538,5329.482782,-5773.606348,2987.772442
59397.719848,-1776.494261,-7772.162391,2451.505594
59397.720157,-74.020594,-10658.965565,2987.772442
59397.720467,-1850.514855,-5995.668130,0.000000
59397.720777,-74.020594,-8882.471304,-76.609550
59397.721087,-2442.679609,-10584.944971,-76.609550
59397.721396,-1702.473667,-9844.739029,-76.609550
59397.721706,3108.864956,-7698.141797,229.828649
59397.722016,2368.659014,-8586.388927,383.047749
59397.722326,-2146.597232,-9474.636058,-383.047749
59397.722635,-2146.597232,-13027.624579,842.705048
59397.722945,-1554.432478,-9548.656652,-1532.190996
59397.723255,-2368.659014,-9548.656652,0.000000
59397.723565,-1258.350101,-14211.954086,-76.609550
59397.723874,-74.020594,-11251.130318,2987.772442
59397.724184,3849.070898,-7179.997637,3677.258390
59397.724494,3478.967927,-5773.606348,3140.991542
59397.724804,-444.123565,-8660.409521,3140.991542
59397.725114,0.000000,-9030.512492,2528.115143
59397.725423,2886.803174,-7105.977043,1991.848295
59397.725733,0.000000,-7031.956449,995.924147
59397.726043,-4071.132681,-7920.203579,-1455.581446
59397.726353,-3256.906145,-8956.491898,0.000000
59397.726662,4663.297435,-9474.636058,-76.609550
59397.726972,1332.370696,-10584.944971,1149.143247
59397.727282,-4145.153275,-10732.986159,-1225.752797
59397.727592,-2146.597232,-12139.377449,-76.609550
59397.727901,-740.205942,-10362.883188,-536.266849
59397.728211,-2738.761985,-9474.636058,-1149.143247
59397.728521,-3627.009116,-11843.295072,-383.047749
59397.728831,-740.205942,-9178.553681,1762.019645
59397.729140,5847.626942,-7105.977043,3600.648841
59397.729450,2368.659014,-5995.668130,3677.258390
59397.729760,2294.638420,-9474.636058,4213.525239
59397.730070,0.000000,-7772.162391,3677.258390
59397.730379,296.082377,-6587.832884,1378.971896
59397.730689,-1406.391290,-7624.121203,-766.095498
59397.730999,-4071.132681,-9400.615463,-919.314598
59397.731309,-1702.473667,-10140.821405,-766.095498
59397.731618,3478.967927,-9252.574275,-459.657299
59397.731928,0.000000,-9252.574275,-842.705048
59397.732238,-814.226536,-12879.583391,-76.609550
59397.732548,-2146.597232,-11251.130318,-1915.238745
59397.732857,-2368.659014,-9548.656652,0.000000
59397.733167,-3552.988522,-9548.656652,0.000000
59397.733477,-4071.132681,-9844.739029,0.000000
59397.733787,296.082377,-9548.656652,2757.943793
59397.734096,4737.318029,-6439.791695,3140.991542
59397.734406,2516.700203,-6809.894666,3064.381992
59397.734716,-1480.411884,-8364.327145,2604.724693
59397.735026,-1332.370696,-8734.430116,1455.581446
59397.735335,2294.638420,-8290.306550,2221.676944
59397.735645,-2072.576638,-5625.565159,-1915.238745
59397.735955,-4737.318029,-8364.327145,0.000000
59397.736265,-2368.659014,-6587.832884,0.000000
59397.736575,4219.173869,-7698.141797,536.266849
59397.736884,1628.453072,-7920.203579,689.485948
59397.737194,-2146.597232,-11029.068536,153.219100
59397.737504,-2220.617826,-12139.377449,-306.438199
59397.737814,-1776.494261,-10436.903782,-536.266849
59397.738123,-4737.318029,-10140.821405,-1838.629195
59397.738433,-3034.844362,-13323.706956,1149.143247
59397.738743,-1110.308913,-8364.327145,0.000000
59397.739053,5329.482782,-8068.244768,4903.011187
59397.739362,1998.556043,-4811.338623,1225.752797
59397.739672,-1258.350101,-8882.471304,2987.772442
59397.739982,-296.082377,-8068.244768,2604.724693
59397.740292,1998.556043,-6439.791695,1838.629195
59397.740601,0.000000,-7476.080014,1455.581446
59397.740911,-3552.988522,-7994.224174,919.314598
59397.741221,0.000000,-6587.832884,0.000000
59397.741531,4811.338623,-8586.388927,1915.238745
59397.741840,1998.556043,-8290.306550,-1302.362347
59397.742150,-5921.647536,-10732.986159,0.000000
59397.742460,-2442.679609,-12435.459826,-2528.115143
59397.742770,-1258.350101,-12435.459826,-1915.238745
59397.743079,-3997.112087,-11325.150913,-2451.505594
59397.743389,-4589.276840,-11769.274478,-766.095498
59397.743699,-222.061783,-9474.636058,1378.971896
59397.744009,3330.926739,-6883.915261,2987.772442
59397.744318,3182.885551,-6883.915261,3907.087040
59397.744628,0.000000,-7179.997637,3064.381992
59397.744938,2294.638420,-8882.471304,4826.401637
59397.745248,0.000000,-4811.338623,2451.505594
59397.745557,2294.638420,-7105.977043,2374.896044
59397.745867,-1332.370696,-9400.615463,1149.143247
59397.746177,-74.020594,-9178.553681,-76.609550
59397.746487,2220.617826,-7254.018232,-766.095498
59397.746796,-666.185348,-9178.553681,-995.924147
59397.747106,-3034.844362,-12361.439231,-1762.019645
59397.747416,-3256.906145,-13619.789333,-1149.143247
59397.747726,-2590.720797,-11103.089130,-2528.115143
59397.748036,-3552.988522,-11325.150913,0.000000
59397.748345,-74.020594,-13027.624579,1762.019645
59397.748655,4071.132681,-11251.130318,4213.525239
59397.748965,3701.029710,-5403.503377,3370.820191
59397.749275,1554.432478,-6809.894666,2681.334243
59397.749584,0.000000,-8364.327145,3294.210641
59397.749894,2220.617826,-7624.121203,3677.258390
59397.750204,2812.782580,-7105.977043,4519.963438
59397.750514,-74.020594,-7105.977043,-76.609550
59397.750823,-4737.318029,-8364.327145,0.000000
59397.751133,2220.617826,-10584.944971,3524.039291
59397.751443,4663.297435,-8882.471304,-76.609550
59397.751753,740.205942,-9474.636058,842.705048
59397.752062,-3552.988522,-11621.233289,0.000000
59397.752372,-1258.350101,-12213.398043,-383.047749
59397.752682,-1332.370696,-11473.192101,-689.485948
59397.752992,-3923.091493,-10510.924376,-1149.143247
59397.753301,-3182.885551,-11177.109724,0.000000
59397.753611,592.164754,-9548.656652,2451.505594
59397.753921,4663.297435,-7105.977043,3140.991542
59397.754231,0.000000,-5995.668130,3677.258390
59397.754540,-74.020594,-9474.636058,4213.525239
59397.754850,0.000000,-8364.327145,3677.258390
59397.755160,592.164754,-6291.750507,1378.971896
59397.755470,-1332.370696,-7550.100608,383.047749
59397.755779,-3034.844362,-9548.656652,229.828649
59397.756089,592.164754,-8586.388927,689.485948
59397.756399,3552.988522,-6883.915261,0.000000
59397.756709,444.123565,-8660.409521,612.876398
59397.757018,-1554.432478,-11843.295072,-76.609550
59397.757328,-4219.173869,-9548.656652,-2834.553343
59397.757638,-2368.659014,-11029.068536,0.000000
59397.757948,-4737.318029,-9548.656652,0.000000
59397.758257,-4811.338623,-10584.944971,-1225.752797
59397.758567,0.000000,-8734.430116,1225.752797
59397.758877,2886.803174,-6883.915261,1762.019645
59397.759187,296.082377,-8142.265362,1915.238745
59397.759497,-2220.617826,-9548.656652,2068.457845
59397.759806,0.000000,-8660.409521,2757.943793
59397.760116,2886.803174,-8290.306550,2374.896044
59397.760426,-3552.988522,-4811.338623,0.000000
59397.760736,-74.020594,-11029.068536,2987.772442
59397.761045,0.000000,-5107.421000,0.000000
59397.761355,5255.462188,-7105.977043,842.705048
59397.761665,1258.350101,-8882.471304,612.876398
59397.761975,-2368.659014,-11843.295072,76.609550
59397.762284,-2294.638420,-12065.356855,-1072.533697
59397.762594,-3552.988522,-9770.718434,-2528.115143
59397.762904,-7105.977043,-10140.821405,-3064.381992
59397.763214,-3775.050304,-12139.377449,-153.219100
59397.763523,-2368.659014,-7179.997637,0.000000
59397.763833,5033.400406,-8216.285956,3677.258390
59397.764143,222.061783,-6217.729913,842.705048
59397.764453,-962.267725,-10066.800811,2681.334243
59397.764762,1332.370696,-8734.430116,3217.601092
59397.765072,2812.782580,-5847.626942,2681.334243
59397.765382,-1258.350101,-7550.100608,1762.019645
59397.765692,-2146.597232,-8290.306550,2068.457845
59397.766001,296.082377,-6735.874072,76.609550
59397.766311,4737.318029,-6587.832884,2374.896044
59397.766621,-74.020594,-8290.306550,-1302.362347
59397.766931,-4441.235652,-11621.233289,0.000000
59397.767240,-2442.679609,-11843.295072,-2528.115143
59397.767550,-2368.659014,-11325.150913,-2221.676944
59397.767860,-4515.256246,-12139.377449,-2068.457845
59397.768170,-3923.091493,-11769.274478,0.000000
59397.768479,1628.453072,-8882.471304,1991.848295
59397.768789,5847.626942,-7698.141797,3600.648841
59397.769099,1406.391290,-7105.977043,2681.334243
59397.769409,-2368.659014,-8364.327145,1225.752797
59397.769719,3478.967927,-10658.965565,4826.401637
59397.770028,2294.638420,-7105.977043,1762.019645
59397.770338,-74.020594,-7550.100608,1149.143247
59397.770648,-2960.823768,-8364.327145,612.876398
59397.770958,1998.556043,-7698.141797,1149.143247
59397.771267,4071.132681,-6661.853478,766.095498
59397.771577,962.267725,-9992.780217,766.095498
59397.771887,-740.205942,-13101.645173,1685.410096
59397.772197,-1258.350101,-12731.542202,-383.047749
59397.772506,-2960.823768,-9548.656652,-4443.353888
59397.772816,-3404.947333,-13101.645173,0.000000
59397.773126,-2442.679609,-11843.295072,-76.609550
59397.773436,3478.967927,-9474.636058,2374.896044
59397.773745,2368.659014,-5551.544565,1378.971896
59397.774055,592.164754,-8068.244768,2757.943793
59397.774365,-1258.350101,-9252.574275,2604.724693
59397.774675,666.185348,-8142.265362,2528.115143
59397.774984,888.247130,-6883.915261,2911.162892
59397.775294,-1258.350101,-8882.471304,1608.800546
59397.775604,-3552.988522,-7179.997637,0.000000
59397.775914,4145.153275,-9474.636058,3600.648841
59397.776223,5255.462188,-7105.977043,1149.143247
59397.776533,1776.494261,-9474.636058,2987.772442
59397.776843,-2368.659014,-10807.006753,76.609550
59397.777153,-1776.494261,-11399.171507,-1455.581446
59397.777462,-2590.720797,-10955.047942,-2221.676944
59397.777772,-4811.338623,-11843.295072,-1991.848295
59397.778082,-4737.318029,-10732.986159,0.000000
59397.778392,1332.370696,-8956.491898,536.266849
59397.778701,3478.967927,-7105.977043,-76.609550
59397.779011,0.000000,-7772.162391,2451.505594
59397.779321,1406.391290,-11843.295072,3983.696590
59397.779631,1184.329507,-8956.491898,3983.696590
59397.779940,1110.308913,-7105.977043,1685.410096
59397.780250,-2368.659014,-7402.059420,1225.752797
59397.780560,-2146.597232,-8216.285956,1225.752797
59397.780870,2738.761985,-6735.874072,2298.286494
59397.781180,2368.659014,-4219.173869,0.000000
59397.781489,-814.226536,-8882.471304,306.438199
59397.781799,-1258.350101,-14211.954086,2374.896044
59397.782109,-2442.679609,-9770.718434,-2528.115143
59397.782419,-3552.988522,-10732.986159,-2451.505594
59397.782728,-7105.977043,-10732.986159,-2451.505594
59397.783038,-3923.091493,-11843.295072,-1302.362347
59397.783348,0.000000,-9104.533087,306.438199
59397.783658,3478.967927,-8586.388927,1915.238745
59397.783967,1702.473667,-7994.224174,2834.553343
59397.784277,-74.020594,-8734.430116,3294.210641
59397.784587,1184.329507,-6587.832884,2451.505594
59397.784897,1702.473667,-9474.636058,4826.401637
59397.785206,-3552.988522,-4811.338623,0.000000
59397.785516,-1406.391290,-9474.636058,2374.896044
59397.785826,1480.411884,-4811.338623,459.657299
59397.786136,4293.194464,-7402.059420,1762.019645
59397.786445,444.123565,-8882.471304,842.705048
59397.786755,-2220.617826,-12213.398043,766.095498
59397.787065,-1998.556043,-11621.233289,-383.047749
59397.787375,-1850.514855,-10066.800811,-2528.115143
59397.787684,-6513.812290,-10732.986159,-2451.505594
59397.787994,-2368.659014,-11917.315666,2451.505594
59397.788304,2294.638420,-8290.306550,-76.609550
59397.788614,2368.659014,-5995.668130,612.876398
59397.788924,-888.247130,-7772.162391,1378.971896
59397.789233,-740.205942,-9844.739029,2221.676944
59397.789543,1110.308913,-8216.285956,2068.457845
59397.789853,74.020594,-7031.956449,1302.362347
59397.790163,-2812.782580,-7624.121203,1072.533697
59397.790473,-74.020594,-10658.965565,2374.896044
59397.790783,3478.967927,-5773.606348,1762.019645
59397.791092,4737.318029,-5995.668130,3677.258390
59397.791402,2886.803174,-9474.636058,2374.896044
59397.791712,-3330.926739,-10140.821405,0.000000
59397.792022,-962.267725,-10658.965565,-2451.505594
59397.792332,-3552.988522,-10881.027347,-2757.943793
59397.792642,-5699.585753,-11843.295072,-2681.334243
59397.792951,-3404.947333,-11547.212695,-1225.752797
59397.793261,740.205942,-8438.347739,1149.143247
59397.793571,4071.132681,-8882.471304,3294.210641
59397.793881,-2220.617826,-8660.409521,1225.752797
59397.794191,-2368.659014,-9548.656652,2451.505594
59397.794501,3478.967927,-10658.965565,4213.525239
59397.794811,222.061783,-5995.668130,1149.143247
59397.795120,-2146.597232,-7624.121203,1762.019645
59397.795430,-74.020594,-8660.409521,2681.334243
59397.795740,5033.400406,-6513.812290,3294.210641
59397.796050,4885.359217,-5329.482782,2451.505594
59397.796360,148.041188,-9252.574275,2987.772442
59397.796670,-1332.370696,-12657.521608,2374.896044
59397.796979,-1554.432478,-11547.212695,-1302.362347
59397.797289,-7105.977043,-7772.162391,-4903.011187
59397.797599,-4219.173869,-13915.871710,-1302.362347
59397.797909,-3997.112087,-10362.883188,-2145.067394
59397.798219,4367.215058,-8808.450710,-76.609550
59397.798529,3034.844362,-7254.018232,766.095498
59397.798839,148.041188,-9770.718434,1991.848295
59397.799148,-370.102971,-10584.944971,2757.943793
59397.799458,1406.391290,-8586.388927,2757.943793
59397.799768,0.000000,-8068.244768,2451.505594
59397.800078,-1850.514855,-9474.636058,3600.648841
59397.800388,-1554.432478,-6143.709319,0.000000
59397.800698,5477.523971,-7031.956449,3983.696590
59397.801007,5847.626942,-6513.812290,2374.896044
59397.801317,-74.020594,-9474.636058,2374.896044
59397.801627,-3404.947333,-11029.068536,153.219100
59397.801937,-1702.473667,-10362.883188,-1302.362347
59397.802247,-3108.864956,-10436.903782,-1685.410096
59397.802557,-4811.338623,-11621.233289,-2451.505594
59397.802867,-3552.988522,-9548.656652,0.000000
59397.803176,3404.947333,-9696.697840,2451.505594
59397.803486,4663.297435,-8290.306550,-76.609550
59397.803796,-2368.659014,-9548.656652,1532.190996
59397.804106,1406.391290,-11547.212695,3600.648841
59397.804416,1480.411884,-9474.636058,3600.648841
59397.804726,-1036.288319,-7476.080014,842.705048
59397.805035,-3552.988522,-7920.203579,842.705048
59397.805345,-1110.308913,-7994.224174,1838.629195
59397.805655,4589.276840,-4811.338623,919.314598
59397.805965,2368.659014,-3627.009116,1838.629195
59397.806275,0.000000,-8660.409521,2451.505594
59397.806585,-74.020594,-13027.624579,2374.896044
59397.806895,-2368.659014,-8068.244768,-2451.505594
59397.807204,-2960.823768,-11029.068536,-1378.971896
59397.807514,-5329.482782,-12583.501014,-766.095498
59397.807824,-1998.556043,-11547.212695,-536.266849
59397.808134,2220.617826,-8512.368333,306.438199
59397.808444,1406.391290,-9178.553681,383.047749
59397.808754,-1776.494261,-9548.656652,0.000000
59397.809063,-1850.514855,-8808.450710,0.000000
59397.809373,0.000000,-7328.038826,0.000000
59397.809683,1702.473667,-9474.636058,3294.210641
59397.809993,-4219.173869,-6587.832884,0.000000
59397.810303,1184.329507,-8808.450710,4213.525239
59397.810613,4145.153275,-5107.421000,3677.258390
59397.810922,4071.132681,-5921.647536,2374.896044
59397.811232,-740.205942,-9770.718434,1455.581446
59397.811542,-1406.391290,-10881.027347,536.266849
59397.811852,-1184.329507,-10066.800811,-689.485948
59397.812162,-3034.844362,-10066.800811,-4366.744339
59397.812472,-6809.894666,-10140.821405,-4903.011187
59397.812782,-74.020594,-13323.706956,1762.019645
59397.813091,1702.473667,-7402.059420,-842.705048
59397.813401,1776.494261,-8956.491898,2757.943793
59397.813711,-2072.576638,-9548.656652,612.876398
59397.814021,-888.247130,-10584.944971,2145.067394
59397.814331,740.205942,-8068.244768,1378.971896
59397.814641,-1702.473667,-7254.018232,229.828649
59397.814950,-3627.009116,-9178.553681,1762.019645
59397.815260,-74.020594,-9178.553681,2374.896044
59397.815570,4367.215058,-5329.482782,1149.143247
59397.815880,1184.329507,-5403.503377,2451.505594
59397.816190,-74.020594,-10658.965565,2374.896044
59397.816500,-1850.514855,-10362.883188,0.000000
59397.816810,-1554.432478,-7772.162391,-2604.724693
59397.817119,-3256.906145,-9548.656652,-1838.629195
59397.817429,-5181.441594,-11843.295072,-1302.362347
59397.817739,-1480.411884,-10658.965565,-383.047749
59397.818049,4071.132681,-9474.636058,1762.019645
59397.818359,4367.215058,-9474.636058,3600.648841
59397.818669,-74.020594,-10658.965565,-76.609550
59397.818978,-3552.988522,-8364.327145,0.000000
59397.819288,2146.597232,-10658.965565,2374.896044
59397.819598,-1702.473667,-7402.059420,-1838.629195
59397.819908,-4219.173869,-8438.347739,-383.047749
59397.820218,740.205942,-8216.285956,2221.676944
59397.820528,5773.606348,-5403.503377,3064.381992
59397.820838,4589.276840,-6217.729913,2834.553343
59397.821147,1628.453072,-10510.924376,4903.011187
59397.821457,740.205942,-11843.295072,4673.182538
59397.821767,1110.308913,-11843.295072,-76.609550
59397.822077,-4737.318029,-8068.244768,-3600.648841
59397.822387,-4737.318029,-12509.480420,-612.876398
59397.822697,-1702.473667,-10436.903782,-1991.848295
59397.823006,3330.926739,-8290.306550,-76.609550
59397.823316,962.267725,-8586.388927,383.047749
59397.823626,-1480.411884,-10807.006753,1149.143247
59397.823936,-592.164754,-9992.780217,1608.800546
59397.824246,592.164754,-7772.162391,1532.190996
59397.824556,-1480.411884,-8956.491898,1838.629195
59397.824865,-2220.617826,-10732.986159,3370.820191
59397.825175,-74.020594,-7550.100608,1149.143247
59397.825485,4737.318029,-5107.421000,2757.943793
59397.825795,5255.462188,-5921.647536,3294.210641
59397.826105,2294.638420,-10658.965565,3600.648841
59397.826415,-518.144159,-9770.718434,919.314598
59397.826725,-1332.370696,-9844.739029,-766.095498
59397.827034,-3849.070898,-10955.047942,-1455.581446
59397.827344,-6513.812290,-10732.986159,-2451.505594
59397.827654,-3552.988522,-9548.656652,0.000000
59397.827964,2368.659014,-9548.656652,2451.505594
59397.828274,2294.638420,-9474.636058,-76.609550
59397.828584,-2368.659014,-9548.656652,612.876398
59397.828893,962.267725,-11251.130318,2374.896044
59397.829203,2294.638420,-8882.471304,2374.896044
59397.829513,-1998.556043,-8216.285956,229.828649
59397.829823,-3478.967927,-8660.409521,766.095498
59397.830133,740.205942,-7994.224174,2298.286494
59397.830443,2442.679609,-3627.009116,0.000000
59397.830753,0.000000,-4811.338623,0.000000
59397.831062,-2368.659014,-9548.656652,2451.505594
59397.831372,1702.473667,-11843.295072,2374.896044
59397.831682,-1258.350101,-8438.347739,-1072.533697
59397.831992,-3627.009116,-11843.295072,-76.609550
59397.832302,-4737.318029,-11917.315666,0.000000
59397.832612,-74.020594,-10510.924376,306.438199
59397.832921,3182.885551,-7624.121203,0.000000
59397.833231,1036.288319,-8734.430116,995.924147
59397.833541,-1850.514855,-9770.718434,-383.047749
59397.833851,-1258.350101,-8438.347739,-689.485948
59397.834161,0.000000,-7179.997637,0.000000
59397.834471,-222.061783,-10658.965565,1762.019645
59397.834781,-5329.482782,-8956.491898,0.000000
59397.835090,2294.638420,-10955.047942,4213.525239
59397.835400,2960.823768,-4811.338623,1838.629195
59397.835710,2368.659014,-7179.997637,2987.772442
59397.836020,-740.205942,-9252.574275,2834.553343
59397.836330,0.000000,-9696.697840,1838.629195
59397.836640,1702.473667,-9474.636058,-76.609550
59397.836949,-1554.432478,-9474.636058,-689.485948
59397.837259,-7105.977043,-9548.656652,0.000000
59397.837569,2294.638420,-11843.295072,1762.019645
59397.837879,1184.329507,-6587.832884,-1225.752797
59397.838189,0.000000,-9548.656652,1838.629195
59397.838499,-3552.988522,-10140.821405,0.000000
59397.838808,-1184.329507,-10658.965565,383.047749
59397.839118,-444.123565,-9178.553681,-459.657299
59397.839428,-3182.885551,-9400.615463,-766.095498
59397.839738,-1258.350101,-11843.295072,2374.896044
59397.840048,3478.967927,-9474.636058,4213.525239
59397.840358,4071.132681,-3552.988522,842.705048
59397.840668,2368.659014,-7476.080014,3830.477490
59397.840977,-74.020594,-8438.347739,2068.457845
59397.841287,0.000000,-7179.997637,2451.505594
59397.841597,518.144159,-7179.997637,229.828649
59397.841907,-2294.638420,-9252.574275,0.000000
59397.842217,-3330.926739,-11399.171507,153.219100
59397.842527,-148.041188,-10066.800811,-536.266849
59397.842836,3997.112087,-11103.089130,1149.143247
59397.843146,-74.020594,-11843.295072,-76.609550
59397.843456,-2442.679609,-11843.295072,-1302.362347
59397.843766,-4441.235652,-10732.986159,0.000000
59397.844076,2146.597232,-9178.553681,2374.896044
59397.844386,-3627.009116,-8364.327145,0.000000
59397.844696,-1258.350101,-7698.141797,842.705048
59397.845005,1554.432478,-7772.162391,2987.772442
59397.845315,6217.729913,-3997.112087,2604.724693
59397.845625,2220.617826,-6587.832884,2987.772442
59397.845935,-1184.329507,-9548.656652,3677.258390
59397.846245,888.247130,-11029.068536,0.000000
59397.846555,-74.020594,-10658.965565,-76.609550
59397.846864,-4737.318029,-9548.656652,-2451.505594
59397.847174,-3034.844362,-13619.789333,-76.609550
59397.847484,-666.185348,-6365.771101,-1455.581446
59397.847794,4071.132681,-9474.636058,842.705048
59397.848104,666.185348,-7846.182985,919.314598
59397.848414,-1850.514855,-11103.089130,1149.143247
59397.848724,-148.041188,-10214.842000,536.266849
59397.849033,0.000000,-7772.162391,0.000000
59397.849343,-4145.153275,-9548.656652,0.000000
59397.849653,-3552.988522,-10436.903782,1225.752797
59397.849963,2294.638420,-9178.553681,2374.896044
59397.850273,2664.741391,-3627.009116,1225.752797
59397.850583,2886.803174,-8290.306550,2374.896044
59397.850892,-74.020594,-11251.130318,2987.772442
59397.851202,-74.020594,-9474.636058,1608.800546
59397.851512,296.082377,-8734.430116,0.000000
59397.851822,-2664.741391,-9844.739029,229.828649
59397.852132,-4737.318029,-8364.327145,0.000000
59397.852442,0.000000,-6587.832884,-1149.143247
59397.852752,2960.823768,-7772.162391,1838.629195
59397.853061,-74.020594,-9474.636058,-76.609550
59397.853371,-2960.823768,-10732.986159,306.438199
59397.853681,-74.020594,-11843.295072,-76.609550
59397.853991,-74.020594,-9770.718434,306.438199
59397.854301,-3775.050304,-10066.800811,-383.047749
59397.854611,-2960.823768,-9844.739029,306.438199
59397.854920,1554.432478,-7846.182985,1608.800546
59397.855230,2886.803174,-3627.009116,229.828649
59397.855540,0.000000,-6291.750507,1149.143247
59397.855850,-3552.988522,-8364.327145,2451.505594
59397.856160,1998.556043,-10658.965565,2374.896044
59397.856470,-1184.329507,-7772.162391,0.000000
59397.856779,-370.102971,-11843.295072,4060.306139
59397.857089,-2368.659014,-9696.697840,1225.752797
59397.857399,2590.720797,-8068.244768,1532.190996
59397.857709,2738.761985,-7328.038826,919.314598
59397.858019,-666.185348,-9252.574275,229.828649
59397.858329,-1850.514855,-10658.965565,-383.047749
59397.858639,-1258.350101,-11251.130318,-76.609550
59397.858948,-4145.153275,-7772.162391,-3370.820191
59397.859258,-5329.482782,-11621.233289,-612.876398
59397.859568,-2442.679609,-11251.130318,-689.485948
59397.859878,1776.494261,-8364.327145,3064.381992
59397.860188,2960.823768,-4811.338623,2451.505594
59397.860498,1110.308913,-7994.224174,2987.772442
59397.860807,-666.185348,-9400.615463,2757.943793
59397.861117,740.205942,-9252.574275,2221.676944
59397.861427,-74.020594,-9474.636058,2068.457845
59397.861737,-1258.350101,-11843.295072,-76.609550
59397.862047,-3034.844362,-8068.244768,0.000000
59397.862357,2368.659014,-7179.997637,1838.629195
59397.862667,4071.132681,-9474.636058,2374.896044
59397.862976,-2368.659014,-8364.327145,0.000000
59397.863286,-3923.091493,-10140.821405,0.000000
59397.863596,-888.247130,-11029.068536,-766.095498
59397.863906,-1850.514855,-10140.821405,-1455.581446
59397.864216,-4811.338623,-10955.047942,-1225.752797
59397.864526,-74.020594,-11843.295072,1455.581446
59397.864835,4663.297435,-8586.388927,3217.601092
59397.865145,4663.297435,-6513.812290,2068.457845
59397.865455,-2368.659014,-6587.832884,1225.752797
59397.865765,-74.020594,-10658.965565,3600.648841
59397.866075,0.000000,-6587.832884,0.000000
59397.866385,518.144159,-7402.059420,536.266849
59397.866695,-2368.659014,-9400.615463,1149.143247
59397.867004,-1480.411884,-9474.636058,1762.019645
59397.867314,3256.906145,-8068.244768,1685.410096
59397.867624,5033.400406,-8808.450710,2451.505594
59397.867934,0.000000,-9548.656652,2451.505594
59397.868244,-666.185348,-13619.789333,1762.019645
59397.868554,-962.267725,-10658.965565,-1302.362347
59397.868863,-2368.659014,-10732.986159,0.000000
59397.869173,-5551.544565,-10066.800811,-2451.505594
59397.869483,-2442.679609,-10658.965565,-383.047749
59397.869793,1480.411884,-7328.038826,1072.533697
59397.870103,3404.947333,-5181.441594,1685.410096
59397.870413,370.102971,-7402.059420,2681.334243
59397.870722,0.000000,-8660.409521,3064.381992
59397.871032,0.000000,-7179.997637,2451.505594
59397.871342,3182.885551,-10658.965565,2374.896044
59397.871652,-3182.885551,-7772.162391,0.000000
59397.871962,-74.020594,-12435.459826,4213.525239
59397.872272,2294.638420,-5847.626942,0.000000
59397.872582,3478.967927,-8290.306550,1149.143247
59397.872891,-1554.432478,-9918.759623,-612.876398
59397.873201,-2886.803174,-12213.398043,-153.219100
59397.873511,-1258.350101,-11251.130318,-1378.971896
59397.873821,-4737.318029,-8364.327145,-3064.381992
59397.874131,-8290.306550,-9548.656652,-2451.505594
59397.874441,-666.185348,-11695.253884,1762.019645
59397.874750,2146.597232,-6291.750507,536.266849
59397.875060,4219.173869,-8290.306550,4673.182538
59397.875370,1702.473667,-8290.306550,2068.457845
59397.875680,1110.308913,-9992.780217,3753.867940
59397.875990,1924.535449,-9178.553681,2987.772442
59397.876300,0.000000,-9030.512492,689.485948
59397.876610,-3034.844362,-9548.656652,919.314598
59397.876919,-3552.988522,-8364.327145,0.000000
59397.877229,1406.391290,-5181.441594,0.000000
59397.877539,1184.329507,-7179.997637,1532.190996
59397.877849,-148.041188,-10658.965565,1149.143247
59397.878159,-5699.585753,-9548.656652,-2451.505594
59397.878469,-74.020594,-11843.295072,-76.609550
59397.878778,-2368.659014,-10140.821405,-919.314598
59397.879088,-4959.379811,-10807.006753,-766.095498
59397.879398,-2368.659014,-9770.718434,0.000000
59397.879708,2442.679609,-6735.874072,842.705048
59397.880018,2294.638420,-5329.482782,1149.143247
59397.880328,-74.020594,-7698.141797,1149.143247
59397.880638,-2960.823768,-7772.162391,919.314598
59397.880947,2294.638420,-10066.800811,3600.648841
59397.881257,-2368.659014,-6587.832884,0.000000
59397.881567,-1554.432478,-11843.295072,4213.525239
59397.881877,-1480.411884,-9030.512492,2145.067394
59397.882187,4367.215058,-6661.853478,1608.800546
59397.882497,2368.659014,-7402.059420,1455.581446
59397.882806,-1702.473667,-9474.636058,383.047749
59397.883116,-1258.350101,-12731.542202,-76.609550
59397.883426,2294.638420,-11251.130318,-1302.362347
59397.883736,-3034.844362,-8660.409521,-2451.505594
59397.884046,-3997.112087,-11473.192101,1149.143247
59397.884356,-1258.350101,-8290.306550,-1302.362347
59397.884666,3552.988522,-8364.327145,1991.848295
59397.884975,1776.494261,-6069.688724,459.657299
59397.885285,-888.247130,-9400.615463,2298.286494
59397.885595,-444.123565,-9844.739029,1915.238745
59397.885905,1480.411884,-9104.533087,1838.629195
59397.886215,2294.638420,-9474.636058,1915.238745
59397.886525,-74.020594,-11843.295072,3600.648841
59397.886834,-74.020594,-8808.450710,1762.019645
59397.887144,3552.988522,-5995.668130,2451.505594
59397.887454,4663.297435,-9474.636058,2374.896044
59397.887764,-2368.659014,-9548.656652,1225.752797
59397.888074,-2146.597232,-10732.986159,-612.876398
59397.888384,-888.247130,-10436.903782,-842.705048
59397.888693,-2738.761985,-10214.842000,-1838.629195
59397.889003,-5699.585753,-10732.986159,-1838.629195
59397.889313,-1184.329507,-11103.089130,459.657299
59397.889623,3849.070898,-9474.636058,2145.067394
59397.889933,1998.556043,-7105.977043,-76.609550
59397.890243,-3256.906145,-8956.491898,1225.752797
59397.890553,-74.020594,-11843.295072,3600.648841
59397.890862,0.000000,-7179.997637,1225.752797
59397.891172,-148.041188,-8068.244768,1455.581446
59397.891482,-2368.659014,-8734.430116,1685.410096
59397.891792,962.267725,-8734.430116,2681.334243
59397.892101,5033.400406,-6143.709319,2604.724693
59397.892411,3256.906145,-7179.997637,1532.190996
59397.892721,-2368.659014,-9548.656652,612.876398
59397.893030,-1184.329507,-12065.356855,766.095498
59397.893340,-74.020594,-11843.295072,-1302.362347
59397.893650,-6513.812290,-9548.656652,-3370.820191
59397.893960,-7698.141797,-9548.656652,-2451.505594
59397.894269,-1258.350101,-9474.636058,-76.609550
59397.894579,3034.844362,-7920.203579,1225.752797
59397.894889,2072.576638,-6587.832884,842.705048
59397.895199,-1332.370696,-9548.656652,2145.067394
59397.895508,0.000000,-8364.327145,1838.629195
59397.895818,0.000000,-7179.997637,1225.752797
59397.896128,-74.020594,-10362.883188,2221.676944
59397.896437,-2442.679609,-7179.997637,0.000000
59397.896747,1184.329507,-9548.656652,4290.134789
59397.897057,4071.132681,-5329.482782,995.924147
59397.897367,4071.132681,-7698.141797,2374.896044
59397.897676,-814.226536,-10066.800811,1149.143247
59397.897986,-1184.329507,-10732.986159,306.438199
59397.898296,-666.185348,-9696.697840,-919.314598
59397.898605,-5329.482782,-8882.471304,-1762.019645
59397.898915,-6513.812290,-8956.491898,-3064.381992
59397.899225,-370.102971,-10362.883188,689.485948
59397.899535,3478.967927,-5995.668130,-2221.676944
59397.899844,3034.844362,-9326.594869,2987.772442
59397.900154,-74.020594,-9474.636058,-76.609550
59397.900464,-1628.453072,-10436.903782,1838.629195
59397.900774,-74.020594,-9696.697840,1072.533697
59397.901083,-1850.514855,-9252.574275,842.705048
59397.901393,-2664.741391,-9178.553681,1838.629195
59397.901703,518.144159,-7698.141797,3294.210641
59397.902012,5255.462188,-4737.318029,2221.676944
59397.902322,1480.411884,-5995.668130,1838.629195
59397.902632,-74.020594,-13027.624579,4213.525239
59397.902942,-2960.823768,-8364.327145,0.000000
59397.903251,-74.020594,-11251.130318,-689.485948
59397.903561,-4737.318029,-9548.656652,-2451.505594
59397.903871,-5107.421000,-11325.150913,-1991.848295
59397.904181,-666.185348,-9622.677246,0.000000
59397.904490,2886.803174,-7994.224174,0.000000
59397.904800,3478.967927,-9178.553681,2374.896044
59397.905110,-666.185348,-10658.965565,1149.143247
59397.905419,-2368.659014,-9548.656652,459.657299
59397.905729,962.267725,-11843.295072,3600.648841
59397.906039,-3923.091493,-7179.997637,-995.924147
59397.906349,-1628.453072,-10066.800811,3600.648841
59397.906658,1184.329507,-7254.018232,2987.772442
59397.906968,5699.585753,-4811.338623,3677.258390
59397.907278,3182.885551,-6809.894666,2987.772442
59397.907587,-370.102971,-9474.636058,2374.896044
59397.907897,-74.020594,-11251.130318,1991.848295
59397.908207,-74.020594,-10658.965565,-689.485948
59397.908517,-5551.544565,-8956.491898,-3370.820191
59397.908826,-4737.318029,-13619.789333,-76.609550
59397.909136,-1554.432478,-8512.368333,-1915.238745
59397.909446,3552.988522,-9474.636058,1532.190996
59397.909756,370.102971,-8142.265362,76.609550
59397.910065,-2664.741391,-10510.924376,766.095498
59397.910375,-1480.411884,-9918.759623,1072.533697
59397.910685,-444.123565,-8734.430116,995.924147
59397.910994,-1776.494261,-8956.491898,1225.752797
59397.911304,-666.185348,-10658.965565,4213.525239
59397.911614,592.164754,-6291.750507,2451.505594
59397.911924,7031.956449,-8290.306550,6052.154434
59397.912233,1480.411884,-4811.338623,1072.533697
59397.912543,-2368.659014,-9548.656652,2451.505594
59397.912853,-1258.350101,-10362.883188,-229.828649
59397.913163,-1554.432478,-9918.759623,-2221.676944
59397.913472,-5107.421000,-10584.944971,-3140.991542
59397.913782,-6143.709319,-11621.233289,-2834.553343
59397.914092,-1776.494261,-9548.656652,0.000000
59397.914401,3552.988522,-8956.491898,919.314598
59397.914711,2294.638420,-8882.471304,1149.143247
59397.915021,-2368.659014,-9548.656652,2451.505594
59397.915331,2294.638420,-11843.295072,4213.525239
59397.915640,0.000000,-7179.997637,1838.629195
59397.915950,-1554.432478,-9474.636058,1762.019645
59397.916260,-2886.803174,-9178.553681,2145.067394
59397.916569,1184.329507,-7402.059420,3294.210641
59397.916879,4811.338623,-5181.441594,2681.334243
59397.917189,592.164754,-6587.832884,76.609550
59397.917499,-3552.988522,-8364.327145,612.876398
59397.917808,-74.020594,-11547.212695,2987.772442
59397.918118,-74.020594,-8882.471304,-2528.115143
59397.918428,-4737.318029,-10140.821405,-2145.067394
59397.918738,-5699.585753,-10140.821405,-1991.848295
59397.919047,666.185348,-9696.697840,229.828649
59397.919357,4515.256246,-7994.224174,766.095498
59397.919667,1924.535449,-8808.450710,1685.410096
59397.919976,-1924.535449,-10510.924376,1302.362347
59397.920286,-1406.391290,-9326.594869,536.266849
59397.920596,-2072.576638,-7772.162391,0.000000
59397.920906,-2590.720797,-10658.965565,2374.896044
59397.921215,-5847.626942,-7179.997637,0.000000
59397.921525,1776.494261,-7772.162391,4290.134789
59397.921835,5847.626942,-4145.153275,1225.752797
59397.922145,2812.782580,-6735.874072,2911.162892
59397.922454,-444.123565,-8882.471304,2221.676944
59397.922764,222.061783,-9178.553681,612.876398
59397.923074,-74.020594,-9400.615463,-76.609550
59397.923383,-3923.091493,-11251.130318,-689.485948
59397.923693,-5551.544565,-10066.800811,-2374.896044
59397.924003,0.000000,-9548.656652,0.000000
59397.924313,4663.297435,-9474.636058,-689.485948
59397.924622,0.000000,-7772.162391,0.000000
59397.924932,-518.144159,-11843.295072,536.266849
59397.925242,0.000000,-10436.903782,1838.629195
59397.925551,-888.247130,-9400.615463,995.924147
59397.925861,-4219.173869,-9844.739029,459.657299
59397.926171,-3552.988522,-9030.512492,2374.896044
59397.926481,4663.297435,-8290.306550,4826.401637
59397.926790,6439.791695,-4145.153275,2987.772442
59397.927100,1184.329507,-5551.544565,2451.505594
59397.927410,2294.638420,-11843.295072,2987.772442
59397.927720,-1776.494261,-7772.162391,0.000000
59397.928029,-666.185348,-10362.883188,-1302.362347
59397.928339,-5551.544565,-9844.739029,-2911.162892
59397.928649,-4811.338623,-11029.068536,-1915.238745
59397.928958,592.164754,-9622.677246,0.000000
59397.929268,3108.864956,-9030.512492,306.438199
59397.929578,1702.473667,-11251.130318,2987.772442
59397.929888,-666.185348,-11843.295072,1762.019645
59397.930197,-1776.494261,-8364.327145,0.000000
59397.930507,-74.020594,-11251.130318,2374.896044
59397.930817,-5107.421000,-7328.038826,-689.485948
59397.931126,-2294.638420,-9178.553681,2987.772442
59397.931436,2738.761985,-6069.688724,3064.381992
59397.931746,5255.462188,-4663.297435,2911.162892
59397.932056,1628.453072,-7105.977043,2528.115143
59397.932365,-222.061783,-9548.656652,1225.752797
59397.932675,888.247130,-9548.656652,2451.505594
59397.932985,-74.020594,-10658.965565,-76.609550
59397.933295,-4219.173869,-9918.759623,-3753.867940
59397.933604,-4145.153275,-11621.233289,0.000000
59397.933914,2886.803174,-11251.130318,-76.609550
59397.934224,3552.988522,-10658.965565,1915.238745
59397.934533,-518.144159,-9770.718434,76.609550
59397.934843,-2368.659014,-11251.130318,766.095498
59397.935153,-740.205942,-10436.903782,612.876398
59397.935463,-2220.617826,-8364.327145,-1838.629195
59397.935772,-7698.141797,-7772.162391,0.000000
59397.936082,-1924.535449,-10955.047942,3217.601092
59397.936392,4663.297435,-4145.153275,1762.019645
59397.936702,5921.647536,-4811.338623,4903.011187
59397.937011,3182.885551,-7105.977043,3600.648841
59397.937321,-1924.535449,-9844.739029,3524.039291
59397.937631,1776.494261,-8882.471304,1455.581446
59397.937940,-592.164754,-9178.553681,-842.705048
59397.938250,-4811.338623,-10510.924376,-2451.505594
59397.938560,-3775.050304,-9844.739029,-2987.772442
59397.938870,592.164754,-7476.080014,-2451.505594
59397.939179,2368.659014,-9548.656652,306.438199
59397.939489,-74.020594,-11251.130318,-76.609550
59397.939799,-5921.647536,-9548.656652,0.000000
59397.940108,592.164754,-11769.274478,2681.334243
59397.940418,-1702.473667,-8364.327145,0.000000
59397.940728,-3627.009116,-10658.965565,995.924147
59397.941038,-2146.597232,-8586.388927,2145.067394
59397.941347,3997.112087,-6957.935855,4060.306139
59397.941657,5625.565159,-3552.988522,3600.648841
59397.941967,1110.308913,-4811.338623,1149.143247
59397.942277,0.000000,-7179.997637,1838.629195
59397.942586,2368.659014,-11177.109724,4596.572988
59397.942896,-74.020594,-8882.471304,-1915.238745
59397.943206,-5921.647536,-10140.821405,-919.314598
59397.943515,-4737.318029,-9548.656652,-2145.067394
59397.943825,1480.411884,-9252.574275,-306.438199
59397.944135,2072.576638,-9474.636058,-383.047749
59397.944445,-1184.329507,-9696.697840,-842.705048
59397.944754,-1628.453072,-13915.871710,1762.019645
59397.945064,1110.308913,-9474.636058,-76.609550
59397.945374,-1850.514855,-8660.409521,-842.705048
59397.945684,-4737.318029,-9548.656652,1225.752797
59397.945993,-74.020594,-9474.636058,2987.772442
59397.946303,2960.823768,-5403.503377,3677.258390
59397.946613,4811.338623,-2590.720797,2757.943793
59397.946922,1776.494261,-7031.956449,3983.696590
59397.947232,518.144159,-8882.471304,3217.601092
59397.947542,1702.473667,-8882.471304,1455.581446
59397.947852,-74.020594,-11251.130318,-76.609550
59397.948161,-3627.009116,-13027.624579,-1302.362347
59397.948471,-4811.338623,-10584.944971,-2834.553343
59397.948781,0.000000,-9548.656652,0.000000
59397.949090,3478.967927,-10658.965565,-76.609550
59397.949400,-2960.823768,-8364.327145,0.000000
59397.949710,-3034.844362,-10658.965565,-76.609550
59397.950020,0.000000,-9696.697840,919.314598
59397.950329,-1776.494261,-9400.615463,229.828649
59397.950639,-4663.297435,-9400.615463,842.705048
59397.950949,-666.185348,-9844.739029,3677.258390
59397.951259,5847.626942,-8882.471304,5898.935335
59397.951568,5847.626942,-4737.318029,3600.648841
59397.951878,0.000000,-4811.338623,2451.505594
59397.952188,2294.638420,-11251.130318,4213.525239
59397.952497,1110.308913,-7179.997637,-995.924147
59397.952807,-666.185348,-9474.636058,-1302.362347
59397.953117,-5847.626942,-10140.821405,-2451.505594
59397.953427,-3923.091493,-11325.150913,-1302.362347
59397.953736,1628.453072,-8216.285956,-229.828649
59397.954046,1184.329507,-7772.162391,153.219100
59397.954356,-1480.411884,-10140.821405,1991.848295
59397.954666,-666.185348,-11843.295072,1762.019645
59397.954975,-2812.782580,-7179.997637,-2145.067394
59397.955285,-2368.659014,-10732.986159,612.876398
59397.955595,-4811.338623,-10658.965565,-383.047749
59397.955904,-74.020594,-10658.965565,2374.896044
59397.956214,4293.194464,-6661.853478,3447.429741
59397.956524,4515.256246,-5403.503377,3524.039291
59397.956834,518.144159,-7698.141797,3447.429741
59397.957143,0.000000,-7179.997637,1225.752797
59397.957453,1184.329507,-7179.997637,2451.505594
59397.957763,-296.082377,-9326.594869,0.000000
59397.958072,-2442.679609,-11843.295072,-1302.362347
59397.958382,-4737.318029,-9548.656652,-2451.505594
59397.958692,2072.576638,-9474.636058,-76.609550
59397.959002,3034.844362,-10362.883188,995.924147
59397.959311,-1110.308913,-9622.677246,0.000000
59397.959621,-1628.453072,-11251.130318,229.828649
59397.959931,74.020594,-9770.718434,-612.876398
59397.960241,-3923.091493,-8512.368333,-2911.162892
59397.960550,-7105.977043,-9548.656652,0.000000
59397.960860,-592.164754,-10732.986159,3064.381992
59397.961170,3478.967927,-5033.400406,1149.143247
59397.961479,4663.297435,-6957.935855,4213.525239
59397.961789,-666.185348,-7105.977043,3600.648841
59397.962099,1184.329507,-8364.327145,4290.134789
59397.962409,4071.132681,-7402.059420,2681.334243
59397.962718,74.020594,-7550.100608,0.000000
59397.963028,-3923.091493,-9400.615463,-1608.800546
59397.963338,-2146.597232,-9918.759623,-2221.676944
59397.963647,592.164754,-7179.997637,-3064.381992
59397.963957,0.000000,-8364.327145,0.000000
59397.964267,-74.020594,-13027.624579,-76.609550
59397.964577,-2442.679609,-10214.842000,-1608.800546
59397.964886,0.000000,-11325.150913,1225.752797
59397.965196,-3552.988522,-9548.656652,0.000000
59397.965506,-4367.215058,-11473.192101,383.047749
59397.965816,-296.082377,-9474.636058,2451.505594
59397.966125,4589.276840,-6069.688724,3370.820191
59397.966435,4663.297435,-4737.318029,3600.648841
59397.966745,-74.020594,-5921.647536,2374.896044
59397.967054,0.000000,-7179.997637,1225.752797
59397.967364,4515.256246,-10658.965565,3600.648841
59397.967674,-3330.926739,-7179.997637,-2451.505594
59397.967984,-4145.153275,-10732.986159,0.000000
59397.968293,-3330.926739,-9548.656652,-2221.676944
59397.968603,2146.597232,-9178.553681,-766.095498
59397.968913,592.164754,-9474.636058,-536.266849
59397.969223,-2072.576638,-10066.800811,-689.485948
59397.969532,-74.020594,-13619.789333,2374.896044
59397.969842,2294.638420,-9474.636058,-76.609550
59397.970152,-2738.761985,-7846.182985,-2221.676944
59397.970461,-4145.153275,-11325.150913,1838.629195
59397.970771,-74.020594,-8882.471304,1762.019645
59397.971081,2368.659014,-4811.338623,2451.505594
59397.971391,1702.473667,-4441.235652,2374.896044
59397.971700,-1628.453072,-7624.121203,2451.505594
59397.972010,222.061783,-9474.636058,2374.896044
59397.972320,1628.453072,-9326.594869,1455.581446
59397.972629,-74.020594,-11769.274478,1762.019645
59397.972939,-666.185348,-13027.624579,-76.609550
59397.973249,-666.185348,-9474.636058,-76.609550
59397.973559,0.000000,-6587.832884,0.000000
59397.973868,2886.803174,-9474.636058,1455.581446
59397.974178,-2738.761985,-9548.656652,-1838.629195
59397.974488,-1258.350101,-10362.883188,-76.609550
59397.974798,-888.247130,-10140.821405,-612.876398
59397.975107,-3478.967927,-10140.821405,-1225.752797
59397.975417,-4737.318029,-10732.986159,-306.438199
59397.975727,0.000000,-10140.821405,3064.381992
59397.976036,5625.565159,-8808.450710,4826.401637
59397.976346,2886.803174,-7105.977043,3600.648841
59397.976656,0.000000,-7179.997637,3677.258390
59397.976966,3478.967927,-9474.636058,4213.525239
59397.977275,1110.308913,-4885.359217,536.266849
59397.977585,-74.020594,-9178.553681,-76.609550
59397.977895,-3478.967927,-9252.574275,76.609550
59397.978205,-740.205942,-8808.450710,0.000000
59397.978514,2886.803174,-7994.224174,-459.657299
59397.978824,0.000000,-7179.997637,0.000000
59397.979134,-3552.988522,-10881.027347,0.000000
59397.979443,-74.020594,-14211.954086,2374.896044
59397.979753,-962.267725,-9622.677246,-2221.676944
59397.980063,-2960.823768,-11325.150913,0.000000
59397.980373,-2442.679609,-10658.965565,-689.485948
59397.980682,1998.556043,-10658.965565,3294.210641
59397.980992,4293.194464,-6661.853478,3447.429741
59397.981302,1776.494261,-6587.832884,3677.258390
59397.981611,-1036.288319,-8068.244768,3294.210641
59397.981921,0.000000,-5995.668130,2451.505594
59397.982231,0.000000,-5995.668130,2451.505594
59397.982541,-74.020594,-10510.924376,3447.429741
59397.982850,-4515.256246,-7254.018232,-1991.848295
59397.983160,296.082377,-9770.718434,919.314598
59397.983470,4663.297435,-9474.636058,-76.609550
59397.983780,148.041188,-8956.491898,-306.438199
59397.984089,-3256.906145,-11399.171507,-1455.581446
59397.984399,-1332.370696,-11769.274478,-1072.533697
59397.984709,-592.164754,-11769.274478,-1455.581446
59397.985018,-4219.173869,-9548.656652,-3677.258390
59397.985328,-6513.812290,-9548.656652,0.000000
59397.985638,0.000000,-9548.656652,2451.505594
59397.985948,5847.626942,-8290.306550,2374.896044
59397.986257,0.000000,-5995.668130,2757.943793
59397.986567,2294.638420,-11251.130318,7277.907231
59397.986877,1776.494261,-7476.080014,3677.258390
59397.987187,2886.803174,-7031.956449,2987.772442
59397.987496,-222.061783,-7031.956449,995.924147
59397.987806,-2812.782580,-8364.327145,536.266849
59397.988116,-370.102971,-8290.306550,-689.485948
59397.988425,2516.700203,-5921.647536,-383.047749
59397.988735,0.000000,-5995.668130,0.000000
59397.989045,-2368.659014,-10732.986159,612.876398
59397.989355,-74.020594,-13027.624579,-76.609550
59397.989664,-2368.659014,-11917.315666,-1072.533697
59397.989974,-6513.812290,-10732.986159,-3370.820191
59397.990284,-5921.647536,-12509.480420,-1378.971896
59397.990593,-666.185348,-9474.636058,612.876398
59397.990903,2516.700203,-7328.038826,1838.629195
59397.991213,2294.638420,-7105.977043,2374.896044
59397.991523,-74.020594,-7994.224174,3600.648841
59397.991832,814.226536,-4811.338623,2068.457845
59397.992142,4737.318029,-7328.038826,4290.134789
59397.992452,1110.308913,-7105.977043,1149.143247
59397.992762,-2368.659014,-8660.409521,2757.943793
59397.993071,0.000000,-7772.162391,306.438199
59397.993381,2886.803174,-8142.265362,229.828649
59397.993691,518.144159,-8956.491898,-1225.752797
59397.994001,-2146.597232,-11843.295072,-842.705048
59397.994311,-666.185348,-13027.624579,-1302.362347
59397.994620,-1850.514855,-11843.295072,-2528.115143
59397.994930,-7105.977043,-9548.656652,-4290.134789
59397.995240,-2442.679609,-13027.624579,1149.143247
59397.995550,2294.638420,-10362.883188,2987.772442
59397.995860,2368.659014,-5699.585753,2604.724693
59397.996169,518.144159,-7105.977043,2681.334243
59397.996479,-2368.659014,-7179.997637,2681.334243
59397.996789,1184.329507,-7772.162391,5209.449386
59397.997099,3108.864956,-7105.977043,3447.429741
59397.997409,-74.020594,-6217.729913,1149.143247
59397.997718,-3034.844362,-7105.977043,-76.609550
59397.998028,0.000000,-7179.997637,306.438199
59397.998338,4663.297435,-9474.636058,1762.019645
59397.998648,-2368.659014,-7772.162391,-2145.067394
59397.998958,-2368.659014,-12879.583391,919.314598
59397.999267,-1554.432478,-13027.624579,-919.314598
59397.999577,-1776.494261,-12435.459826,-1685.410096
59397.999887,-3701.029710,-11325.150913,-1532.190996
59398.000197,-3034.844362,-10807.006753,-536.266849
59398.000507,1702.473667,-7698.141797,-76.609550
59398.000817,1184.329507,-3627.009116,1225.752797
59398.001126,0.000000,-5995.668130,3064.381992
59398.001436,-74.020594,-9474.636058,4213.525239
59398.001746,0.000000,-7179.997637,2451.505594
59398.002056,4663.297435,-9474.636058,4213.525239
59398.002366,-1184.329507,-6587.832884,919.314598
59398.002675,-1998.556043,-7698.141797,306.438199
59398.002985,1332.370696,-8290.306550,995.924147
59398.003295,2960.823768,-7698.141797,229.828649
59398.003605,-666.185348,-8882.471304,-2145.067394
59398.003915,-5921.647536,-9844.739029,-2451.505594
59398.004224,-3552.988522,-11917.315666,0.000000
59398.004534,-74.020594,-13619.789333,-76.609550
59398.004844,-5329.482782,-9548.656652,-2451.505594
59398.005154,-74.020594,-13027.624579,2374.896044
59398.005464,1776.494261,-8660.409521,2451.505594
59398.005774,3330.926739,-6439.791695,1455.581446
59398.006083,-444.123565,-8068.244768,2528.115143
59398.006393,-1258.350101,-9030.512492,3370.820191
59398.006703,1110.308913,-5995.668130,842.705048
59398.007013,0.000000,-4811.338623,1225.752797
59398.007323,-592.164754,-8956.491898,3983.696590
59398.007632,-1850.514855,-8290.306550,-76.609550
59398.007942,296.082377,-7179.997637,0.000000
59398.008252,4663.297435,-9474.636058,-76.609550
59398.008562,-1776.494261,-9548.656652,0.000000
59398.008872,-2886.803174,-11843.295072,-689.485948
59398.009181,-1924.535449,-12287.418637,-995.924147
59398.009491,-1776.494261,-11325.150913,-1378.971896
59398.009801,-7105.977043,-9548.656652,-2451.505594
59398.010111,-4737.318029,-9548.656652,0.000000
59398.010421,4663.297435,-10658.965565,4826.401637
59398.010731,3478.967927,-5181.441594,842.705048
59398.011040,592.164754,-8068.244768,3677.258390
59398.011350,-74.020594,-9474.636058,2374.896044
59398.011660,2590.720797,-9474.636058,3753.867940
59398.011970,1998.556043,-7105.977043,2068.457845
59398.012280,-1924.535449,-7624.121203,766.095498
59398.012589,-2442.679609,-8734.430116,919.314598
59398.012899,0.000000,-5403.503377,0.000000
59398.013209,592.164754,-6587.832884,0.000000
59398.013519,-2368.659014,-8364.327145,0.000000
59398.013829,-666.185348,-14211.954086,-76.609550
59398.014138,-2960.823768,-11325.150913,-2451.505594
59398.014448,-74.020594,-14211.954086,-76.609550
59398.014758,-3552.988522,-11029.068536,-612.876398
59398.015068,-1998.556043,-10436.903782,229.828649
59398.015378,3256.906145,-7550.100608,2145.067394
59398.015687,4737.318029,-6661.853478,2911.162892
59398.015997,-74.020594,-7402.059420,536.266849
59398.016307,-3552.988522,-7179.997637,1302.362347
59398.016617,0.000000,-7179.997637,1225.752797
59398.016927,2294.638420,-8882.471304,1762.019645
59398.017237,-3552.988522,-7179.997637,612.876398
59398.017546,-74.020594,-10362.883188,2987.772442
59398.017856,1184.329507,-6587.832884,1225.752797
59398.018166,3256.906145,-6587.832884,612.876398
59398.018476,148.041188,-9030.512492,229.828649
59398.018786,-2590.720797,-12065.356855,0.000000
59398.019095,-74.020594,-13027.624579,-1302.362347
59398.019405,-1258.350101,-10066.800811,-2528.115143
59398.019715,-7031.956449,-7772.162391,-3983.696590
59398.020025,-1332.370696,-11399.171507,1225.752797
59398.020335,2294.638420,-7994.224174,536.266849
59398.020644,2368.659014,-7772.162391,3064.381992
59398.020954,-2664.741391,-8364.327145,995.924147
59398.021264,-2368.659014,-10436.903782,2221.676944
59398.021574,1480.411884,-9104.533087,2757.943793
59398.021884,1702.473667,-7105.977043,2221.676944
59398.022194,-74.020594,-8882.471304,2374.896044
59398.022503,-74.020594,-8290.306550,2374.896044
59398.022813,0.000000,-4811.338623,0.000000
59398.023123,5921.647536,-7698.141797,3370.820191
59398.023433,-370.102971,-8290.306550,-76.609550
59398.023743,-4737.318029,-9548.656652,0.000000
59398.024052,-1924.535449,-10732.986159,-2068.457845
59398.024362,-2220.617826,-11621.233289,-2451.505594
59398.024672,-5551.544565,-11547.212695,-2834.553343
59398.024982,-4293.194464,-11251.130318,-995.924147
59398.025292,2886.803174,-11251.130318,2374.896044
59398.025601,4071.132681,-9474.636058,3907.087040
59398.025911,-74.020594,-9474.636058,2374.896044
59398.026221,-2960.823768,-8364.327145,2451.505594
59398.026531,3478.967927,-8290.306550,4213.525239
59398.026841,0.000000,-4811.338623,0.000000
59398.027151,-1554.432478,-5921.647536,1455.581446
59398.027460,-1628.453072,-6291.750507,2298.286494
59398.027770,2960.823768,-6439.791695,2145.067394
59398.028080,3775.050304,-6513.812290,1149.143247
59398.028390,-1184.329507,-10732.986159,1838.629195
59398.028700,-2590.720797,-13841.851115,612.876398
59398.029009,-74.020594,-15396.283594,-76.609550
59398.029319,-3034.844362,-11843.295072,-3140.991542
59398.029629,-6365.771101,-11917.315666,-919.314598
59398.029939,-4219.173869,-10214.842000,-2757.943793
59398.030249,3182.885551,-8882.471304,1762.019645
59398.030558,3034.844362,-6883.915261,1762.019645
59398.030868,-370.102971,-8808.450710,2451.505594
59398.031178,148.041188,-9252.574275,3217.601092
59398.031488,2368.659014,-7179.997637,3983.696590
59398.031798,2368.659014,-6587.832884,2451.505594
59398.032107,-74.020594,-9474.636058,2987.772442
59398.032417,-3404.947333,-6883.915261,0.000000
59398.032727,3552.988522,-8068.244768,3064.381992
59398.033037,4663.297435,-6957.935855,-76.609550
59398.033347,-666.185348,-10658.965565,689.485948
59398.033657,-3552.988522,-12287.418637,-919.314598
59398.033966,-1924.535449,-12361.439231,-1762.019645
59398.034276,-3478.967927,-11917.315666,-2528.115143
59398.034586,-7105.977043,-9548.656652,-2451.505594
59398.034896,-4145.153275,-9548.656652,-2451.505594
59398.035206,4737.318029,-8364.327145,3983.696590
59398.035515,4663.297435,-5921.647536,1762.019645
59398.035825,0.000000,-8364.327145,3677.258390
59398.036135,3478.967927,-9474.636058,3600.648841
59398.036445,2664.741391,-9400.615463,3217.601092
59398.036755,370.102971,-8364.327145,1378.971896
59398.037064,-3701.029710,-8660.409521,459.657299
59398.037374,-2220.617826,-8882.471304,689.485948
59398.037684,1184.329507,-5107.421000,0.000000
59398.037994,1776.494261,-4811.338623,0.000000
59398.038304,-2368.659014,-8364.327145,612.876398
59398.038614,-74.020594,-13027.624579,1762.019645
59398.038923,-1776.494261,-9696.697840,-3677.258390
59398.039233,-74.020594,-13027.624579,-76.609550
59398.039543,-4737.318029,-9696.697840,-1378.971896
59398.039853,-1406.391290,-9474.636058,-459.657299
59398.040163,3330.926739,-7994.224174,1072.533697
59398.040472,2812.782580,-8068.244768,995.924147
59398.040782,-74.020594,-9104.533087,842.705048
59398.041092,-962.267725,-9474.636058,1149.143247
59398.041402,0.000000,-8364.327145,1838.629195
59398.041712,-74.020594,-9474.636058,1762.019645
59398.042021,-4441.235652,-7772.162391,0.000000
59398.042331,-74.020594,-10362.883188,4826.401637
59398.042641,3034.844362,-5699.585753,2451.505594
59398.042951,4367.215058,-5255.462188,2681.334243
59398.043261,444.123565,-8438.347739,2298.286494
59398.043571,-962.267725,-10658.965565,919.314598
59398.043880,-74.020594,-9474.636058,-76.609550
59398.044190,-3627.009116,-13027.624579,-76.609550
59398.044500,-7105.977043,-8364.327145,-3677.258390
59398.044810,-814.226536,-11843.295072,689.485948
59398.045120,1036.288319,-7846.182985,-2451.505594
59398.045429,0.000000,-8956.491898,1838.629195
59398.045739,-2368.659014,-10288.862594,229.828649
59398.046049,-296.082377,-10584.944971,2298.286494
59398.046359,666.185348,-9770.718434,2451.505594
59398.046669,-148.041188,-6957.935855,1225.752797
59398.046978,-666.185348,-9474.636058,3600.648841
59398.047288,2294.638420,-9474.636058,4826.401637
59398.047598,3182.885551,-5329.482782,1455.581446
59398.047908,2960.823768,-5995.668130,3064.381992
59398.048218,-74.020594,-7698.141797,-76.609550
59398.048527,0.000000,-9548.656652,306.438199
59398.048837,0.000000,-9918.759623,-536.266849
59398.049147,-2960.823768,-10214.842000,-1532.190996
59398.049457,-5255.462188,-10955.047942,-2451.505594
59398.049767,-2590.720797,-11547.212695,-1225.752797
59398.050077,3256.906145,-10807.006753,1532.190996
59398.050386,4071.132681,-11843.295072,4060.306139
59398.050696,-1258.350101,-9474.636058,-76.609550
59398.051006,-1184.329507,-10140.821405,2451.505594
59398.051316,1554.432478,-8290.306550,1149.143247
59398.051626,-3552.988522,-4811.338623,0.000000
59398.051935,-3034.844362,-7698.141797,842.705048
59398.052245,-296.082377,-7105.977043,1455.581446
59398.052555,4663.297435,-6291.750507,2911.162892
59398.052865,3330.926739,-5921.647536,2374.896044
59398.053175,0.000000,-8956.491898,2451.505594
59398.053484,-2368.659014,-9548.656652,612.876398
59398.053794,1480.411884,-12287.418637,995.924147
59398.054104,-1850.514855,-11843.295072,-1608.800546
59398.054414,-8290.306550,-9548.656652,-3677.258390
59398.054724,-2442.679609,-10362.883188,-1838.629195
59398.055034,3478.967927,-10066.800811,536.266849
59398.055343,1406.391290,-9252.574275,919.314598
59398.055653,-1776.494261,-9770.718434,689.485948
59398.055963,-740.205942,-9918.759623,1608.800546
59398.056273,0.000000,-6587.832884,1225.752797
59398.056583,-3552.988522,-4811.338623,0.000000
59398.056892,-1258.350101,-9474.636058,2374.896044
59398.057202,-1702.473667,-6587.832884,766.095498
59398.057512,5847.626942,-9474.636058,4826.401637
59398.057822,3478.967927,-5329.482782,536.266849
59398.058132,-888.247130,-8956.491898,1685.410096
59398.058441,-962.267725,-10881.027347,1225.752797
59398.058751,-814.226536,-10362.883188,-689.485948
59398.059061,-3552.988522,-11177.109724,-2068.457845
59398.059371,-7105.977043,-9548.656652,-3370.820191
59398.059681,-4737.318029,-7476.080014,-3064.381992
59398.059991,4663.297435,-10362.883188,2681.334243
59398.060300,1702.473667,-8586.388927,-76.609550
59398.060610,-74.020594,-12287.418637,3600.648841
59398.060920,-74.020594,-10658.965565,2374.896044
59398.061230,888.247130,-7920.203579,1838.629195
59398.061540,-1258.350101,-7624.121203,842.705048
59398.061849,-4071.132681,-8142.265362,766.095498
59398.062159,-74.020594,-8438.347739,1455.581446
59398.062469,4663.297435,-6513.812290,1455.581446
59398.062779,3478.967927,-5921.647536,1149.143247
59398.063089,-3256.906145,-7772.162391,0.000000
59398.063398,-1776.494261,-11621.233289,1532.190996
59398.063708,-74.020594,-13027.624579,-76.609550
59398.064018,-2146.597232,-11843.295072,-689.485948
59398.064328,-5921.647536,-10732.986159,-2145.067394
59398.064638,-740.205942,-10510.924376,0.000000
59398.064947,3701.029710,-8364.327145,1149.143247
59398.065257,1998.556043,-8438.347739,1378.971896
59398.065567,-74.020594,-9474.636058,2374.896044
59398.065877,2294.638420,-9474.636058,2374.896044
59398.066187,0.000000,-6291.750507,612.876398
59398.066497,-370.102971,-9474.636058,2221.676944
59398.066806,-6439.791695,-5995.668130,0.000000
59398.067116,1184.329507,-9474.636058,4136.915689
59398.067426,4441.235652,-5921.647536,1838.629195
59398.067736,1924.535449,-6587.832884,1838.629195
59398.068046,-2368.659014,-9696.697840,1378.971896
59398.068355,-962.267725,-10955.047942,689.485948
59398.068665,2294.638420,-11251.130318,-76.609550
59398.068975,-74.020594,-11843.295072,-76.609550
59398.069285,-6365.771101,-9548.656652,-2451.505594
59398.069595,1110.308913,-11473.192101,1149.143247
59398.069904,2368.659014,-7179.997637,612.876398
59398.070214,2368.659014,-9844.739029,3064.381992
59398.070524,-666.185348,-10658.965565,1762.019645
59398.070834,0.000000,-10510.924376,1608.800546
59398.071144,1998.556043,-9104.533087,1532.190996
59398.071454,-962.267725,-8068.244768,919.314598
59398.071763,-1776.494261,-9326.594869,2145.067394
59398.072073,4663.297435,-9474.636058,4213.525239
59398.072383,3256.906145,-4811.338623,919.314598
59398.072693,1184.329507,-6587.832884,2451.505594
59398.073003,-74.020594,-11843.295072,2374.896044
59398.073312,-3552.988522,-9548.656652,0.000000
59398.073622,-222.061783,-10510.924376,-153.219100
59398.073932,-3404.947333,-10362.883188,-2145.067394
59398.074242,-4589.276840,-10436.903782,-1072.533697
59398.074552,-740.205942,-9844.739029,0.000000
59398.074861,2368.659014,-8956.491898,306.438199
59398.075171,1184.329507,-10732.986159,3064.381992
59398.075481,-666.185348,-10362.883188,1149.143247
59398.075791,-1628.453072,-8660.409521,1838.629195
59398.076101,4663.297435,-9474.636058,2374.896044
59398.076411,-2960.823768,-5551.544565,0.000000
59398.076720,-3775.050304,-8882.471304,536.266849
59398.077030,740.205942,-8660.409521,1532.190996
59398.077340,3775.050304,-7105.977043,2374.896044
59398.077650,666.185348,-7698.141797,1608.800546
59398.077960,-3552.988522,-9548.656652,0.000000
59398.078269,-2368.659014,-9548.656652,612.876398
59398.078579,1628.453072,-11547.212695,1762.019645
59398.078889,-3034.844362,-8364.327145,-3140.991542
59398.079199,-4737.318029,-10140.821405,0.000000
59398.079509,518.144159,-9474.636058,0.000000
59398.079818,3108.864956,-8142.265362,1072.533697
59398.080128,444.123565,-8364.327145,1378.971896
59398.080438,-2294.638420,-9770.718434,1072.533697
59398.080748,0.000000,-9474.636058,1225.752797
59398.081058,0.000000,-7179.997637,229.828649
59398.081367,-5921.647536,-5995.668130,0.000000
59398.081677,-2442.679609,-10658.965565,1149.143247
59398.081987,0.000000,-7476.080014,0.000000
59398.082297,5329.482782,-7772.162391,3753.867940
59398.082607,2294.638420,-7698.141797,689.485948
59398.082917,-2368.659014,-9104.533087,1455.581446
59398.083226,74.020594,-9474.636058,1149.143247
59398.083536,1036.288319,-9326.594869,1149.143247
59398.083846,-2146.597232,-9844.739029,1149.143247
59398.084156,-4219.173869,-10214.842000,-229.828649
59398.084466,-1776.494261,-7476.080014,0.000000
59398.084775,4367.215058,-8882.471304,1991.848295
59398.085085,-1110.308913,-8142.265362,0.000000
59398.085395,-74.020594,-12435.459826,2374.896044
59398.085705,1110.308913,-11251.130318,-76.609550
59398.086015,0.000000,-9548.656652,0.000000
59398.086324,-3108.864956,-10140.821405,-612.876398
59398.086634,-3256.906145,-9918.759623,383.047749
59398.086944,1924.535449,-8364.327145,2145.067394
59398.087254,5847.626942,-6809.894666,3294.210641
59398.087564,2294.638420,-6513.812290,1762.019645
59398.087874,-1184.329507,-8956.491898,3064.381992
59398.088183,2294.638420,-10658.965565,2374.896044
59398.088493,0.000000,-7179.997637,0.000000
59398.088803,-2368.659014,-10066.800811,-76.609550
59398.089113,-4145.153275,-9918.759623,-995.924147
59398.089423,370.102971,-9252.574275,153.219100
59398.089732,2220.617826,-8142.265362,0.000000
59398.090042,-518.144159,-8956.491898,0.000000
59398.090352,-74.020594,-11843.295072,1455.581446
59398.090662,2294.638420,-11843.295072,1762.019645
59398.090972,370.102971,-8586.388927,-229.828649
59398.091281,-2368.659014,-10732.986159,3064.381992
59398.091591,-1850.514855,-8882.471304,-76.609550
59398.091901,2072.576638,-9326.594869,3600.648841
59398.092211,4071.132681,-5551.544565,1685.410096
59398.092521,888.247130,-6439.791695,1762.019645
59398.092831,-1628.453072,-9104.533087,2068.457845
59398.093140,74.020594,-9548.656652,0.000000
59398.093450,518.144159,-10436.903782,1225.752797
59398.093760,-1258.350101,-11843.295072,-76.609550
59398.094070,-5329.482782,-9548.656652,-1225.752797
59398.094380,2294.638420,-13027.624579,3600.648841
59398.094689,1406.391290,-6291.750507,76.609550
59398.094999,-1184.329507,-9104.533087,1991.848295
59398.095309,-1406.391290,-10658.965565,1149.143247
59398.095619,296.082377,-10214.842000,1149.143247
59398.095929,1702.473667,-10584.944971,1072.533697
59398.096239,-3478.967927,-7179.997637,-1915.238745
59398.096548,-2960.823768,-8068.244768,0.000000
59398.096858,3478.967927,-9178.553681,3600.648841
59398.097168,592.164754,-2442.679609,0.000000
59398.097478,1702.473667,-8290.306550,1762.019645
59398.097788,-3552.988522,-8364.327145,2145.067394
59398.098097,-1184.329507,-10140.821405,2451.505594
59398.098407,-222.061783,-10658.965565,306.438199
59398.098717,-3775.050304,-10436.903782,-842.705048
59398.099027,-3182.885551,-9844.739029,0.000000
59398.099337,1628.453072,-8142.265362,536.266849
59398.099646,2368.659014,-5995.668130,0.000000
59398.099956,148.041188,-8956.491898,2145.067394
59398.100266,-74.020594,-10658.965565,1762.019645
59398.100576,0.000000,-8364.327145,0.000000
59398.100886,2294.638420,-11251.130318,2374.896044
59398.101196,-4145.153275,-8364.327145,0.000000
59398.101505,-2664.741391,-9844.739029,229.828649
59398.101815,1628.453072,-9030.512492,1455.581446
59398.102125,2886.803174,-7105.977043,1532.190996
59398.102435,-1258.350101,-8882.471304,1149.143247
59398.102745,-5329.482782,-9548.656652,-383.047749
59398.103054,-2368.659014,-9548.656652,306.438199
59398.103364,1110.308913,-10066.800811,3983.696590
59398.103674,-4219.173869,-6587.832884,-1149.143247
59398.103984,-2368.659014,-8660.409521,2451.505594
59398.104294,1406.391290,-6217.729913,153.219100
59398.104604,3627.009116,-5995.668130,1532.190996
59398.104913,-740.205942,-8734.430116,689.485948
59398.105223,-2442.679609,-10288.862594,459.657299
59398.105533,-74.020594,-12435.459826,-76.609550
59398.105843,-222.061783,-9474.636058,-76.609550
59398.106153,-4737.318029,-8956.491898,-1838.629195
59398.106462,-2368.659014,-10584.944971,2451.505594
59398.106772,2294.638420,-7698.141797,-76.609550
59398.107082,1184.329507,-4811.338623,0.000000
59398.107392,-1554.432478,-8290.306550,459.657299
59398.107702,-2664.741391,-10066.800811,1225.752797
59398.108012,518.144159,-9326.594869,1302.362347
59398.108321,592.164754,-8956.491898,1149.143247
59398.108631,-1332.370696,-9770.718434,2298.286494
59398.108941,-1406.391290,-9474.636058,2374.896044
59398.109251,1406.391290,-5995.668130,0.000000
59398.109561,3701.029710,-7476.080014,3677.258390
59398.109870,-666.185348,-7698.141797,-1302.362347
59398.110180,-3552.988522,-10140.821405,0.000000
59398.110490,1110.308913,-11547.212695,-76.609550
59398.110800,0.000000,-10510.924376,-1072.533697
59398.111110,-3627.009116,-10584.944971,-1378.971896
59398.111420,-2516.700203,-10436.903782,-459.657299
59398.111729,2368.659014,-7772.162391,2451.505594
59398.112039,4663.297435,-8586.388927,3524.039291
59398.112349,-74.020594,-8290.306550,1762.019645
59398.112659,-2664.741391,-8660.409521,1225.752797
59398.112969,3478.967927,-11843.295072,2374.896044
59398.113278,0.000000,-6587.832884,0.000000
59398.113588,-1554.432478,-9474.636058,1762.019645
59398.113898,-2294.638420,-8216.285956,1149.143247
59398.114208,2960.823768,-6291.750507,2068.457845
59398.114518,3701.029710,-6291.750507,1915.238745
59398.114827,0.000000,-7179.997637,0.000000
59398.115137,-74.020594,-11325.150913,2451.505594
59398.115447,2146.597232,-13027.624579,1149.143247
59398.115757,-1998.556043,-10066.800811,-3753.867940
59398.116067,-4737.318029,-11917.315666,0.000000
59398.116377,-1258.350101,-11843.295072,-76.609550
59398.116686,4367.215058,-9474.636058,2068.457845
59398.116996,3478.967927,-5847.626942,1378.971896
59398.117306,-592.164754,-8216.285956,1685.410096
59398.117616,-1332.370696,-10288.862594,1838.629195
59398.117926,0.000000,-8364.327145,612.876398
59398.118235,1184.329507,-8660.409521,2451.505594
59398.118545,-666.185348,-9474.636058,2068.457845
59398.118855,-1850.514855,-7402.059420,0.000000
59398.119165,5107.421000,-9474.636058,4673.182538
59398.119475,3478.967927,-7698.141797,2374.896044
59398.119785,-1184.329507,-9770.718434,1838.629195
59398.120094,-2886.803174,-11843.295072,229.828649
59398.120404,-1184.329507,-10510.924376,-536.266849
59398.120714,-2072.576638,-10436.903782,-1378.971896
59398.121024,-5699.585753,-8956.491898,-3370.820191
59398.121334,-3552.988522,-7476.080014,0.000000
59398.121643,4441.235652,-8068.244768,2604.724693
59398.121953,4367.215058,-5329.482782,-76.609550
59398.122263,0.000000,-7772.162391,2757.943793
59398.122573,-74.020594,-11843.295072,2987.772442
59398.122883,592.164754,-9548.656652,2451.505594
59398.123193,-370.102971,-9178.553681,995.924147
59398.123502,-3330.926739,-9770.718434,229.828649
59398.123812,-2220.617826,-9400.615463,995.924147
59398.124122,2886.803174,-7105.977043,1149.143247
59398.124432,0.000000,-5551.544565,0.000000
59398.124742,-1776.494261,-9104.533087,689.485948
59398.125051,-1258.350101,-14211.954086,-76.609550
59398.125361,-2960.823768,-8364.327145,-2451.505594
59398.125671,-592.164754,-11325.150913,919.314598
59398.125981,-4737.318029,-8660.409521,-1838.629195
59398.126291,-1184.329507,-9474.636058,612.876398
59398.126601,3627.009116,-7179.997637,1378.971896
59398.126910,2738.761985,-6661.853478,1302.362347
59398.127220,-74.020594,-9474.636058,2374.896044
59398.127530,-1998.556043,-9178.553681,1149.143247
59398.127840,0.000000,-8364.327145,1225.752797
59398.128150,-74.020594,-11843.295072,3600.648841
59398.128459,-5921.647536,-7179.997637,0.000000
59398.128769,-296.082377,-10140.821405,3064.381992
59398.129079,1480.411884,-5551.544565,842.705048
59398.129389,2294.638420,-6883.915261,1378.971896
59398.129699,-1480.411884,-8882.471304,842.705048
59398.130008,-1776.494261,-10510.924376,459.657299
59398.130318,1110.308913,-12435.459826,-76.609550
59398.130628,-74.020594,-10658.965565,-1608.800546
59398.130938,-6217.729913,-9548.656652,-2451.505594
59398.131248,-814.226536,-13027.624579,2374.896044
59398.131558,1184.329507,-5995.668130,612.876398
59398.131867,1776.494261,-6883.915261,0.000000
59398.132177,-2146.597232,-8290.306550,536.266849
59398.132487,-888.247130,-9548.656652,1991.848295
59398.132797,1702.473667,-9326.594869,1762.019645
59398.133107,-592.164754,-8290.306550,1225.752797
59398.133416,-2072.576638,-10362.883188,2068.457845
59398.133726,-74.020594,-10658.965565,2374.896044
59398.134036,3775.050304,-6513.812290,1762.019645
59398.134346,2368.659014,-5995.668130,2451.505594
59398.134656,-74.020594,-9474.636058,-76.609550
59398.134966,-4367.215058,-8364.327145,-2451.505594
59398.135275,-74.020594,-11251.130318,-689.485948
59398.135585,-2812.782580,-10436.903782,-1991.848295
59398.135895,-5033.400406,-10955.047942,-1762.019645
59398.136205,-1776.494261,-10214.842000,0.000000
59398.136515,3552.988522,-7179.997637,2451.505594
59398.136824,4663.297435,-8290.306550,3294.210641
59398.137134,-74.020594,-9178.553681,2068.457845
59398.137444,0.000000,-9548.656652,3064.381992
59398.137754,2886.803174,-9474.636058,2374.896044
59398.138064,-2960.823768,-7179.997637,-1685.410096
59398.138374,-1850.514855,-10658.965565,1149.143247
59398.138683,-814.226536,-8660.409521,1455.581446
59398.138993,3997.112087,-6735.874072,2145.067394
59398.139303,2812.782580,-6883.915261,1762.019645
59398.139613,-2368.659014,-8364.327145,1225.752797
59398.139923,-592.164754,-11621.233289,1838.629195
59398.140232,1702.473667,-11843.295072,-76.609550
59398.140542,-4737.318029,-7772.162391,-3677.258390
59398.140852,-2738.761985,-12435.459826,-383.047749
59398.141162,-2146.597232,-9326.594869,-1302.362347
59398.141472,4145.153275,-9030.512492,1762.019645
59398.141782,1702.473667,-7105.977043,383.047749
59398.142091,-1850.514855,-9844.739029,842.705048
59398.142401,-1332.370696,-10955.047942,1762.019645
59398.142711,0.000000,-8364.327145,306.438199
59398.143021,-2368.659014,-9548.656652,1225.752797
59398.143331,-2442.679609,-10066.800811,4826.401637
59398.143640,-74.020594,-6513.812290,1149.143247
59398.143950,3552.988522,-5995.668130,3677.258390
59398.144260,5847.626942,-8290.306550,4826.401637
59398.144570,-296.082377,-9104.533087,3064.381992
59398.144880,-666.185348,-10436.903782,1149.143247
59398.145190,-592.164754,-9992.780217,-383.047749
59398.145499,-2812.782580,-9992.780217,-1838.629195
59398.145809,-5625.565159,-8882.471304,-4596.572988
59398.146119,-3552.988522,-8660.409521,-1838.629195
59398.146429,3256.906145,-7772.162391,0.000000
59398.146739,3478.967927,-9474.636058,-76.609550
59398.147048,-3552.988522,-9548.656652,612.876398
59398.147358,-74.020594,-14211.954086,4826.401637
59398.147668,0.000000,-9548.656652,1532.190996
59398.147978,-1258.350101,-9918.759623,995.924147
59398.148288,-2812.782580,-9252.574275,1838.629195
59398.148597,592.164754,-7772.162391,2757.943793
59398.148907,5255.462188,-4441.235652,1149.143247
59398.149217,1480.411884,-4515.256246,1838.629195
59398.149527,-1628.453072,-7772.162391,0.000000
59398.149837,1850.514855,-12139.377449,3294.210641
59398.150147,-74.020594,-9178.553681,-1455.581446
59398.150456,-2368.659014,-10881.027347,766.095498
59398.150766,-5773.606348,-9696.697840,-2451.505594
59398.151076,-1258.350101,-10584.944971,-995.924147
59398.151386,2886.803174,-7698.141797,-383.047749
59398.151696,1036.288319,-8660.409521,229.828649
59398.152005,-74.020594,-11251.130318,-76.609550
59398.152315,-962.267725,-9770.718434,459.657299
59398.152625,0.000000,-8364.327145,612.876398
59398.152935,-74.020594,-11843.295072,3294.210641
59398.153245,-4737.318029,-7179.997637,0.000000
59398.153555,1184.329507,-8364.327145,4903.011187
59398.153864,4145.153275,-4811.338623,2451.505594
59398.154174,3182.885551,-6143.709319,2911.162892
59398.154484,-1554.432478,-8586.388927,1302.362347
59398.154794,-1258.350101,-10436.903782,383.047749
59398.155104,1702.473667,-11251.130318,-76.609550
59398.155413,-3034.844362,-10510.924376,-2528.115143
59398.155723,-5921.647536,-9548.656652,-4903.011187
59398.156033,1110.308913,-11843.295072,1915.238745
59398.156343,1850.514855,-6587.832884,-1455.581446
59398.156653,0.000000,-7179.997637,0.000000
59398.156963,-3330.926739,-10362.883188,-995.924147
59398.157272,-1776.494261,-11029.068536,612.876398
59398.157582,-148.041188,-10066.800811,612.876398
59398.157892,-2516.700203,-9696.697840,76.609550
59398.158202,-1406.391290,-10658.965565,4213.525239
59398.158512,2294.638420,-9474.636058,4213.525239
59398.158821,4663.297435,-2960.823768,1608.800546
59398.159131,0.000000,-5403.503377,3677.258390
59398.159441,-74.020594,-9474.636058,2987.772442
59398.159751,-2368.659014,-7179.997637,0.000000
59398.160061,814.226536,-9178.553681,-76.609550
59398.160371,-3923.091493,-9252.574275,-1532.190996
59398.160680,-4959.379811,-10140.821405,-1532.190996
59398.160990,-592.164754,-9696.697840,-612.876398
59398.161300,3552.988522,-8660.409521,1685.410096
59398.161610,2146.597232,-9474.636058,-76.609550
59398.161920,-2442.679609,-10658.965565,-76.609550
59398.162229,-3552.988522,-9548.656652,0.000000
59398.162539,2294.638420,-11843.295072,1149.143247
59398.162849,-3775.050304,-7179.997637,-2451.505594
59398.163159,-2442.679609,-11251.130318,1762.019645
59398.163469,962.267725,-8512.368333,2528.115143
59398.163778,5107.421000,-5995.668130,3447.429741
59398.164088,2886.803174,-5403.503377,3447.429741
59398.164398,0.000000,-7179.997637,4903.011187
59398.164708,2368.659014,-9844.739029,3983.696590
59398.165018,3478.967927,-11843.295072,3600.648841
59398.165328,-4737.318029,-6735.874072,-2451.505594
59398.165637,-3552.988522,-11103.089130,-153.219100
59398.165947,-74.020594,-8290.306550,-2528.115143
59398.166257,3256.906145,-9326.594869,-383.047749
59398.166567,-1554.432478,-9770.718434,-1685.410096
59398.166877,-3404.947333,-11991.336260,-842.705048
59398.167186,-1258.350101,-12435.459826,229.828649
59398.167496,0.000000,-9548.656652,0.000000
59398.167806,-3849.070898,-10732.986159,612.876398
59398.168116,-666.185348,-13027.624579,4519.963438
59398.168426,666.185348,-5107.421000,1838.629195
59398.168736,7105.977043,-4811.338623,5515.887586
59398.169045,4663.297435,-4737.318029,4826.401637
59398.169355,740.205942,-7772.162391,3983.696590
59398.169665,1998.556043,-8734.430116,2681.334243
59398.169975,1406.391290,-8142.265362,995.924147
59398.170285,-3701.029710,-9400.615463,-1762.019645
59398.170594,-7105.977043,-7179.997637,-3677.258390
59398.170904,-2072.576638,-9548.656652,-1225.752797
59398.171214,2368.659014,-9548.656652,612.876398
59398.171524,-370.102971,-10658.965565,-1915.238745
59398.171834,-4737.318029,-11917.315666,0.000000
59398.172144,-74.020594,-14211.954086,-76.609550
59398.172453,0.000000,-9548.656652,306.438199
59398.172763,-3256.906145,-9326.594869,76.609550
59398.173073,-3330.926739,-9030.512492,1072.533697
59398.173383,2442.679609,-7254.018232,3140.991542
59398.173693,4959.379811,-3552.988522,2681.334243
59398.174002,1184.329507,-4811.338623,3064.381992
59398.174312,0.000000,-9548.656652,4903.011187
59398.174622,2294.638420,-9474.636058,1762.019645
59398.174932,1184.329507,-8660.409521,612.876398
59398.175242,-3775.050304,-8068.244768,-766.095498
59398.175552,-4219.173869,-10066.800811,-1991.848295
59398.175861,-444.123565,-9696.697840,-995.924147
59398.176171,2146.597232,-9844.739029,-689.485948
59398.176481,-1332.370696,-10732.986159,-306.438199
59398.176791,-2664.741391,-13619.789333,2374.896044
59398.177101,-370.102971,-12435.459826,2374.896044
59398.177410,-1258.350101,-7402.059420,-1302.362347
59398.177720,-3552.988522,-9252.574275,1225.752797
59398.178030,-4515.256246,-7994.224174,229.828649
59398.178340,4071.132681,-8290.306550,4060.306139
59398.178650,6069.688724,-5033.400406,4519.963438
59398.178959,2516.700203,-6291.750507,4213.525239
59398.179269,-518.144159,-8808.450710,2604.724693
59398.179579,1184.329507,-8956.491898,1915.238745
59398.179889,74.020594,-7624.121203,-1762.019645
59398.180199,-4145.153275,-8364.327145,-4903.011187
59398.180509,-3256.906145,-12139.377449,-76.609550
59398.180818,1110.308913,-10362.883188,-995.924147
59398.181128,1776.494261,-7772.162391,0.000000
59398.181438,-2368.659014,-9548.656652,0.000000
59398.181748,-2738.761985,-11547.212695,-76.609550
59398.182058,-1258.350101,-11177.109724,383.047749
59398.182367,-592.164754,-9326.594869,383.047749
59398.182677,-4293.194464,-9844.739029,-76.609550
59398.182987,-2442.679609,-9474.636058,2528.115143
59398.183297,3478.967927,-9474.636058,4826.401637
59398.183607,3404.947333,-2738.761985,1838.629195
59398.183917,1776.494261,-6883.915261,4136.915689
59398.184226,-74.020594,-8882.471304,2374.896044
59398.184536,1702.473667,-8734.430116,995.924147
59398.184846,1480.411884,-8660.409521,919.314598
59398.185156,-2812.782580,-9622.677246,-612.876398
59398.185466,-3256.906145,-9992.780217,-919.314598
59398.185775,814.226536,-9400.615463,-76.609550
59398.186085,1184.329507,-7772.162391,-1685.410096
59398.186395,-4737.318029,-7772.162391,-2451.505594
59398.186705,-2368.659014,-13545.768739,842.705048
59398.187015,-1554.432478,-9992.780217,-536.266849
59398.187325,814.226536,-11399.171507,3294.210641
59398.187634,-4293.194464,-10288.862594,1378.971896
59398.187944,-3034.844362,-9474.636058,1225.752797
59398.188254,2368.659014,-7402.059420,3140.991542
59398.188564,5255.462188,-4885.359217,3753.867940
59398.188874,1406.391290,-4811.338623,1838.629195
59398.189183,1110.308913,-8882.471304,3370.820191
59398.189493,4663.297435,-11843.295072,3600.648841
59398.189803,74.020594,-7994.224174,-995.924147
59398.190113,-4737.318029,-9548.656652,-2451.505594
59398.190423,-2368.659014,-11029.068536,0.000000
59398.190733,814.226536,-9474.636058,-1915.238745
59398.191042,2516.700203,-9548.656652,0.000000
59398.191352,-1332.370696,-10807.006753,0.000000
59398.191662,-1998.556043,-11843.295072,536.266849
59398.191972,1702.473667,-11843.295072,2987.772442
59398.192282,0.000000,-7328.038826,-76.609550
59398.192591,-5921.647536,-7476.080014,0.000000
59398.192901,-1258.350101,-10658.965565,2987.772442
59398.193211,2072.576638,-5995.668130,0.000000
59398.193521,6217.729913,-7105.977043,6052.154434
59398.193831,1702.473667,-7698.141797,4290.134789
59398.194140,-592.164754,-8586.388927,2681.334243
59398.194450,1850.514855,-8882.471304,1455.581446
59398.194760,814.226536,-9178.553681,536.266849
59398.195070,-4145.153275,-7772.162391,-3064.381992
59398.195380,-1628.453072,-10732.986159,612.876398
59398.195689,3478.967927,-10658.965565,-76.609550
59398.195999,1110.308913,-7994.224174,-1302.362347
59398.196309,-2368.659014,-9030.512492,-2374.896044
59398.196619,-3552.988522,-10732.986159,0.000000
59398.196929,0.000000,-10732.986159,612.876398
59398.197238,-1184.329507,-9548.656652,1225.752797
59398.197548,-3627.009116,-11251.130318,-76.609550
59398.197858,-3552.988522,-8956.491898,766.095498
59398.198168,4663.297435,-8290.306550,2987.772442
59398.198478,3552.988522,-4219.173869,1302.362347
59398.198787,1184.329507,-7772.162391,4290.134789
59398.199097,-74.020594,-9178.553681,2374.896044
59398.199407,0.000000,-5995.668130,306.438199
59398.199717,1702.473667,-7624.121203,1378.971896
59398.200027,-1850.514855,-9474.636058,-76.609550
59398.200336,-2960.823768,-10214.842000,-1302.362347
59398.200646,1110.308913,-9326.594869,-612.876398
59398.200956,1184.329507,-8734.430116,-383.047749
59398.201266,-4145.153275,-9548.656652,-1838.629195
59398.201575,-1850.514855,-12731.542202,-76.609550
59398.201885,-1480.411884,-9548.656652,-995.924147
59398.202195,-296.082377,-9474.636058,689.485948
59398.202505,-7105.977043,-8364.327145,0.000000
59398.202815,-74.020594,-13027.624579,4826.401637
59398.203124,2368.659014,-6883.915261,2451.505594
59398.203434,3997.112087,-6069.688724,3294.210641
59398.203744,-740.205942,-7031.956449,2757.943793
59398.204054,-1036.288319,-8734.430116,2145.067394
59398.204364,2886.803174,-9474.636058,1149.143247
59398.204673,-1776.494261,-7772.162391,0.000000
59398.204983,-2442.679609,-10658.965565,-76.609550
59398.205293,-2442.679609,-7179.997637,-2528.115143
59398.205603,3552.988522,-9844.739029,1532.190996
59398.205913,74.020594,-5995.668130,-3064.381992
59398.206222,-2442.679609,-10362.883188,-995.924147
59398.206532,-3478.967927,-11473.192101,-689.485948
59398.206842,-444.123565,-10807.006753,-76.609550
59398.207152,-1850.514855,-9992.780217,-383.047749
59398.207462,-5329.482782,-10436.903782,1378.971896
59398.207771,-666.185348,-10658.965565,2374.896044
59398.208081,2886.803174,-6587.832884,2221.676944
59398.208391,4663.297435,-8882.471304,6052.154434
59398.208701,-2368.659014,-4811.338623,1532.190996
59398.209010,2812.782580,-11251.130318,6665.030833
59398.209320,2368.659014,-8438.347739,2757.943793
59398.209630,1258.350101,-7846.182985,1225.752797
59398.209940,-2664.741391,-9030.512492,0.000000
59398.210250,-1850.514855,-9104.533087,-459.657299
59398.210559,3182.885551,-7698.141797,-1685.410096
59398.210869,1924.535449,-8512.368333,-459.657299
59398.211179,-2368.659014,-10510.924376,-842.705048
59398.211489,-2368.659014,-11621.233289,-612.876398
59398.211799,0.000000,-11917.315666,-536.266849
59398.212108,-740.205942,-11843.295072,-76.609550
59398.212418,-5033.400406,-11843.295072,-689.485948
59398.212728,-3923.091493,-8364.327145,-1762.019645
59398.213038,4737.318029,-7772.162391,4136.915689
59398.213348,4663.297435,-6513.812290,3600.648841
59398.213657,-74.020594,-6513.812290,1762.019645
59398.213967,0.000000,-8068.244768,3600.648841
59398.214277,3701.029710,-7772.162391,3217.601092
59398.214587,1702.473667,-7402.059420,1991.848295
59398.214896,-2442.679609,-7772.162391,306.438199
59398.215206,-1480.411884,-9252.574275,1608.800546
59398.215516,3404.947333,-9326.594869,1149.143247
59398.215826,1110.308913,-6957.935855,-2528.115143
59398.216136,-4737.318029,-9548.656652,0.000000
59398.216445,-2442.679609,-13619.789333,-766.095498
59398.216755,-74.020594,-13619.789333,-1608.800546
59398.217065,-4145.153275,-11029.068536,-2451.505594
59398.217375,-5329.482782,-11991.336260,-995.924147
59398.217685,-1776.494261,-9992.780217,1225.752797
59398.217994,5403.503377,-7624.121203,4903.011187
59398.218304,4737.318029,-5403.503377,5822.325785
59398.218614,74.020594,-6809.894666,4826.401637
59398.218924,-1258.350101,-5107.421000,1532.190996
59398.219234,3552.988522,-9178.553681,4443.353888
59398.219543,1110.308913,-7698.141797,1149.143247
59398.219853,-1258.350101,-9178.553681,-76.609550
59398.220163,-2442.679609,-8956.491898,-1302.362347
59398.220473,740.205942,-8364.327145,0.000000
59398.220782,3478.967927,-11251.130318,-76.609550
59398.221092,-4219.173869,-10658.965565,-2528.115143
59398.221402,-3923.091493,-11177.109724,-3447.429741
59398.221712,-888.247130,-11917.315666,-459.657299
59398.222022,-1998.556043,-10807.006753,-459.657299
59398.222331,-3627.009116,-9992.780217,76.609550
59398.222641,-222.061783,-9622.677246,2374.896044
59398.222951,3552.988522,-5403.503377,3677.258390
59398.223261,3182.885551,-6513.812290,3600.648841
59398.223571,-1332.370696,-7476.080014,3370.820191
59398.223880,148.041188,-7994.224174,3217.601092
59398.224190,3108.864956,-8512.368333,3370.820191
59398.224500,2294.638420,-7105.977043,1149.143247
59398.224810,-3849.070898,-7179.997637,-3370.820191
59398.225120,1036.288319,-10881.027347,2068.457845
59398.225429,1998.556043,-7179.997637,-1455.581446
59398.225739,0.000000,-8364.327145,0.000000
59398.226049,-3552.988522,-9548.656652,-1149.143247
59398.226359,-1702.473667,-12657.521608,-766.095498
59398.226668,-222.061783,-11547.212695,-1225.752797
59398.226978,-2960.823768,-10732.986159,-1378.971896
59398.227288,-5107.421000,-11621.233289,-995.924147
59398.227598,-74.020594,-11547.212695,2374.896044
59398.227908,3404.947333,-5033.400406,536.266849
59398.228217,1184.329507,-5995.668130,4290.134789
59398.228527,-74.020594,-8290.306550,3600.648841
59398.228837,0.000000,-6587.832884,2451.505594
59398.229147,2886.803174,-6735.874072,1532.190996
59398.229457,740.205942,-7105.977043,1838.629195
59398.229766,-2590.720797,-7994.224174,76.609550
59398.230076,-296.082377,-9178.553681,306.438199
59398.230386,2886.803174,-7476.080014,-76.609550
59398.230696,740.205942,-10362.883188,-76.609550
59398.231006,-3627.009116,-11251.130318,-1608.800546
59398.231315,-4737.318029,-10140.821405,-2451.505594
59398.231625,888.247130,-13619.789333,-76.609550
59398.231935,-3330.926739,-11251.130318,-1608.800546
59398.232245,-4811.338623,-11547.212695,-1915.238745
59398.232555,0.000000,-9548.656652,1991.848295
59398.232864,4589.276840,-7031.956449,3524.039291
59398.233174,1776.494261,-6291.750507,3677.258390
59398.233484,-1702.473667,-7550.100608,4213.525239
59398.233794,1332.370696,-8808.450710,4903.011187
59398.234103,4663.297435,-9474.636058,4826.401637
59398.234413,-2368.659014,-4811.338623,0.000000
59398.234723,-1850.514855,-9474.636058,1149.143247
59398.235033,-370.102971,-8438.347739,0.000000
59398.235343,4071.132681,-7994.224174,-689.485948
59398.235652,-592.164754,-8660.409521,-1072.533697
59398.235962,-3849.070898,-11251.130318,-1225.752797
59398.236272,-2368.659014,-12805.562797,-1225.752797
59398.236582,-962.267725,-11991.336260,-919.314598
59398.236892,-4737.318029,-10732.986159,-1225.752797
59398.237201,-4737.318029,-11917.315666,1225.752797
59398.237511,2294.638420,-9474.636058,2374.896044
59398.237821,2960.823768,-5995.668130,2451.505594
59398.238131,2590.720797,-7105.977043,4213.525239
59398.238441,-148.041188,-8142.265362,4519.963438
59398.238750,518.144159,-7772.162391,2834.553343
59398.239060,2664.741391,-7179.997637,3064.381992
59398.239370,0.000000,-6883.915261,1302.362347
59398.239680,-2812.782580,-8512.368333,0.000000
59398.239989,0.000000,-7179.997637,0.000000
59398.240299,2960.823768,-7179.997637,612.876398
59398.240609,2886.803174,-9474.636058,-76.609550
59398.240919,-3552.988522,-10140.821405,-1532.190996
59398.241229,-296.082377,-12879.583391,0.000000
59398.241538,0.000000,-13323.706956,-76.609550
59398.241848,-3997.112087,-11251.130318,-2068.457845
59398.242158,-4737.318029,-11843.295072,-689.485948
59398.242468,666.185348,-9400.615463,1532.190996
59398.242778,4145.153275,-6069.688724,2451.505594
59398.243087,0.000000,-4811.338623,2451.505594
59398.243397,-2368.659014,-7179.997637,2451.505594
59398.243707,3478.967927,-9474.636058,4826.401637
59398.244017,1184.329507,-5995.668130,1838.629195
59398.244327,-74.020594,-7698.141797,2221.676944
59398.244636,-2368.659014,-8660.409521,1838.629195
59398.244946,888.247130,-8290.306550,766.095498
59398.245256,2590.720797,-7328.038826,0.000000
59398.245566,-370.102971,-9400.615463,-842.705048
59398.245875,-3034.844362,-10732.986159,-2451.505594
59398.246185,-2590.720797,-10955.047942,-3217.601092
59398.246495,-4737.318029,-9548.656652,-3677.258390
59398.246805,-3997.112087,-12805.562797,-919.314598
59398.247115,-4219.173869,-11843.295072,-1302.362347
59398.247424,0.000000,-9548.656652,2374.896044
59398.247734,4145.153275,-7179.997637,3677.258390
59398.248044,2294.638420,-6513.812290,3524.039291
59398.248354,-740.205942,-7476.080014,3753.867940
59398.248664,1924.535449,-8142.265362,3983.696590
59398.248973,3034.844362,-6365.771101,2987.772442
59398.249283,-74.020594,-7031.956449,1149.143247
59398.249593,-3627.009116,-6661.853478,-1302.362347
59398.249903,1184.329507,-9252.574275,1838.629195
59398.250213,2590.720797,-7105.977043,-689.485948
59398.250522,-1998.556043,-8364.327145,-76.609550
59398.250832,-4441.235652,-10140.821405,0.000000
59398.251142,-2368.659014,-12509.480420,-1072.533697
59398.251452,-2072.576638,-11917.315666,-2145.067394
59398.251761,-4441.235652,-10807.006753,-2451.505594
59398.252071,-3775.050304,-11251.130318,-76.609550
59398.252381,2294.638420,-9474.636058,3600.648841
59398.252691,1406.391290,-4219.173869,0.000000
59398.253001,1184.329507,-8216.285956,3983.696590
59398.253310,-74.020594,-9474.636058,3600.648841
59398.253620,0.000000,-7476.080014,2757.943793
59398.253930,0.000000,-5403.503377,1838.629195
59398.254240,-592.164754,-7031.956449,1455.581446
59398.254550,-1332.370696,-8142.265362,1378.971896
59398.254859,1406.391290,-7846.182985,766.095498
59398.255169,3034.844362,-8290.306550,1149.143247
59398.255479,-74.020594,-10362.883188,-1455.581446
59398.255789,-1258.350101,-13027.624579,-689.485948
59398.256099,-3330.926739,-11325.150913,-2451.505594
59398.256408,-1184.329507,-11991.336260,-153.219100
59398.256718,-3627.009116,-11843.295072,-2451.505594
59398.257028,-4219.173869,-10658.965565,-1915.238745
59398.257338,1184.329507,-8586.388927,1685.410096
59398.257648,3627.009116,-6217.729913,2604.724693
59398.257957,666.185348,-7550.100608,3217.601092
59398.258267,1110.308913,-9918.759623,5745.716235
59398.258577,2664.741391,-10510.924376,5515.887586
59398.258887,4663.297435,-8290.306550,2987.772442
59398.259196,-3552.988522,-4811.338623,0.000000
59398.259506,-1258.350101,-9474.636058,2374.896044
59398.259816,1406.391290,-7476.080014,-2374.896044
59398.260126,3478.967927,-7105.977043,-689.485948
59398.260436,-1110.308913,-9252.574275,-459.657299
59398.260745,-2812.782580,-11473.192101,-1225.752797
59398.261055,-1776.494261,-12435.459826,-1302.362347
59398.261365,-1480.411884,-11917.315666,0.000000
59398.261675,-4737.318029,-11325.150913,-1838.629195
59398.261985,-2072.576638,-12213.398043,1225.752797
59398.262294,2294.638420,-8290.306550,1455.581446
59398.262604,3552.988522,-5995.668130,1225.752797
59398.262914,1480.411884,-6809.894666,2374.896044
59398.263224,-74.020594,-9474.636058,3600.648841
59398.263534,1998.556043,-8364.327145,2451.505594
59398.263843,2072.576638,-6809.894666,2068.457845
