#time,accel_x,accel_y,accel_z
163415.412605,-2368.659014,-7772.162391,0.000000
163415.412925,-1258.350101,-9030.512492,-383.047749
163415.413244,-74.020594,-11843.295072,2068.457845
163415.413563,-74.020594,-9178.553681,-689.485948
163415.413882,-1184.329507,-9104.533087,0.000000
163415.414201,1110.308913,-11843.295072,2374.896044
163415.414521,-1184.329507,-9104.533087,-1225.752797
163415.414840,-518.144159,-9770.718434,-766.095498
163415.415159,-740.205942,-9548.656652,-459.657299
163415.415478,-1184.329507,-8512.368333,0.000000
163415.415798,-2368.659014,-7476.080014,0.000000
163415.416117,-2960.823768,-7179.997637,-2451.505594
163415.416436,444.123565,-10436.903782,459.657299
163415.416755,-74.020594,-8586.388927,-229.828649
163415.417075,518.144159,-8882.471304,-383.047749
163415.417394,1628.453072,-10658.965565,-76.609550
163415.417713,0.000000,-8956.491898,-536.266849
163415.418032,74.020594,-8956.491898,0.000000
163415.418352,148.041188,-9326.594869,0.000000
163415.418671,0.000000,-8364.327145,0.000000
163415.418990,814.226536,-9474.636058,689.485948
163415.419309,-666.185348,-7772.162391,0.000000
163415.419629,-962.267725,-8364.327145,-2451.505594
163415.419948,888.247130,-10288.862594,2068.457845
163415.420267,-74.020594,-8290.306550,-1302.362347
163415.420586,-518.144159,-9400.615463,306.438199
163415.420906,-814.226536,-9474.636058,-536.266849
163415.421225,-962.267725,-9030.512492,-383.047749
163415.421544,-740.205942,-9104.533087,229.828649
163415.421863,-518.144159,-9770.718434,536.266849
163415.422183,-74.020594,-10658.965565,-229.828649
163415.422502,-1036.288319,-9474.636058,-2528.115143
163415.422821,0.000000,-9548.656652,0.000000
163415.423140,-74.020594,-9474.636058,-1838.629195
163415.423460,-74.020594,-8882.471304,-1915.238745
163415.423779,0.000000,-9696.697840,-689.485948
163415.424098,0.000000,-9178.553681,-459.657299
163415.424417,0.000000,-9030.512492,-306.438199
163415.424737,1110.308913,-11843.295072,1762.019645
163415.425056,1702.473667,-11547.212695,1149.143247
163415.425375,296.082377,-9844.739029,1225.752797
163415.425694,1406.391290,-10066.800811,-76.609550
163415.426014,-740.205942,-8438.347739,-612.876398
163415.426333,0.000000,-7476.080014,0.000000
163415.426652,518.144159,-9030.512492,-76.609550
163415.426971,0.000000,-9104.533087,766.095498
163415.427291,-370.102971,-9030.512492,153.219100
163415.427610,0.000000,-8882.471304,306.438199
163415.427929,1702.473667,-11103.089130,1685.410096
163415.428248,-2220.617826,-7179.997637,-1225.752797
163415.428568,-1184.329507,-8660.409521,459.657299
163415.428887,-74.020594,-9474.636058,1302.362347
163415.429206,-74.020594,-10658.965565,-76.609550
163415.429525,-3256.906145,-7179.997637,0.000000
163415.429844,-592.164754,-9992.780217,-995.924147
163415.430164,-1036.288319,-9400.615463,-689.485948
163415.430483,-740.205942,-9844.739029,-1149.143247
163415.430802,-740.205942,-8512.368333,-1762.019645
163415.431121,-592.164754,-9548.656652,-995.924147
163415.431441,-1036.288319,-9252.574275,-1225.752797
163415.431760,0.000000,-9548.656652,-2451.505594
163415.432079,1702.473667,-10658.965565,1149.143247
163415.432398,1110.308913,-10362.883188,-76.609550
163415.432718,0.000000,-8660.409521,0.000000
163415.433037,-74.020594,-9992.780217,0.000000
163415.433356,0.000000,-9400.615463,-536.266849
163415.433675,-74.020594,-9844.739029,-229.828649
163415.433995,518.144159,-8882.471304,-1302.362347
163415.434314,814.226536,-9474.636058,-76.609550
163415.434633,518.144159,-9474.636058,-76.609550
163415.434952,-1036.288319,-7772.162391,-689.485948
163415.435272,0.000000,-8956.491898,306.438199
163415.435591,1036.288319,-11029.068536,1991.848295
163415.435910,-1924.535449,-7846.182985,0.000000
163415.436229,-592.164754,-8660.409521,0.000000
163415.436549,0.000000,-8660.409521,0.000000
163415.436868,222.061783,-9104.533087,0.000000
163415.437187,-74.020594,-7698.141797,-1915.238745
163415.437506,814.226536,-11843.295072,-76.609550
163415.437826,518.144159,-8586.388927,-1762.019645
163415.438145,0.000000,-8660.409521,-1225.752797
163415.438464,1184.329507,-9548.656652,1991.848295
163415.438783,0.000000,-8364.327145,0.000000
163415.439103,1998.556043,-10362.883188,-306.438199
163415.439422,2368.659014,-9548.656652,-536.266849
163415.439741,3552.988522,-9548.656652,0.000000
163415.440060,4663.297435,-8586.388927,-1302.362347
163415.440380,4071.132681,-9178.553681,0.000000
163415.440699,3552.988522,-7772.162391,0.000000
163415.441018,7031.956449,-9474.636058,1838.629195
163415.441337,8216.285956,-10658.965565,-76.609550
163415.441657,2368.659014,-7179.997637,0.000000
163415.441976,5847.626942,-9474.636058,-383.047749
163415.442295,4737.318029,-8956.491898,-536.266849
163415.442614,4959.379811,-9474.636058,-995.924147
163415.442934,5477.523971,-9252.574275,-766.095498
163415.443253,7920.203579,-11399.171507,2068.457845
163415.443572,6661.853478,-7772.162391,0.000000
163415.443891,8142.265362,-9030.512492,459.657299
163415.444211,7402.059420,-9178.553681,766.095498
163415.444530,5847.626942,-10140.821405,0.000000
163415.444849,1776.494261,-9548.656652,0.000000
163415.445168,518.144159,-10436.903782,-2987.772442
163415.445488,1184.329507,-12657.521608,306.438199
163415.445807,1998.556043,-10955.047942,-76.609550
163415.446126,2368.659014,-7772.162391,229.828649
163415.446445,4441.235652,-8290.306550,1762.019645
163415.446764,3108.864956,-5255.462188,-1302.362347
163415.447084,3552.988522,-5107.421000,-2221.676944
163415.447403,4367.215058,-5995.668130,-2298.286494
163415.447722,3552.988522,-7772.162391,-2528.115143
163415.448041,4145.153275,-11473.192101,-842.705048
163415.448361,4071.132681,-14508.036463,-1302.362347
163415.448680,1554.432478,-14804.118840,-995.924147
163415.448999,592.164754,-15470.304188,2451.505594
163415.449318,3478.967927,-12435.459826,2374.896044
163415.449638,2886.803174,-9030.512492,2068.457845
163415.449957,1776.494261,-5033.400406,-306.438199
163415.450276,1850.514855,-4737.318029,-995.924147
163415.450595,2960.823768,-6217.729913,306.438199
163415.450915,3182.885551,-7031.956449,2068.457845
163415.451234,592.164754,-8068.244768,612.876398
163415.451553,-1258.350101,-11103.089130,-76.609550
163415.451872,-1258.350101,-9474.636058,-536.266849
163415.452192,0.000000,-9178.553681,536.266849
163415.452511,2294.638420,-8586.388927,-76.609550
163415.452830,888.247130,-9770.718434,766.095498
163415.453149,148.041188,-10881.027347,689.485948
163415.453469,0.000000,-10066.800811,153.219100
163415.453788,-74.020594,-9474.636058,-383.047749
163415.454107,-2072.576638,-8956.491898,-2834.553343
163415.454426,-4737.318029,-7179.997637,-6128.763984
163415.454746,-74.020594,-11843.295072,-2681.334243
163415.455065,2072.576638,-11843.295072,-76.609550
163415.455384,0.000000,-10140.821405,0.000000
163415.455703,3182.885551,-10658.965565,1149.143247
163415.456023,2072.576638,-7772.162391,536.266849
163415.456342,3775.050304,-8142.265362,689.485948
163415.456661,6735.874072,-9400.615463,3294.210641
163415.456980,9696.697840,-9326.594869,6894.859482
163415.457300,7476.080014,-7105.977043,4060.306139
163415.457619,2368.659014,-5551.544565,-1838.629195
163415.457938,-592.164754,-9252.574275,-5822.325785
163415.458257,-222.061783,-14211.954086,-4979.620737
163415.458577,-3997.112087,-12213.398043,-6128.763984
163415.458896,-74.020594,-14211.954086,-2528.115143
163415.459215,296.082377,-11769.274478,-2145.067394
163415.459534,2294.638420,-10510.924376,0.000000
163415.459854,7550.100608,-9030.512492,4060.306139
163415.460173,11325.150913,-5921.647536,7277.907231
163415.460492,10436.903782,-1924.535449,6281.983084
163415.460811,6809.894666,-666.185348,995.924147
163415.461131,4737.318029,-5107.421000,1225.752797
163415.461450,5329.482782,-11251.130318,2374.896044
163415.461769,0.000000,-10140.821405,-2451.505594
163415.462088,-2590.720797,-13619.789333,-4903.011187
163415.462408,-3997.112087,-14211.954086,-8197.221829
163415.462727,-2812.782580,-13619.789333,-7890.783629
163415.463046,-74.020594,-13323.706956,-3753.867940
163415.463365,4663.297435,-11251.130318,-1302.362347
163415.463684,4663.297435,-8882.471304,-76.609550
163415.464004,4145.153275,-5107.421000,1225.752797
163415.464323,6661.853478,-5921.647536,4903.011187
163415.464642,4737.318029,-5995.668130,5822.325785
163415.464961,3256.906145,-5995.668130,4903.011187
163415.465281,4663.297435,-7772.162391,4519.963438
163415.465600,2516.700203,-7105.977043,1685.410096
163415.465919,-2368.659014,-9474.636058,-3140.991542
163415.466238,-4811.338623,-14211.954086,-5592.497135
163415.466558,-7698.141797,-14285.974681,-5822.325785
163415.466877,-6587.832884,-15396.283594,-4519.963438
163415.467196,-6735.874072,-13619.789333,-1915.238745
163415.467515,-3627.009116,-10658.965565,-1915.238745
163415.467835,-1776.494261,-7476.080014,3677.258390
163415.468154,-370.102971,-4663.297435,2987.772442
163415.468473,-148.041188,-3923.091493,2987.772442
163415.468792,-74.020594,-5181.441594,2374.896044
163415.469112,-1036.288319,-6217.729913,2451.505594
163415.469431,-1702.473667,-8438.347739,0.000000
163415.469750,-8142.265362,-10436.903782,-2374.896044
163415.470069,-7698.141797,-14211.954086,-3524.039291
163415.470389,-5403.503377,-13619.789333,-3753.867940
163415.470708,-5995.668130,-11251.130318,-3753.867940
163415.471027,-6957.935855,-11325.150913,-3370.820191
163415.471346,-4959.379811,-11029.068536,-2374.896044
163415.471666,-962.267725,-8734.430116,1532.190996
163415.471985,1554.432478,-6513.812290,3370.820191
163415.472304,0.000000,-3627.009116,1225.752797
163415.472623,1110.308913,-6291.750507,4519.963438
163415.472943,1776.494261,-4811.338623,2145.067394
163415.473262,0.000000,-6587.832884,2451.505594
163415.473581,-370.102971,-10214.842000,-689.485948
163415.473900,-1258.350101,-12435.459826,-383.047749
163415.474220,-4145.153275,-12065.356855,-2451.505594
163415.474539,-4663.297435,-11991.336260,-4519.963438
163415.474858,-4293.194464,-11695.253884,-4979.620737
163415.475177,-2072.576638,-10584.944971,-2221.676944
163415.475497,0.000000,-5995.668130,0.000000
163415.475816,4367.215058,-7105.977043,2374.896044
163415.476135,3034.844362,-5403.503377,1225.752797
163415.476454,5625.565159,-6883.915261,5209.449386
163415.476774,7920.203579,-8882.471304,6052.154434
163415.477093,2960.823768,-10140.821405,3217.601092
163415.477412,592.164754,-11325.150913,-536.266849
163415.477731,1258.350101,-12583.501014,-383.047749
163415.478051,2146.597232,-11177.109724,-2221.676944
163415.478370,-2368.659014,-9548.656652,-6128.763984
163415.478689,-2368.659014,-11325.150913,-5209.449386
163415.479008,-2368.659014,-11325.150913,-4903.011187
163415.479327,1554.432478,-10584.944971,-1838.629195
163415.479647,4663.297435,-9474.636058,-76.609550
163415.479966,4737.318029,-7476.080014,1532.190996
163415.480285,5033.400406,-4811.338623,3064.381992
163415.480604,6217.729913,-4737.318029,4290.134789
163415.480924,4885.359217,-5477.523971,2528.115143
163415.481241,3701.029710,-8438.347739,1685.410096
163415.481560,4663.297435,-10658.965565,1762.019645
163415.481880,1184.329507,-11325.150913,536.266849
163415.482199,-2664.741391,-12879.583391,-2528.115143
163415.482518,-3627.009116,-14285.974681,-3140.991542
163415.482837,-2146.597232,-11843.295072,-1608.800546
163415.483156,-2072.576638,-10140.821405,-919.314598
163415.483475,-4737.318029,-7179.997637,-4290.134789
163415.483795,-4219.173869,-7179.997637,-3600.648841
163415.484114,-1480.411884,-7179.997637,0.000000
163415.484433,592.164754,-8290.306550,1532.190996
163415.484752,-2146.597232,-6439.791695,-995.924147
163415.485071,-814.226536,-8290.306550,2374.896044
163415.485390,-592.164754,-7105.977043,2221.676944
163415.485710,-1776.494261,-7846.182985,306.438199
163415.486029,-1850.514855,-10658.965565,-1302.362347
163415.486348,-4219.173869,-11695.253884,-2834.553343
163415.486667,-4737.318029,-11621.233289,-1838.629195
163415.486986,-3627.009116,-12583.501014,-2068.457845
163415.487305,-2442.679609,-13027.624579,-689.485948
163415.487625,-2368.659014,-9548.656652,306.438199
163415.487944,0.000000,-7179.997637,995.924147
163415.488263,0.000000,-6217.729913,459.657299
163415.488582,-1480.411884,-7402.059420,-766.095498
163415.488901,-740.205942,-8660.409521,842.705048
163415.489220,814.226536,-9178.553681,536.266849
163415.489540,-1258.350101,-9178.553681,842.705048
163415.489859,-3404.947333,-10436.903782,0.000000
163415.490178,-370.102971,-11843.295072,-76.609550
163415.490497,-1258.350101,-8290.306550,-306.438199
163415.490816,-3552.988522,-7179.997637,0.000000
163415.491135,-2442.679609,-8438.347739,-1455.581446
163415.491455,-1554.432478,-8956.491898,-306.438199
163415.491774,0.000000,-8956.491898,1072.533697
163415.492093,592.164754,-7772.162391,0.000000
163415.492412,814.226536,-8956.491898,-2757.943793
163415.492731,148.041188,-7772.162391,-1991.848295
163415.493050,592.164754,-9844.739029,919.314598
163415.493369,-74.020594,-11547.212695,-2528.115143
163415.493689,-2146.597232,-11843.295072,-2528.115143
163415.494008,0.000000,-11029.068536,-1225.752797
163415.494327,888.247130,-10732.986159,-1072.533697
163415.494646,1184.329507,-9548.656652,-689.485948
163415.494965,1110.308913,-9178.553681,-689.485948
163415.495284,2442.679609,-5699.585753,383.047749
163415.495604,5847.626942,-7105.977043,3294.210641
163415.495923,4071.132681,-5625.565159,0.000000
163415.496242,2368.659014,-7179.997637,1225.752797
163415.496561,4071.132681,-10140.821405,3064.381992
163415.496880,4663.297435,-11843.295072,2374.896044
163415.497199,0.000000,-11029.068536,-1532.190996
163415.497519,0.000000,-12213.398043,-995.924147
163415.497838,962.267725,-11029.068536,-383.047749
163415.498157,1036.288319,-9548.656652,-1532.190996
163415.498476,-666.185348,-9178.553681,-2298.286494
163415.498795,-814.226536,-10658.965565,-995.924147
163415.499114,-74.020594,-9474.636058,-76.609550
163415.499434,2294.638420,-8882.471304,-383.047749
163415.499753,0.000000,-7179.997637,-612.876398
163415.500072,3478.967927,-9474.636058,2374.896044
163415.500391,592.164754,-6661.853478,1685.410096
163415.500710,148.041188,-7402.059420,-153.219100
163415.501029,-1702.473667,-9400.615463,-1838.629195
163415.501349,-1776.494261,-10732.986159,0.000000
163415.501668,-1480.411884,-11029.068536,0.000000
163415.501987,-666.185348,-11251.130318,0.000000
163415.502306,-592.164754,-12731.542202,-229.828649
163415.502625,-74.020594,-11843.295072,-383.047749
163415.502944,0.000000,-7550.100608,-1608.800546
163415.503264,-74.020594,-9474.636058,-689.485948
163415.503583,-2368.659014,-8734.430116,-1762.019645
163415.503902,-1702.473667,-9252.574275,-383.047749
163415.504221,-296.082377,-9474.636058,766.095498
163415.504540,0.000000,-9844.739029,2451.505594
163415.504859,-2368.659014,-8882.471304,76.609550
163415.505179,-2960.823768,-7772.162391,1532.190996
163415.505498,296.082377,-7624.121203,1915.238745
163415.505817,-74.020594,-9474.636058,1762.019645
163415.506136,-4219.173869,-7179.997637,-2451.505594
163415.506455,-2294.638420,-9474.636058,689.485948
163415.506774,-2368.659014,-8586.388927,536.266849
163415.507093,-1998.556043,-9622.677246,-1378.971896
163415.507413,-2294.638420,-10362.883188,-919.314598
163415.507732,-2368.659014,-9548.656652,306.438199
163415.508051,-1850.514855,-7254.018232,-2145.067394
163415.508370,-4441.235652,-9104.533087,-3524.039291
163415.508689,-3552.988522,-11029.068536,-1532.190996
163415.509008,-666.185348,-12435.459826,-459.657299
163415.509328,-2886.803174,-7772.162391,-2451.505594
163415.509647,-74.020594,-10362.883188,-229.828649
163415.509966,0.000000,-9252.574275,1225.752797
163415.510285,1554.432478,-7328.038826,1991.848295
163415.510604,3478.967927,-7105.977043,2374.896044
163415.510923,2886.803174,-7105.977043,1149.143247
163415.511243,444.123565,-7772.162391,306.438199
163415.511562,0.000000,-7179.997637,76.609550
163415.511881,296.082377,-8956.491898,0.000000
163415.512200,0.000000,-10732.986159,0.000000
163415.512519,0.000000,-10140.821405,-1838.629195
163415.512838,2368.659014,-11325.150913,229.828649
163415.513158,1184.329507,-9622.677246,-1072.533697
163415.513477,-1628.453072,-10140.821405,-3140.991542
163415.513796,-74.020594,-11843.295072,-2528.115143
163415.514115,814.226536,-9844.739029,-76.609550
163415.514434,1702.473667,-7698.141797,-76.609550
163415.514753,0.000000,-7476.080014,612.876398
163415.515073,2294.638420,-7846.182985,2374.896044
163415.515392,370.102971,-3627.009116,0.000000
163415.515711,2294.638420,-6439.791695,1149.143247
163415.516030,-592.164754,-7846.182985,-1532.190996
163415.516349,-296.082377,-9844.739029,-1072.533697
163415.516668,370.102971,-10658.965565,-689.485948
163415.516988,-1184.329507,-10140.821405,-1915.238745
163415.517307,-2368.659014,-11029.068536,-3677.258390
163415.517626,0.000000,-12361.439231,-1149.143247
163415.517945,1184.329507,-11325.150913,612.876398
163415.518264,-74.020594,-8882.471304,-2834.553343
163415.518583,-74.020594,-11251.130318,-1915.238745
163415.518903,-740.205942,-10732.986159,-689.485948
163415.519222,1924.535449,-9252.574275,1532.190996
163415.519541,2146.597232,-7772.162391,1838.629195
163415.519860,1776.494261,-8364.327145,4290.134789
163415.520179,1998.556043,-7105.977043,3064.381992
163415.520498,2886.803174,-6809.894666,3983.696590
163415.520817,2294.638420,-8290.306550,-76.609550
163415.521137,-3552.988522,-8068.244768,-2451.505594
163415.521456,-1258.350101,-11843.295072,-76.609550
163415.521775,-2368.659014,-10436.903782,0.000000
163415.522094,-2442.679609,-10732.986159,-1302.362347
163415.522413,-2368.659014,-11621.233289,-1378.971896
163415.522732,-962.267725,-10584.944971,1762.019645
163415.523052,-4145.153275,-5995.668130,-2451.505594
163415.523371,-3330.926739,-8290.306550,-2681.334243
163415.523690,-4737.318029,-9622.677246,-3217.601092
163415.524009,-3552.988522,-10658.965565,-1302.362347
163415.524328,-1258.350101,-9474.636058,-689.485948
163415.524647,-814.226536,-9178.553681,-612.876398
163415.524967,1702.473667,-10066.800811,2374.896044
163415.525286,148.041188,-6661.853478,1455.581446
163415.525605,0.000000,-4811.338623,0.000000
163415.525924,-296.082377,-8364.327145,-76.609550
163415.526243,-3256.906145,-8364.327145,-1838.629195
163415.526562,-740.205942,-9844.739029,229.828649
163415.526882,296.082377,-9770.718434,0.000000
163415.527201,-148.041188,-10214.842000,-229.828649
163415.527520,518.144159,-10881.027347,-2068.457845
163415.527839,592.164754,-9474.636058,153.219100
163415.528158,0.000000,-8364.327145,-2451.505594
163415.528477,-1776.494261,-11029.068536,-919.314598
163415.528797,-1258.350101,-11695.253884,-1302.362347
163415.529116,0.000000,-11029.068536,1532.190996
163415.529435,592.164754,-9030.512492,306.438199
163415.529754,74.020594,-8734.430116,459.657299
163415.530073,74.020594,-8438.347739,1378.971896
163415.530392,1184.329507,-6661.853478,612.876398
163415.530712,-1184.329507,-4811.338623,-3064.381992
163415.531031,-1184.329507,-6439.791695,-3140.991542
163415.531350,-2368.659014,-8364.327145,0.000000
163415.531669,1702.473667,-9474.636058,536.266849
163415.531988,814.226536,-9474.636058,-689.485948
163415.532307,1184.329507,-11843.295072,612.876398
163415.532627,296.082377,-11473.192101,-842.705048
163415.532946,666.185348,-10362.883188,-612.876398
163415.533265,-814.226536,-9548.656652,-2451.505594
163415.533584,-4441.235652,-9548.656652,-4903.011187
163415.533903,-1628.453072,-10658.965565,-1302.362347
163415.534222,222.061783,-8660.409521,0.000000
163415.534541,1776.494261,-9696.697840,1225.752797
163415.534861,2294.638420,-10658.965565,2374.896044
163415.535180,4071.132681,-8882.471304,2374.896044
163415.535499,3404.947333,-7328.038826,2221.676944
163415.535818,740.205942,-6883.915261,-383.047749
163415.536137,-814.226536,-8882.471304,-306.438199
163415.536456,-148.041188,-9548.656652,0.000000
163415.536776,518.144159,-9252.574275,536.266849
163415.537095,-74.020594,-10362.883188,-76.609550
163415.537414,-1332.370696,-9548.656652,-383.047749
163415.537733,-2368.659014,-8364.327145,-1532.190996
163415.538052,-888.247130,-9696.697840,0.000000
163415.538371,-1258.350101,-10658.965565,-3753.867940
163415.538691,-3849.070898,-10140.821405,-2145.067394
163415.539010,-2072.576638,-10288.862594,-995.924147
163415.539329,-444.123565,-9770.718434,0.000000
163415.539648,-74.020594,-10658.965565,-76.609550
163415.539967,-1776.494261,-10288.862594,1685.410096
163415.540286,-962.267725,-7994.224174,0.000000
163415.540606,-74.020594,-8882.471304,-76.609550
163415.540925,-3552.988522,-7328.038826,-1532.190996
163415.541244,-3256.906145,-7476.080014,0.000000
163415.541563,-74.020594,-9178.553681,842.705048
163415.541882,814.226536,-8512.368333,1225.752797
163415.542201,962.267725,-9696.697840,383.047749
163415.542521,1110.308913,-10658.965565,2145.067394
163415.542840,2590.720797,-12139.377449,4060.306139
163415.543159,296.082377,-9548.656652,-2145.067394
163415.543478,-4737.318029,-8956.491898,-3524.039291
163415.543797,-1850.514855,-12139.377449,-1991.848295
163415.544116,-666.185348,-12435.459826,-689.485948
163415.544436,-2960.823768,-7772.162391,-3370.820191
163415.544755,-74.020594,-10362.883188,-689.485948
163415.545074,-1332.370696,-8364.327145,536.266849
163415.545393,0.000000,-6291.750507,1072.533697
163415.545712,148.041188,-6439.791695,76.609550
163415.546031,0.000000,-8068.244768,1072.533697
163415.546351,-1554.432478,-6735.874072,306.438199
163415.546670,888.247130,-8956.491898,2298.286494
163415.546989,1036.288319,-9844.739029,2145.067394
163415.547308,1110.308913,-11251.130318,-76.609550
163415.547627,-1184.329507,-9548.656652,0.000000
163415.547946,148.041188,-10436.903782,-1991.848295
163415.548265,-740.205942,-10807.006753,-3370.820191
163415.548585,-2368.659014,-11473.192101,-4060.306139
163415.548904,-962.267725,-10288.862594,-3217.601092
163415.549223,1702.473667,-11029.068536,-1302.362347
163415.549542,148.041188,-8364.327145,0.000000
163415.549861,1776.494261,-9474.636058,2145.067394
163415.550180,4663.297435,-8290.306550,3600.648841
163415.550500,4663.297435,-6513.812290,3600.648841
163415.550819,0.000000,-5403.503377,1532.190996
163415.551138,444.123565,-8068.244768,842.705048
163415.551457,814.226536,-8364.327145,1149.143247
163415.551776,740.205942,-8956.491898,842.705048
163415.552095,-74.020594,-8734.430116,-2681.334243
163415.552415,-962.267725,-11251.130318,-2221.676944
163415.552734,-1850.514855,-11251.130318,-689.485948
163415.553053,-814.226536,-10066.800811,-2374.896044
163415.553372,-1702.473667,-10732.986159,-2145.067394
163415.553691,-740.205942,-13027.624579,-76.609550
163415.554010,-2220.617826,-9548.656652,0.000000
163415.554330,-370.102971,-9104.533087,-229.828649
163415.554649,-444.123565,-9326.594869,612.876398
163415.554968,296.082377,-8586.388927,1838.629195
163415.555287,1110.308913,-5033.400406,1608.800546
163415.555606,1702.473667,-8882.471304,2374.896044
163415.555925,-2146.597232,-6365.771101,-2068.457845
163415.556245,-3552.988522,-8660.409521,-1838.629195
163415.556564,-3552.988522,-7476.080014,-995.924147
163415.556883,-2368.659014,-9548.656652,0.000000
163415.557202,-1776.494261,-11177.109724,-2221.676944
163415.557521,-2294.638420,-11547.212695,-1072.533697
163415.557840,148.041188,-10436.903782,536.266849
163415.558160,-74.020594,-7698.141797,-1608.800546
163415.558479,-1184.329507,-8956.491898,-2145.067394
163415.558798,-1776.494261,-9844.739029,0.000000
163415.559117,1998.556043,-9474.636058,3600.648841
163415.559436,1702.473667,-8290.306550,536.266849
163415.559755,-3552.988522,-7179.997637,612.876398
163415.560075,-1258.350101,-8068.244768,306.438199
163415.560394,-666.185348,-7328.038826,842.705048
163415.560713,-1332.370696,-7550.100608,-1225.752797
163415.561032,-3701.029710,-8882.471304,-1991.848295
163415.561351,-1850.514855,-10658.965565,-76.609550
163415.561670,-2368.659014,-7920.203579,0.000000
163415.561989,-444.123565,-8734.430116,-842.705048
163415.562309,-592.164754,-9696.697840,-536.266849
163415.562628,-222.061783,-10140.821405,1608.800546
163415.562947,0.000000,-7179.997637,612.876398
163415.563266,-2960.823768,-7772.162391,-3600.648841
163415.563585,-2368.659014,-11325.150913,-2145.067394
163415.563904,-370.102971,-12139.377449,-76.609550
163415.564224,-592.164754,-9548.656652,-2451.505594
163415.564543,2886.803174,-11843.295072,-689.485948
163415.564862,0.000000,-9844.739029,-536.266849
163415.565181,888.247130,-8438.347739,459.657299
163415.565500,1702.473667,-6587.832884,766.095498
163415.565819,0.000000,-7179.997637,0.000000
163415.566139,1406.391290,-9326.594869,1455.581446
163415.566458,296.082377,-7179.997637,1532.190996
163415.566777,3034.844362,-7920.203579,3677.258390
163415.567096,2590.720797,-9474.636058,2068.457845
163415.567415,-370.102971,-7994.224174,0.000000
163415.567734,2294.638420,-10658.965565,1455.581446
163415.568054,888.247130,-9030.512492,0.000000
163415.568373,-962.267725,-10510.924376,-2911.162892
163415.568692,-1776.494261,-11917.315666,-2987.772442
163415.569011,-888.247130,-12731.542202,-689.485948
163415.569330,-740.205942,-10362.883188,-2528.115143
163415.569649,-1924.535449,-10362.883188,-3140.991542
163415.569969,-2368.659014,-9548.656652,0.000000
163415.570288,2146.597232,-9474.636058,1762.019645
163415.570607,0.000000,-3627.009116,0.000000
163415.570926,518.144159,-8216.285956,842.705048
163415.571245,0.000000,-8364.327145,1149.143247
163415.571564,1184.329507,-7846.182985,1762.019645
163415.571884,1110.308913,-8882.471304,1762.019645
163415.572203,1110.308913,-9474.636058,-76.609550
163415.572522,1110.308913,-12731.542202,-76.609550
163415.572841,0.000000,-8660.409521,-1915.238745
163415.573160,0.000000,-9548.656652,-1838.629195
163415.573479,-1776.494261,-10732.986159,-2451.505594
163415.573799,-4145.153275,-10732.986159,-3677.258390
163415.574118,-888.247130,-11621.233289,-1302.362347
163415.574437,-740.205942,-10288.862594,-995.924147
163415.574756,-370.102971,-10510.924376,689.485948
163415.575075,3478.967927,-9474.636058,2374.896044
163415.575394,2368.659014,-6587.832884,3983.696590
163415.575713,1998.556043,-6809.894666,2374.896044
163415.576033,-1554.432478,-6957.935855,229.828649
163415.576352,-2886.803174,-6809.894666,0.000000
163415.576671,0.000000,-7772.162391,2451.505594
163415.576990,-2072.576638,-7920.203579,-1302.362347
163415.577309,-2368.659014,-10140.821405,-1302.362347
163415.577628,-2368.659014,-10510.924376,-1302.362347
163415.577948,-2294.638420,-8956.491898,-1608.800546
163415.578267,-2442.679609,-8364.327145,-4596.572988
163415.578586,-3997.112087,-11843.295072,-3830.477490
163415.578905,-1554.432478,-11991.336260,-3064.381992
163415.579224,-74.020594,-12731.542202,-76.609550
163415.579543,-2146.597232,-9548.656652,-1685.410096
163415.579863,0.000000,-11917.315666,1532.190996
163415.580182,444.123565,-9030.512492,1149.143247
163415.580501,1406.391290,-6883.915261,1532.190996
163415.580820,962.267725,-7031.956449,229.828649
163415.581140,0.000000,-7179.997637,0.000000
163415.581459,222.061783,-7328.038826,229.828649
163415.581778,1184.329507,-7031.956449,536.266849
163415.582098,0.000000,-7179.997637,0.000000
163415.582417,814.226536,-11103.089130,536.266849
163415.582736,2294.638420,-11843.295072,1762.019645
163415.583055,0.000000,-9548.656652,612.876398
163415.583375,-814.226536,-9992.780217,-2221.676944
163415.583694,-962.267725,-11103.089130,-2528.115143
163415.584013,-1480.411884,-11399.171507,-1685.410096
163415.584333,-2960.823768,-8660.409521,-2987.772442
163415.584652,-1258.350101,-10658.965565,-2528.115143
163415.584971,-666.185348,-11103.089130,-76.609550
163415.585291,148.041188,-6735.874072,-1302.362347
163415.585610,1184.329507,-7179.997637,1838.629195
163415.585929,1702.473667,-7105.977043,1149.143247
163415.586248,0.000000,-7920.203579,0.000000
163415.586568,2368.659014,-9326.594869,2681.334243
163415.586887,814.226536,-8068.244768,459.657299
163415.587206,-370.102971,-9474.636058,-76.609550
163415.587526,-666.185348,-9770.718434,306.438199
163415.587845,2294.638420,-10658.965565,842.705048
163415.588164,1110.308913,-9474.636058,-76.609550
163415.588483,-74.020594,-10658.965565,-3294.210641
163415.588803,-2146.597232,-10732.986159,-4596.572988
163415.589122,-74.020594,-11843.295072,-1915.238745
163415.589441,-1184.329507,-11029.068536,-1608.800546
163415.589761,-962.267725,-10510.924376,-459.657299
163415.590080,666.185348,-9474.636058,1608.800546
163415.590399,3552.988522,-9104.533087,4366.744339
163415.590718,1332.370696,-6883.915261,2374.896044
163415.591038,-74.020594,-8290.306550,1762.019645
163415.591357,-2368.659014,-5107.421000,459.657299
163415.591676,296.082377,-7772.162391,2451.505594
163415.591996,0.000000,-7179.997637,0.000000
163415.592315,-1258.350101,-9474.636058,-689.485948
163415.592634,-1628.453072,-9622.677246,0.000000
163415.592953,-518.144159,-8660.409521,-1915.238745
163415.593273,-1998.556043,-9474.636058,-3064.381992
163415.593592,-2516.700203,-13471.748144,-2221.676944
163415.593911,-3478.967927,-11917.315666,-6128.763984
163415.594231,-2368.659014,-12509.480420,-2068.457845
163415.594550,-666.185348,-11843.295072,-1915.238745
163415.594869,-148.041188,-11843.295072,-76.609550
163415.595188,3478.967927,-9474.636058,-76.609550
163415.595508,2960.823768,-6291.750507,2451.505594
163415.595827,1924.535449,-6809.894666,1991.848295
163415.596146,740.205942,-7476.080014,1302.362347
163415.596466,2886.803174,-8586.388927,4673.182538
163415.596785,888.247130,-7846.182985,2374.896044
163415.597104,-74.020594,-8882.471304,-689.485948
163415.597423,-2812.782580,-9104.533087,-1225.752797
163415.597743,-3552.988522,-8364.327145,-2451.505594
163415.598062,148.041188,-10510.924376,-689.485948
163415.598381,-592.164754,-11325.150913,-1762.019645
163415.598701,-2442.679609,-11177.109724,-3370.820191
163415.599020,-2072.576638,-11473.192101,-2221.676944
163415.599339,-1184.329507,-10436.903782,-1072.533697
163415.599659,-3552.988522,-8364.327145,0.000000
163415.599978,0.000000,-9844.739029,1991.848295
163415.600297,2368.659014,-8216.285956,3217.601092
163415.600616,4071.132681,-8290.306550,2374.896044
163415.600936,0.000000,-5995.668130,0.000000
163415.601255,-1184.329507,-9252.574275,2451.505594
163415.601574,-888.247130,-7179.997637,306.438199
163415.601894,-518.144159,-8512.368333,-1072.533697
163415.602213,-1850.514855,-9474.636058,-2298.286494
163415.602532,-1850.514855,-10881.027347,-3370.820191
163415.602851,-74.020594,-9474.636058,-1915.238745
163415.603171,0.000000,-9548.656652,-1915.238745
163415.603490,-592.164754,-10436.903782,-2757.943793
163415.603809,-296.082377,-11029.068536,-2221.676944
163415.604129,2294.638420,-11769.274478,1302.362347
163415.604448,0.000000,-9548.656652,0.000000
163415.604767,296.082377,-10436.903782,1225.752797
163415.605086,2294.638420,-9992.780217,4213.525239
163415.605406,3478.967927,-5921.647536,1455.581446
163415.605725,0.000000,-4811.338623,0.000000
163415.606044,-666.185348,-8290.306550,-76.609550
163415.606364,-1184.329507,-8512.368333,536.266849
163415.606683,-888.247130,-8364.327145,229.828649
163415.607002,-1184.329507,-9548.656652,-995.924147
163415.607321,-2146.597232,-10066.800811,-1302.362347
163415.607641,-2960.823768,-9548.656652,0.000000
163415.607960,-1184.329507,-7179.997637,-2451.505594
163415.608279,-1184.329507,-8364.327145,-1838.629195
163415.608599,-1554.432478,-11547.212695,-2681.334243
163415.608918,-4737.318029,-9548.656652,-1838.629195
163415.609237,-962.267725,-10658.965565,-995.924147
163415.609556,-814.226536,-10732.986159,-1149.143247
163415.609876,0.000000,-10584.944971,0.000000
163415.610195,1110.308913,-8068.244768,229.828649
163415.610514,2294.638420,-7105.977043,-76.609550
163415.610834,-444.123565,-6809.894666,-2528.115143
163415.611153,-2368.659014,-8660.409521,0.000000
163415.611472,1110.308913,-9474.636058,-76.609550
163415.611791,1110.308913,-9474.636058,2374.896044
163415.612111,0.000000,-8364.327145,306.438199
163415.612430,222.061783,-9770.718434,766.095498
163415.612749,1406.391290,-7994.224174,1838.629195
163415.613069,2368.659014,-7624.121203,995.924147
163415.613388,-74.020594,-7402.059420,-1455.581446
163415.613707,-74.020594,-11695.253884,-306.438199
163415.614026,-74.020594,-11843.295072,-1302.362347
163415.614346,-1850.514855,-10510.924376,-1915.238745
163415.614665,-4441.235652,-9844.739029,-3524.039291
163415.614984,-74.020594,-13841.851115,2987.772442
163415.615304,0.000000,-8364.327145,612.876398
163415.615623,-74.020594,-7846.182985,-153.219100
163415.615942,-1924.535449,-8882.471304,-1149.143247
163415.616262,-1850.514855,-8882.471304,0.000000
163415.616581,222.061783,-8142.265362,1225.752797
163415.616900,1702.473667,-8290.306550,1762.019645
163415.617219,-962.267725,-8882.471304,-536.266849
163415.617539,-3552.988522,-7179.997637,0.000000
163415.617858,0.000000,-9252.574275,1072.533697
163415.618177,2294.638420,-11251.130318,-76.609550
163415.618497,-1850.514855,-9622.677246,-3217.601092
163415.618816,-1850.514855,-11695.253884,-2681.334243
163415.619135,-1258.350101,-11547.212695,-1532.190996
163415.619454,0.000000,-10732.986159,0.000000
163415.619774,0.000000,-10140.821405,0.000000
163415.620093,2516.700203,-10214.842000,1838.629195
163415.620412,4663.297435,-8586.388927,3600.648841
163415.620732,1036.288319,-5773.606348,153.219100
163415.621051,-370.102971,-5921.647536,-76.609550
163415.621370,1998.556043,-9474.636058,2987.772442
163415.621689,666.185348,-8068.244768,1532.190996
163415.622009,0.000000,-8068.244768,229.828649
163415.622328,-1184.329507,-10066.800811,0.000000
163415.622647,-2368.659014,-9548.656652,1225.752797
163415.622967,0.000000,-7772.162391,-76.609550
163415.623286,-3108.864956,-7476.080014,-3064.381992
163415.623605,-3256.906145,-10214.842000,-3217.601092
163415.623924,-1776.494261,-11325.150913,-919.314598
163415.624244,-1258.350101,-9474.636058,-2221.676944
163415.624563,-1184.329507,-10955.047942,-919.314598
163415.624882,-962.267725,-11029.068536,-919.314598
163415.625202,814.226536,-9918.759623,306.438199
163415.625521,518.144159,-7550.100608,612.876398
163415.625840,-2368.659014,-7179.997637,-1762.019645
163415.626159,-666.185348,-9474.636058,-1302.362347
163415.626479,0.000000,-8956.491898,306.438199
163415.626798,2664.741391,-10881.027347,3830.477490
163415.627117,888.247130,-9474.636058,612.876398
163415.627437,-1258.350101,-7624.121203,-1532.190996
163415.627756,1110.308913,-8882.471304,1225.752797
163415.628075,518.144159,-7476.080014,153.219100
163415.628394,-1850.514855,-8364.327145,-2221.676944
163415.628714,-666.185348,-11843.295072,-689.485948
163415.629033,-444.123565,-11843.295072,-383.047749
163415.629352,-74.020594,-10510.924376,-76.609550
163415.629672,-666.185348,-8734.430116,-2298.286494
163415.629991,0.000000,-9548.656652,612.876398
163415.630310,0.000000,-7179.997637,1225.752797
163415.630630,-666.185348,-6587.832884,-1149.143247
163415.630949,-2516.700203,-9104.533087,-842.705048
163415.631268,-2590.720797,-9252.574275,-76.609550
163415.631587,-962.267725,-9326.594869,0.000000
163415.631907,-74.020594,-9474.636058,-76.609550
163415.632226,-2146.597232,-9474.636058,-76.609550
163415.632545,-74.020594,-9474.636058,-76.609550
163415.632865,0.000000,-7179.997637,-612.876398
163415.633184,0.000000,-6587.832884,-3064.381992
163415.633503,-1258.350101,-8512.368333,-4366.744339
163415.633822,-1554.432478,-10955.047942,-2068.457845
163415.634142,-814.226536,-11029.068536,-1455.581446
163415.634461,-962.267725,-11103.089130,-1608.800546
163415.634780,-74.020594,-12731.542202,-76.609550
163415.635100,0.000000,-9548.656652,689.485948
163415.635419,222.061783,-7772.162391,0.000000
163415.635738,0.000000,-9104.533087,-76.609550
163415.636057,-1258.350101,-11843.295072,-76.609550
163415.636377,-1258.350101,-7105.977043,-689.485948
163415.636696,3478.967927,-8882.471304,3600.648841
163415.637015,1036.288319,-7402.059420,2374.896044
163415.637335,518.144159,-8068.244768,2451.505594
163415.637654,1258.350101,-7328.038826,2451.505594
163415.637973,1184.329507,-7179.997637,3064.381992
163415.638292,-814.226536,-8586.388927,-1302.362347
163415.638612,-3330.926739,-10658.965565,-2528.115143
163415.638931,-2442.679609,-11843.295072,-3753.867940
163415.639250,-4145.153275,-10732.986159,-3370.820191
163415.639570,-74.020594,-14211.954086,-689.485948
163415.639889,-1184.329507,-11029.068536,-2145.067394
163415.640208,1776.494261,-9770.718434,536.266849
163415.640527,1776.494261,-7402.059420,153.219100
163415.640847,-222.061783,-8512.368333,-76.609550
163415.641166,-3552.988522,-7179.997637,-2451.505594
163415.641485,1850.514855,-8586.388927,1991.848295
163415.641805,2146.597232,-7698.141797,2145.067394
163415.642124,1258.350101,-8808.450710,842.705048
163415.642443,1998.556043,-9474.636058,1149.143247
163415.642762,1998.556043,-7698.141797,842.705048
163415.643082,2294.638420,-9474.636058,-76.609550
163415.643401,-1850.514855,-9474.636058,-3524.039291
163415.643720,-2442.679609,-10510.924376,-4366.744339
163415.644040,-2072.576638,-11325.150913,-1838.629195
163415.644359,-1628.453072,-9548.656652,-2451.505594
163415.644678,888.247130,-11621.233289,536.266849
163415.644997,1406.391290,-10140.821405,1072.533697
163415.645317,2368.659014,-7846.182985,1762.019645
163415.645636,1702.473667,-6143.709319,0.000000
163415.645955,-814.226536,-8142.265362,-306.438199
163415.646275,-666.185348,-10066.800811,1838.629195
163415.646594,2294.638420,-10658.965565,2374.896044
163415.646913,0.000000,-7698.141797,229.828649
163415.647233,-1184.329507,-9252.574275,2145.067394
163415.647552,-444.123565,-9326.594869,459.657299
163415.647871,-370.102971,-7402.059420,-76.609550
163415.648190,-1850.514855,-8734.430116,-3140.991542
163415.648510,-4145.153275,-9844.739029,-4903.011187
163415.648829,-5625.565159,-9548.656652,-6741.640382
163415.649148,-2960.823768,-9548.656652,-3294.210641
163415.649468,-2368.659014,-9696.697840,-1838.629195
163415.649787,592.164754,-10732.986159,919.314598
163415.650106,2294.638420,-9474.636058,1762.019645
163415.650425,2368.659014,-8364.327145,3370.820191
163415.650745,888.247130,-8216.285956,0.000000
163415.651064,-1184.329507,-9474.636058,76.609550
163415.651383,-1258.350101,-9770.718434,842.705048
163415.651703,0.000000,-6143.709319,612.876398
163415.652022,-1554.432478,-9178.553681,1149.143247
163415.652341,-2368.659014,-8068.244768,0.000000
163415.652660,0.000000,-8068.244768,919.314598
163415.652980,0.000000,-5403.503377,0.000000
163415.653299,-74.020594,-9474.636058,-1302.362347
163415.653618,-2664.741391,-10658.965565,-2145.067394
163415.653938,-3108.864956,-10732.986159,-2681.334243
163415.654257,-2220.617826,-10807.006753,-1149.143247
163415.654576,-1554.432478,-11103.089130,-1455.581446
163415.654895,-962.267725,-10140.821405,-1608.800546
163415.655215,814.226536,-10066.800811,-76.609550
163415.655534,-518.144159,-7476.080014,-842.705048
163415.655853,-3552.988522,-7179.997637,-2451.505594
163415.656173,-74.020594,-11251.130318,-76.609550
163415.656492,-74.020594,-9474.636058,-76.609550
163415.656811,1184.329507,-8512.368333,1225.752797
163415.657130,592.164754,-8882.471304,306.438199
163415.657450,444.123565,-9548.656652,383.047749
163415.657769,2886.803174,-9474.636058,2987.772442
163415.658088,2146.597232,-9252.574275,919.314598
163415.658408,-74.020594,-10066.800811,-2145.067394
163415.658727,-888.247130,-11843.295072,-2374.896044
163415.659046,-1258.350101,-11843.295072,-1608.800546
163415.659365,-1776.494261,-8364.327145,-3064.381992
163415.659685,2294.638420,-10955.047942,-689.485948
163415.660004,1924.535449,-9918.759623,1072.533697
163415.660323,2590.720797,-8364.327145,2374.896044
163415.660643,2072.576638,-7179.997637,1915.238745
163415.660962,1628.453072,-10807.006753,2987.772442
163415.661281,592.164754,-10140.821405,0.000000
163415.661601,2294.638420,-10214.842000,2987.772442
163415.661920,-74.020594,-7402.059420,0.000000
163415.662239,-1998.556043,-8882.471304,-689.485948
163415.662558,-3552.988522,-7772.162391,-2451.505594
163415.662878,-74.020594,-8882.471304,-689.485948
163415.663197,-1776.494261,-8364.327145,-2834.553343
163415.663516,-3997.112087,-10362.883188,-4366.744339
163415.663836,-4219.173869,-11473.192101,-3830.477490
163415.664155,-1776.494261,-10140.821405,-1838.629195
163415.664474,-1110.308913,-8364.327145,-1532.190996
163415.664793,1184.329507,-10436.903782,689.485948
163415.665113,3997.112087,-10140.821405,4903.011187
163415.665432,4663.297435,-7994.224174,4826.401637
163415.665751,0.000000,-4811.338623,0.000000
163415.666071,-74.020594,-9992.780217,-76.609550
163415.666390,-444.123565,-10658.965565,459.657299
163415.666709,-592.164754,-10140.821405,153.219100
163415.667028,-666.185348,-9474.636058,-1302.362347
163415.667348,-74.020594,-10658.965565,-689.485948
163415.667667,-1332.370696,-8660.409521,-383.047749
163415.667986,-74.020594,-7105.977043,-689.485948
163415.668306,-2368.659014,-7179.997637,-1685.410096
163415.668625,-2220.617826,-10436.903782,-76.609550
163415.668944,-2960.823768,-8660.409521,0.000000
163415.669263,-1258.350101,-8956.491898,689.485948
163415.669583,-1110.308913,-8586.388927,689.485948
163415.669902,222.061783,-8734.430116,383.047749
163415.670221,1110.308913,-7698.141797,-383.047749
163415.670541,-888.247130,-8068.244768,-76.609550
163415.670860,-3034.844362,-9474.636058,-3753.867940
163415.671179,-4737.318029,-10140.821405,-3677.258390
163415.671498,-1480.411884,-10881.027347,-3677.258390
163415.671818,0.000000,-9548.656652,0.000000
163415.672137,-74.020594,-9474.636058,-536.266849
163415.672456,518.144159,-9474.636058,1225.752797
163415.672776,2590.720797,-7920.203579,1991.848295
163415.673095,2368.659014,-5773.606348,536.266849
163415.673414,1110.308913,-9474.636058,-919.314598
163415.673733,-3256.906145,-9548.656652,0.000000
163415.674053,-74.020594,-11251.130318,-76.609550
163415.674372,518.144159,-11843.295072,-76.609550
163415.674691,0.000000,-9548.656652,-2451.505594
163415.675011,1110.308913,-9474.636058,-1915.238745
163415.675330,1332.370696,-8956.491898,459.657299
163415.675649,518.144159,-8586.388927,-612.876398
163415.675969,-666.185348,-9918.759623,-1149.143247
163415.676288,1110.308913,-11843.295072,-76.609550
163415.676607,814.226536,-9844.739029,1455.581446
163415.676926,222.061783,-8882.471304,1149.143247
163415.677246,-1776.494261,-7179.997637,0.000000
163415.677565,0.000000,-8956.491898,2145.067394
163415.677884,2886.803174,-7105.977043,-76.609550
163415.678204,222.061783,-7698.141797,-689.485948
163415.678523,-2590.720797,-9474.636058,-2451.505594
163415.678842,-3330.926739,-10658.965565,-2911.162892
163415.679161,-2516.700203,-10510.924376,-1225.752797
163415.679481,-2368.659014,-9548.656652,0.000000
163415.679800,-962.267725,-10510.924376,-1608.800546
163415.680119,148.041188,-10140.821405,0.000000
163415.680439,1184.329507,-8586.388927,766.095498
163415.680758,0.000000,-7179.997637,0.000000
163415.681077,962.267725,-9104.533087,0.000000
163415.681396,2294.638420,-11547.212695,1762.019645
163415.681716,1110.308913,-9696.697840,1455.581446
163415.682035,0.000000,-7179.997637,0.000000
163415.682354,2146.597232,-11547.212695,2987.772442
163415.682674,0.000000,-8364.327145,1838.629195
163415.682993,1554.432478,-7476.080014,995.924147
163415.683313,-666.185348,-7920.203579,-1149.143247
163415.683632,-3034.844362,-9252.574275,-2374.896044
163415.683951,-3627.009116,-9548.656652,-2451.505594
163415.684271,-2812.782580,-9844.739029,-766.095498
163415.684590,-1258.350101,-10510.924376,-76.609550
163415.684910,-74.020594,-9474.636058,-383.047749
163415.685229,1998.556043,-9474.636058,1762.019645
163415.685548,2146.597232,-9474.636058,2374.896044
163415.685868,-888.247130,-9548.656652,766.095498
163415.686187,-666.185348,-10658.965565,-383.047749
163415.686507,-888.247130,-9622.677246,-153.219100
163415.686826,222.061783,-9844.739029,536.266849
163415.687145,-888.247130,-11029.068536,689.485948
163415.687465,-666.185348,-10955.047942,0.000000
163415.687784,2294.638420,-10658.965565,-76.609550
163415.688104,370.102971,-7105.977043,-2068.457845
163415.688423,-1480.411884,-8364.327145,-3524.039291
163415.688742,-74.020594,-9474.636058,-2528.115143
163415.689062,-296.082377,-9548.656652,0.000000
163415.689381,444.123565,-9030.512492,459.657299
163415.689701,962.267725,-9474.636058,0.000000
163415.690020,3330.926739,-11029.068536,2374.896044
163415.690339,2516.700203,-9252.574275,0.000000
163415.690659,2220.617826,-9252.574275,1762.019645
163415.690978,-74.020594,-9474.636058,-1302.362347
163415.691298,-444.123565,-11843.295072,-76.609550
163415.691617,0.000000,-7179.997637,0.000000
163415.691936,814.226536,-9474.636058,-689.485948
163415.692256,-888.247130,-9548.656652,-383.047749
163415.692575,-370.102971,-9474.636058,1225.752797
163415.692895,1628.453072,-7772.162391,1302.362347
163415.693214,888.247130,-7476.080014,306.438199
163415.693533,-3552.988522,-7476.080014,-1838.629195
163415.693853,-1850.514855,-10066.800811,-766.095498
163415.694172,-2442.679609,-8290.306550,-2528.115143
163415.694492,-3552.988522,-8364.327145,-1838.629195
163415.694811,-2368.659014,-9548.656652,0.000000
163415.695130,518.144159,-9474.636058,-76.609550
163415.695450,1480.411884,-8438.347739,612.876398
163415.695769,1258.350101,-8586.388927,-229.828649
163415.696089,148.041188,-8660.409521,-2145.067394
163415.696408,74.020594,-9400.615463,-1302.362347
163415.696727,592.164754,-8956.491898,612.876398
163415.697047,0.000000,-9548.656652,306.438199
163415.697366,2294.638420,-11547.212695,1149.143247
163415.697686,2294.638420,-11251.130318,2374.896044
163415.698005,0.000000,-7179.997637,1225.752797
163415.698324,370.102971,-7920.203579,-919.314598
163415.698644,-2220.617826,-9474.636058,-1532.190996
163415.698963,-2368.659014,-9696.697840,-842.705048
163415.699283,-1258.350101,-7846.182985,-2374.896044
163415.699602,-666.185348,-8808.450710,-689.485948
163415.699921,-1850.514855,-7179.997637,-2145.067394
163415.700241,0.000000,-8364.327145,1532.190996
163415.700560,1702.473667,-7846.182985,3524.039291
163415.700880,1110.308913,-9474.636058,2068.457845
163415.701199,-2368.659014,-9548.656652,-766.095498
163415.701518,-1924.535449,-10362.883188,-1302.362347
163415.701838,-2368.659014,-10732.986159,-1302.362347
163415.702157,-2738.761985,-10807.006753,-1838.629195
163415.702477,-1850.514855,-9474.636058,-689.485948
163415.702796,1480.411884,-9474.636058,1455.581446
163415.703115,814.226536,-7105.977043,-1302.362347
163415.703435,-1702.473667,-8290.306550,-2528.115143
163415.703754,-3108.864956,-8068.244768,-2451.505594
163415.704074,-74.020594,-11843.295072,-76.609550
163415.704393,0.000000,-8364.327145,0.000000
163415.704712,-148.041188,-9474.636058,459.657299
163415.705032,888.247130,-9400.615463,1302.362347
163415.705351,2368.659014,-7328.038826,2451.505594
163415.705671,1184.329507,-7179.997637,612.876398
163415.705990,-518.144159,-10807.006753,-459.657299
163415.706309,-1184.329507,-11473.192101,612.876398
163415.706629,-74.020594,-11251.130318,-383.047749
163415.706948,222.061783,-8290.306550,-1302.362347
163415.707268,1702.473667,-11547.212695,1455.581446
163415.707587,148.041188,-8512.368333,1225.752797
163415.707906,814.226536,-7550.100608,1302.362347
163415.708226,0.000000,-7105.977043,-612.876398
163415.708545,-2960.823768,-9548.656652,0.000000
163415.708865,-2886.803174,-9622.677246,-1072.533697
163415.709184,-1332.370696,-10140.821405,1225.752797
163415.709503,-666.185348,-9474.636058,-1302.362347
163415.709823,-2368.659014,-9696.697840,-1991.848295
163415.710142,-74.020594,-7846.182985,-2221.676944
163415.710462,1776.494261,-8512.368333,306.438199
163415.710781,1110.308913,-8586.388927,-612.876398
163415.711100,888.247130,-10140.821405,-1302.362347
163415.711420,518.144159,-10066.800811,-76.609550
163415.711739,0.000000,-8660.409521,0.000000
163415.712059,-1554.432478,-7772.162391,-2451.505594
163415.712378,592.164754,-11917.315666,612.876398
163415.712697,2886.803174,-10807.006753,2451.505594
163415.713017,3923.091493,-7698.141797,1149.143247
163415.713336,2886.803174,-9474.636058,-76.609550
163415.713656,-1628.453072,-9326.594869,-1225.752797
163415.713975,-592.164754,-9548.656652,-306.438199
163415.714294,-518.144159,-8586.388927,612.876398
163415.714614,0.000000,-8364.327145,612.876398
163415.714933,-740.205942,-9474.636058,76.609550
163415.715253,-74.020594,-8882.471304,-76.609550
163415.715572,-666.185348,-7994.224174,-76.609550
163415.715891,-2368.659014,-7179.997637,-1838.629195
163415.716211,-74.020594,-12731.542202,-76.609550
163415.716530,-1110.308913,-10140.821405,612.876398
163415.716849,-444.123565,-9548.656652,0.000000
163415.717169,-1036.288319,-9844.739029,-383.047749
163415.717488,-518.144159,-10436.903782,306.438199
163415.717808,-1258.350101,-6365.771101,-2451.505594
163415.718127,-74.020594,-7846.182985,-459.657299
163415.718446,-2368.659014,-8808.450710,-2145.067394
163415.718766,-2590.720797,-10066.800811,-1685.410096
163415.719085,-1554.432478,-9474.636058,-1302.362347
163415.719405,-74.020594,-9474.636058,-153.219100
163415.719724,-74.020594,-11251.130318,-76.609550
163415.720043,-1554.432478,-8956.491898,-1532.190996
163415.720363,1184.329507,-8438.347739,0.000000
163415.720682,1776.494261,-8364.327145,2451.505594
163415.721002,-1628.453072,-7772.162391,0.000000
163415.721321,888.247130,-10510.924376,1149.143247
163415.721640,1184.329507,-9548.656652,1532.190996
163415.721960,296.082377,-9844.739029,229.828649
163415.722279,-666.185348,-10658.965565,-229.828649
163415.722599,-1258.350101,-10584.944971,383.047749
163415.722918,0.000000,-9252.574275,306.438199
163415.723237,-592.164754,-7772.162391,0.000000
163415.723557,-1258.350101,-9474.636058,-1302.362347
163415.723876,-2368.659014,-9548.656652,0.000000
163415.724196,-2368.659014,-8586.388927,-1532.190996
163415.724515,-1258.350101,-9104.533087,-995.924147
163415.724834,-1998.556043,-8882.471304,-1072.533697
163415.725154,0.000000,-9474.636058,306.438199
163415.725473,1110.308913,-7476.080014,0.000000
163415.725793,0.000000,-8364.327145,229.828649
163415.726112,0.000000,-9548.656652,1225.752797
163415.726431,2294.638420,-11251.130318,-76.609550
163415.726751,962.267725,-9548.656652,0.000000
163415.727070,592.164754,-11325.150913,1378.971896
163415.727390,0.000000,-10362.883188,-536.266849
163415.727709,1258.350101,-9844.739029,459.657299
163415.728028,1850.514855,-9178.553681,153.219100
163415.728348,-1628.453072,-7476.080014,-3064.381992
163415.728667,-3552.988522,-8068.244768,-3600.648841
163415.728987,-1924.535449,-8364.327145,-2221.676944
163415.729306,-1184.329507,-8364.327145,0.000000
163415.729625,666.185348,-9474.636058,2374.896044
163415.729945,1702.473667,-9474.636058,2374.896044
163415.730264,1480.411884,-8364.327145,2451.505594
163415.730584,1036.288319,-7105.977043,1072.533697
163415.730903,222.061783,-8216.285956,-153.219100
163415.731222,-888.247130,-9252.574275,-612.876398
163415.731542,-1924.535449,-9696.697840,-76.609550
163415.731861,-74.020594,-11251.130318,-229.828649
163415.732181,-1850.514855,-11473.192101,-2528.115143
163415.732500,-2738.761985,-10955.047942,-1302.362347
163415.732819,0.000000,-9548.656652,-1225.752797
163415.733139,2294.638420,-9474.636058,-76.609550
163415.733458,-1628.453072,-9548.656652,-1532.190996
163415.733778,-1776.494261,-9474.636058,-1302.362347
163415.734097,-518.144159,-8586.388927,0.000000
163415.734416,0.000000,-7920.203579,1149.143247
163415.734736,-518.144159,-9548.656652,689.485948
163415.735055,-74.020594,-9400.615463,1149.143247
163415.735375,296.082377,-7105.977043,-76.609550
163415.735694,0.000000,-7772.162391,0.000000
163415.736013,-444.123565,-9548.656652,-1838.629195
163415.736333,-74.020594,-10658.965565,-76.609550
163415.736652,-1628.453072,-10436.903782,153.219100
163415.736972,-592.164754,-10881.027347,-459.657299
163415.737291,-814.226536,-10510.924376,306.438199
163415.737610,1480.411884,-10288.862594,4596.572988
163415.737930,1480.411884,-8660.409521,3064.381992
163415.738249,-1776.494261,-5995.668130,0.000000
163415.738569,-666.185348,-9474.636058,-1302.362347
163415.738888,-3256.906145,-9030.512492,-1378.971896
163415.739207,-4071.132681,-7179.997637,-3064.381992
163415.739527,-666.185348,-10658.965565,-689.485948
163415.739846,-1850.514855,-9548.656652,-306.438199
163415.740166,-518.144159,-8290.306550,459.657299
163415.740485,0.000000,-7476.080014,689.485948
163415.740804,444.123565,-8956.491898,612.876398
163415.741124,-2294.638420,-7772.162391,-2451.505594
163415.741443,-2368.659014,-9548.656652,0.000000
163415.741763,0.000000,-10140.821405,0.000000
163415.742082,1554.432478,-11843.295072,-76.609550
163415.742401,-2368.659014,-8364.327145,-2451.505594
163415.742721,814.226536,-10066.800811,229.828649
163415.743040,1036.288319,-9474.636058,-306.438199
163415.743360,-222.061783,-9770.718434,-1455.581446
163415.743679,-962.267725,-10066.800811,-689.485948
163415.743998,148.041188,-9178.553681,1149.143247
163415.744318,222.061783,-7476.080014,0.000000
163415.744637,592.164754,-8956.491898,306.438199
163415.744957,2886.803174,-9474.636058,2221.676944
163415.745276,1406.391290,-7772.162391,2451.505594
163415.745595,0.000000,-6291.750507,0.000000
163415.745915,814.226536,-8808.450710,-689.485948
163415.746234,-444.123565,-9548.656652,-1149.143247
163415.746554,0.000000,-9770.718434,0.000000
163415.746873,1702.473667,-9474.636058,-76.609550
163415.747192,1110.308913,-11251.130318,-459.657299
163415.747512,-1184.329507,-9696.697840,-1302.362347
163415.747831,0.000000,-8364.327145,0.000000
163415.748151,1702.473667,-9474.636058,-689.485948
163415.748470,-1480.411884,-10436.903782,-229.828649
163415.748789,-3552.988522,-9548.656652,-2451.505594
163415.749109,-1628.453072,-9622.677246,-919.314598
163415.749428,-444.123565,-9030.512492,-536.266849
163415.749748,0.000000,-9030.512492,-153.219100
163415.750067,2294.638420,-8290.306550,-76.609550
163415.750386,3552.988522,-8808.450710,4213.525239
163415.750706,2294.638420,-6809.894666,-76.609550
163415.751025,444.123565,-8364.327145,-1149.143247
163415.751345,-2368.659014,-8364.327145,0.000000
163415.751664,-3552.988522,-7772.162391,0.000000
163415.751983,74.020594,-11103.089130,0.000000
163415.752303,0.000000,-11177.109724,-383.047749
163415.752622,296.082377,-9992.780217,1532.190996
163415.752942,2294.638420,-8290.306550,-76.609550
163415.753261,-1406.391290,-7994.224174,-1302.362347
163415.753580,-3478.967927,-9548.656652,-2298.286494
163415.753900,-2146.597232,-11251.130318,0.000000
163415.754219,-74.020594,-11843.295072,-76.609550
163415.754539,-3330.926739,-6587.832884,-3370.820191
163415.754858,-666.185348,-9474.636058,-76.609550
163415.755177,-666.185348,-7624.121203,1532.190996
163415.755497,-296.082377,-5773.606348,1072.533697
163415.755816,-2146.597232,-7179.997637,-919.314598
163415.756136,-2368.659014,-11251.130318,-76.609550
163415.756455,-3552.988522,-9104.533087,-1225.752797
163415.756774,-1850.514855,-10214.842000,-383.047749
163415.757094,-592.164754,-10881.027347,-536.266849
163415.757413,-444.123565,-10955.047942,0.000000
163415.757733,-2368.659014,-7772.162391,0.000000
163415.758052,-1776.494261,-7179.997637,-2451.505594
163415.758371,-2960.823768,-9548.656652,-2757.943793
163415.758691,-2442.679609,-11917.315666,-3677.258390
163415.759010,-1554.432478,-10658.965565,-1302.362347
163415.759330,-74.020594,-11251.130318,1762.019645
163415.759649,148.041188,-8142.265362,306.438199
163415.759968,814.226536,-8586.388927,1762.019645
163415.760288,2072.576638,-6735.874072,3294.210641
163415.760607,148.041188,-4811.338623,1532.190996
163415.760927,-148.041188,-7476.080014,1302.362347
163415.761246,-814.226536,-7624.121203,-842.705048
163415.761565,-1184.329507,-8438.347739,-689.485948
163415.761885,-2368.659014,-8660.409521,0.000000
163415.762204,-74.020594,-11547.212695,-2834.553343
163415.762524,-444.123565,-12731.542202,-459.657299
163415.762843,-1258.350101,-9992.780217,-1149.143247
163415.763162,-1480.411884,-9252.574275,-2987.772442
163415.763482,-2738.761985,-10362.883188,-4443.353888
163415.763801,-2886.803174,-11621.233289,-1685.410096
163415.764121,-592.164754,-9918.759623,153.219100
163415.764440,1702.473667,-10658.965565,2374.896044
163415.764759,1850.514855,-7328.038826,1072.533697
163415.765079,2368.659014,-7179.997637,2757.943793
163415.765398,3478.967927,-4737.318029,842.705048
163415.765718,1258.350101,-6365.771101,383.047749
163415.766037,-296.082377,-8512.368333,-995.924147
163415.766356,-666.185348,-9474.636058,-842.705048
163415.766676,-74.020594,-11547.212695,-76.609550
163415.766995,222.061783,-13471.748144,-76.609550
163415.767315,0.000000,-11029.068536,-1225.752797
163415.767634,1110.308913,-12731.542202,-229.828649
163415.767953,1110.308913,-10066.800811,-612.876398
163415.768273,-2368.659014,-8364.327145,-4903.011187
163415.768592,-2442.679609,-10066.800811,-3140.991542
163415.768912,-518.144159,-10658.965565,306.438199
163415.769231,1554.432478,-8956.491898,1838.629195
163415.769550,2220.617826,-7846.182985,2451.505594
163415.769870,3478.967927,-8586.388927,3600.648841
163415.770189,0.000000,-4811.338623,1838.629195
163415.770509,2072.576638,-6809.894666,2451.505594
163415.770828,-222.061783,-7328.038826,-689.485948
163415.771147,-1850.514855,-7402.059420,-2834.553343
163415.771467,-4737.318029,-9548.656652,-2451.505594
163415.771786,-1850.514855,-10807.006753,-2528.115143
163415.772106,-2220.617826,-11843.295072,-2528.115143
163415.772425,-1258.350101,-11843.295072,-1915.238745
163415.772744,-740.205942,-10658.965565,-1302.362347
163415.773064,-444.123565,-8734.430116,-1302.362347
163415.773383,-3552.988522,-8364.327145,-2911.162892
163415.773703,-1776.494261,-9844.739029,0.000000
163415.774022,1998.556043,-10658.965565,2374.896044
163415.774341,2294.638420,-7772.162391,1762.019645
163415.774661,0.000000,-5995.668130,2451.505594
163415.774980,2294.638420,-8216.285956,3370.820191
163415.775300,1850.514855,-7105.977043,2528.115143
163415.775619,814.226536,-7328.038826,766.095498
163415.775938,-1998.556043,-8068.244768,-2528.115143
163415.776258,-4219.173869,-10066.800811,-2834.553343
163415.776577,-3478.967927,-11251.130318,-1915.238745
163415.776897,-3552.988522,-9548.656652,-2451.505594
163415.777216,-1998.556043,-11325.150913,-306.438199
163415.777535,1110.308913,-11769.274478,2221.676944
163415.777855,0.000000,-7476.080014,612.876398
163415.778174,-74.020594,-7920.203579,-995.924147
163415.778494,-1332.370696,-9844.739029,-1072.533697
163415.778813,-1406.391290,-9918.759623,-459.657299
163415.779132,-814.226536,-8364.327145,-76.609550
163415.779452,-74.020594,-10658.965565,2068.457845
163415.779771,-666.185348,-9178.553681,-689.485948
163415.780091,0.000000,-7772.162391,153.219100
163415.780410,-1184.329507,-5107.421000,-1225.752797
163415.780729,1702.473667,-10658.965565,-76.609550
163415.781049,-2368.659014,-8956.491898,-2298.286494
163415.781368,-1480.411884,-9474.636058,-1225.752797
163415.781688,148.041188,-9548.656652,-383.047749
163415.782007,1036.288319,-9548.656652,0.000000
163415.782326,2590.720797,-10584.944971,0.000000
163415.782646,4071.132681,-11399.171507,2987.772442
163415.782965,2812.782580,-9474.636058,1532.190996
163415.783285,1702.473667,-10658.965565,-76.609550
163415.783604,-666.185348,-9474.636058,-2528.115143
163415.783923,-74.020594,-13027.624579,-76.609550
163415.784243,-370.102971,-10066.800811,-229.828649
163415.784562,-814.226536,-9844.739029,-383.047749
163415.784881,-592.164754,-9622.677246,459.657299
163415.785201,296.082377,-7772.162391,2757.943793
163415.785520,296.082377,-5107.421000,1225.752797
163415.785840,-740.205942,-7328.038826,0.000000
163415.786159,-4737.318029,-5995.668130,-3064.381992
163415.786478,-1258.350101,-10214.842000,-306.438199
163415.786798,-74.020594,-9030.512492,-1608.800546
163415.787117,-74.020594,-9474.636058,-1915.238745
163415.787436,-1184.329507,-10436.903782,0.000000
163415.787756,740.205942,-10436.903782,0.000000
163415.788075,888.247130,-9030.512492,-689.485948
163415.788394,740.205942,-12583.501014,-76.609550
163415.788714,-1406.391290,-10955.047942,-2145.067394
163415.789033,1702.473667,-12435.459826,-76.609550
163415.789352,-370.102971,-8956.491898,-919.314598
163415.789672,-592.164754,-7254.018232,-1608.800546
163415.789991,2294.638420,-8882.471304,-76.609550
163415.790310,1480.411884,-6291.750507,2145.067394
163415.790630,518.144159,-5625.565159,612.876398
163415.790949,-962.267725,-7476.080014,0.000000
163415.791269,-74.020594,-10510.924376,2068.457845
163415.791588,0.000000,-9400.615463,1762.019645
163415.791907,-74.020594,-9474.636058,76.609550
163415.792227,-1480.411884,-10140.821405,0.000000
163415.792546,-2368.659014,-10732.986159,0.000000
163415.792865,-74.020594,-11251.130318,-76.609550
163415.793185,-1480.411884,-10881.027347,-1608.800546
163415.793504,-4219.173869,-10658.965565,-3294.210641
163415.793823,-3108.864956,-10881.027347,-2604.724693
163415.794143,-962.267725,-10288.862594,-536.266849
163415.794462,-2368.659014,-7179.997637,0.000000
163415.794781,0.000000,-8512.368333,0.000000
163415.795101,2294.638420,-8438.347739,2451.505594
163415.795420,4071.132681,-7105.977043,2374.896044
163415.795740,0.000000,-5995.668130,0.000000
163415.796059,-888.247130,-10436.903782,1455.581446
163415.796378,-2072.576638,-9844.739029,-995.924147
163415.796698,-814.226536,-9918.759623,0.000000
163415.797017,-962.267725,-10732.986159,-842.705048
163415.797336,-1110.308913,-10955.047942,-1838.629195
163415.797656,-1258.350101,-8290.306550,-1915.238745
163415.797975,1406.391290,-8808.450710,-153.219100
163415.798294,518.144159,-8586.388927,-2145.067394
163415.798614,-518.144159,-10436.903782,-1225.752797
163415.798933,1702.473667,-11843.295072,1149.143247
163415.799252,1702.473667,-10066.800811,842.705048
163415.799572,1184.329507,-10436.903782,2145.067394
163415.799891,222.061783,-8882.471304,612.876398
163415.800211,0.000000,-5995.668130,612.876398
163415.800530,0.000000,-4811.338623,1225.752797
163415.800849,-1258.350101,-6661.853478,-1302.362347
163415.801169,-2146.597232,-9252.574275,-1072.533697
163415.801488,-1628.453072,-9030.512492,-306.438199
163415.801807,-962.267725,-8734.430116,-612.876398
163415.802127,-518.144159,-9696.697840,-1302.362347
163415.802446,-1258.350101,-10658.965565,-1608.800546
163415.802765,-1480.411884,-8808.450710,-1608.800546
163415.803085,-2368.659014,-8364.327145,-2451.505594
163415.803404,-1628.453072,-11177.109724,-2834.553343
163415.803723,-3552.988522,-9548.656652,-2451.505594
163415.804043,-666.185348,-10955.047942,-1149.143247
163415.804362,296.082377,-9918.759623,-612.876398
163415.804682,0.000000,-9992.780217,0.000000
163415.805001,888.247130,-8364.327145,0.000000
163415.805320,2590.720797,-5773.606348,76.609550
163415.805640,2812.782580,-5329.482782,1762.019645
163415.805959,0.000000,-5995.668130,0.000000
163415.806278,0.000000,-9030.512492,1838.629195
163415.806598,518.144159,-9474.636058,2374.896044
163415.806917,0.000000,-8364.327145,1225.752797
163415.807236,-1184.329507,-10140.821405,-1302.362347
163415.807556,-1406.391290,-9992.780217,-689.485948
163415.807875,-1184.329507,-10140.821405,-229.828649
163415.808194,-1924.535449,-7772.162391,-2681.334243
163415.808514,-1258.350101,-11843.295072,-1915.238745
163415.808833,-1258.350101,-11843.295072,-1302.362347
163415.809152,-2146.597232,-9548.656652,-1915.238745
163415.809472,-3552.988522,-8364.327145,0.000000
163415.809791,-74.020594,-13027.624579,-76.609550
163415.810111,-1776.494261,-8512.368333,1225.752797
163415.810430,-370.102971,-6735.874072,842.705048
163415.810749,-666.185348,-6439.791695,153.219100
163415.811069,-1850.514855,-8068.244768,-612.876398
163415.811388,-1184.329507,-8290.306550,-306.438199
163415.811707,-74.020594,-9474.636058,-76.609550
163415.812027,-1258.350101,-9474.636058,-1302.362347
163415.812346,-370.102971,-11251.130318,-1915.238745
163415.812665,-1110.308913,-10140.821405,-842.705048
163415.812985,2294.638420,-11843.295072,-76.609550
163415.813304,-740.205942,-8956.491898,-1838.629195
163415.813623,-592.164754,-10955.047942,-1838.629195
163415.813943,0.000000,-10955.047942,-842.705048
163415.814262,1776.494261,-9696.697840,1225.752797
163415.814582,296.082377,-9548.656652,1838.629195
163415.814901,1110.308913,-10732.986159,1225.752797
163415.815220,3108.864956,-9474.636058,4519.963438
163415.815540,2294.638420,-6217.729913,1915.238745
163415.815859,0.000000,-4811.338623,-1685.410096
163415.816178,-74.020594,-9474.636058,1762.019645
163415.816498,-444.123565,-8512.368333,1149.143247
163415.816817,-296.082377,-8364.327145,76.609550
163415.817136,-1850.514855,-9252.574275,-1302.362347
163415.817456,-2368.659014,-10732.986159,0.000000
163415.817775,-2368.659014,-9992.780217,-2221.676944
163415.818094,-3552.988522,-7772.162391,-3064.381992
163415.818414,-2368.659014,-11029.068536,-3370.820191
163415.818733,-1258.350101,-14211.954086,-2528.115143
163415.819053,-1258.350101,-10732.986159,-3677.258390
163415.819372,1110.308913,-10955.047942,-153.219100
163415.819691,370.102971,-9918.759623,306.438199
163415.820011,1776.494261,-9770.718434,1685.410096
163415.820330,3108.864956,-7698.141797,2834.553343
163415.820649,1184.329507,-5699.585753,1685.410096
163415.820969,-814.226536,-6587.832884,0.000000
163415.821288,-888.247130,-8956.491898,919.314598
163415.821607,1184.329507,-8956.491898,2451.505594
163415.821927,1998.556043,-9474.636058,1685.410096
163415.822246,-2368.659014,-6883.915261,-2451.505594
163415.822565,-148.041188,-9770.718434,-766.095498
163415.822885,296.082377,-9548.656652,-459.657299
163415.823204,-370.102971,-9030.512492,-1991.848295
163415.823524,-666.185348,-11843.295072,-1915.238745
163415.823843,-74.020594,-12435.459826,-1302.362347
163415.824162,-666.185348,-10732.986159,-76.609550
163415.824482,-1554.432478,-8364.327145,-2374.896044
163415.824801,-1776.494261,-9548.656652,1225.752797
163415.825120,296.082377,-9548.656652,3064.381992
163415.825440,74.020594,-5107.421000,306.438199
163415.825759,296.082377,-7105.977043,0.000000
163415.826078,-1480.411884,-8808.450710,0.000000
163415.826398,-666.185348,-9104.533087,612.876398
163415.826717,2294.638420,-9178.553681,-76.609550
163415.827036,-222.061783,-9030.512492,-76.609550
163415.827356,-1258.350101,-9474.636058,-2528.115143
163415.827675,-2664.741391,-9548.656652,-1838.629195
163415.827994,0.000000,-8364.327145,-2987.772442
163415.828314,-1998.556043,-7772.162391,-6128.763984
163415.828633,-1258.350101,-11399.171507,-2451.505594
163415.828953,-1406.391290,-11843.295072,-1378.971896
163415.829272,0.000000,-11103.089130,-383.047749
163415.829591,-370.102971,-11251.130318,-76.609550
163415.829911,0.000000,-10140.821405,919.314598
163415.830230,0.000000,-7179.997637,1838.629195
163415.830549,3330.926739,-7105.977043,3447.429741
163415.830869,1110.308913,-7105.977043,2374.896044
163415.831188,-1554.432478,-4811.338623,0.000000
163415.831507,1702.473667,-8290.306550,2374.896044
163415.831827,0.000000,-7476.080014,919.314598
163415.832146,-2590.720797,-8586.388927,-1225.752797
163415.832465,-3849.070898,-10214.842000,-2298.286494
163415.832785,-2368.659014,-11177.109724,-76.609550
163415.833104,-1480.411884,-10066.800811,-2528.115143
163415.833424,-3034.844362,-11251.130318,-2528.115143
163415.833743,-2442.679609,-11843.295072,-4060.306139
163415.834062,-2368.659014,-10732.986159,-1838.629195
163415.834382,3182.885551,-13027.624579,-76.609550
163415.834701,0.000000,-10140.821405,153.219100
163415.835020,1036.288319,-9474.636058,1608.800546
163415.835340,2738.761985,-6883.915261,2987.772442
163415.835659,3182.885551,-5773.606348,4213.525239
163415.835978,0.000000,-4811.338623,0.000000
163415.836298,888.247130,-8808.450710,1072.533697
163415.836617,888.247130,-8956.491898,1378.971896
163415.836936,0.000000,-9400.615463,0.000000
163415.837256,-1554.432478,-10658.965565,-2528.115143
163415.837575,-3552.988522,-9696.697840,-3370.820191
163415.837895,-518.144159,-11843.295072,-76.609550
163415.838214,-962.267725,-9030.512492,-2068.457845
163415.838533,-666.185348,-10066.800811,-2528.115143
163415.838853,888.247130,-11621.233289,1915.238745
163415.839172,0.000000,-7772.162391,153.219100
163415.839491,1702.473667,-8956.491898,536.266849
163415.839811,444.123565,-9474.636058,919.314598
163415.840130,888.247130,-9252.574275,1608.800546
163415.840449,1998.556043,-7772.162391,306.438199
163415.840769,518.144159,-7105.977043,-459.657299
163415.841088,-1258.350101,-9474.636058,-76.609550
163415.841407,-3923.091493,-7179.997637,-2451.505594
163415.841727,0.000000,-8660.409521,0.000000
163415.842046,1480.411884,-10066.800811,1149.143247
163415.842366,-2072.576638,-8364.327145,-2298.286494
163415.842685,-740.205942,-9178.553681,-995.924147
163415.843004,1184.329507,-8956.491898,-842.705048
163415.843324,962.267725,-8956.491898,-2451.505594
163415.843643,-2368.659014,-9548.656652,-3677.258390
163415.843962,-1406.391290,-10732.986159,-3677.258390
163415.844282,2294.638420,-13027.624579,1149.143247
163415.844601,74.020594,-9548.656652,-689.485948
163415.844920,666.185348,-10658.965565,1149.143247
163415.845240,4811.338623,-11103.089130,4826.401637
163415.845559,2368.659014,-6291.750507,766.095498
163415.845878,-74.020594,-7328.038826,-383.047749
163415.846198,-2146.597232,-9030.512492,-536.266849
163415.846517,-3552.988522,-7179.997637,0.000000
163415.846836,-2072.576638,-8290.306550,-76.609550
163415.847156,-1258.350101,-7254.018232,-1378.971896
163415.847475,-2960.823768,-8364.327145,0.000000
163415.847795,-2368.659014,-7476.080014,0.000000
163415.848114,-74.020594,-9474.636058,-1915.238745
163415.848433,-1258.350101,-11399.171507,-2834.553343
163415.848753,-5329.482782,-11991.336260,-3677.258390
163415.849072,-4811.338623,-11991.336260,-2528.115143
163415.849391,-2368.659014,-11251.130318,-2145.067394
163415.849711,-2368.659014,-10732.986159,-536.266849
163415.850030,-814.226536,-9474.636058,229.828649
163415.850349,1036.288319,-6587.832884,2145.067394
163415.850669,0.000000,-4811.338623,1225.752797
163415.850988,0.000000,-8512.368333,1532.190996
163415.851307,-2368.659014,-6587.832884,-2451.505594
163415.851627,1110.308913,-8586.388927,2374.896044
163415.851946,222.061783,-7994.224174,919.314598
163415.852266,-1332.370696,-9326.594869,-306.438199
163415.852585,-1702.473667,-10658.965565,-383.047749
163415.852904,-74.020594,-9474.636058,-76.609550
163415.853224,740.205942,-8586.388927,-689.485948
163415.853543,-1258.350101,-9474.636058,-3753.867940
163415.853862,-3701.029710,-10732.986159,-2451.505594
163415.854182,-1184.329507,-10732.986159,0.000000
163415.854501,-1776.494261,-8438.347739,-1838.629195
163415.854820,666.185348,-10955.047942,306.438199
163415.855140,1850.514855,-9030.512492,1378.971896
163415.855459,2886.803174,-6809.894666,2451.505594
163415.855778,4663.297435,-7698.141797,-76.609550
163415.856098,1110.308913,-9474.636058,612.876398
163415.856417,-74.020594,-10658.965565,-76.609550
163415.856737,-1184.329507,-8364.327145,0.000000
163415.857056,0.000000,-9548.656652,-2451.505594
163415.857375,-1184.329507,-10140.821405,-612.876398
163415.857695,-1184.329507,-9548.656652,-1072.533697
163415.858014,1480.411884,-8660.409521,-766.095498
163415.858333,1332.370696,-8142.265362,-2298.286494
163415.858653,0.000000,-10436.903782,-2834.553343
163415.858972,-74.020594,-13027.624579,-1302.362347
163415.859291,0.000000,-10732.986159,0.000000
163415.859611,1998.556043,-11251.130318,-76.609550
163415.859930,1110.308913,-10658.965565,-76.609550
163415.860249,0.000000,-8364.327145,2451.505594
163415.860569,2960.823768,-8956.491898,3983.696590
163415.860888,1258.350101,-7402.059420,612.876398
163415.861208,0.000000,-8882.471304,995.924147
163415.861527,444.123565,-7772.162391,1991.848295
163415.861846,0.000000,-5995.668130,0.000000
163415.862166,-1850.514855,-7179.997637,-1225.752797
163415.862485,-2960.823768,-8660.409521,-919.314598
163415.862804,-4441.235652,-7179.997637,0.000000
163415.863124,-74.020594,-10510.924376,-383.047749
163415.863443,-1554.432478,-11251.130318,-2528.115143
163415.863762,-3552.988522,-12213.398043,-2298.286494
163415.864082,-3034.844362,-11399.171507,-1991.848295
163415.864401,-2516.700203,-10881.027347,-1608.800546
163415.864720,-2368.659014,-10807.006753,-1072.533697
163415.865040,-4145.153275,-8364.327145,0.000000
163415.865359,-518.144159,-7772.162391,1225.752797
163415.865678,0.000000,-5107.421000,0.000000
163415.865998,-74.020594,-9474.636058,-76.609550
163415.866317,-1850.514855,-9178.553681,229.828649
163415.866637,-74.020594,-9474.636058,2374.896044
163415.866956,-888.247130,-8364.327145,459.657299
163415.867275,-1332.370696,-9474.636058,-306.438199
163415.867595,-1850.514855,-10288.862594,76.609550
163415.867914,0.000000,-8364.327145,2374.896044
163415.868233,0.000000,-7179.997637,-2145.067394
163415.868553,-74.020594,-9326.594869,-1915.238745
163415.868872,-3108.864956,-10140.821405,-2451.505594
163415.869191,-2368.659014,-10140.821405,0.000000
163415.869511,-74.020594,-13027.624579,-76.609550
163415.869830,0.000000,-10807.006753,2451.505594
163415.870149,1406.391290,-10066.800811,1532.190996
163415.870469,2368.659014,-7105.977043,1685.410096
163415.870788,0.000000,-7105.977043,-76.609550
163415.871108,-4145.153275,-6587.832884,-2451.505594
163415.871427,-1184.329507,-9844.739029,153.219100
163415.871746,1776.494261,-9474.636058,1225.752797
163415.872066,1110.308913,-11251.130318,-76.609550
163415.872385,-1258.350101,-9030.512492,-1302.362347
163415.872704,-1184.329507,-9548.656652,1532.190996
163415.873024,0.000000,-7476.080014,-1685.410096
163415.873343,-962.267725,-8956.491898,-2911.162892
163415.873662,-1998.556043,-10955.047942,-3140.991542
163415.873982,-1554.432478,-11621.233289,-2221.676944
163415.874301,1702.473667,-10658.965565,-1915.238745
163415.874620,1776.494261,-10881.027347,306.438199
163415.874940,2368.659014,-10214.842000,1225.752797
163415.875259,3404.947333,-9030.512492,2221.676944
163415.875579,4367.215058,-8586.388927,2987.772442
163415.875898,1480.411884,-9326.594869,1149.143247
163415.876217,0.000000,-8956.491898,1225.752797
163415.876537,2886.803174,-9474.636058,1762.019645
163415.876856,1184.329507,-5995.668130,0.000000
163415.877175,-1776.494261,-7179.997637,0.000000
163415.877495,-1258.350101,-8290.306550,-1302.362347
163415.877814,-814.226536,-8586.388927,153.219100
163415.878133,592.164754,-7772.162391,-919.314598
163415.878453,-1998.556043,-9252.574275,-1991.848295
163415.878772,-2516.700203,-10362.883188,-1455.581446
163415.879091,-1554.432478,-11103.089130,-383.047749
163415.879411,-2960.823768,-8956.491898,-2451.505594
163415.879730,-3552.988522,-9548.656652,0.000000
163415.880050,1776.494261,-11251.130318,919.314598
163415.880369,0.000000,-5995.668130,0.000000
163415.880688,-74.020594,-8586.388927,-689.485948
163415.881008,-2516.700203,-9474.636058,-2068.457845
163415.881327,-2368.659014,-10436.903782,-766.095498
163415.881646,740.205942,-10658.965565,383.047749
163415.881966,1702.473667,-9474.636058,-76.609550
163415.882285,-1554.432478,-8956.491898,0.000000
163415.882604,0.000000,-7179.997637,612.876398
163415.882924,1924.535449,-8364.327145,2068.457845
163415.883243,1110.308913,-7772.162391,-76.609550
163415.883562,-4737.318029,-5995.668130,-3677.258390
163415.883882,-2812.782580,-10436.903782,-1608.800546
163415.884201,-1776.494261,-11029.068536,-995.924147
163415.884520,-740.205942,-11177.109724,-612.876398
163415.884840,-370.102971,-9770.718434,-1302.362347
163415.885159,3478.967927,-11843.295072,2987.772442
163415.885478,1702.473667,-8734.430116,842.705048
163415.885798,-1480.411884,-7179.997637,-1225.752797
163415.886117,-4145.153275,-7179.997637,0.000000
163415.886436,1184.329507,-10140.821405,3677.258390
163415.886756,0.000000,-7179.997637,1225.752797
163415.887075,-74.020594,-10658.965565,1762.019645
163415.887394,-2368.659014,-9104.533087,0.000000
163415.887713,-1924.535449,-8364.327145,-383.047749
163415.888033,-74.020594,-8290.306550,-1302.362347
163415.888352,-370.102971,-9400.615463,-2451.505594
163415.888671,-666.185348,-11843.295072,-2528.115143
163415.888991,-1850.514855,-10510.924376,-1302.362347
163415.889310,-74.020594,-11843.295072,-1915.238745
163415.889629,1184.329507,-12509.480420,-76.609550
163415.889949,0.000000,-10140.821405,0.000000
163415.890268,2516.700203,-9474.636058,1608.800546
163415.890587,2442.679609,-8290.306550,1225.752797
163415.890907,1110.308913,-9030.512492,76.609550
163415.891226,518.144159,-9474.636058,0.000000
163415.891545,2368.659014,-9474.636058,2604.724693
163415.891865,2886.803174,-8882.471304,2068.457845
163415.892184,0.000000,-7179.997637,0.000000
163415.892503,0.000000,-8660.409521,919.314598
163415.892823,1924.535449,-9474.636058,2987.772442
163415.893142,0.000000,-6735.874072,-1455.581446
163415.893461,-2220.617826,-8734.430116,-3217.601092
163415.893780,-4219.173869,-10584.944971,-4060.306139
163415.894100,-4145.153275,-9844.739029,-2451.505594
163415.894419,-3552.988522,-9548.656652,-3677.258390
163415.894738,74.020594,-11621.233289,0.000000
163415.895058,3478.967927,-12435.459826,2374.896044
163415.895377,592.164754,-7179.997637,612.876398
163415.895696,1998.556043,-7105.977043,-76.609550
163415.896016,814.226536,-9770.718434,995.924147
163415.896335,-888.247130,-9548.656652,536.266849
163415.896654,1702.473667,-9104.533087,1685.410096
163415.896974,1110.308913,-9030.512492,383.047749
163415.897293,-2368.659014,-8364.327145,0.000000
163415.897612,-2368.659014,-7772.162391,-995.924147
163415.897932,-2072.576638,-6883.915261,-1685.410096
163415.898251,-1184.329507,-8068.244768,-2451.505594
163415.898570,-1258.350101,-12731.542202,-689.485948
163415.898890,-1554.432478,-10658.965565,-3140.991542
163415.899209,-444.123565,-10288.862594,-536.266849
163415.899528,518.144159,-10066.800811,-229.828649
163415.899847,222.061783,-10881.027347,689.485948
163415.900167,1258.350101,-9918.759623,2987.772442
163415.900486,0.000000,-6883.915261,2068.457845
163415.900805,1702.473667,-8882.471304,-76.609550
163415.901125,-2368.659014,-8660.409521,0.000000
163415.901444,-2368.659014,-8956.491898,612.876398
163415.901763,296.082377,-9400.615463,1225.752797
163415.902083,-666.185348,-8290.306550,-1302.362347
163415.902402,-2368.659014,-9770.718434,-306.438199
163415.902721,-2516.700203,-8586.388927,-612.876398
163415.903041,-1924.535449,-7550.100608,-1608.800546
163415.903360,-1850.514855,-10658.965565,-1915.238745
163415.903679,-3923.091493,-11473.192101,-2528.115143
163415.903999,-3627.009116,-10658.965565,-2528.115143
163415.904318,-666.185348,-9474.636058,-1915.238745
163415.904637,0.000000,-9844.739029,-1225.752797
163415.904957,0.000000,-9548.656652,0.000000
163415.905276,2294.638420,-8586.388927,1149.143247
163415.905595,1924.535449,-7476.080014,1072.533697
163415.905914,592.164754,-8586.388927,-306.438199
163415.906234,-518.144159,-9622.677246,0.000000
163415.906553,2294.638420,-11843.295072,3600.648841
163415.906872,1480.411884,-9548.656652,2451.505594
163415.907192,2886.803174,-11251.130318,1762.019645
163415.907511,1110.308913,-10066.800811,842.705048
163415.907830,0.000000,-7105.977043,-76.609550
163415.908150,-74.020594,-6513.812290,-2834.553343
163415.908469,-1258.350101,-8290.306550,-2374.896044
163415.908788,-1776.494261,-10140.821405,-2834.553343
163415.909108,-1332.370696,-10510.924376,-1378.971896
163415.909427,-74.020594,-11843.295072,-76.609550
163415.909746,-1776.494261,-10362.883188,76.609550
163415.910066,0.000000,-9548.656652,0.000000
163415.910385,2294.638420,-9252.574275,2068.457845
163415.910704,2294.638420,-9474.636058,1762.019645
163415.911024,-74.020594,-7105.977043,-2834.553343
163415.911343,1480.411884,-11251.130318,-76.609550
163415.911662,1480.411884,-9622.677246,229.828649
163415.911981,1184.329507,-9326.594869,-76.609550
163415.912301,-666.185348,-10807.006753,-536.266849
163415.912620,-2368.659014,-8364.327145,1225.752797
163415.912939,148.041188,-8660.409521,0.000000
163415.913259,814.226536,-8290.306550,-766.095498
163415.913578,-74.020594,-9474.636058,-2528.115143
163415.913897,-2368.659014,-8364.327145,-2451.505594
163415.914217,2294.638420,-12731.542202,2374.896044
163415.914536,592.164754,-9548.656652,0.000000
163415.914855,1628.453072,-10584.944971,689.485948
163415.915175,2368.659014,-10288.862594,2757.943793
163415.915494,1110.308913,-7698.141797,2451.505594
163415.915813,-2220.617826,-5995.668130,-2145.067394
163415.916133,-1258.350101,-9696.697840,-689.485948
163415.916452,-1036.288319,-10140.821405,-383.047749
163415.916771,-74.020594,-9696.697840,689.485948
163415.917091,-74.020594,-10362.883188,-76.609550
163415.917410,-1850.514855,-10362.883188,-689.485948
163415.917729,-2368.659014,-8956.491898,0.000000
163415.918048,-666.185348,-7994.224174,-689.485948
163415.918368,-3627.009116,-6957.935855,-4366.744339
163415.918687,-4441.235652,-9548.656652,-1838.629195
163415.919006,-2738.761985,-8956.491898,-1838.629195
163415.919326,-222.061783,-8882.471304,-153.219100
163415.919645,-222.061783,-9548.656652,-383.047749
163415.919964,-222.061783,-9992.780217,76.609550
163415.920284,814.226536,-8882.471304,-229.828649
163415.920603,-74.020594,-8068.244768,-383.047749
163415.920922,-1554.432478,-9548.656652,-4290.134789
163415.921242,0.000000,-10436.903782,0.000000
163415.921561,1998.556043,-10955.047942,2068.457845
163415.921880,1184.329507,-9548.656652,3064.381992
163415.922200,-370.102971,-9548.656652,-229.828649
163415.922519,-1110.308913,-9844.739029,612.876398
163415.922838,0.000000,-8512.368333,919.314598
163415.923158,370.102971,-6587.832884,0.000000
163415.923477,-2146.597232,-7179.997637,-3294.210641
163415.923796,-2072.576638,-8882.471304,-1302.362347
163415.924115,-2368.659014,-7772.162391,0.000000
163415.924435,148.041188,-9474.636058,153.219100
163415.924754,962.267725,-11843.295072,-76.609550
163415.925073,0.000000,-10140.821405,1838.629195
163415.925393,888.247130,-8956.491898,536.266849
163415.925712,148.041188,-8808.450710,-1149.143247
163415.926031,-1998.556043,-9400.615463,-2681.334243
163415.926351,-2738.761985,-8364.327145,-3294.210641
163415.926670,-1258.350101,-11843.295072,-76.609550
163415.926989,-1628.453072,-9252.574275,-1838.629195
163415.927309,-1776.494261,-10140.821405,0.000000
163415.927628,0.000000,-8364.327145,1225.752797
163415.927947,4071.132681,-8882.471304,2374.896044
163415.928267,1184.329507,-6883.915261,0.000000
163415.928586,0.000000,-8364.327145,-766.095498
163415.928905,592.164754,-9030.512492,-689.485948
163415.929225,1480.411884,-9548.656652,76.609550
163415.929544,814.226536,-9844.739029,0.000000
163415.929863,1110.308913,-11843.295072,-76.609550
163415.930182,-888.247130,-9622.677246,153.219100
163415.930502,-1776.494261,-7179.997637,-2451.505594
163415.930821,-888.247130,-9548.656652,0.000000
163415.931140,-74.020594,-10658.965565,-76.609550
163415.931460,0.000000,-9104.533087,842.705048
163415.931779,2368.659014,-8364.327145,1149.143247
163415.932098,1628.453072,-8808.450710,1149.143247
163415.932418,1184.329507,-9696.697840,3064.381992
163415.932737,0.000000,-8364.327145,2451.505594
163415.933056,-74.020594,-8734.430116,383.047749
163415.933376,-370.102971,-9474.636058,-1302.362347
163415.933695,-4145.153275,-8438.347739,-3753.867940
163415.934014,-4737.318029,-7920.203579,-3370.820191
163415.934334,-74.020594,-11843.295072,-1302.362347
163415.934653,-2072.576638,-11325.150913,-1685.410096
163415.934972,-1258.350101,-10881.027347,0.000000
163415.935292,222.061783,-8956.491898,842.705048
163415.935611,592.164754,-8364.327145,2298.286494
163415.935930,0.000000,-7179.997637,0.000000
163415.936249,0.000000,-8956.491898,1685.410096
163415.936569,2294.638420,-9326.594869,1762.019645
163415.936888,592.164754,-8142.265362,-76.609550
163415.937207,-1850.514855,-8660.409521,-2451.505594
163415.937527,-74.020594,-11547.212695,-76.609550
163415.937846,148.041188,-9474.636058,1072.533697
163415.938165,-444.123565,-8660.409521,-1455.581446
163415.938485,-1702.473667,-9104.533087,-2221.676944
163415.938804,-2368.659014,-8068.244768,-1225.752797
163415.939123,-1258.350101,-7772.162391,-766.095498
163415.939443,0.000000,-8364.327145,0.000000
163415.939762,1110.308913,-11843.295072,2987.772442
163415.940081,-666.185348,-8068.244768,919.314598
163415.940401,0.000000,-4811.338623,0.000000
163415.940720,-148.041188,-8142.265362,-842.705048
163415.941039,-592.164754,-9844.739029,-842.705048
163415.941359,-518.144159,-10436.903782,-842.705048
163415.941678,1110.308913,-11843.295072,-76.609550
163415.941997,-74.020594,-11251.130318,-995.924147
163415.942316,-3182.885551,-11029.068536,-1991.848295
163415.942636,-4145.153275,-9548.656652,-2298.286494
163415.942955,0.000000,-8364.327145,0.000000
163415.943274,0.000000,-8956.491898,-612.876398
163415.943594,-3108.864956,-7179.997637,-2911.162892
163415.943913,-814.226536,-8956.491898,-689.485948
163415.944232,518.144159,-8142.265362,459.657299
163415.944552,814.226536,-8290.306550,612.876398
163415.944871,2294.638420,-9474.636058,-76.609550
163415.945190,1702.473667,-8956.491898,2374.896044
163415.945510,1702.473667,-6513.812290,229.828649
163415.945829,0.000000,-8808.450710,-919.314598
163415.946148,-74.020594,-11843.295072,-76.609550
163415.946468,370.102971,-11177.109724,-76.609550
163415.946787,0.000000,-8956.491898,0.000000
163415.947106,-1184.329507,-10510.924376,-612.876398
163415.947426,-148.041188,-10807.006753,995.924147
163415.947745,-74.020594,-9548.656652,0.000000
163415.948064,1036.288319,-7698.141797,919.314598
163415.948383,-666.185348,-9474.636058,-689.485948
163415.948703,-2146.597232,-7105.977043,-1455.581446
163415.949022,296.082377,-8882.471304,2374.896044
163415.949341,444.123565,-6661.853478,842.705048
163415.949661,-2220.617826,-9548.656652,0.000000
163415.949980,-666.185348,-11029.068536,-76.609550
163415.950299,-74.020594,-10362.883188,-76.609550
163415.950619,-222.061783,-9178.553681,-1608.800546
163415.950938,-1628.453072,-9548.656652,-3447.429741
163415.951257,-148.041188,-12657.521608,-1608.800546
163415.951577,0.000000,-10732.986159,0.000000
163415.951896,1406.391290,-11103.089130,-76.609550
163415.952215,1110.308913,-13027.624579,-76.609550
163415.952535,0.000000,-7476.080014,0.000000
163415.952854,1332.370696,-6587.832884,2451.505594
163415.953173,4663.297435,-8882.471304,2374.896044
163415.953493,-444.123565,-6735.874072,-766.095498
163415.953812,-296.082377,-8364.327145,-76.609550
163415.954131,-74.020594,-8290.306550,-1302.362347
163415.954450,-74.020594,-9770.718434,-76.609550
163415.954770,-3404.947333,-9548.656652,-1225.752797
163415.955089,-2368.659014,-8956.491898,-1685.410096
163415.955408,-2072.576638,-5995.668130,0.000000
163415.955728,-74.020594,-8290.306550,-1685.410096
163415.956047,-1776.494261,-7846.182985,-306.438199
163415.956366,-740.205942,-9178.553681,689.485948
163415.956686,1110.308913,-9548.656652,2451.505594
163415.957005,-666.185348,-9030.512492,0.000000
163415.957324,-3182.885551,-8364.327145,-2451.505594
163415.957644,-1258.350101,-10955.047942,-76.609550
163415.957963,-888.247130,-8512.368333,-459.657299
163415.958282,-2220.617826,-7550.100608,-2451.505594
163415.958602,-3849.070898,-9548.656652,-3830.477490
163415.958921,-1110.308913,-11251.130318,-76.609550
163415.959240,-74.020594,-11843.295072,-76.609550
163415.959560,-666.185348,-8142.265362,-1455.581446
163415.959879,148.041188,-9548.656652,306.438199
163415.960198,2072.576638,-8512.368333,3064.381992
163415.960517,0.000000,-3627.009116,0.000000
163415.960837,1628.453072,-7105.977043,0.000000
163415.961156,296.082377,-10140.821405,-1149.143247
163415.961475,0.000000,-11251.130318,-536.266849
163415.961795,-74.020594,-11843.295072,-1455.581446
163415.962114,-1554.432478,-10881.027347,-2374.896044
163415.962433,666.185348,-12731.542202,842.705048
163415.962753,2294.638420,-9474.636058,3600.648841
163415.963072,4663.297435,-8290.306550,2068.457845
163415.963391,1184.329507,-6587.832884,612.876398
163415.963711,0.000000,-6883.915261,-1532.190996
163415.964030,518.144159,-8586.388927,689.485948
163415.964349,592.164754,-8364.327145,0.000000
163415.964669,-666.185348,-9252.574275,-536.266849
163415.964988,-1036.288319,-9696.697840,-1915.238745
163415.965307,74.020594,-9474.636058,-842.705048
163415.965627,1110.308913,-8808.450710,-76.609550
163415.965946,2294.638420,-10658.965565,-1915.238745
163415.966265,-74.020594,-10288.862594,-2528.115143
163415.966584,592.164754,-11473.192101,919.314598
163415.966904,1258.350101,-9918.759623,-612.876398
163415.967223,1258.350101,-10881.027347,536.266849
163415.967542,1776.494261,-10732.986159,1532.190996
163415.967862,2516.700203,-7624.121203,612.876398
163415.968181,592.164754,-4959.379811,0.000000
163415.968500,148.041188,-7254.018232,-1915.238745
163415.968820,0.000000,-8364.327145,-1225.752797
163415.969139,962.267725,-10436.903782,536.266849
163415.969458,-74.020594,-9474.636058,-76.609550
163415.969778,-888.247130,-11473.192101,612.876398
163415.970097,-1110.308913,-9548.656652,-536.266849
163415.970416,370.102971,-8290.306550,1072.533697
163415.970736,1184.329507,-7772.162391,1149.143247
163415.971055,0.000000,-6587.832884,0.000000
163415.971374,-2442.679609,-9474.636058,1455.581446
163415.971694,-666.185348,-10362.883188,-76.609550
163415.972013,-3256.906145,-9548.656652,-1532.190996
163415.972332,-6513.812290,-9548.656652,-2451.505594
163415.972651,-666.185348,-11843.295072,-76.609550
163415.972971,-1184.329507,-9252.574275,766.095498
163415.973290,-2146.597232,-7920.203579,-1225.752797
163415.973609,-2442.679609,-8438.347739,-1455.581446
163415.973929,-2442.679609,-9178.553681,-1532.190996
163415.974248,-2146.597232,-8364.327145,-1378.971896
163415.974567,-1850.514855,-9918.759623,-995.924147
163415.974887,-3182.885551,-8808.450710,-1302.362347
163415.975206,-4737.318029,-7179.997637,0.000000
163415.975525,296.082377,-8808.450710,1991.848295
163415.975845,-74.020594,-8882.471304,-1302.362347
163415.976164,-1184.329507,-9548.656652,0.000000
163415.976483,-1406.391290,-10881.027347,229.828649
163415.976803,-740.205942,-10584.944971,0.000000
163415.977122,-74.020594,-12509.480420,1149.143247
163415.977441,-222.061783,-12509.480420,1762.019645
163415.977761,1702.473667,-9474.636058,1838.629195
163415.978080,2294.638420,-8882.471304,-76.609550
163415.978399,-1258.350101,-7476.080014,-1838.629195
163415.978718,-4293.194464,-7179.997637,-4290.134789
163415.979038,-74.020594,-10066.800811,-1302.362347
163415.979357,-1628.453072,-9548.656652,-995.924147
163415.979676,-2294.638420,-9548.656652,-766.095498
163415.979996,-1184.329507,-9252.574275,-229.828649
163415.980315,2738.761985,-10362.883188,3600.648841
163415.980634,2738.761985,-7179.997637,0.000000
163415.980954,592.164754,-9104.533087,0.000000
163415.981273,-74.020594,-10658.965565,-229.828649
163415.981592,1110.308913,-13027.624579,-76.609550
163415.981912,-2368.659014,-9548.656652,-3677.258390
163415.982231,-74.020594,-11843.295072,-1608.800546
163415.982550,222.061783,-11547.212695,-383.047749
163415.982870,2072.576638,-9474.636058,689.485948
163415.983189,1850.514855,-8438.347739,-842.705048
163415.983508,1184.329507,-8660.409521,-153.219100
163415.983828,0.000000,-7179.997637,-1838.629195
163415.984147,1480.411884,-9104.533087,1072.533697
163415.984466,2812.782580,-10140.821405,3217.601092
163415.984785,1110.308913,-9474.636058,2374.896044
163415.985105,0.000000,-5995.668130,612.876398
163415.985424,2738.761985,-7105.977043,2068.457845
163415.985743,1184.329507,-7105.977043,0.000000
163415.986063,-1332.370696,-9030.512492,-919.314598
163415.986382,-666.185348,-9474.636058,-1302.362347
163415.986702,-74.020594,-11251.130318,-689.485948
163415.987021,-2368.659014,-10732.986159,-3677.258390
163415.987340,-2368.659014,-13397.727550,-459.657299
163415.987660,-74.020594,-11251.130318,-76.609550
163415.987979,1184.329507,-8808.450710,1608.800546
163415.988299,-2368.659014,-7476.080014,0.000000
163415.988618,-370.102971,-9474.636058,-76.609550
163415.988937,-74.020594,-8882.471304,-76.609550
163415.989257,666.185348,-8364.327145,536.266849
163415.989576,-2072.576638,-7179.997637,-2451.505594
163415.989896,-1702.473667,-9474.636058,0.000000
163415.990215,-2368.659014,-7179.997637,0.000000
163415.990534,1110.308913,-9474.636058,-76.609550
163415.990854,-666.185348,-9474.636058,-1302.362347
163415.991173,-2368.659014,-9548.656652,0.000000
163415.991492,-1258.350101,-10140.821405,-689.485948
163415.991812,-592.164754,-10140.821405,-229.828649
163415.992131,-592.164754,-10881.027347,-383.047749
163415.992451,-592.164754,-10436.903782,0.000000
163415.992770,2886.803174,-9474.636058,1991.848295
163415.993089,1776.494261,-8808.450710,2374.896044
163415.993409,-666.185348,-8882.471304,-383.047749
163415.993728,-2368.659014,-8660.409521,-3064.381992
163415.994048,-1184.329507,-9844.739029,2451.505594
163415.994367,-3849.070898,-7772.162391,-2451.505594
163415.994686,-3182.885551,-10881.027347,-842.705048
163415.995006,-3108.864956,-9696.697840,0.000000
163415.995325,-1258.350101,-7328.038826,383.047749
163415.995644,-74.020594,-7105.977043,-76.609550
163415.995964,-592.164754,-7994.224174,-1302.362347
163415.996283,-2220.617826,-8956.491898,0.000000
163415.996603,-2368.659014,-7772.162391,612.876398
163415.996922,1110.308913,-10658.965565,-76.609550
163415.997241,-1258.350101,-9622.677246,-2451.505594
163415.997561,1110.308913,-11621.233289,383.047749
163415.997880,1406.391290,-9252.574275,306.438199
163415.998200,74.020594,-8808.450710,-1838.629195
163415.998519,-1850.514855,-10066.800811,-3064.381992
163415.998838,-1036.288319,-13027.624579,-842.705048
163415.999158,-518.144159,-9474.636058,-995.924147
163415.999477,666.185348,-9474.636058,-229.828649
163415.999797,740.205942,-9326.594869,1225.752797
163416.000116,592.164754,-7179.997637,1532.190996
163416.000435,1184.329507,-4737.318029,2374.896044
163416.000755,1480.411884,-4811.338623,612.876398
163416.001074,0.000000,-8956.491898,612.876398
163416.001393,-74.020594,-11325.150913,2145.067394
163416.001713,-74.020594,-9474.636058,-76.609550
163416.002032,-74.020594,-12065.356855,-689.485948
163416.002352,-1628.453072,-12509.480420,-2145.067394
163416.002671,-888.247130,-11177.109724,-1149.143247
163416.002990,148.041188,-8956.491898,-1455.581446
163416.003310,-1406.391290,-8956.491898,-2987.772442
163416.003629,-2664.741391,-9844.739029,-2987.772442
163416.003949,-1258.350101,-10066.800811,-689.485948
163416.004268,-666.185348,-6735.874072,-2221.676944
163416.004587,0.000000,-9548.656652,383.047749
163416.004907,2294.638420,-9474.636058,-76.609550
163416.005226,1184.329507,-7698.141797,2757.943793
163416.005545,2072.576638,-6069.688724,1608.800546
163416.005865,0.000000,-7994.224174,-459.657299
163416.006184,-444.123565,-10140.821405,-76.609550
163416.006504,296.082377,-10140.821405,1225.752797
163416.006823,-74.020594,-9992.780217,-76.609550
163416.007142,-74.020594,-13027.624579,-1302.362347
163416.007462,-2442.679609,-11843.295072,-2757.943793
163416.007781,-518.144159,-9844.739029,0.000000
163416.008101,-74.020594,-8882.471304,-1302.362347
163416.008420,-1480.411884,-9400.615463,-612.876398
163416.008739,-1998.556043,-9844.739029,-306.438199
163416.009059,-592.164754,-9030.512492,919.314598
163416.009378,1702.473667,-9474.636058,3600.648841
163416.009698,296.082377,-8956.491898,612.876398
163416.010017,1406.391290,-10362.883188,3907.087040
163416.010336,518.144159,-6513.812290,2068.457845
163416.010656,0.000000,-4811.338623,-1302.362347
163416.010975,-4737.318029,-6291.750507,-3677.258390
163416.011294,-3627.009116,-9474.636058,-3140.991542
163416.011614,-3108.864956,-9844.739029,-2068.457845
163416.011933,-2590.720797,-10362.883188,-3064.381992
163416.012253,-2368.659014,-12287.418637,-1991.848295
163416.012572,0.000000,-11917.315666,-612.876398
163416.012891,0.000000,-9548.656652,0.000000
163416.013211,-888.247130,-9548.656652,-1225.752797
163416.013530,-74.020594,-13027.624579,-76.609550
163416.013850,-74.020594,-9474.636058,-1302.362347
163416.014169,0.000000,-6587.832884,1225.752797
163416.014488,3478.967927,-9400.615463,2068.457845
163416.014808,2294.638420,-8660.409521,2987.772442
163416.015127,3034.844362,-7328.038826,2987.772442
163416.015446,2812.782580,-4811.338623,1455.581446
163416.015766,1110.308913,-7105.977043,-1302.362347
163416.016085,-2368.659014,-8956.491898,-1991.848295
163416.016405,-2442.679609,-9622.677246,-2834.553343
163416.016724,-2960.823768,-9548.656652,-2451.505594
163416.017043,-74.020594,-13619.789333,-383.047749
163416.017363,-3552.988522,-10732.986159,-2451.505594
163416.017682,962.267725,-10881.027347,-76.609550
163416.018002,1258.350101,-7920.203579,229.828649
163416.018321,-666.185348,-8364.327145,-1302.362347
163416.018640,-74.020594,-9326.594869,-2528.115143
163416.018960,1702.473667,-8882.471304,-76.609550
163416.019279,1110.308913,-7476.080014,0.000000
163416.019599,296.082377,-8438.347739,1225.752797
163416.019918,2294.638420,-9622.677246,2528.115143
163416.020237,4367.215058,-10658.965565,4213.525239
163416.020557,0.000000,-5551.544565,0.000000
163416.020876,-1702.473667,-8586.388927,-2604.724693
163416.021195,-2220.617826,-9548.656652,-2834.553343
163416.021515,-1036.288319,-10214.842000,-1915.238745
163416.021834,814.226536,-9474.636058,-1302.362347
163416.022154,1036.288319,-12139.377449,-76.609550
163416.022473,1110.308913,-10510.924376,536.266849
163416.022792,1480.411884,-8290.306550,1149.143247
163416.023112,0.000000,-7772.162391,0.000000
163416.023431,-74.020594,-11843.295072,-76.609550
163416.023751,-1776.494261,-8956.491898,-1302.362347
163416.024070,-740.205942,-9992.780217,0.000000
163416.024389,0.000000,-9844.739029,76.609550
163416.024709,0.000000,-8956.491898,0.000000
163416.025028,0.000000,-7179.997637,1225.752797
163416.025348,1184.329507,-7105.977043,1685.410096
163416.025667,1110.308913,-8660.409521,2374.896044
163416.025986,-666.185348,-8882.471304,-76.609550
163416.026306,-1554.432478,-8290.306550,-1915.238745
163416.026625,-148.041188,-10362.883188,1149.143247
163416.026944,-2146.597232,-9474.636058,-1225.752797
163416.027264,-2294.638420,-11177.109724,-1762.019645
163416.027583,-1554.432478,-11843.295072,-612.876398
163416.027903,-2368.659014,-9548.656652,0.000000
163416.028222,-2368.659014,-9548.656652,-2451.505594
163416.028541,-4737.318029,-9548.656652,-3677.258390
163416.028861,-74.020594,-10658.965565,-1302.362347
163416.029180,-1628.453072,-8956.491898,0.000000
163416.029500,1702.473667,-8290.306550,-76.609550
163416.029819,962.267725,-9548.656652,2374.896044
163416.030138,1776.494261,-7179.997637,3217.601092
163416.030458,2220.617826,-6143.709319,2451.505594
163416.030777,296.082377,-5995.668130,995.924147
163416.031096,-3552.988522,-7179.997637,0.000000
163416.031416,-3552.988522,-7179.997637,-2451.505594
163416.031735,-1184.329507,-9548.656652,0.000000
163416.032055,-666.185348,-11251.130318,-689.485948
163416.032374,-1554.432478,-10658.965565,-3140.991542
163416.032693,-74.020594,-13619.789333,-76.609550
163416.033013,-962.267725,-9030.512492,-919.314598
163416.033332,-2294.638420,-8956.491898,-2374.896044
163416.033652,-2368.659014,-9622.677246,-2221.676944
163416.033971,0.000000,-8660.409521,0.000000
163416.034290,1924.535449,-8882.471304,995.924147
163416.034610,2294.638420,-9474.636058,1455.581446
163416.034929,370.102971,-8290.306550,536.266849
163416.035249,592.164754,-7772.162391,2757.943793
163416.035568,3478.967927,-9474.636058,2374.896044
163416.035887,-2368.659014,-8364.327145,-1838.629195
163416.036207,-1702.473667,-10288.862594,-2145.067394
163416.036526,-222.061783,-10362.883188,-612.876398
163416.036845,370.102971,-9844.739029,-766.095498
163416.037165,-1406.391290,-8660.409521,-4290.134789
163416.037484,1184.329507,-11843.295072,-153.219100
163416.037804,1406.391290,-9844.739029,1225.752797
163416.038123,222.061783,-8438.347739,-536.266849
163416.038442,-1258.350101,-9474.636058,-76.609550
163416.038762,-74.020594,-10658.965565,-76.609550
163416.039081,3182.885551,-10658.965565,2221.676944
163416.039401,666.185348,-7179.997637,153.219100
163416.039720,1184.329507,-8956.491898,1838.629195
163416.040039,1184.329507,-8438.347739,1838.629195
163416.040359,-1036.288319,-5107.421000,0.000000
163416.040678,-1258.350101,-8290.306550,-1455.581446
163416.040997,-3478.967927,-9178.553681,-1838.629195
163416.041317,-2516.700203,-9474.636058,-1532.190996
163416.041636,-74.020594,-10436.903782,612.876398
163416.041956,0.000000,-9770.718434,306.438199
163416.042275,0.000000,-11029.068536,766.095498
163416.042594,2294.638420,-11843.295072,3447.429741
163416.042914,1110.308913,-8290.306550,-76.609550
163416.043233,-1776.494261,-8364.327145,0.000000
163416.043553,-2960.823768,-9548.656652,-3677.258390
163416.043872,-1998.556043,-11177.109724,-2298.286494
163416.044191,-740.205942,-10881.027347,-1302.362347
163416.044511,-1184.329507,-10066.800811,-1378.971896
163416.044830,-1702.473667,-9178.553681,-2757.943793
163416.045150,0.000000,-8512.368333,612.876398
163416.045469,1776.494261,-7772.162391,3064.381992
163416.045788,2886.803174,-8290.306550,1455.581446
163416.046108,0.000000,-7550.100608,1149.143247
163416.046427,1184.329507,-9548.656652,4290.134789
163416.046746,1702.473667,-7328.038826,1915.238745
163416.047066,0.000000,-8660.409521,459.657299
163416.047385,-888.247130,-10732.986159,0.000000
163416.047705,-2368.659014,-8364.327145,-2145.067394
163416.048024,-3108.864956,-7179.997637,-3064.381992
163416.048343,-5107.421000,-8364.327145,-5515.887586
163416.048663,-5181.441594,-10732.986159,-3677.258390
163416.048982,-2516.700203,-11029.068536,-3677.258390
163416.049302,-74.020594,-11843.295072,-76.609550
163416.049621,-592.164754,-10732.986159,0.000000
163416.049940,0.000000,-9326.594869,1149.143247
163416.050260,2368.659014,-7402.059420,3064.381992
163416.050579,3108.864956,-5403.503377,2681.334243
163416.050898,0.000000,-5995.668130,383.047749
163416.051218,1702.473667,-9474.636058,-76.609550
163416.051537,370.102971,-7624.121203,0.000000
163416.051857,370.102971,-8364.327145,-2451.505594
163416.052176,-2368.659014,-11917.315666,-1225.752797
163416.052495,-74.020594,-13915.871710,-1302.362347
163416.052815,-1702.473667,-10732.986159,-2451.505594
163416.053134,-1258.350101,-9696.697840,-2987.772442
163416.053454,-2442.679609,-10807.006753,-3294.210641
163416.053773,-1776.494261,-11177.109724,-689.485948
163416.054092,592.164754,-9696.697840,1455.581446
163416.054412,2294.638420,-9474.636058,1455.581446
163416.054731,1480.411884,-8290.306550,1762.019645
163416.055051,1776.494261,-6587.832884,3677.258390
163416.055370,4367.215058,-5699.585753,2451.505594
163416.055689,3478.967927,-5921.647536,1149.143247
163416.056009,-888.247130,-8438.347739,-306.438199
163416.056328,-1406.391290,-10436.903782,-689.485948
163416.056647,-888.247130,-10140.821405,-689.485948
163416.056967,-888.247130,-11473.192101,-76.609550
163416.057286,-2368.659014,-11621.233289,-1225.752797
163416.057606,-2072.576638,-10140.821405,0.000000
163416.057925,-74.020594,-9918.759623,-76.609550
163416.058244,-666.185348,-9474.636058,-1302.362347
163416.058564,-3923.091493,-7772.162391,-4903.011187
163416.058883,-74.020594,-10066.800811,-76.609550
163416.059203,1554.432478,-9326.594869,459.657299
163416.059522,1406.391290,-9622.677246,842.705048
163416.059841,222.061783,-9844.739029,1072.533697
163416.060161,1850.514855,-9548.656652,3064.381992
163416.060480,-1184.329507,-5403.503377,0.000000
163416.060799,-2072.576638,-7772.162391,-1225.752797
163416.061119,-1036.288319,-10584.944971,0.000000
163416.061438,1036.288319,-10955.047942,1991.848295
163416.061758,0.000000,-5995.668130,0.000000
163416.062077,222.061783,-9178.553681,229.828649
163416.062396,-148.041188,-10214.842000,229.828649
163416.062716,0.000000,-9474.636058,1378.971896
163416.063035,-370.102971,-7994.224174,-76.609550
163416.063355,-2146.597232,-8882.471304,-1302.362347
163416.063674,-3108.864956,-10214.842000,-3370.820191
163416.063993,-1702.473667,-10732.986159,-3677.258390
163416.064313,-1480.411884,-11325.150913,-229.828649
163416.064632,-1258.350101,-11029.068536,1149.143247
163416.064952,-4737.318029,-7772.162391,0.000000
163416.065271,1036.288319,-8068.244768,995.924147
163416.065590,962.267725,-6735.874072,689.485948
163416.065910,-370.102971,-7772.162391,536.266849
163416.066229,-74.020594,-8290.306550,-76.609550
163416.066548,-74.020594,-8586.388927,842.705048
163416.066868,-814.226536,-8290.306550,-689.485948
163416.067187,-3552.988522,-8364.327145,-2451.505594
163416.067507,-2220.617826,-10881.027347,-1225.752797
163416.067826,-592.164754,-11621.233289,1838.629195
163416.068145,-1998.556043,-8438.347739,-2451.505594
163416.068465,-2072.576638,-9844.739029,-3524.039291
163416.068784,-1776.494261,-11325.150913,-3600.648841
163416.069104,-296.082377,-10955.047942,-1378.971896
163416.069423,-74.020594,-9326.594869,-1302.362347
163416.069742,2294.638420,-11843.295072,3600.648841
163416.070062,3478.967927,-8882.471304,2068.457845
163416.070381,2960.823768,-5995.668130,3064.381992
163416.070700,0.000000,-4811.338623,2145.067394
163416.071020,-2368.659014,-5995.668130,0.000000
163416.071339,-222.061783,-9326.594869,-153.219100
163416.071659,296.082377,-9844.739029,76.609550
163416.071978,-814.226536,-9178.553681,-995.924147
163416.072297,-1258.350101,-9770.718434,-2528.115143
163416.072617,-1924.535449,-10288.862594,-2757.943793
163416.072936,0.000000,-8364.327145,-1838.629195
163416.073256,148.041188,-9548.656652,-2451.505594
163416.073575,-74.020594,-11843.295072,-689.485948
163416.073894,-1628.453072,-9548.656652,-4290.134789
163416.074214,1110.308913,-11547.212695,-842.705048
163416.074533,148.041188,-11029.068536,0.000000
163416.074853,370.102971,-10510.924376,689.485948
163416.075172,2664.741391,-9252.574275,1762.019645
163416.075491,4663.297435,-9178.553681,2987.772442
163416.075811,444.123565,-7031.956449,0.000000
163416.076130,444.123565,-8290.306550,612.876398
163416.076449,1702.473667,-8216.285956,1072.533697
163416.076769,1924.535449,-8290.306550,1838.629195
163416.077088,0.000000,-7179.997637,0.000000
163416.077408,-3552.988522,-8364.327145,-2451.505594
163416.077727,0.000000,-10140.821405,0.000000
163416.078046,-74.020594,-9104.533087,-76.609550
163416.078366,-2072.576638,-8512.368333,-2757.943793
163416.078685,-74.020594,-13027.624579,-1608.800546
163416.079005,-888.247130,-11399.171507,-1838.629195
163416.079324,0.000000,-10807.006753,-536.266849
163416.079643,-1184.329507,-10881.027347,229.828649
163416.079963,0.000000,-9844.739029,153.219100
163416.080282,1924.535449,-8068.244768,2757.943793
163416.080601,1110.308913,-5403.503377,1532.190996
163416.080921,518.144159,-7105.977043,1915.238745
163416.081240,-74.020594,-7698.141797,-76.609550
163416.081560,-370.102971,-7994.224174,-995.924147
163416.081879,-666.185348,-10510.924376,-842.705048
163416.082198,-4219.173869,-10584.944971,-2068.457845
163416.082518,-3923.091493,-11769.274478,-1915.238745
163416.082837,-2146.597232,-10955.047942,-842.705048
163416.083157,-1554.432478,-10584.944971,-995.924147
163416.083476,-3256.906145,-10140.821405,-2834.553343
163416.083795,-1258.350101,-12731.542202,-76.609550
163416.084115,-74.020594,-10066.800811,-76.609550
163416.084434,-1184.329507,-9104.533087,306.438199
163416.084753,-1850.514855,-8734.430116,0.000000
163416.085073,-222.061783,-8586.388927,2221.676944
163416.085392,1480.411884,-6957.935855,2374.896044
163416.085711,296.082377,-6291.750507,383.047749
163416.086031,-1850.514855,-9474.636058,-76.609550
163416.086350,-740.205942,-11843.295072,2374.896044
163416.086669,-1184.329507,-9548.656652,1532.190996
163416.086989,-1628.453072,-10732.986159,-459.657299
163416.087308,-3627.009116,-11843.295072,-1532.190996
163416.087627,-3256.906145,-10140.821405,-1838.629195
163416.087947,-1258.350101,-6587.832884,-1455.581446
163416.088266,-1554.432478,-8660.409521,-1225.752797
163416.088585,-1036.288319,-9474.636058,-1991.848295
163416.088905,0.000000,-10214.842000,-1072.533697
163416.089224,2886.803174,-11843.295072,-76.609550
163416.089543,-1776.494261,-10140.821405,-1225.752797
163416.089863,-74.020594,-12731.542202,689.485948
163416.090182,962.267725,-9178.553681,536.266849
163416.090501,1406.391290,-6217.729913,0.000000
163416.090821,0.000000,-7179.997637,306.438199
163416.091140,-222.061783,-8660.409521,229.828649
163416.091459,2516.700203,-8956.491898,1838.629195
163416.091779,2812.782580,-8364.327145,1608.800546
163416.092098,1036.288319,-9400.615463,229.828649
163416.092417,518.144159,-9400.615463,-842.705048
163416.092737,0.000000,-8364.327145,0.000000
163416.093056,444.123565,-8660.409521,-3677.258390
163416.093375,-1036.288319,-11029.068536,-1532.190996
163416.093694,-962.267725,-12139.377449,-1915.238745
163416.094014,0.000000,-10732.986159,0.000000
163416.094333,518.144159,-10658.965565,-459.657299
163416.094652,74.020594,-11177.109724,306.438199
163416.094972,740.205942,-10140.821405,1685.410096
163416.095291,1776.494261,-5995.668130,1838.629195
163416.095610,1110.308913,-4589.276840,229.828649
163416.095930,-592.164754,-6365.771101,-689.485948
163416.096249,0.000000,-8364.327145,919.314598
163416.096568,2294.638420,-9474.636058,1838.629195
163416.096888,1110.308913,-10510.924376,1762.019645
163416.097207,-4145.153275,-9548.656652,-1838.629195
163416.097526,-3034.844362,-10584.944971,-2374.896044
163416.097846,-1554.432478,-9622.677246,-1838.629195
163416.098165,-296.082377,-8734.430116,-2604.724693
163416.098484,-2886.803174,-7920.203579,-4519.963438
163416.098804,-666.185348,-13027.624579,-76.609550
163416.099123,0.000000,-9548.656652,-1532.190996
163416.099442,0.000000,-9696.697840,153.219100
163416.099762,0.000000,-9548.656652,1532.190996
163416.100081,3478.967927,-10658.965565,3600.648841
163416.100400,2960.823768,-6883.915261,2528.115143
163416.100720,2664.741391,-6439.791695,1378.971896
163416.101039,-74.020594,-8364.327145,1149.143247
163416.101358,-296.082377,-8956.491898,1455.581446
163416.101678,-74.020594,-8882.471304,536.266849
163416.101997,-74.020594,-10658.965565,-689.485948
163416.102316,-3627.009116,-10584.944971,-1302.362347
163416.102636,-3627.009116,-8142.265362,-2681.334243
163416.102955,-1184.329507,-7179.997637,-1225.752797
163416.103274,-74.020594,-9474.636058,-1302.362347
163416.103593,-2368.659014,-9844.739029,-2451.505594
163416.103913,-2146.597232,-10510.924376,-1838.629195
163416.104232,-2146.597232,-10066.800811,-383.047749
163416.104551,-2368.659014,-9844.739029,-612.876398
163416.104871,-2368.659014,-10436.903782,-919.314598
163416.105190,888.247130,-9844.739029,0.000000
163416.105509,3478.967927,-8290.306550,2068.457845
163416.105829,-814.226536,-6365.771101,-1302.362347
163416.106148,-2442.679609,-6883.915261,-2911.162892
163416.106467,1702.473667,-10066.800811,1149.143247
163416.106787,0.000000,-8660.409521,383.047749
163416.107106,-592.164754,-9178.553681,383.047749
163416.107425,-888.247130,-10140.821405,229.828649
163416.107745,1184.329507,-9252.574275,3983.696590
163416.108064,1258.350101,-6587.832884,0.000000
163416.108383,-2072.576638,-7772.162391,0.000000
163416.108703,-1258.350101,-10362.883188,-2221.676944
163416.109022,-74.020594,-13027.624579,766.095498
163416.109341,-74.020594,-12435.459826,-76.609550
163416.109661,-2368.659014,-11399.171507,0.000000
163416.109980,-962.267725,-11325.150913,0.000000
163416.110299,1258.350101,-8660.409521,1685.410096
163416.110619,1924.535449,-6587.832884,2451.505594
163416.110938,-1258.350101,-7402.059420,1455.581446
163416.111257,-74.020594,-8882.471304,-76.609550
163416.111577,592.164754,-7328.038826,1378.971896
163416.111896,0.000000,-7179.997637,1225.752797
163416.112215,-740.205942,-11843.295072,-76.609550
163416.112535,-2368.659014,-10732.986159,0.000000
163416.112854,0.000000,-8438.347739,-459.657299
163416.113173,-296.082377,-7624.121203,-2451.505594
163416.113492,-2146.597232,-9918.759623,-4136.915689
163416.113812,-3849.070898,-9548.656652,-6741.640382
163416.114131,-74.020594,-11843.295072,-1685.410096
163416.114450,148.041188,-11399.171507,-689.485948
163416.114770,814.226536,-11251.130318,153.219100
163416.115089,2664.741391,-10288.862594,1302.362347
163416.115408,6439.791695,-8882.471304,2987.772442
163416.115728,4663.297435,-9104.533087,3983.696590
163416.116047,1110.308913,-7105.977043,842.705048
163416.116366,592.164754,-7772.162391,1225.752797
163416.116686,3404.947333,-8660.409521,3907.087040
163416.117005,0.000000,-5995.668130,0.000000
163416.117324,-1850.514855,-9844.739029,-689.485948
163416.117644,-1850.514855,-9992.780217,-842.705048
163416.117963,-666.185348,-8290.306550,-1072.533697
163416.118282,-222.061783,-8882.471304,-2911.162892
163416.118602,-2516.700203,-9326.594869,-4673.182538
163416.118921,-2368.659014,-11177.109724,-2145.067394
163416.119240,-1406.391290,-11251.130318,-76.609550
163416.119560,-1258.350101,-12731.542202,-76.609550
163416.119879,-1776.494261,-11325.150913,1378.971896
163416.120198,0.000000,-8364.327145,612.876398
163416.120518,2294.638420,-6513.812290,1838.629195
163416.120837,444.123565,-7179.997637,153.219100
163416.121156,-592.164754,-8734.430116,459.657299
163416.121476,518.144159,-8068.244768,76.609550
163416.121795,666.185348,-8364.327145,459.657299
163416.122114,-666.185348,-10214.842000,0.000000
163416.122434,-74.020594,-11843.295072,-76.609550
163416.122753,-74.020594,-10066.800811,-76.609550
163416.123072,1184.329507,-9918.759623,1991.848295
163416.123391,-3034.844362,-8216.285956,-2757.943793
163416.123711,-3627.009116,-10362.883188,-2451.505594
163416.124030,-2368.659014,-10510.924376,-1532.190996
163416.124349,-814.226536,-9918.759623,0.000000
163416.124669,-1776.494261,-9548.656652,0.000000
163416.124988,1036.288319,-7476.080014,229.828649
163416.125307,2960.823768,-7772.162391,3983.696590
163416.125627,3182.885551,-5921.647536,536.266849
163416.125946,-1110.308913,-7698.141797,-383.047749
163416.126265,-740.205942,-11547.212695,842.705048
163416.126585,-888.247130,-10436.903782,-689.485948
163416.126904,-1110.308913,-10584.944971,-995.924147
163416.127223,-2516.700203,-11103.089130,-1225.752797
163416.127543,-4145.153275,-8364.327145,0.000000
163416.127862,0.000000,-7402.059420,-383.047749
163416.128181,1110.308913,-6513.812290,-2221.676944
163416.128501,-1776.494261,-8364.327145,-2451.505594
163416.128820,-3404.947333,-8660.409521,-3064.381992
163416.129139,2294.638420,-10658.965565,-76.609550
163416.129459,962.267725,-11547.212695,612.876398
163416.129778,0.000000,-11103.089130,-306.438199
163416.130097,1258.350101,-10288.862594,383.047749
163416.130417,2072.576638,-7994.224174,919.314598
163416.130736,0.000000,-6883.915261,-383.047749
163416.131055,-740.205942,-9474.636058,-689.485948
163416.131375,518.144159,-10066.800811,2374.896044
163416.131694,2294.638420,-9474.636058,1149.143247
163416.132013,0.000000,-8068.244768,766.095498
163416.132333,-74.020594,-8290.306550,-76.609550
163416.132652,296.082377,-8068.244768,1685.410096
163416.132971,1110.308913,-6513.812290,689.485948
163416.133290,0.000000,-7994.224174,-919.314598
163416.133610,-1850.514855,-11399.171507,-1608.800546
163416.133929,-2072.576638,-11547.212695,-229.828649
163416.134248,-2220.617826,-11251.130318,-76.609550
163416.134568,-1258.350101,-11843.295072,-2528.115143
163416.134887,-2960.823768,-10140.821405,-1838.629195
163416.135206,296.082377,-9548.656652,0.000000
163416.135526,1110.308913,-7105.977043,-995.924147
163416.135845,-1184.329507,-9252.574275,-689.485948
163416.136164,-2072.576638,-9696.697840,-842.705048
163416.136484,-444.123565,-9400.615463,536.266849
163416.136803,2294.638420,-11843.295072,2374.896044
163416.137122,-74.020594,-9770.718434,0.000000
163416.137442,814.226536,-11399.171507,2834.553343
163416.137761,1110.308913,-8290.306550,1149.143247
163416.138080,1406.391290,-9474.636058,-76.609550
163416.138400,-2960.823768,-7179.997637,-2451.505594
163416.138719,-1258.350101,-10066.800811,-2834.553343
163416.139038,-1554.432478,-11103.089130,-1378.971896
163416.139358,-1850.514855,-10807.006753,-1762.019645
163416.139677,-2220.617826,-11695.253884,-1149.143247
163416.139996,-74.020594,-11621.233289,995.924147
163416.140316,0.000000,-7179.997637,1225.752797
163416.140635,592.164754,-7772.162391,1225.752797
163416.140954,-74.020594,-11251.130318,2374.896044
163416.141274,-74.020594,-9474.636058,1149.143247
163416.141593,0.000000,-5995.668130,1225.752797
163416.141912,1110.308913,-8956.491898,842.705048
163416.142232,-1332.370696,-9104.533087,229.828649
163416.142551,-1258.350101,-9252.574275,0.000000
163416.142870,-74.020594,-6883.915261,-689.485948
163416.143189,-1258.350101,-7698.141797,-2834.553343
163416.143509,-3849.070898,-9252.574275,-3753.867940
163416.143828,-2442.679609,-10066.800811,-4366.744339
163416.144147,-1776.494261,-10732.986159,-1838.629195
163416.144467,1702.473667,-12731.542202,-76.609550
163416.144786,0.000000,-10140.821405,0.000000
163416.145105,2664.741391,-10436.903782,1149.143247
163416.145425,3256.906145,-7772.162391,1455.581446
163416.145744,666.185348,-7179.997637,-536.266849
163416.146063,-962.267725,-7476.080014,-2451.505594
163416.146383,962.267725,-9400.615463,1455.581446
163416.146702,518.144159,-7179.997637,306.438199
163416.147021,1184.329507,-8660.409521,1532.190996
163416.147341,740.205942,-9844.739029,612.876398
163416.147660,0.000000,-8364.327145,1532.190996
163416.147979,296.082377,-5625.565159,0.000000
163416.148299,-1258.350101,-7698.141797,-2298.286494
163416.148618,-3330.926739,-9770.718434,-3370.820191
163416.148937,-1776.494261,-10288.862594,-2068.457845
163416.149257,-962.267725,-9252.574275,-1915.238745
163416.149576,-74.020594,-13027.624579,-76.609550
163416.149895,-1258.350101,-10066.800811,-1608.800546
163416.150215,0.000000,-8808.450710,0.000000
163416.150534,888.247130,-7179.997637,1225.752797
163416.150853,-3552.988522,-7179.997637,0.000000
163416.151173,-1924.535449,-9548.656652,-612.876398
163416.151492,1628.453072,-8734.430116,1608.800546
163416.151811,2294.638420,-8438.347739,2221.676944
163416.152131,74.020594,-8142.265362,-383.047749
163416.152450,-1184.329507,-9548.656652,76.609550
163416.152769,0.000000,-8068.244768,612.876398
163416.153088,1110.308913,-8512.368333,0.000000
163416.153408,-666.185348,-11103.089130,-1608.800546
163416.153727,-6513.812290,-9548.656652,-3677.258390
163416.154046,-2442.679609,-9770.718434,-2451.505594
163416.154366,-888.247130,-11325.150913,-842.705048
163416.154685,0.000000,-10584.944971,0.000000
163416.155004,740.205942,-9474.636058,766.095498
163416.155324,4071.132681,-8882.471304,4826.401637
163416.155643,740.205942,-6143.709319,919.314598
163416.155962,-444.123565,-8142.265362,1149.143247
163416.156282,-740.205942,-9326.594869,766.095498
163416.156601,296.082377,-9696.697840,2145.067394
163416.156920,-2368.659014,-7772.162391,612.876398
163416.157240,-4737.318029,-7772.162391,-1838.629195
163416.157559,-592.164754,-10955.047942,1149.143247
163416.157878,-666.185348,-7105.977043,-689.485948
163416.158198,-1924.535449,-5995.668130,-4213.525239
163416.158517,-666.185348,-9474.636058,-2528.115143
163416.158836,-3627.009116,-10140.821405,-3370.820191
163416.159156,-1258.350101,-10584.944971,-995.924147
163416.159475,-592.164754,-9992.780217,-766.095498
163416.159794,0.000000,-10436.903782,0.000000
163416.160114,2368.659014,-9770.718434,1915.238745
163416.160433,1184.329507,-6587.832884,1225.752797
163416.160752,1184.329507,-8512.368333,919.314598
163416.161072,-74.020594,-11251.130318,1149.143247
163416.161391,74.020594,-8438.347739,-2068.457845
163416.161710,2294.638420,-10066.800811,1149.143247
163416.162030,0.000000,-9030.512492,0.000000
163416.162349,148.041188,-9696.697840,229.828649
163416.162668,1554.432478,-8882.471304,612.876398
163416.162987,2294.638420,-7994.224174,1149.143247
163416.163307,-592.164754,-7994.224174,-1532.190996
163416.163626,-3182.885551,-9474.636058,-2528.115143
163416.163945,-2146.597232,-9770.718434,-2911.162892
163416.164265,-592.164754,-10732.986159,0.000000
163416.164584,-2146.597232,-8660.409521,-3524.039291
163416.164903,296.082377,-10732.986159,842.705048
163416.165223,1110.308913,-8290.306550,1532.190996
163416.165542,1406.391290,-6661.853478,0.000000
