#time,accel_x,accel_y,accel_z
163407.139591,-666.185348,-9252.574275,-2145.067394
163407.139910,-1036.288319,-7920.203579,-2451.505594
163407.140230,-296.082377,-7254.018232,-2834.553343
163407.140549,0.000000,-9844.739029,612.876398
163407.140868,-74.020594,-9474.636058,-995.924147
163407.141188,0.000000,-9474.636058,-689.485948
163407.141507,0.000000,-9548.656652,1225.752797
163407.141826,0.000000,-8734.430116,-153.219100
163407.142146,296.082377,-8956.491898,-76.609550
163407.142465,296.082377,-9252.574275,229.828649
163407.142784,-2368.659014,-6587.832884,-1532.190996
163407.143104,814.226536,-9474.636058,1455.581446
163407.143423,-222.061783,-7994.224174,-1225.752797
163407.143742,-1184.329507,-8364.327145,0.000000
163407.144062,0.000000,-8364.327145,612.876398
163407.144381,-74.020594,-9474.636058,-76.609550
163407.144700,-1184.329507,-9548.656652,459.657299
163407.145020,-1036.288319,-9474.636058,306.438199
163407.145339,-962.267725,-9104.533087,0.000000
163407.145659,-666.185348,-9252.574275,-229.828649
163407.145978,-370.102971,-8660.409521,0.000000
163407.146297,-666.185348,-9770.718434,-76.609550
163407.146617,-962.267725,-8882.471304,-995.924147
163407.146936,-2960.823768,-7179.997637,-2451.505594
163407.147255,444.123565,-10881.027347,-153.219100
163407.147575,-74.020594,-9474.636058,-2374.896044
163407.147894,-296.082377,-9918.759623,-536.266849
163407.148213,74.020594,-9696.697840,-689.485948
163407.148533,0.000000,-9548.656652,-612.876398
163407.148852,-370.102971,-9400.615463,-76.609550
163407.149171,370.102971,-9474.636058,-76.609550
163407.149491,1110.308913,-9104.533087,-76.609550
163407.149810,0.000000,-7179.997637,-1915.238745
163407.150129,0.000000,-9548.656652,0.000000
163407.150449,592.164754,-9474.636058,1225.752797
163407.150768,-1776.494261,-6291.750507,-2145.067394
163407.151088,148.041188,-9474.636058,229.828649
163407.151407,-148.041188,-9400.615463,76.609550
163407.151726,-370.102971,-9178.553681,153.219100
163407.152046,-74.020594,-10658.965565,-76.609550
163407.152365,1702.473667,-10658.965565,-76.609550
163407.152684,-74.020594,-11251.130318,2221.676944
163407.153004,-74.020594,-8882.471304,-76.609550
163407.153323,-1110.308913,-8364.327145,0.000000
163407.153642,0.000000,-9548.656652,1225.752797
163407.153962,-2146.597232,-8364.327145,-1838.629195
163407.154281,-888.247130,-9622.677246,-919.314598
163407.154600,-740.205942,-9326.594869,-689.485948
163407.154920,-370.102971,-9548.656652,-459.657299
163407.155239,-74.020594,-10658.965565,-76.609550
163407.155559,0.000000,-9548.656652,0.000000
163407.155878,1110.308913,-9474.636058,-76.609550
163407.156197,-962.267725,-8808.450710,-1378.971896
163407.156517,-2294.638420,-7772.162391,-1608.800546
163407.156836,0.000000,-9548.656652,1225.752797
163407.157155,-222.061783,-8734.430116,-612.876398
163407.157475,296.082377,-9104.533087,-153.219100
163407.157794,74.020594,-9548.656652,0.000000
163407.158113,222.061783,-9104.533087,0.000000
163407.158433,814.226536,-9252.574275,0.000000
163407.158752,0.000000,-8068.244768,0.000000
163407.159071,0.000000,-8512.368333,0.000000
163407.159391,2294.638420,-11547.212695,-76.609550
163407.159710,-666.185348,-9474.636058,-76.609550
163407.160029,0.000000,-9548.656652,1225.752797
163407.160349,-666.185348,-9252.574275,-383.047749
163407.160668,-518.144159,-9326.594869,0.000000
163407.160988,-888.247130,-9178.553681,0.000000
163407.161307,-2960.823768,-7179.997637,-2451.505594
163407.161626,-1258.350101,-8438.347739,-842.705048
163407.161946,-1184.329507,-8364.327145,-2451.505594
163407.162265,-74.020594,-10658.965565,-76.609550
163407.162584,-2368.659014,-7772.162391,-1762.019645
163407.162904,2294.638420,-11843.295072,-76.609550
163407.163223,0.000000,-9696.697840,0.000000
163407.163542,0.000000,-9252.574275,-229.828649
163407.163862,-222.061783,-9474.636058,-612.876398
163407.164181,0.000000,-9030.512492,-612.876398
163407.164500,-2368.659014,-7179.997637,0.000000
163407.164820,0.000000,-9178.553681,-689.485948
163407.165139,0.000000,-8364.327145,0.000000
163407.165458,1924.535449,-9918.759623,919.314598
163407.165778,2294.638420,-10658.965565,2374.896044
163407.166097,1776.494261,-9622.677246,2451.505594
163407.166417,1702.473667,-8882.471304,0.000000
163407.166736,1850.514855,-9474.636058,0.000000
163407.167055,1406.391290,-9696.697840,-536.266849
163407.167375,0.000000,-8364.327145,0.000000
163407.167694,1480.411884,-9548.656652,0.000000
163407.168013,2368.659014,-10436.903782,919.314598
163407.168333,3478.967927,-10066.800811,2374.896044
163407.168652,3182.885551,-7105.977043,-995.924147
163407.168971,2960.823768,-7772.162391,612.876398
163407.169291,3108.864956,-7254.018232,0.000000
163407.169610,4811.338623,-8586.388927,229.828649
163407.169929,4737.318029,-8364.327145,-612.876398
163407.170249,4441.235652,-9326.594869,-612.876398
163407.170568,5847.626942,-9474.636058,-1915.238745
163407.170887,3849.070898,-9548.656652,-1455.581446
163407.171207,4145.153275,-9326.594869,-1685.410096
163407.171526,5329.482782,-9696.697840,-1915.238745
163407.171846,6661.853478,-9326.594869,-76.609550
163407.172165,7698.141797,-9548.656652,995.924147
163407.172484,7105.977043,-7772.162391,612.876398
163407.172804,8808.450710,-11843.295072,-76.609550
163407.173123,4811.338623,-10436.903782,-383.047749
163407.173442,2738.761985,-11325.150913,0.000000
163407.173762,3478.967927,-11843.295072,-229.828649
163407.174081,3108.864956,-10955.047942,1072.533697
163407.174400,3627.009116,-8956.491898,1149.143247
163407.174720,4219.173869,-6809.894666,1302.362347
163407.175039,5995.668130,-5921.647536,1149.143247
163407.175358,5255.462188,-4737.318029,-383.047749
163407.175678,2960.823768,-5107.421000,-2298.286494
163407.175997,3997.112087,-7179.997637,-3677.258390
163407.176316,2960.823768,-9844.739029,-1838.629195
163407.176636,296.082377,-10732.986159,-4290.134789
163407.176955,2294.638420,-15988.448347,-1608.800546
163407.177275,666.185348,-16210.510130,842.705048
163407.177594,1184.329507,-13545.768739,2145.067394
163407.177913,1998.556043,-9548.656652,1532.190996
163407.178233,2368.659014,-6513.812290,-76.609550
163407.178552,2516.700203,-4737.318029,-76.609550
163407.178871,1480.411884,-2442.679609,-1915.238745
163407.179191,1480.411884,-5995.668130,612.876398
163407.179510,3478.967927,-8882.471304,1762.019645
163407.179829,-3552.988522,-6587.832884,0.000000
163407.180149,-1850.514855,-10362.883188,-995.924147
163407.180468,-296.082377,-11251.130318,229.828649
163407.180787,2220.617826,-10436.903782,459.657299
163407.181107,1924.535449,-9030.512492,-536.266849
163407.181426,1702.473667,-10658.965565,-76.609550
163407.181746,2294.638420,-13027.624579,2374.896044
163407.182065,3478.967927,-10658.965565,536.266849
163407.182384,0.000000,-7031.956449,-2451.505594
163407.182704,-518.144159,-8364.327145,-3524.039291
163407.183023,-3997.112087,-7179.997637,-4903.011187
163407.183342,1924.535449,-11991.336260,-383.047749
163407.183662,2960.823768,-11917.315666,2834.553343
163407.183981,2812.782580,-10140.821405,4213.525239
163407.184300,1702.473667,-7698.141797,1149.143247
163407.184620,2886.803174,-8882.471304,1149.143247
163407.184939,5033.400406,-8882.471304,1762.019645
163407.185258,5847.626942,-9178.553681,4826.401637
163407.185578,5847.626942,-8882.471304,2374.896044
163407.185897,2664.741391,-7772.162391,919.314598
163407.186216,-2812.782580,-7476.080014,-6128.763984
163407.186536,-3404.947333,-11473.192101,-8197.221829
163407.186855,-1998.556043,-14211.954086,-5745.716235
163407.187175,-222.061783,-14804.118840,-2451.505594
163407.187494,370.102971,-11695.253884,-1915.238745
163407.187813,1480.411884,-9844.739029,-1838.629195
163407.188133,7920.203579,-10584.944971,2451.505594
163407.188452,14137.933492,-8882.471304,9269.755526
163407.188771,12879.583391,-2886.803174,8503.660028
163407.189091,10584.944971,-2368.659014,7277.907231
163407.189410,5551.544565,-3627.009116,459.657299
163407.189729,4663.297435,-8956.491898,-383.047749
163407.190049,2886.803174,-11843.295072,0.000000
163407.190368,-1036.288319,-13101.645173,-1532.190996
163407.190687,-4737.318029,-13101.645173,-6128.763984
163407.191007,-5033.400406,-14285.974681,-11031.775171
163407.191326,-4145.153275,-14878.139434,-5515.887586
163407.191645,-814.226536,-13027.624579,-1608.800546
163407.191965,518.144159,-9326.594869,-383.047749
163407.192284,5551.544565,-8882.471304,3600.648841
163407.192604,5033.400406,-5329.482782,5209.449386
163407.192923,5329.482782,-2516.700203,7201.297681
163407.193242,3849.070898,-3701.029710,6741.640382
163407.193562,4145.153275,-6291.750507,6741.640382
163407.193881,1184.329507,-5921.647536,1762.019645
163407.194200,-4441.235652,-7772.162391,-2145.067394
163407.194520,-7254.018232,-13323.706956,-6128.763984
163407.194839,-10436.903782,-17764.942608,-8044.002729
163407.195158,-11029.068536,-15396.283594,-10955.165621
163407.195478,-8586.388927,-15174.221811,-6971.469032
163407.195797,-7179.997637,-12953.603985,-4673.182538
163407.196116,-2516.700203,-10881.027347,459.657299
163407.196436,2294.638420,-7105.977043,5745.716235
163407.196755,3552.988522,-1258.350101,7354.516781
163407.197074,3923.091493,0.000000,5286.058936
163407.197394,2368.659014,-2442.679609,5056.230287
163407.197713,0.000000,-4811.338623,4903.011187
163407.198033,444.123565,-11029.068536,3677.258390
163407.198352,-7476.080014,-11325.150913,-3677.258390
163407.198671,-9548.656652,-14359.995275,-5822.325785
163407.198991,-11029.068536,-13841.851115,-7048.078582
163407.199310,-8586.388927,-12435.459826,-6281.983084
163407.199629,-5403.503377,-13027.624579,-3753.867940
163407.199949,-2442.679609,-11399.171507,-1302.362347
163407.200268,222.061783,-7772.162391,3447.429741
163407.200587,3478.967927,-4145.153275,4213.525239
163407.200907,592.164754,-2442.679609,4903.011187
163407.201226,1184.329507,-4811.338623,4903.011187
163407.201545,2146.597232,-7179.997637,2911.162892
163407.201865,2738.761985,-9178.553681,3370.820191
163407.202184,444.123565,-9770.718434,-153.219100
163407.202503,-4071.132681,-11547.212695,-4903.011187
163407.202823,-3627.009116,-15396.283594,-6205.373534
163407.203142,-5107.421000,-14508.036463,-7354.516781
163407.203462,-2442.679609,-15100.201217,-4979.620737
163407.203781,-1554.432478,-12879.583391,-2834.553343
163407.204100,2442.679609,-9474.636058,-76.609550
163407.204420,4737.318029,-3627.009116,1225.752797
163407.204739,8068.244768,-3627.009116,4826.401637
163407.205058,7994.224174,-3182.885551,4903.011187
163407.205378,7846.182985,-5551.544565,4060.306139
163407.205697,6439.791695,-8290.306550,4213.525239
163407.206016,2368.659014,-10140.821405,1762.019645
163407.206336,-3849.070898,-11325.150913,-2374.896044
163407.206655,-2960.823768,-14211.954086,-3677.258390
163407.206974,-1184.329507,-13101.645173,-3677.258390
163407.207294,0.000000,-10436.903782,-3294.210641
163407.207613,-74.020594,-10658.965565,-2528.115143
163407.207933,-1184.329507,-8586.388927,-2834.553343
163407.208252,1702.473667,-8068.244768,-919.314598
163407.208571,2886.803174,-7031.956449,1225.752797
163407.208891,1184.329507,-7179.997637,4290.134789
163407.209210,1184.329507,-7179.997637,1915.238745
163407.209529,4071.132681,-8290.306550,4136.915689
163407.209849,5847.626942,-9474.636058,4213.525239
163407.210168,1998.556043,-7624.121203,229.828649
163407.210488,-74.020594,-11547.212695,-1302.362347
163407.210807,-3108.864956,-11029.068536,-4903.011187
163407.211126,-5625.565159,-10140.821405,-5822.325785
163407.211446,-3478.967927,-13027.624579,-2451.505594
163407.211765,-2960.823768,-12213.398043,-689.485948
163407.212085,-3552.988522,-7772.162391,0.000000
163407.212404,2072.576638,-8364.327145,2068.457845
163407.212723,1702.473667,-4811.338623,1991.848295
163407.213043,74.020594,-5699.585753,1072.533697
163407.213362,1110.308913,-7105.977043,536.266849
163407.213682,444.123565,-7179.997637,612.876398
163407.214001,-370.102971,-10658.965565,2374.896044
163407.214320,-4811.338623,-10214.842000,-1608.800546
163407.214640,-7105.977043,-9548.656652,-2451.505594
163407.214959,-2368.659014,-10732.986159,1378.971896
163407.215279,-4737.318029,-7772.162391,-2145.067394
163407.215598,-4293.194464,-8882.471304,-2068.457845
163407.215917,-3256.906145,-9252.574275,-1915.238745
163407.216237,-1480.411884,-8512.368333,-459.657299
163407.216556,-1850.514855,-7476.080014,-1072.533697
163407.216876,-1924.535449,-8882.471304,306.438199
163407.217195,-1628.453072,-10658.965565,1685.410096
163407.217514,2294.638420,-9474.636058,1149.143247
163407.217834,0.000000,-7772.162391,1225.752797
163407.218153,-592.164754,-11177.109724,2374.896044
163407.218473,-3701.029710,-9844.739029,-2757.943793
163407.218792,-1480.411884,-10732.986159,-1915.238745
163407.219111,-1258.350101,-10510.924376,-1149.143247
163407.219431,-2738.761985,-9548.656652,0.000000
163407.219750,-3552.988522,-7772.162391,-2451.505594
163407.220070,148.041188,-7179.997637,0.000000
163407.220389,2368.659014,-7328.038826,2757.943793
163407.220708,2886.803174,-6809.894666,1838.629195
163407.221028,2442.679609,-7105.977043,1762.019645
163407.221347,4145.153275,-10584.944971,3370.820191
163407.221667,1702.473667,-9770.718434,1302.362347
163407.221986,-592.164754,-10584.944971,-612.876398
163407.222305,-2516.700203,-11843.295072,-1991.848295
163407.222625,0.000000,-10732.986159,0.000000
163407.222944,592.164754,-10658.965565,-76.609550
163407.223263,814.226536,-8660.409521,-1302.362347
163407.223583,-1776.494261,-8068.244768,-2374.896044
163407.223902,0.000000,-7179.997637,-2145.067394
163407.224222,3478.967927,-8290.306550,-76.609550
163407.224541,2072.576638,-8290.306550,1455.581446
163407.224860,-444.123565,-8068.244768,-689.485948
163407.225180,1110.308913,-9252.574275,-153.219100
163407.225499,3552.988522,-9474.636058,1225.752797
163407.225819,1036.288319,-8512.368333,1072.533697
163407.226138,-74.020594,-8142.265362,-2374.896044
163407.226457,-1480.411884,-9844.739029,-2451.505594
163407.226777,-2368.659014,-9548.656652,-3370.820191
163407.227096,0.000000,-11029.068536,-612.876398
163407.227416,-1258.350101,-9474.636058,-4366.744339
163407.227735,0.000000,-11325.150913,-383.047749
163407.228054,2886.803174,-9918.759623,1149.143247
163407.228374,3404.947333,-7846.182985,1915.238745
163407.228693,1702.473667,-8290.306550,2374.896044
163407.229013,1036.288319,-9474.636058,-76.609550
163407.229332,1406.391290,-8734.430116,1762.019645
163407.229651,-74.020594,-9178.553681,536.266849
163407.229971,-2368.659014,-9548.656652,0.000000
163407.230290,-4737.318029,-9548.656652,0.000000
163407.230610,-1554.432478,-9326.594869,-1608.800546
163407.230929,-666.185348,-8808.450710,306.438199
163407.231248,-2738.761985,-7105.977043,0.000000
163407.231568,-3627.009116,-7105.977043,-1608.800546
163407.231887,-74.020594,-10658.965565,-76.609550
163407.232207,-74.020594,-9474.636058,0.000000
163407.232526,-74.020594,-11547.212695,-76.609550
163407.232845,-2590.720797,-9696.697840,-1378.971896
163407.233165,0.000000,-10732.986159,0.000000
163407.233484,0.000000,-9548.656652,1225.752797
163407.233804,-1258.350101,-8438.347739,-1302.362347
163407.234123,-2738.761985,-9474.636058,-2221.676944
163407.234442,-2442.679609,-10807.006753,-2451.505594
163407.234762,-592.164754,-10584.944971,-766.095498
163407.235081,-74.020594,-10658.965565,536.266849
163407.235401,-4737.318029,-8364.327145,0.000000
163407.235720,-74.020594,-9474.636058,1455.581446
163407.236039,1998.556043,-7105.977043,1149.143247
163407.236359,0.000000,-5107.421000,1378.971896
163407.236678,0.000000,-5995.668130,1838.629195
163407.236998,-962.267725,-8586.388927,-689.485948
163407.237317,-296.082377,-9844.739029,0.000000
163407.237636,-1850.514855,-10510.924376,-229.828649
163407.237956,-4737.318029,-9548.656652,-2145.067394
163407.238275,-2146.597232,-11473.192101,-1532.190996
163407.238594,296.082377,-10732.986159,0.000000
163407.238914,148.041188,-8364.327145,0.000000
163407.239233,-74.020594,-8586.388927,-1302.362347
163407.239553,-1554.432478,-9474.636058,-1302.362347
163407.239872,0.000000,-9548.656652,-1072.533697
163407.240191,518.144159,-8956.491898,-536.266849
163407.240511,-1332.370696,-8512.368333,306.438199
163407.240830,-814.226536,-9104.533087,306.438199
163407.241150,296.082377,-6291.750507,0.000000
163407.241469,3330.926739,-7476.080014,1608.800546
163407.241788,0.000000,-4811.338623,0.000000
163407.242108,0.000000,-8956.491898,-1072.533697
163407.242427,2590.720797,-10658.965565,-76.609550
163407.242747,592.164754,-9548.656652,612.876398
163407.243066,-962.267725,-10214.842000,-1838.629195
163407.243385,-814.226536,-11843.295072,-2221.676944
163407.243705,1480.411884,-12065.356855,-306.438199
163407.244024,3256.906145,-9696.697840,306.438199
163407.244344,3478.967927,-8290.306550,1225.752797
163407.244663,888.247130,-9474.636058,1072.533697
163407.244982,962.267725,-8882.471304,-1149.143247
163407.245302,1184.329507,-8956.491898,612.876398
163407.245621,-74.020594,-10066.800811,3600.648841
163407.245941,-4737.318029,-7179.997637,0.000000
163407.246260,-444.123565,-9770.718434,-153.219100
163407.246579,888.247130,-8660.409521,229.828649
163407.246899,0.000000,-7476.080014,612.876398
163407.247218,-666.185348,-8290.306550,-1302.362347
163407.247538,-2738.761985,-8882.471304,-2987.772442
163407.247857,-2368.659014,-9548.656652,-2145.067394
163407.248176,-2368.659014,-9548.656652,0.000000
163407.248496,-1258.350101,-11843.295072,-383.047749
163407.248815,-2960.823768,-9548.656652,-3677.258390
163407.249135,2590.720797,-11399.171507,1762.019645
163407.249454,1776.494261,-7994.224174,1225.752797
163407.249773,-962.267725,-7624.121203,-306.438199
163407.250093,-1406.391290,-9252.574275,-1378.971896
163407.250412,1554.432478,-11843.295072,1762.019645
163407.250732,-814.226536,-8586.388927,612.876398
163407.251051,-2146.597232,-9326.594869,-76.609550
163407.251370,-2072.576638,-10214.842000,-459.657299
163407.251690,0.000000,-7772.162391,612.876398
163407.252009,0.000000,-7328.038826,2145.067394
163407.252329,-1110.308913,-5403.503377,0.000000
163407.252648,-1628.453072,-7846.182985,-612.876398
163407.252967,-592.164754,-9548.656652,612.876398
163407.253287,-74.020594,-8882.471304,-1302.362347
163407.253606,-666.185348,-12139.377449,-76.609550
163407.253926,-2294.638420,-11843.295072,-1149.143247
163407.254245,222.061783,-12139.377449,0.000000
163407.254564,1480.411884,-9918.759623,1149.143247
163407.254884,-1258.350101,-8364.327145,-76.609550
163407.255203,-3108.864956,-8808.450710,-2145.067394
163407.255522,-2368.659014,-8512.368333,-3294.210641
163407.255842,-2368.659014,-7179.997637,-1838.629195
163407.256161,0.000000,-10140.821405,1072.533697
163407.256481,-666.185348,-8290.306550,-1302.362347
163407.256800,-74.020594,-9474.636058,612.876398
163407.257119,1628.453072,-7550.100608,919.314598
163407.257439,962.267725,-7105.977043,-383.047749
163407.257758,-74.020594,-8364.327145,-689.485948
163407.258078,518.144159,-10658.965565,1149.143247
163407.258397,1110.308913,-10140.821405,1762.019645
163407.258716,1702.473667,-10658.965565,-689.485948
163407.259036,-2368.659014,-9548.656652,-1838.629195
163407.259355,148.041188,-11029.068536,0.000000
163407.259675,1110.308913,-8438.347739,0.000000
163407.259994,2368.659014,-8290.306550,1225.752797
163407.260313,-1258.350101,-8586.388927,-1072.533697
163407.260633,-1924.535449,-9474.636058,-1532.190996
163407.260952,1110.308913,-11251.130318,-76.609550
163407.261272,2294.638420,-10658.965565,0.000000
163407.261591,-74.020594,-10658.965565,-76.609550
163407.261910,-2146.597232,-9252.574275,-995.924147
163407.262230,0.000000,-8882.471304,-76.609550
163407.262549,0.000000,-7179.997637,2451.505594
163407.262869,-1258.350101,-5921.647536,-1608.800546
163407.263188,-2072.576638,-8364.327145,-1225.752797
163407.263507,-1258.350101,-9474.636058,-1762.019645
163407.263827,-888.247130,-11177.109724,-766.095498
163407.264146,-666.185348,-12287.418637,-995.924147
163407.264466,-2960.823768,-11029.068536,-1838.629195
163407.264785,1702.473667,-12435.459826,-76.609550
163407.265104,3478.967927,-11547.212695,2374.896044
163407.265424,0.000000,-6661.853478,0.000000
163407.265743,-2368.659014,-8956.491898,306.438199
163407.266063,-1258.350101,-9918.759623,-1378.971896
163407.266382,222.061783,-10066.800811,-153.219100
163407.266701,-222.061783,-9104.533087,459.657299
163407.267021,-1184.329507,-8956.491898,0.000000
163407.267340,888.247130,-7846.182985,0.000000
163407.267660,2368.659014,-7772.162391,2451.505594
163407.267979,1184.329507,-5995.668130,1838.629195
163407.268298,-592.164754,-8290.306550,766.095498
163407.268618,-1628.453072,-9474.636058,-76.609550
163407.268937,-888.247130,-11325.150913,0.000000
163407.269257,-1776.494261,-10436.903782,-1072.533697
163407.269576,-2516.700203,-11177.109724,-919.314598
163407.269895,-1184.329507,-11769.274478,76.609550
163407.270215,0.000000,-8364.327145,0.000000
163407.270534,-1776.494261,-6587.832884,-995.924147
163407.270854,-4219.173869,-6587.832884,-3064.381992
163407.271173,-2960.823768,-9252.574275,-1685.410096
163407.271492,-74.020594,-9770.718434,-689.485948
163407.271812,1702.473667,-9474.636058,-76.609550
163407.272131,-1036.288319,-10362.883188,536.266849
163407.272450,-1850.514855,-9474.636058,-383.047749
163407.272770,296.082377,-9030.512492,0.000000
163407.273089,888.247130,-8216.285956,229.828649
163407.273409,-3552.988522,-5995.668130,-2451.505594
163407.273728,-1258.350101,-9474.636058,-1608.800546
163407.274047,-666.185348,-9474.636058,-1455.581446
163407.274367,0.000000,-9548.656652,0.000000
163407.274686,-2072.576638,-9548.656652,153.219100
163407.275006,-74.020594,-9474.636058,-76.609550
163407.275325,1628.453072,-9844.739029,2145.067394
163407.275644,2886.803174,-8438.347739,1762.019645
163407.275964,1184.329507,-7772.162391,919.314598
163407.276283,-74.020594,-9474.636058,-76.609550
163407.276603,-962.267725,-10955.047942,-306.438199
163407.276922,-74.020594,-10658.965565,-1072.533697
163407.277241,-2368.659014,-8364.327145,-3677.258390
163407.277561,-3552.988522,-10140.821405,-1225.752797
163407.277880,-1184.329507,-10140.821405,0.000000
163407.278200,2294.638420,-7994.224174,-689.485948
163407.278519,962.267725,-7550.100608,689.485948
163407.278838,-740.205942,-7254.018232,-612.876398
163407.279158,-1036.288319,-8586.388927,-689.485948
163407.279477,2294.638420,-11251.130318,2374.896044
163407.279797,962.267725,-9770.718434,689.485948
163407.280116,-74.020594,-11843.295072,-76.609550
163407.280435,0.000000,-9548.656652,0.000000
163407.280755,2812.782580,-11325.150913,766.095498
163407.281074,0.000000,-7772.162391,0.000000
163407.281394,-666.185348,-8882.471304,-2681.334243
163407.281713,-1480.411884,-10955.047942,-2911.162892
163407.282032,370.102971,-11251.130318,-1762.019645
163407.282352,444.123565,-9844.739029,383.047749
163407.282671,-74.020594,-11251.130318,-76.609550
163407.282991,0.000000,-9548.656652,1225.752797
163407.283310,4071.132681,-9474.636058,2374.896044
163407.283629,1332.370696,-6291.750507,1532.190996
163407.283949,0.000000,-4811.338623,0.000000
163407.284268,-2442.679609,-5477.523971,-1608.800546
163407.284588,-1628.453072,-8808.450710,0.000000
163407.284907,-888.247130,-9326.594869,153.219100
163407.285226,-2146.597232,-9474.636058,-842.705048
163407.285546,-74.020594,-12435.459826,-76.609550
163407.285865,74.020594,-10955.047942,-689.485948
163407.286185,-1110.308913,-8660.409521,-1762.019645
163407.286504,-3552.988522,-7772.162391,-4903.011187
163407.286823,-2368.659014,-12435.459826,-1915.238745
163407.287143,-1850.514855,-11251.130318,-4366.744339
163407.287462,-74.020594,-11547.212695,-76.609550
163407.287782,-1850.514855,-9178.553681,0.000000
163407.288101,-2294.638420,-8956.491898,-306.438199
163407.288420,370.102971,-8882.471304,459.657299
163407.288740,2368.659014,-7179.997637,3677.258390
163407.289059,1924.535449,-6217.729913,1532.190996
163407.289378,-296.082377,-7105.977043,153.219100
163407.289698,-518.144159,-8882.471304,0.000000
163407.290017,-444.123565,-9252.574275,0.000000
163407.290337,-1554.432478,-9030.512492,-1455.581446
163407.290656,-1258.350101,-10658.965565,-1915.238745
163407.290975,-2368.659014,-11029.068536,-1838.629195
163407.291295,0.000000,-8660.409521,-1302.362347
163407.291614,222.061783,-9326.594869,-76.609550
163407.291934,-1184.329507,-8956.491898,0.000000
163407.292253,-814.226536,-9622.677246,-1225.752797
163407.292572,1258.350101,-9474.636058,306.438199
163407.292892,0.000000,-8882.471304,689.485948
163407.293211,-2664.741391,-7772.162391,306.438199
163407.293531,-666.185348,-10066.800811,-76.609550
163407.293850,0.000000,-8364.327145,306.438199
163407.294169,1776.494261,-7772.162391,1225.752797
163407.294489,-74.020594,-9474.636058,-76.609550
163407.294808,-74.020594,-9474.636058,-1302.362347
163407.295128,-592.164754,-10288.862594,-383.047749
163407.295447,-1332.370696,-9770.718434,-1149.143247
163407.295766,-2072.576638,-9992.780217,-1455.581446
163407.296086,-1554.432478,-10881.027347,-1378.971896
163407.296405,1184.329507,-10732.986159,1532.190996
163407.296725,2886.803174,-8882.471304,1149.143247
163407.297044,296.082377,-6513.812290,-1302.362347
163407.297363,0.000000,-10140.821405,-612.876398
163407.297683,1702.473667,-11843.295072,-76.609550
163407.298002,3478.967927,-9474.636058,-689.485948
163407.298322,0.000000,-9474.636058,1225.752797
163407.298641,-1850.514855,-9992.780217,-383.047749
163407.298960,222.061783,-10066.800811,229.828649
163407.299280,3478.967927,-9474.636058,2987.772442
163407.299599,2368.659014,-9400.615463,3907.087040
163407.299919,-1184.329507,-9104.533087,1225.752797
163407.300238,-74.020594,-9326.594869,-76.609550
163407.300557,-74.020594,-8586.388927,1149.143247
163407.300877,-2220.617826,-7179.997637,0.000000
163407.301196,-1554.432478,-8882.471304,-1608.800546
163407.301516,-1036.288319,-10140.821405,-383.047749
163407.301835,592.164754,-9918.759623,153.219100
163407.302154,296.082377,-9104.533087,-919.314598
163407.302474,-666.185348,-11029.068536,-1915.238745
163407.302793,-3552.988522,-9548.656652,-3677.258390
163407.303113,1554.432478,-12435.459826,-1302.362347
163407.303432,-74.020594,-10955.047942,-383.047749
163407.303751,-2442.679609,-9030.512492,-2451.505594
163407.304071,-3552.988522,-8364.327145,0.000000
163407.304390,2590.720797,-9104.533087,612.876398
163407.304710,3478.967927,-7328.038826,1762.019645
163407.305029,1036.288319,-7179.997637,1608.800546
163407.305348,-370.102971,-7105.977043,536.266849
163407.305668,666.185348,-8068.244768,229.828649
163407.305987,0.000000,-8364.327145,612.876398
163407.306306,-1184.329507,-9548.656652,0.000000
163407.306626,-1332.370696,-11843.295072,459.657299
163407.306945,-370.102971,-11251.130318,-76.609550
163407.307265,0.000000,-8364.327145,0.000000
163407.307584,-370.102971,-9178.553681,-536.266849
163407.307903,-1998.556043,-8882.471304,-2145.067394
163407.308222,-1110.308913,-10732.986159,-1378.971896
163407.308542,-666.185348,-8586.388927,-2528.115143
163407.308861,-2442.679609,-8882.471304,-2221.676944
163407.309180,-3478.967927,-7772.162391,-3370.820191
163407.309499,0.000000,-9844.739029,1225.752797
163407.309818,3478.967927,-9474.636058,2374.896044
163407.310138,2886.803174,-8882.471304,2374.896044
163407.310457,-1776.494261,-6143.709319,0.000000
163407.310776,-1258.350101,-8142.265362,-766.095498
163407.311095,74.020594,-8808.450710,0.000000
163407.311415,-370.102971,-11103.089130,-76.609550
163407.311734,-4367.215058,-8734.430116,-3140.991542
163407.312053,-2220.617826,-10732.986159,-1915.238745
163407.312372,518.144159,-9474.636058,-689.485948
163407.312691,0.000000,-7476.080014,-1838.629195
163407.313011,-2368.659014,-8364.327145,-1532.190996
163407.313330,-296.082377,-11473.192101,-76.609550
163407.313649,1702.473667,-9844.739029,306.438199
163407.313968,1702.473667,-9918.759623,766.095498
163407.314288,-666.185348,-10288.862594,383.047749
163407.314607,-1258.350101,-10584.944971,0.000000
163407.314926,1998.556043,-9474.636058,1225.752797
163407.315245,2590.720797,-8882.471304,2374.896044
163407.315564,-666.185348,-7402.059420,-76.609550
163407.315884,-666.185348,-8882.471304,-689.485948
163407.316203,-1924.535449,-7179.997637,-1302.362347
163407.316522,2294.638420,-11251.130318,-76.609550
163407.316841,-1998.556043,-8586.388927,-766.095498
163407.317161,-1702.473667,-9548.656652,-919.314598
163407.317480,370.102971,-9474.636058,0.000000
163407.317799,0.000000,-7772.162391,612.876398
163407.318118,-1776.494261,-8956.491898,-1225.752797
163407.318437,-1480.411884,-10510.924376,-3064.381992
163407.318757,888.247130,-13027.624579,-689.485948
163407.319076,0.000000,-9548.656652,-2068.457845
163407.319395,-1258.350101,-9326.594869,-2221.676944
163407.319714,-74.020594,-11843.295072,-76.609550
163407.320034,1628.453072,-9918.759623,766.095498
163407.320353,3701.029710,-7920.203579,2221.676944
163407.320672,3330.926739,-6291.750507,2451.505594
163407.320991,1184.329507,-6587.832884,2757.943793
163407.321310,962.267725,-7105.977043,0.000000
163407.321630,4071.132681,-10658.965565,2987.772442
163407.321949,-1850.514855,-7994.224174,0.000000
163407.322268,-3552.988522,-9548.656652,-3677.258390
163407.322587,-74.020594,-11843.295072,-76.609550
163407.322907,-962.267725,-10362.883188,-1225.752797
163407.323226,-444.123565,-9844.739029,-842.705048
163407.323545,-1776.494261,-9104.533087,-2451.505594
163407.323864,-888.247130,-10140.821405,-919.314598
163407.324183,814.226536,-10510.924376,-459.657299
163407.324503,-74.020594,-10658.965565,-76.609550
163407.324822,-3478.967927,-9548.656652,-1225.752797
163407.325141,-4145.153275,-9548.656652,0.000000
163407.325460,3478.967927,-13027.624579,4213.525239
163407.325780,592.164754,-7772.162391,2451.505594
163407.326099,-444.123565,-7031.956449,0.000000
163407.326418,-1628.453072,-7772.162391,-1455.581446
163407.326737,-370.102971,-9030.512492,-612.876398
163407.327056,-2368.659014,-7179.997637,-2451.505594
163407.327376,-2738.761985,-10066.800811,-1455.581446
163407.327695,-3034.844362,-10066.800811,-1532.190996
163407.328014,296.082377,-10362.883188,0.000000
163407.328333,2368.659014,-9030.512492,1532.190996
163407.328653,2294.638420,-9474.636058,-76.609550
163407.328972,1110.308913,-10658.965565,-76.609550
163407.329291,1998.556043,-9474.636058,-995.924147
163407.329610,592.164754,-9696.697840,306.438199
163407.329929,-1184.329507,-9548.656652,1149.143247
163407.330249,-5625.565159,-7772.162391,-2451.505594
163407.330568,-74.020594,-10510.924376,-76.609550
163407.330887,1480.411884,-8660.409521,1149.143247
163407.331206,518.144159,-7254.018232,1378.971896
163407.331526,-74.020594,-7105.977043,-76.609550
163407.331845,-444.123565,-7105.977043,-1149.143247
163407.332164,1702.473667,-10066.800811,1149.143247
163407.332483,-1258.350101,-9252.574275,-76.609550
163407.332802,-3627.009116,-8882.471304,-3140.991542
163407.333122,-1776.494261,-11917.315666,306.438199
163407.333441,0.000000,-9548.656652,0.000000
163407.333760,518.144159,-8882.471304,-612.876398
163407.334079,-1480.411884,-9104.533087,-2145.067394
163407.334399,-370.102971,-10436.903782,-2528.115143
163407.334718,1554.432478,-10436.903782,-2451.505594
163407.335037,888.247130,-10955.047942,229.828649
163407.335356,-370.102971,-11103.089130,153.219100
163407.335675,-74.020594,-11843.295072,-76.609550
163407.335995,2368.659014,-8808.450710,1532.190996
163407.336314,4885.359217,-8586.388927,4826.401637
163407.336633,888.247130,-5403.503377,1302.362347
163407.336952,0.000000,-6809.894666,153.219100
163407.337272,0.000000,-8068.244768,0.000000
163407.337591,0.000000,-8660.409521,0.000000
163407.337910,-4737.318029,-8364.327145,-2451.505594
163407.338229,-3552.988522,-10881.027347,-2451.505594
163407.338548,-1184.329507,-11399.171507,459.657299
163407.338868,1110.308913,-9474.636058,-76.609550
163407.339187,-222.061783,-7105.977043,-383.047749
163407.339506,1776.494261,-11251.130318,1149.143247
163407.339825,592.164754,-10140.821405,-766.095498
163407.340145,666.185348,-9474.636058,0.000000
163407.340464,-1850.514855,-9992.780217,-689.485948
163407.340783,-4737.318029,-8364.327145,-2451.505594
163407.341102,-2368.659014,-9548.656652,-1302.362347
163407.341421,0.000000,-7476.080014,0.000000
163407.341741,1628.453072,-8290.306550,1149.143247
163407.342060,-1480.411884,-8142.265362,-1302.362347
163407.342379,-666.185348,-9474.636058,-1302.362347
163407.342698,-74.020594,-10066.800811,-76.609550
163407.343018,-1998.556043,-9252.574275,-536.266849
163407.343337,-2664.741391,-9992.780217,-1072.533697
163407.343656,-1258.350101,-10214.842000,383.047749
163407.343975,0.000000,-8734.430116,1532.190996
163407.344294,1406.391290,-7105.977043,229.828649
163407.344614,-962.267725,-7254.018232,-1225.752797
163407.344933,-3552.988522,-7476.080014,-2451.505594
163407.345252,1184.329507,-11177.109724,383.047749
163407.345571,-74.020594,-9178.553681,-3294.210641
163407.345891,-2368.659014,-10955.047942,-919.314598
163407.346210,-1702.473667,-10955.047942,-612.876398
163407.346529,1628.453072,-9696.697840,1072.533697
163407.346848,2590.720797,-8882.471304,2374.896044
163407.347167,-74.020594,-8882.471304,2068.457845
163407.347487,-1850.514855,-7550.100608,-153.219100
163407.347806,-74.020594,-9474.636058,1149.143247
163407.348125,-666.185348,-7550.100608,-536.266849
163407.348444,-4737.318029,-7179.997637,0.000000
163407.348764,-2442.679609,-9474.636058,-2221.676944
163407.349083,-296.082377,-10436.903782,-689.485948
163407.349402,592.164754,-9178.553681,-536.266849
163407.349721,-740.205942,-9400.615463,-2068.457845
163407.350040,-74.020594,-12435.459826,-689.485948
163407.350360,1702.473667,-12287.418637,-2145.067394
163407.350679,1480.411884,-11917.315666,306.438199
163407.350998,1110.308913,-11843.295072,-76.609550
163407.351317,-1258.350101,-11843.295072,-76.609550
163407.351637,0.000000,-8364.327145,1225.752797
163407.351956,3478.967927,-6957.935855,2374.896044
163407.352275,2960.823768,-6735.874072,2604.724693
163407.352594,740.205942,-7179.997637,842.705048
163407.352913,-740.205942,-8142.265362,306.438199
163407.353233,-74.020594,-10288.862594,1149.143247
163407.353552,-3552.988522,-8364.327145,0.000000
163407.353871,-3701.029710,-10436.903782,-612.876398
163407.354190,-2368.659014,-9548.656652,0.000000
163407.354510,1702.473667,-10658.965565,-76.609550
163407.354829,0.000000,-7772.162391,1225.752797
163407.355148,-962.267725,-9030.512492,-2068.457845
163407.355467,-1406.391290,-9696.697840,-1762.019645
163407.355786,0.000000,-10140.821405,-612.876398
163407.356106,-1924.535449,-8364.327145,-1608.800546
163407.356425,-2738.761985,-9548.656652,-1532.190996
163407.356744,-1776.494261,-10732.986159,0.000000
163407.357063,1184.329507,-9548.656652,1225.752797
163407.357383,3775.050304,-9326.594869,1762.019645
163407.357702,2294.638420,-9474.636058,-76.609550
163407.358021,-1776.494261,-8660.409521,-1225.752797
163407.358340,-666.185348,-8882.471304,-1149.143247
163407.358659,-444.123565,-9844.739029,-919.314598
163407.358979,-2738.761985,-10288.862594,-1149.143247
163407.359298,-4737.318029,-7772.162391,-3677.258390
163407.359617,-666.185348,-9326.594869,306.438199
163407.359936,1110.308913,-7179.997637,0.000000
163407.360256,0.000000,-7179.997637,0.000000
163407.360575,-814.226536,-9474.636058,-612.876398
163407.360894,-74.020594,-11843.295072,-76.609550
163407.361213,0.000000,-9844.739029,612.876398
163407.361532,-1036.288319,-9918.759623,-536.266849
163407.361852,-2146.597232,-10288.862594,-612.876398
163407.362171,296.082377,-10362.883188,0.000000
163407.362490,1184.329507,-7328.038826,612.876398
163407.362809,2294.638420,-7698.141797,-76.609550
163407.363129,-1998.556043,-6883.915261,-1532.190996
163407.363448,-2368.659014,-8364.327145,-2451.505594
163407.363767,-74.020594,-11843.295072,-76.609550
163407.364086,-2368.659014,-10732.986159,306.438199
163407.364405,-3552.988522,-9844.739029,-1302.362347
163407.364725,-2220.617826,-9770.718434,-689.485948
163407.365044,740.205942,-8808.450710,689.485948
163407.365363,0.000000,-5107.421000,0.000000
163407.365682,-888.247130,-7920.203579,-1225.752797
163407.366002,0.000000,-9844.739029,-1225.752797
163407.366321,1702.473667,-11843.295072,-76.609550
163407.366640,222.061783,-9844.739029,-1072.533697
163407.366959,-2368.659014,-10732.986159,1225.752797
163407.367278,-1776.494261,-10140.821405,-1838.629195
163407.367598,2146.597232,-10584.944971,766.095498
163407.367917,2516.700203,-8956.491898,1072.533697
163407.368236,0.000000,-7698.141797,0.000000
163407.368555,-666.185348,-7698.141797,-1302.362347
163407.368875,-444.123565,-9252.574275,459.657299
163407.369194,444.123565,-8142.265362,1608.800546
163407.369513,-740.205942,-8216.285956,842.705048
163407.369832,-370.102971,-10658.965565,2374.896044
163407.370151,1184.329507,-9474.636058,3294.210641
163407.370471,1480.411884,-8216.285956,2298.286494
163407.370790,-1258.350101,-7550.100608,-1915.238745
163407.371109,-3552.988522,-8586.388927,-3753.867940
163407.371428,-3552.988522,-10732.986159,-4596.572988
163407.371748,-1258.350101,-11251.130318,-2528.115143
163407.372067,-2664.741391,-11177.109724,-1915.238745
163407.372386,-2664.741391,-11177.109724,-2374.896044
163407.372705,296.082377,-10288.862594,0.000000
163407.373024,3997.112087,-9030.512492,1455.581446
163407.373344,2442.679609,-7105.977043,1762.019645
163407.373663,-888.247130,-7476.080014,612.876398
163407.373982,-74.020594,-11251.130318,-76.609550
163407.374301,1110.308913,-8808.450710,-383.047749
163407.374621,0.000000,-7179.997637,0.000000
163407.374940,-1258.350101,-9178.553681,-229.828649
163407.375259,-296.082377,-9326.594869,459.657299
163407.375578,1258.350101,-8586.388927,919.314598
163407.375897,0.000000,-7994.224174,-383.047749
163407.376217,-962.267725,-8290.306550,-2528.115143
163407.376536,-2294.638420,-9770.718434,-1838.629195
163407.376855,-74.020594,-10362.883188,-1915.238745
163407.377174,-2072.576638,-9548.656652,0.000000
163407.377494,-888.247130,-10732.986159,-76.609550
163407.377813,0.000000,-9548.656652,0.000000
163407.378132,3182.885551,-9326.594869,1915.238745
163407.378451,2220.617826,-8068.244768,2221.676944
163407.378770,0.000000,-7402.059420,612.876398
163407.379090,-2368.659014,-6957.935855,-2528.115143
163407.379409,-666.185348,-8882.471304,-76.609550
163407.379728,-2442.679609,-7846.182985,-2451.505594
163407.380047,-4145.153275,-9548.656652,-919.314598
163407.380367,-1998.556043,-10658.965565,-76.609550
163407.380686,1110.308913,-11251.130318,1762.019645
163407.381005,0.000000,-7476.080014,306.438199
163407.381324,-222.061783,-7031.956449,-766.095498
163407.381643,-740.205942,-8512.368333,-1685.410096
163407.381963,592.164754,-9918.759623,-1378.971896
163407.382282,1110.308913,-10362.883188,-306.438199
163407.382601,-74.020594,-11843.295072,-76.609550
163407.382920,-1258.350101,-10732.986159,-1378.971896
163407.383240,1480.411884,-10732.986159,0.000000
163407.383559,2960.823768,-9548.656652,2451.505594
163407.383878,4071.132681,-9474.636058,3600.648841
163407.384197,-2664.741391,-7772.162391,-1149.143247
163407.384516,-1406.391290,-9548.656652,229.828649
163407.384836,518.144159,-8364.327145,459.657299
163407.385155,-592.164754,-8142.265362,1225.752797
163407.385474,-2072.576638,-8068.244768,1225.752797
163407.385793,-222.061783,-10214.842000,1225.752797
163407.386113,1110.308913,-10658.965565,2374.896044
163407.386432,-74.020594,-7994.224174,-842.705048
163407.386751,-3552.988522,-6587.832884,-4826.401637
163407.387070,-74.020594,-11843.295072,-2528.115143
163407.387389,-1480.411884,-10807.006753,-1991.848295
163407.387709,-1776.494261,-11177.109724,-2374.896044
163407.388028,-2886.803174,-10955.047942,-2528.115143
163407.388347,-1184.329507,-11029.068536,-1225.752797
163407.388666,1776.494261,-9548.656652,1225.752797
163407.388986,1776.494261,-6587.832884,1225.752797
163407.389305,2294.638420,-8142.265362,2374.896044
163407.389624,-962.267725,-7698.141797,-689.485948
163407.389943,222.061783,-7179.997637,-1608.800546
163407.390262,2294.638420,-9178.553681,1149.143247
163407.390582,-888.247130,-8734.430116,612.876398
163407.390901,-1258.350101,-9474.636058,459.657299
163407.391220,1332.370696,-9178.553681,766.095498
163407.391539,1184.329507,-7476.080014,1225.752797
163407.391859,-1258.350101,-6217.729913,-2374.896044
163407.392178,-4071.132681,-8364.327145,-3524.039291
163407.392497,-1998.556043,-9696.697840,-4290.134789
163407.392816,296.082377,-11695.253884,306.438199
163407.393135,-3552.988522,-7772.162391,-4596.572988
163407.393455,-1184.329507,-10881.027347,-689.485948
163407.393774,740.205942,-10140.821405,229.828649
163407.394093,2886.803174,-8660.409521,1608.800546
163407.394412,1110.308913,-7698.141797,-76.609550
163407.394732,-2368.659014,-8882.471304,-1838.629195
163407.395051,-2146.597232,-8290.306550,-1302.362347
163407.395370,-592.164754,-9548.656652,0.000000
163407.395689,-74.020594,-10288.862594,-76.609550
163407.396008,-1184.329507,-10362.883188,0.000000
163407.396328,-3404.947333,-7772.162391,-1225.752797
163407.396647,962.267725,-9178.553681,229.828649
163407.396966,0.000000,-7624.121203,-766.095498
163407.397285,-1554.432478,-8734.430116,-2145.067394
163407.397605,1998.556043,-10658.965565,-1302.362347
163407.397924,2220.617826,-10658.965565,-76.609550
163407.398243,1406.391290,-11251.130318,-76.609550
163407.398562,-1258.350101,-9030.512492,-1915.238745
163407.398881,0.000000,-10362.883188,0.000000
163407.399201,3552.988522,-10140.821405,4903.011187
163407.399520,2368.659014,-6587.832884,1838.629195
163407.399839,-444.123565,-7772.162391,229.828649
163407.400158,-2146.597232,-8364.327145,-1302.362347
163407.400478,-962.267725,-9770.718434,-383.047749
163407.400797,1702.473667,-8882.471304,1149.143247
163407.401116,-74.020594,-10955.047942,2681.334243
163407.401435,-1850.514855,-9474.636058,-689.485948
163407.401754,-2072.576638,-8364.327145,-612.876398
163407.402074,-2368.659014,-6587.832884,0.000000
163407.402393,-4737.318029,-5995.668130,-4290.134789
163407.402712,-2590.720797,-9474.636058,-2987.772442
163407.403031,-1850.514855,-10955.047942,-1838.629195
163407.403351,-370.102971,-10362.883188,-459.657299
163407.403670,-74.020594,-10658.965565,-1302.362347
163407.403989,-1036.288319,-10584.944971,-1378.971896
163407.404308,0.000000,-9548.656652,0.000000
163407.404627,3849.070898,-8364.327145,1225.752797
163407.404947,3330.926739,-9326.594869,2834.553343
163407.405266,-1110.308913,-6291.750507,-2451.505594
163407.405585,1110.308913,-9474.636058,-383.047749
163407.405904,1480.411884,-8956.491898,919.314598
163407.406224,-296.082377,-8660.409521,-383.047749
163407.406538,-1036.288319,-10140.821405,-229.828649
163407.406858,1110.308913,-12435.459826,2374.896044
163407.407177,592.164754,-8512.368333,229.828649
163407.407496,-666.185348,-8438.347739,-153.219100
163407.407815,-2368.659014,-8660.409521,-1838.629195
163407.408135,-1998.556043,-9844.739029,-1838.629195
163407.408454,-2368.659014,-7772.162391,0.000000
163407.408773,-666.185348,-8290.306550,-1302.362347
163407.409093,-3552.988522,-8660.409521,0.000000
163407.409412,-74.020594,-10732.986159,0.000000
163407.409731,2590.720797,-8290.306550,536.266849
163407.410050,3478.967927,-10658.965565,2374.896044
163407.410370,-1184.329507,-7698.141797,-766.095498
163407.410689,-2590.720797,-9770.718434,-2374.896044
163407.411008,-1258.350101,-10807.006753,-842.705048
163407.411328,-2960.823768,-9548.656652,-1225.752797
163407.411647,-4737.318029,-9548.656652,0.000000
163407.411966,-3256.906145,-8660.409521,-2145.067394
163407.412285,740.205942,-9844.739029,1225.752797
163407.412605,3182.885551,-10658.965565,2374.896044
163407.412924,-370.102971,-6513.812290,-2834.553343
163407.413243,-666.185348,-9178.553681,-383.047749
163407.413563,296.082377,-9178.553681,0.000000
163407.413882,1036.288319,-9622.677246,76.609550
163407.414201,0.000000,-9474.636058,229.828649
163407.414520,296.082377,-10658.965565,-76.609550
163407.414840,2590.720797,-10362.883188,1455.581446
163407.415159,2664.741391,-7179.997637,0.000000
163407.415478,0.000000,-7179.997637,153.219100
163407.415798,-1258.350101,-9178.553681,-919.314598
163407.416117,-3552.988522,-7772.162391,-2451.505594
163407.416436,-74.020594,-9844.739029,-76.609550
163407.416755,-1998.556043,-9178.553681,0.000000
163407.417075,-3256.906145,-9992.780217,-1378.971896
163407.417394,-1924.535449,-8956.491898,-995.924147
163407.417713,1110.308913,-9474.636058,-689.485948
163407.418033,-148.041188,-9474.636058,-76.609550
163407.418352,-3478.967927,-6291.750507,-3370.820191
163407.418671,-222.061783,-9918.759623,-1149.143247
163407.418990,2294.638420,-11843.295072,1762.019645
163407.419310,-2368.659014,-9548.656652,0.000000
163407.419629,-1258.350101,-10658.965565,-1225.752797
163407.419948,0.000000,-10732.986159,-995.924147
163407.420268,2664.741391,-10510.924376,1302.362347
163407.420587,2294.638420,-7105.977043,1149.143247
163407.420906,-74.020594,-9474.636058,842.705048
163407.421225,-370.102971,-9474.636058,-1302.362347
163407.421545,0.000000,-9548.656652,0.000000
163407.421864,0.000000,-7476.080014,0.000000
163407.422183,-74.020594,-10658.965565,2987.772442
163407.422503,-1776.494261,-8068.244768,612.876398
163407.422822,1776.494261,-8882.471304,995.924147
163407.423141,1850.514855,-7550.100608,1302.362347
163407.423460,-1036.288319,-7772.162391,-995.924147
163407.423780,-2442.679609,-8808.450710,-2451.505594
163407.424099,-962.267725,-11843.295072,-1455.581446
163407.424418,-1258.350101,-11251.130318,-76.609550
163407.424738,-1850.514855,-9474.636058,-2528.115143
163407.425057,-4145.153275,-9548.656652,-1838.629195
163407.425376,2294.638420,-13027.624579,2374.896044
163407.425695,1480.411884,-8068.244768,689.485948
163407.426015,666.185348,-7550.100608,689.485948
163407.426334,-592.164754,-8068.244768,-536.266849
163407.426653,0.000000,-8364.327145,0.000000
163407.426972,0.000000,-8364.327145,612.876398
163407.427292,-296.082377,-9844.739029,612.876398
163407.427611,-74.020594,-11843.295072,-76.609550
163407.427930,-814.226536,-10510.924376,-2068.457845
163407.428250,814.226536,-8882.471304,-1302.362347
163407.428569,1110.308913,-9474.636058,-76.609550
163407.428888,-2072.576638,-9400.615463,-2068.457845
163407.429207,-1480.411884,-10658.965565,-1685.410096
163407.429527,296.082377,-10436.903782,0.000000
163407.429846,-1184.329507,-7772.162391,1225.752797
163407.430165,-1776.494261,-8290.306550,-76.609550
163407.430485,0.000000,-7772.162391,612.876398
163407.430804,4737.318029,-9030.512492,3983.696590
163407.431123,3182.885551,-8882.471304,3600.648841
163407.431442,-74.020594,-5699.585753,-2374.896044
163407.431762,-666.185348,-9992.780217,-1225.752797
163407.432081,-1406.391290,-10955.047942,-1455.581446
163407.432400,-2294.638420,-11621.233289,-1455.581446
163407.432720,-4293.194464,-11251.130318,-1762.019645
163407.433039,-4737.318029,-10807.006753,-2451.505594
163407.433358,-74.020594,-10362.883188,-995.924147
163407.433677,0.000000,-6735.874072,0.000000
163407.433997,296.082377,-7476.080014,1532.190996
163407.434316,-74.020594,-8290.306550,-76.609550
163407.434635,-962.267725,-6661.853478,-2451.505594
163407.434955,370.102971,-8882.471304,459.657299
163407.435274,-1628.453072,-9252.574275,-536.266849
163407.435593,-1184.329507,-10658.965565,-1072.533697
163407.435912,1998.556043,-13027.624579,-76.609550
163407.436232,4071.132681,-11177.109724,1608.800546
163407.436551,518.144159,-8586.388927,-76.609550
163407.436870,-74.020594,-10658.965565,-1608.800546
163407.437190,-1258.350101,-9844.739029,-2374.896044
163407.437509,0.000000,-9548.656652,1838.629195
163407.437828,-1628.453072,-8364.327145,0.000000
163407.438147,-962.267725,-9844.739029,766.095498
163407.438467,518.144159,-9400.615463,1302.362347
163407.438786,2738.761985,-7920.203579,2987.772442
163407.439105,4663.297435,-7105.977043,2374.896044
163407.439425,-814.226536,-6513.812290,-76.609550
163407.439744,-74.020594,-9474.636058,-1302.362347
163407.440063,-2590.720797,-9548.656652,-2221.676944
163407.440382,-4145.153275,-9548.656652,-3524.039291
163407.440702,-6143.709319,-8660.409521,-4903.011187
163407.441021,-1850.514855,-11695.253884,-1608.800546
163407.441340,814.226536,-9474.636058,229.828649
163407.441660,1480.411884,-7624.121203,1072.533697
163407.441979,74.020594,-7105.977043,-689.485948
163407.442298,0.000000,-8364.327145,-1455.581446
163407.442617,0.000000,-8364.327145,0.000000
163407.442937,370.102971,-10510.924376,689.485948
163407.443256,-1554.432478,-11843.295072,-76.609550
163407.443575,-3923.091493,-9548.656652,-3064.381992
163407.443895,1998.556043,-11251.130318,-76.609550
163407.444214,2220.617826,-9104.533087,1072.533697
163407.444533,1924.535449,-7994.224174,919.314598
163407.444852,666.185348,-8586.388927,-153.219100
163407.445172,1184.329507,-10658.965565,2374.896044
163407.445491,74.020594,-9178.553681,-76.609550
163407.445810,-2146.597232,-9178.553681,-1302.362347
163407.446130,-3627.009116,-8660.409521,-3217.601092
163407.446449,296.082377,-10436.903782,2145.067394
163407.446768,4663.297435,-9474.636058,3600.648841
163407.447087,592.164754,-6883.915261,919.314598
163407.447407,-444.123565,-8068.244768,-383.047749
163407.447726,-1554.432478,-9548.656652,-1225.752797
163407.448045,-740.205942,-10658.965565,-76.609550
163407.448365,-4737.318029,-8364.327145,0.000000
163407.448684,-4515.256246,-11399.171507,-1915.238745
163407.449003,-2960.823768,-10362.883188,-1072.533697
163407.449322,0.000000,-9104.533087,0.000000
163407.449642,518.144159,-6513.812290,-76.609550
163407.449961,-296.082377,-6883.915261,-1685.410096
163407.450280,1110.308913,-9474.636058,-689.485948
163407.450600,0.000000,-8660.409521,0.000000
163407.450919,-2812.782580,-7179.997637,-2298.286494
163407.451238,-370.102971,-11695.253884,-76.609550
163407.451557,0.000000,-10140.821405,0.000000
163407.451877,2368.659014,-9918.759623,1532.190996
163407.452196,2294.638420,-8364.327145,1225.752797
163407.452515,296.082377,-8068.244768,-383.047749
163407.452835,-518.144159,-9326.594869,-2451.505594
163407.453154,1628.453072,-10066.800811,1149.143247
163407.453473,1110.308913,-9400.615463,1149.143247
163407.453792,-1850.514855,-8882.471304,-1991.848295
163407.454112,-3182.885551,-9548.656652,0.000000
163407.454431,1702.473667,-11843.295072,2987.772442
163407.454750,666.185348,-7179.997637,919.314598
163407.455070,0.000000,-6957.935855,0.000000
163407.455389,-888.247130,-8068.244768,-383.047749
163407.455708,-962.267725,-8808.450710,-612.876398
163407.456027,-2368.659014,-7772.162391,0.000000
163407.456347,-3997.112087,-8956.491898,-4903.011187
163407.456666,-2294.638420,-12879.583391,-689.485948
163407.456985,-666.185348,-10362.883188,-1302.362347
163407.457305,740.205942,-7179.997637,0.000000
163407.457624,3478.967927,-9474.636058,1762.019645
163407.457943,0.000000,-8512.368333,-612.876398
163407.458262,1184.329507,-9770.718434,-229.828649
163407.458582,1850.514855,-9474.636058,919.314598
163407.458901,0.000000,-9548.656652,612.876398
163407.459220,-3552.988522,-9030.512492,-689.485948
163407.459539,-2368.659014,-9548.656652,0.000000
163407.459859,2294.638420,-10362.883188,1072.533697
163407.460178,1702.473667,-10658.965565,-76.609550
163407.460497,-1850.514855,-8216.285956,-2834.553343
163407.460817,-74.020594,-10584.944971,-383.047749
163407.461136,222.061783,-8660.409521,76.609550
163407.461455,-296.082377,-8586.388927,0.000000
163407.461774,-1850.514855,-9178.553681,-1072.533697
163407.462094,-2368.659014,-9844.739029,0.000000
163407.462413,1628.453072,-9030.512492,1149.143247
163407.462732,0.000000,-7179.997637,306.438199
163407.463052,296.082377,-9548.656652,2068.457845
163407.463371,-74.020594,-10658.965565,-689.485948
163407.463690,74.020594,-8364.327145,-2374.896044
163407.464009,-148.041188,-10288.862594,-76.609550
163407.464329,-2738.761985,-9696.697840,-919.314598
163407.464648,-2220.617826,-10732.986159,-1149.143247
163407.464967,1110.308913,-10658.965565,1149.143247
163407.465287,2812.782580,-9474.636058,-76.609550
163407.465606,-222.061783,-7402.059420,-229.828649
163407.465925,-3478.967927,-6587.832884,-3294.210641
163407.466244,0.000000,-8956.491898,0.000000
163407.466564,-592.164754,-9030.512492,0.000000
163407.466883,-4145.153275,-8068.244768,-3064.381992
163407.467202,-1332.370696,-11029.068536,-1225.752797
163407.467522,1554.432478,-9992.780217,689.485948
163407.467841,2812.782580,-9104.533087,2068.457845
163407.468160,3478.967927,-8290.306550,-76.609550
163407.468479,1702.473667,-9474.636058,766.095498
163407.468799,4071.132681,-11843.295072,2374.896044
163407.469118,2294.638420,-9474.636058,536.266849
163407.469437,-2072.576638,-9326.594869,-76.609550
163407.469757,-3552.988522,-9844.739029,0.000000
163407.470076,-1554.432478,-9548.656652,-995.924147
163407.470395,1258.350101,-9030.512492,536.266849
163407.470714,74.020594,-8068.244768,76.609550
163407.471034,-2294.638420,-8438.347739,-1991.848295
163407.471353,-74.020594,-11251.130318,-1302.362347
163407.471672,0.000000,-9844.739029,919.314598
163407.471992,-962.267725,-9474.636058,-76.609550
163407.472311,-2738.761985,-9474.636058,-1302.362347
163407.472630,-2516.700203,-8364.327145,-1762.019645
163407.472949,2368.659014,-10732.986159,4290.134789
163407.473269,1702.473667,-7031.956449,1072.533697
163407.473588,-222.061783,-7698.141797,-536.266849
163407.473907,-666.185348,-8734.430116,-1225.752797
163407.474227,0.000000,-9548.656652,-2451.505594
163407.474546,0.000000,-9548.656652,-1532.190996
163407.474865,-2960.823768,-10436.903782,-1532.190996
163407.475184,-1184.329507,-11325.150913,0.000000
163407.475504,2886.803174,-11843.295072,-76.609550
163407.475823,2886.803174,-9474.636058,-76.609550
163407.476142,592.164754,-8586.388927,766.095498
163407.476462,-1480.411884,-8734.430116,-689.485948
163407.476781,148.041188,-9178.553681,-76.609550
163407.477100,0.000000,-8882.471304,919.314598
163407.477419,-4145.153275,-6291.750507,0.000000
163407.477739,-2294.638420,-9030.512492,0.000000
163407.478058,0.000000,-8364.327145,2451.505594
163407.478377,2886.803174,-8586.388927,2374.896044
163407.478697,-1628.453072,-6957.935855,-536.266849
163407.479016,-4219.173869,-6957.935855,-4673.182538
163407.479335,-1998.556043,-10955.047942,-1685.410096
163407.479654,-1702.473667,-10881.027347,-1149.143247
163407.479974,-2442.679609,-10436.903782,-919.314598
163407.480293,-3034.844362,-10140.821405,-1302.362347
163407.480612,0.000000,-10584.944971,0.000000
163407.480932,0.000000,-7179.997637,0.000000
163407.481251,1554.432478,-8290.306550,-76.609550
163407.481570,-74.020594,-8290.306550,-995.924147
163407.481889,-1776.494261,-7179.997637,0.000000
163407.482209,4071.132681,-9474.636058,-76.609550
163407.482528,0.000000,-9474.636058,536.266849
163407.482847,-962.267725,-8956.491898,-919.314598
163407.483167,74.020594,-9992.780217,-306.438199
163407.483486,3552.988522,-10362.883188,3447.429741
163407.483805,2294.638420,-7698.141797,1149.143247
163407.484124,-1184.329507,-6809.894666,-1608.800546
163407.484444,-1184.329507,-8956.491898,-3677.258390
163407.484763,4071.132681,-13027.624579,2374.896044
163407.485082,-74.020594,-8586.388927,-1915.238745
163407.485402,-666.185348,-10066.800811,-2451.505594
163407.485721,-1258.350101,-11029.068536,-76.609550
163407.486040,1628.453072,-10288.862594,536.266849
163407.486359,2072.576638,-8142.265362,919.314598
163407.486679,888.247130,-9474.636058,2374.896044
163407.486998,-2368.659014,-8660.409521,-1838.629195
163407.487317,-370.102971,-10288.862594,-919.314598
163407.487637,-962.267725,-9326.594869,-383.047749
163407.487956,-2368.659014,-9326.594869,0.000000
163407.488275,-4737.318029,-7179.997637,-2451.505594
163407.488594,-74.020594,-7698.141797,-1762.019645
163407.488914,1480.411884,-7179.997637,1378.971896
163407.489233,1110.308913,-7698.141797,-76.609550
163407.489552,-666.185348,-8438.347739,-1608.800546
163407.489872,2294.638420,-12435.459826,-76.609550
163407.490191,1036.288319,-9844.739029,306.438199
163407.490510,-222.061783,-9252.574275,0.000000
163407.490829,-962.267725,-10732.986159,-995.924147
163407.491149,592.164754,-11029.068536,0.000000
163407.491468,2738.761985,-9548.656652,1685.410096
163407.491787,0.000000,-5995.668130,0.000000
163407.492107,-2072.576638,-9252.574275,-4903.011187
163407.492426,-74.020594,-12213.398043,-76.609550
163407.492745,-74.020594,-9474.636058,-1608.800546
163407.493064,-666.185348,-9474.636058,995.924147
163407.493384,-2590.720797,-9252.574275,-459.657299
163407.493703,0.000000,-9400.615463,766.095498
163407.494022,1554.432478,-7328.038826,2145.067394
163407.494341,1628.453072,-7624.121203,2987.772442
163407.494661,-2220.617826,-7179.997637,-1302.362347
163407.494980,-2442.679609,-9474.636058,-1915.238745
163407.495299,-2886.803174,-9548.656652,-2757.943793
163407.495619,-2960.823768,-10436.903782,-1225.752797
163407.495938,-3627.009116,-9770.718434,-4060.306139
163407.496257,-1258.350101,-12065.356855,-1149.143247
163407.496576,2294.638420,-10288.862594,612.876398
163407.496896,2368.659014,-7254.018232,919.314598
163407.497215,296.082377,-9178.553681,-76.609550
163407.497534,-74.020594,-11843.295072,-76.609550
163407.497854,-74.020594,-11843.295072,-76.609550
163407.498173,-1776.494261,-8660.409521,-1532.190996
163407.498492,-3256.906145,-9548.656652,-612.876398
163407.498811,-1776.494261,-9548.656652,612.876398
163407.499131,888.247130,-7179.997637,383.047749
163407.499450,2812.782580,-6809.894666,2451.505594
163407.499769,296.082377,-6661.853478,612.876398
163407.500089,-444.123565,-8586.388927,-919.314598
163407.500408,2294.638420,-11251.130318,-76.609550
163407.500727,0.000000,-9548.656652,0.000000
163407.501046,-2368.659014,-10140.821405,0.000000
163407.501366,-666.185348,-13027.624579,-76.609550
163407.501685,-74.020594,-10658.965565,-383.047749
163407.502004,1184.329507,-8364.327145,1225.752797
163407.502324,-888.247130,-7772.162391,-1302.362347
163407.502643,-2516.700203,-8660.409521,-2221.676944
163407.502962,-1554.432478,-9622.677246,-2221.676944
163407.503281,-148.041188,-9622.677246,-383.047749
163407.503601,-962.267725,-8734.430116,-919.314598
163407.503920,-2812.782580,-9548.656652,0.000000
163407.504239,-74.020594,-10584.944971,2374.896044
163407.504559,2294.638420,-8290.306550,1149.143247
163407.504878,0.000000,-5403.503377,0.000000
163407.505197,-2368.659014,-8364.327145,0.000000
163407.505516,-2516.700203,-8956.491898,-2298.286494
163407.505836,-592.164754,-10140.821405,-383.047749
163407.506155,-1036.288319,-9992.780217,-383.047749
163407.506474,-2368.659014,-9548.656652,-2451.505594
163407.506794,-1554.432478,-9770.718434,-1838.629195
163407.507113,2664.741391,-8660.409521,842.705048
163407.507432,1184.329507,-7179.997637,1225.752797
163407.507751,148.041188,-8438.347739,76.609550
163407.508071,-74.020594,-11843.295072,-76.609550
163407.508390,296.082377,-10288.862594,306.438199
163407.508709,-370.102971,-8882.471304,0.000000
163407.509028,-2368.659014,-9400.615463,-229.828649
163407.509348,-1924.535449,-9252.574275,-689.485948
163407.509667,0.000000,-7179.997637,0.000000
163407.509986,222.061783,-8290.306550,2374.896044
163407.510305,-1850.514855,-5625.565159,-1302.362347
163407.510624,-3552.988522,-8364.327145,-2451.505594
163407.510944,-1776.494261,-9548.656652,0.000000
163407.511263,-74.020594,-10658.965565,-76.609550
163407.511582,-2664.741391,-9992.780217,0.000000
163407.511901,-1924.535449,-10807.006753,-1149.143247
163407.512220,1702.473667,-11621.233289,-689.485948
163407.512539,888.247130,-9548.656652,1149.143247
163407.512859,-666.185348,-7179.997637,-1532.190996
163407.513178,-3552.988522,-7179.997637,-4136.915689
163407.513497,1702.473667,-11621.233289,-76.609550
163407.513816,2146.597232,-9474.636058,229.828649
163407.514135,-370.102971,-6587.832884,0.000000
163407.514455,-74.020594,-10658.965565,-76.609550
163407.514774,1332.370696,-8290.306550,1378.971896
163407.515093,3552.988522,-7179.997637,2681.334243
163407.515412,1998.556043,-5773.606348,1991.848295
163407.515731,296.082377,-7772.162391,1378.971896
163407.516051,0.000000,-8660.409521,-919.314598
163407.516370,518.144159,-10658.965565,0.000000
163407.516689,-74.020594,-11843.295072,-76.609550
163407.517008,-1554.432478,-11843.295072,-1608.800546
163407.517327,-2368.659014,-9548.656652,-3524.039291
163407.517647,2886.803174,-11251.130318,-76.609550
163407.517966,1184.329507,-8290.306550,383.047749
163407.518285,-666.185348,-8142.265362,-1225.752797
163407.518604,-888.247130,-9326.594869,-1991.848295
163407.518923,1332.370696,-11917.315666,1378.971896
163407.519242,222.061783,-8660.409521,0.000000
163407.519562,-74.020594,-10955.047942,1149.143247
163407.519881,-1702.473667,-8734.430116,-1532.190996
163407.520200,592.164754,-7772.162391,-1991.848295
163407.520519,2886.803174,-8882.471304,-76.609550
163407.520838,-1036.288319,-7328.038826,-1225.752797
163407.521158,-888.247130,-8956.491898,-1378.971896
163407.521477,0.000000,-9030.512492,-842.705048
163407.521796,1998.556043,-10732.986159,1991.848295
163407.522115,-2368.659014,-10362.883188,-76.609550
163407.522434,-74.020594,-10214.842000,-1608.800546
163407.522754,592.164754,-10140.821405,0.000000
163407.523073,2368.659014,-8364.327145,2451.505594
163407.523392,-74.020594,-8882.471304,-76.609550
163407.523711,-1776.494261,-10140.821405,-153.219100
163407.524030,-1702.473667,-9770.718434,-1838.629195
163407.524350,-962.267725,-9548.656652,-76.609550
163407.524669,-2146.597232,-8734.430116,0.000000
163407.524988,-4737.318029,-7179.997637,0.000000
163407.525307,0.000000,-9252.574275,919.314598
163407.525626,2442.679609,-7105.977043,2451.505594
163407.525945,1998.556043,-7698.141797,2374.896044
163407.526265,-1850.514855,-7105.977043,-2221.676944
163407.526584,-2072.576638,-10881.027347,-459.657299
163407.526903,-2146.597232,-10436.903782,-1225.752797
163407.527222,-2442.679609,-11251.130318,-536.266849
163407.527541,-3108.864956,-11769.274478,-2068.457845
163407.527861,-1850.514855,-12065.356855,-2451.505594
163407.528180,1110.308913,-9326.594869,-1608.800546
163407.528499,518.144159,-8512.368333,-306.438199
163407.528818,-1036.288319,-8660.409521,-995.924147
163407.529137,-518.144159,-9474.636058,-995.924147
163407.529457,2590.720797,-10066.800811,1915.238745
163407.529776,1110.308913,-9030.512492,1762.019645
163407.530095,-592.164754,-9770.718434,1685.410096
163407.530414,-74.020594,-10066.800811,-76.609550
163407.530733,2294.638420,-8290.306550,995.924147
163407.531053,0.000000,-5107.421000,1225.752797
163407.531372,-2442.679609,-6809.894666,-1608.800546
163407.531691,-2294.638420,-9326.594869,-1915.238745
163407.532010,-518.144159,-9770.718434,-612.876398
163407.532329,-222.061783,-9474.636058,306.438199
163407.532648,-740.205942,-9178.553681,-689.485948
163407.532968,-1480.411884,-10510.924376,-766.095498
163407.533287,592.164754,-8364.327145,-1838.629195
163407.533606,1776.494261,-8956.491898,1838.629195
163407.533925,666.185348,-8586.388927,766.095498
163407.534244,-3256.906145,-9548.656652,-2145.067394
163407.534564,-1628.453072,-10807.006753,-2221.676944
163407.534883,-592.164754,-9918.759623,-919.314598
163407.535202,-1406.391290,-9696.697840,-689.485948
163407.535521,-1776.494261,-9548.656652,-2451.505594
163407.535840,370.102971,-8586.388927,-2068.457845
163407.536160,2146.597232,-7698.141797,1149.143247
163407.536479,0.000000,-4811.338623,0.000000
163407.536798,-148.041188,-8734.430116,-689.485948
163407.537117,-74.020594,-10658.965565,-76.609550
163407.537436,592.164754,-9548.656652,1225.752797
163407.537756,666.185348,-9548.656652,842.705048
163407.538075,-592.164754,-10510.924376,-766.095498
163407.538394,666.185348,-11695.253884,0.000000
163407.538713,1628.453072,-8364.327145,0.000000
163407.539032,2294.638420,-9326.594869,1762.019645
163407.539351,-370.102971,-9474.636058,-1302.362347
163407.539671,-1554.432478,-9844.739029,-1915.238745
163407.539990,-1184.329507,-7772.162391,-1149.143247
163407.540309,1702.473667,-9474.636058,2374.896044
163407.540628,-2368.659014,-9548.656652,0.000000
163407.540947,-1406.391290,-9844.739029,-459.657299
163407.541267,814.226536,-8586.388927,1072.533697
163407.541586,296.082377,-6957.935855,766.095498
163407.541905,-1628.453072,-6513.812290,0.000000
163407.542224,-1554.432478,-9474.636058,-1915.238745
163407.542543,-666.185348,-9696.697840,-76.609550
163407.542863,-3034.844362,-6883.915261,-2145.067394
163407.543182,-2368.659014,-10140.821405,0.000000
163407.543501,-74.020594,-12435.459826,-689.485948
163407.543820,296.082377,-11029.068536,-612.876398
163407.544139,1406.391290,-8956.491898,536.266849
163407.544459,-444.123565,-8364.327145,-459.657299
163407.544778,-74.020594,-10584.944971,-612.876398
163407.545097,74.020594,-10732.986159,0.000000
163407.545416,1258.350101,-9992.780217,0.000000
163407.545735,-74.020594,-11843.295072,2068.457845
163407.546054,-2442.679609,-9030.512492,-1378.971896
163407.546374,0.000000,-7476.080014,0.000000
163407.546693,4071.132681,-8290.306550,3294.210641
163407.547012,444.123565,-6439.791695,1302.362347
163407.547331,-1258.350101,-8068.244768,-383.047749
163407.547650,-1332.370696,-9252.574275,-383.047749
163407.547970,592.164754,-10732.986159,2221.676944
163407.548289,-2072.576638,-9104.533087,-2451.505594
163407.548608,-3552.988522,-11621.233289,-1225.752797
163407.548927,-1258.350101,-11843.295072,-1455.581446
163407.549246,0.000000,-8364.327145,-2374.896044
163407.549566,-2072.576638,-7179.997637,-2451.505594
163407.549885,-962.267725,-8882.471304,-2374.896044
163407.550204,-1184.329507,-10214.842000,-2145.067394
163407.550523,888.247130,-9844.739029,-766.095498
163407.550842,1110.308913,-9252.574275,229.828649
163407.551162,592.164754,-10140.821405,1072.533697
163407.551481,0.000000,-8438.347739,0.000000
163407.551800,1184.329507,-7920.203579,1225.752797
163407.552119,1184.329507,-5995.668130,1225.752797
163407.552438,518.144159,-7994.224174,-76.609550
163407.552757,-3552.988522,-7179.997637,-3370.820191
163407.553077,444.123565,-10140.821405,-689.485948
163407.553396,0.000000,-9622.677246,306.438199
163407.553715,-962.267725,-10584.944971,-689.485948
163407.554034,-74.020594,-10362.883188,-1608.800546
163407.554353,2294.638420,-10066.800811,842.705048
163407.554673,1480.411884,-7179.997637,1762.019645
163407.554992,-1776.494261,-5995.668130,0.000000
163407.555311,-444.123565,-10066.800811,-229.828649
163407.555630,1554.432478,-11695.253884,1608.800546
163407.555949,-1776.494261,-8364.327145,0.000000
163407.556269,-2146.597232,-10362.883188,-766.095498
163407.556588,-3849.070898,-10732.986159,-2221.676944
163407.556907,-2368.659014,-10732.986159,-1685.410096
163407.557226,-74.020594,-7698.141797,-1302.362347
163407.557545,-370.102971,-7402.059420,383.047749
163407.557865,-666.185348,-7105.977043,-995.924147
163407.558184,0.000000,-7772.162391,0.000000
163407.558503,2220.617826,-8660.409521,2451.505594
163407.558822,-1776.494261,-6587.832884,919.314598
163407.559141,-1554.432478,-9770.718434,0.000000
163407.559460,-888.247130,-10955.047942,-153.219100
163407.559780,1406.391290,-10066.800811,842.705048
163407.560099,592.164754,-7476.080014,-1149.143247
163407.560418,-592.164754,-10807.006753,-2145.067394
163407.560737,-2960.823768,-10140.821405,-2451.505594
163407.561056,370.102971,-11251.130318,-229.828649
163407.561376,2294.638420,-12731.542202,1762.019645
163407.561695,-2220.617826,-8956.491898,-2145.067394
163407.562014,-74.020594,-8882.471304,-995.924147
163407.562333,3034.844362,-7698.141797,3064.381992
163407.562652,2294.638420,-5329.482782,2528.115143
163407.562972,-444.123565,-5995.668130,919.314598
163407.563291,-74.020594,-9474.636058,-76.609550
163407.563610,-1480.411884,-9326.594869,-76.609550
163407.563929,-1554.432478,-9104.533087,459.657299
163407.564248,-3627.009116,-8956.491898,-2298.286494
163407.564568,-4145.153275,-10881.027347,-2451.505594
163407.564887,-74.020594,-10362.883188,-2528.115143
163407.565206,-74.020594,-9992.780217,-766.095498
163407.565525,-1850.514855,-9178.553681,-2451.505594
163407.565844,-2294.638420,-9548.656652,-3370.820191
163407.566163,0.000000,-10214.842000,-995.924147
163407.566483,1184.329507,-11325.150913,1838.629195
163407.566802,444.123565,-8882.471304,766.095498
163407.567121,0.000000,-9770.718434,306.438199
163407.567440,1702.473667,-9400.615463,1302.362347
163407.567759,1184.329507,-6143.709319,995.924147
163407.568079,1628.453072,-7920.203579,1762.019645
163407.568398,-74.020594,-8290.306550,-689.485948
163407.568717,-2368.659014,-7920.203579,0.000000
163407.569036,0.000000,-7179.997637,0.000000
163407.569355,-74.020594,-9474.636058,-76.609550
163407.569675,-2368.659014,-9844.739029,-1225.752797
163407.569994,-1480.411884,-10584.944971,-842.705048
163407.570313,1628.453072,-9770.718434,612.876398
163407.570632,1628.453072,-8068.244768,306.438199
163407.570951,-1184.329507,-9548.656652,-1225.752797
163407.571271,-814.226536,-10881.027347,-2681.334243
163407.571590,-74.020594,-11547.212695,-1915.238745
163407.571909,-3552.988522,-9548.656652,-2451.505594
163407.572228,-2664.741391,-11103.089130,0.000000
163407.572547,-74.020594,-11843.295072,-76.609550
163407.572866,2368.659014,-8956.491898,2068.457845
163407.573186,2590.720797,-6217.729913,1762.019645
163407.573505,888.247130,-6143.709319,536.266849
163407.573824,-148.041188,-7328.038826,-76.609550
163407.574143,296.082377,-8956.491898,919.314598
163407.574462,-666.185348,-9474.636058,306.438199
163407.574782,-1258.350101,-11695.253884,-76.609550
163407.575101,-3330.926739,-10140.821405,-2987.772442
163407.575420,74.020594,-10288.862594,0.000000
163407.575739,3478.967927,-9474.636058,-76.609550
163407.576058,-666.185348,-8364.327145,-1838.629195
163407.576378,-962.267725,-9770.718434,-2451.505594
163407.576697,814.226536,-11251.130318,-842.705048
163407.577016,2960.823768,-11325.150913,2987.772442
163407.577335,0.000000,-8364.327145,0.000000
163407.577654,-592.164754,-10140.821405,1762.019645
163407.577974,2886.803174,-9474.636058,1762.019645
163407.578293,2368.659014,-6069.688724,2374.896044
163407.578612,-2368.659014,-3627.009116,612.876398
163407.578931,-666.185348,-6513.812290,-383.047749
163407.579250,-1702.473667,-9326.594869,-1149.143247
163407.579569,-1258.350101,-9844.739029,-842.705048
163407.579889,-3775.050304,-9696.697840,-1455.581446
163407.580208,-5181.441594,-10140.821405,-2911.162892
163407.580527,-3627.009116,-11621.233289,-3140.991542
163407.580846,-1184.329507,-10288.862594,-1072.533697
163407.581165,-1776.494261,-8364.327145,0.000000
163407.581485,-74.020594,-9474.636058,-1302.362347
163407.581804,-2368.659014,-9548.656652,-3677.258390
163407.582123,2294.638420,-11177.109724,-76.609550
163407.582442,148.041188,-9844.739029,612.876398
163407.582761,-1554.432478,-9548.656652,0.000000
163407.583081,0.000000,-9696.697840,-76.609550
163407.583400,3478.967927,-8808.450710,1762.019645
163407.583719,2072.576638,-5551.544565,2451.505594
163407.584038,-74.020594,-6217.729913,-383.047749
163407.584357,-2368.659014,-7772.162391,-1762.019645
163407.584677,-74.020594,-11177.109724,919.314598
163407.584996,-3552.988522,-8364.327145,0.000000
163407.585315,-3034.844362,-10288.862594,-1608.800546
163407.585634,-1998.556043,-10955.047942,-1302.362347
163407.585953,444.123565,-10140.821405,153.219100
163407.586272,1702.473667,-7031.956449,383.047749
163407.586592,1110.308913,-7698.141797,-76.609550
163407.586911,-74.020594,-8882.471304,-2528.115143
163407.587230,0.000000,-10140.821405,0.000000
163407.587549,370.102971,-10955.047942,612.876398
163407.587868,-1554.432478,-12583.501014,-76.609550
163407.588188,-4145.153275,-11325.150913,-1838.629195
163407.588507,518.144159,-11325.150913,-689.485948
163407.588826,2220.617826,-8142.265362,1838.629195
163407.589145,962.267725,-6217.729913,1378.971896
163407.589464,-74.020594,-6513.812290,-689.485948
163407.589784,1332.370696,-9770.718434,-76.609550
163407.590103,1554.432478,-8882.471304,-76.609550
163407.590422,-1258.350101,-9178.553681,-689.485948
163407.590741,-3552.988522,-9548.656652,-2451.505594
163407.591060,1554.432478,-14211.954086,-76.609550
163407.591380,1184.329507,-10140.821405,536.266849
163407.591699,888.247130,-8438.347739,0.000000
163407.592018,-444.123565,-9252.574275,-2374.896044
163407.592337,0.000000,-10140.821405,-1838.629195
163407.592656,1480.411884,-9548.656652,0.000000
163407.592975,592.164754,-10362.883188,1302.362347
163407.593295,-74.020594,-12435.459826,2068.457845
163407.593614,-74.020594,-9474.636058,-383.047749
163407.593933,1702.473667,-5403.503377,842.705048
163407.594252,3775.050304,-7105.977043,4213.525239
163407.594571,-444.123565,-6439.791695,153.219100
163407.594891,-666.185348,-9474.636058,-689.485948
163407.595210,-962.267725,-9400.615463,-76.609550
163407.595529,-3552.988522,-8364.327145,0.000000
163407.595848,-4737.318029,-9844.739029,-2374.896044
163407.596167,-3552.988522,-11325.150913,-1225.752797
163407.596487,-74.020594,-11843.295072,-383.047749
163407.596806,0.000000,-7476.080014,-995.924147
163407.597125,-666.185348,-6735.874072,-3983.696590
163407.597444,518.144159,-11103.089130,-1608.800546
163407.597763,1184.329507,-10140.821405,-689.485948
163407.598083,148.041188,-9474.636058,689.485948
163407.598402,-592.164754,-9696.697840,229.828649
163407.598721,0.000000,-10732.986159,153.219100
163407.599040,0.000000,-8364.327145,306.438199
163407.599359,3997.112087,-8512.368333,4136.915689
163407.599678,1702.473667,-6513.812290,2374.896044
163407.599998,-74.020594,-7031.956449,-1915.238745
163407.600317,1998.556043,-9474.636058,-76.609550
163407.600636,-1036.288319,-8808.450710,766.095498
163407.600955,-1628.453072,-8882.471304,-153.219100
163407.601274,-3775.050304,-10362.883188,-1225.752797
163407.601594,-2368.659014,-11325.150913,0.000000
163407.601913,-444.123565,-8808.450710,536.266849
163407.602232,-74.020594,-8290.306550,-383.047749
163407.602551,-2072.576638,-8290.306550,-2528.115143
163407.602870,-2368.659014,-9844.739029,0.000000
163407.603190,2886.803174,-13027.624579,2374.896044
163407.603509,-1184.329507,-10140.821405,0.000000
163407.603828,-2812.782580,-10140.821405,-1608.800546
163407.604147,-1776.494261,-10732.986159,-1072.533697
163407.604466,1554.432478,-9178.553681,1455.581446
163407.604786,0.000000,-4811.338623,0.000000
163407.605105,-74.020594,-9030.512492,-76.609550
163407.605424,-1628.453072,-9104.533087,-1378.971896
163407.605743,0.000000,-9104.533087,-536.266849
163407.606062,-666.185348,-8290.306550,-1608.800546
163407.606381,-74.020594,-10066.800811,-1608.800546
163407.606701,-74.020594,-12435.459826,-76.609550
163407.607020,1110.308913,-9326.594869,536.266849
163407.607339,1036.288319,-6587.832884,-1762.019645
163407.607658,1998.556043,-9400.615463,1608.800546
163407.607977,0.000000,-7476.080014,-2451.505594
163407.608297,2368.659014,-10658.965565,-76.609550
163407.608616,1850.514855,-10066.800811,766.095498
163407.608935,-1036.288319,-9696.697840,-536.266849
163407.609254,-1258.350101,-11843.295072,-383.047749
163407.609573,370.102971,-10066.800811,0.000000
163407.609893,3478.967927,-9474.636058,1762.019645
163407.610212,-592.164754,-6809.894666,-76.609550
163407.610531,-3256.906145,-6291.750507,-2298.286494
163407.610850,-148.041188,-9548.656652,1991.848295
163407.611169,0.000000,-7179.997637,0.000000
163407.611488,-888.247130,-9030.512492,76.609550
163407.611808,-2368.659014,-9696.697840,-842.705048
163407.612127,-1332.370696,-9696.697840,-842.705048
163407.612446,0.000000,-8068.244768,-2145.067394
163407.612765,814.226536,-10140.821405,0.000000
163407.613084,-74.020594,-11843.295072,-1915.238745
163407.613403,-1258.350101,-10955.047942,-3447.429741
163407.613722,592.164754,-9548.656652,-2987.772442
163407.614042,740.205942,-10436.903782,-76.609550
163407.614361,-370.102971,-11251.130318,-536.266849
163407.614680,1406.391290,-10955.047942,229.828649
163407.614999,4145.153275,-9326.594869,3217.601092
163407.615318,4441.235652,-7624.121203,4903.011187
163407.615637,0.000000,-7179.997637,2757.943793
163407.615956,0.000000,-9104.533087,2451.505594
163407.616276,1998.556043,-8586.388927,995.924147
163407.616595,-1332.370696,-7476.080014,76.609550
163407.616914,-4737.318029,-7772.162391,-1838.629195
163407.617233,-2442.679609,-11843.295072,-1302.362347
163407.617552,-1998.556043,-10288.862594,-1378.971896
163407.617871,-1406.391290,-8882.471304,-842.705048
163407.618190,-3330.926739,-8290.306550,-2911.162892
163407.618510,-2368.659014,-10732.986159,-1838.629195
163407.618829,-740.205942,-10140.821405,-1378.971896
163407.619148,0.000000,-8956.491898,0.000000
163407.619467,-1480.411884,-9548.656652,0.000000
163407.619786,-74.020594,-11251.130318,2068.457845
163407.620105,0.000000,-6587.832884,0.000000
163407.620424,4071.132681,-7402.059420,2374.896044
163407.620744,0.000000,-7031.956449,229.828649
163407.621063,-2146.597232,-8512.368333,-1302.362347
163407.621382,-1554.432478,-9474.636058,-1915.238745
163407.621701,-1776.494261,-9622.677246,-995.924147
163407.622020,-3701.029710,-8956.491898,-1838.629195
163407.622339,-2368.659014,-9548.656652,-2834.553343
163407.622658,0.000000,-9548.656652,0.000000
163407.622978,2368.659014,-9474.636058,3447.429741
163407.623297,0.000000,-4811.338623,0.000000
163407.623616,-148.041188,-9252.574275,-383.047749
163407.623935,370.102971,-9992.780217,0.000000
163407.624254,1332.370696,-9844.739029,383.047749
163407.624573,-74.020594,-9474.636058,-76.609550
163407.624892,-74.020594,-11251.130318,-229.828649
163407.625212,518.144159,-10658.965565,-1302.362347
163407.625531,1184.329507,-8512.368333,919.314598
163407.625850,0.000000,-8068.244768,919.314598
163407.626169,-1480.411884,-8808.450710,1072.533697
163407.626488,-4145.153275,-8364.327145,-2451.505594
163407.626807,-370.102971,-9622.677246,-153.219100
163407.627126,-1628.453072,-8882.471304,153.219100
163407.627446,-3256.906145,-9252.574275,-153.219100
163407.627765,-666.185348,-9474.636058,-689.485948
163407.628084,1998.556043,-10140.821405,2451.505594
163407.628403,2294.638420,-8290.306550,-76.609550
163407.628722,-1776.494261,-7772.162391,-1685.410096
163407.629041,-2368.659014,-8364.327145,-2911.162892
163407.629360,1776.494261,-12435.459826,2068.457845
163407.629680,-740.205942,-9696.697840,0.000000
163407.629999,-1850.514855,-10362.883188,-995.924147
163407.630318,0.000000,-11399.171507,-919.314598
163407.630637,2886.803174,-10288.862594,1225.752797
163407.630956,4071.132681,-7994.224174,2451.505594
163407.631275,0.000000,-7772.162391,689.485948
163407.631594,-814.226536,-9178.553681,-689.485948
163407.631914,-74.020594,-9474.636058,-1915.238745
163407.632233,-1184.329507,-8142.265362,76.609550
163407.632552,-74.020594,-11251.130318,2374.896044
163407.632871,-1628.453072,-9548.656652,0.000000
163407.633190,592.164754,-9400.615463,229.828649
163407.633509,1332.370696,-8068.244768,1149.143247
163407.633829,-2368.659014,-5403.503377,0.000000
163407.634148,-3552.988522,-7772.162391,-3064.381992
163407.634467,-1776.494261,-10140.821405,-4903.011187
163407.634786,-2368.659014,-10732.986159,-1225.752797
163407.635105,-1258.350101,-11843.295072,-1302.362347
163407.635424,-1258.350101,-10658.965565,-2528.115143
163407.635743,1332.370696,-11843.295072,-76.609550
163407.636063,3701.029710,-8290.306550,1532.190996
163407.636382,2442.679609,-6217.729913,1685.410096
163407.636701,592.164754,-7105.977043,612.876398
163407.637020,0.000000,-8364.327145,0.000000
163407.637339,1184.329507,-8586.388927,-689.485948
163407.637658,0.000000,-8364.327145,1225.752797
163407.637977,-370.102971,-10362.883188,536.266849
163407.638297,-74.020594,-12731.542202,-76.609550
163407.638616,2664.741391,-11843.295072,2987.772442
163407.638935,592.164754,-7476.080014,229.828649
163407.639254,-740.205942,-7994.224174,-383.047749
163407.639573,-1628.453072,-9474.636058,-2451.505594
163407.639892,-1184.329507,-9548.656652,0.000000
163407.640211,-370.102971,-9770.718434,-459.657299
163407.640531,-666.185348,-11251.130318,-76.609550
163407.640850,-1702.473667,-10732.986159,-919.314598
163407.641169,2960.823768,-10436.903782,3064.381992
163407.641488,5551.544565,-10658.965565,4826.401637
163407.641807,0.000000,-7179.997637,1225.752797
163407.642126,-3034.844362,-8808.450710,-2221.676944
163407.642445,-2146.597232,-10584.944971,-1225.752797
163407.642765,-1702.473667,-9918.759623,-1072.533697
163407.643084,-3627.009116,-7920.203579,-3217.601092
163407.643403,-1850.514855,-10658.965565,-383.047749
163407.643722,0.000000,-9548.656652,153.219100
163407.644041,1406.391290,-7698.141797,919.314598
163407.644360,296.082377,-6291.750507,-383.047749
163407.644679,-74.020594,-9474.636058,-76.609550
163407.644999,1110.308913,-11843.295072,-76.609550
163407.645318,1702.473667,-9474.636058,-689.485948
163407.645637,-1184.329507,-9548.656652,76.609550
163407.645956,-2072.576638,-11325.150913,-612.876398
163407.646275,-1554.432478,-9548.656652,-2298.286494
163407.646594,2886.803174,-9992.780217,1149.143247
163407.646913,1184.329507,-7328.038826,536.266849
163407.647233,-1850.514855,-7772.162391,-689.485948
163407.647552,-74.020594,-9474.636058,-689.485948
163407.647871,666.185348,-8882.471304,383.047749
163407.648190,0.000000,-7179.997637,1225.752797
163407.648509,-74.020594,-8808.450710,2681.334243
163407.648828,2294.638420,-9474.636058,1149.143247
163407.649147,1184.329507,-7179.997637,2451.505594
163407.649467,-1036.288319,-6291.750507,0.000000
163407.649786,-3330.926739,-9104.533087,-3447.429741
163407.650105,-3256.906145,-11029.068536,-4826.401637
163407.650424,-2590.720797,-11547.212695,-3294.210641
163407.650743,-2738.761985,-10436.903782,-2681.334243
163407.651062,-2738.761985,-11029.068536,-2451.505594
163407.651381,-888.247130,-9696.697840,-2451.505594
163407.651701,2368.659014,-9548.656652,1838.629195
163407.652020,4663.297435,-7105.977043,3064.381992
163407.652339,1184.329507,-6587.832884,2757.943793
163407.652658,592.164754,-7402.059420,306.438199
163407.652977,1850.514855,-9178.553681,1378.971896
163407.653296,888.247130,-8438.347739,1838.629195
163407.653615,-2072.576638,-9548.656652,0.000000
163407.653935,-4071.132681,-9548.656652,-3524.039291
163407.654254,-1036.288319,-9992.780217,-3677.258390
163407.654573,0.000000,-9548.656652,919.314598
163407.654892,-370.102971,-8586.388927,-689.485948
163407.655211,-1406.391290,-9474.636058,-2528.115143
163407.655530,-888.247130,-10140.821405,153.219100
163407.655849,74.020594,-8438.347739,306.438199
163407.656169,-1036.288319,-9326.594869,383.047749
163407.656488,-1036.288319,-10140.821405,766.095498
163407.656807,0.000000,-8364.327145,0.000000
163407.657126,962.267725,-9474.636058,3294.210641
163407.657445,0.000000,-6291.750507,0.000000
163407.657764,-2220.617826,-9178.553681,-1225.752797
163407.658084,-1258.350101,-11399.171507,-689.485948
163407.658403,-370.102971,-10658.965565,-1302.362347
163407.658722,-2664.741391,-11177.109724,-842.705048
163407.659041,-2590.720797,-11325.150913,-1378.971896
163407.659360,-1110.308913,-10362.883188,-536.266849
163407.659679,1776.494261,-8068.244768,1302.362347
163407.659998,1110.308913,-5403.503377,766.095498
163407.660318,518.144159,-8290.306550,-229.828649
163407.660637,-370.102971,-8734.430116,-1608.800546
163407.660956,0.000000,-7179.997637,0.000000
163407.661275,1110.308913,-11547.212695,1455.581446
163407.661594,-74.020594,-11695.253884,-1915.238745
163407.661913,-592.164754,-12065.356855,0.000000
163407.662232,2664.741391,-10584.944971,842.705048
163407.662552,2368.659014,-7846.182985,919.314598
163407.662871,1702.473667,-9474.636058,1762.019645
163407.663190,-518.144159,-10362.883188,766.095498
163407.663509,1036.288319,-9178.553681,0.000000
163407.663828,1628.453072,-10066.800811,1608.800546
163407.664147,-666.185348,-9178.553681,-76.609550
163407.664466,-2960.823768,-8364.327145,0.000000
163407.664786,1702.473667,-8586.388927,-76.609550
163407.665105,888.247130,-7846.182985,689.485948
163407.665424,-1184.329507,-7254.018232,-1072.533697
163407.665743,-2442.679609,-9030.512492,-3064.381992
163407.666062,-74.020594,-12435.459826,-76.609550
163407.666381,-148.041188,-11325.150913,-3677.258390
163407.666700,-2220.617826,-11029.068536,-1225.752797
163407.667020,-666.185348,-11843.295072,-1302.362347
163407.667339,814.226536,-10362.883188,-76.609550
163407.667658,0.000000,-5995.668130,612.876398
163407.667977,3478.967927,-7105.977043,1608.800546
163407.668296,740.205942,-7179.997637,612.876398
163407.668615,1110.308913,-9474.636058,842.705048
163407.668934,1850.514855,-9622.677246,689.485948
163407.669254,1184.329507,-9844.739029,1455.581446
163407.669573,-4145.153275,-9548.656652,-1225.752797
163407.669892,-370.102971,-12287.418637,-76.609550
163407.670211,518.144159,-11843.295072,-76.609550
163407.670530,-666.185348,-8586.388927,-76.609550
163407.670849,-4737.318029,-5995.668130,-2451.505594
163407.671168,-1554.432478,-8882.471304,-1762.019645
163407.671488,666.185348,-9178.553681,-153.219100
163407.671807,74.020594,-8882.471304,612.876398
163407.672126,-1850.514855,-8290.306550,-995.924147
163407.672445,-666.185348,-10214.842000,-689.485948
163407.672764,592.164754,-9030.512492,229.828649
163407.673083,1776.494261,-9548.656652,3370.820191
163407.673402,-74.020594,-8882.471304,-76.609550
163407.673722,-1554.432478,-10362.883188,-689.485948
163407.674041,-2368.659014,-9844.739029,-1838.629195
163407.674360,-74.020594,-10066.800811,-153.219100
163407.674679,-1924.535449,-9696.697840,-153.219100
163407.674998,-2368.659014,-10140.821405,-459.657299
163407.675317,-666.185348,-8290.306550,-2834.553343
163407.675636,592.164754,-6809.894666,1149.143247
163407.675956,-2368.659014,-4811.338623,0.000000
163407.676275,-1184.329507,-8364.327145,-1072.533697
163407.676594,-74.020594,-10288.862594,-229.828649
163407.676913,-1776.494261,-9548.656652,153.219100
163407.677232,-962.267725,-10362.883188,-229.828649
163407.677551,-888.247130,-10881.027347,-689.485948
163407.677870,814.226536,-10510.924376,76.609550
163407.678190,2294.638420,-7772.162391,0.000000
163407.678509,1702.473667,-8882.471304,76.609550
163407.678828,-2368.659014,-7772.162391,0.000000
163407.679147,-222.061783,-10510.924376,-153.219100
163407.679466,-74.020594,-9474.636058,-76.609550
163407.679785,-3552.988522,-7179.997637,0.000000
163407.680104,-3330.926739,-8586.388927,-2068.457845
163407.680424,-1480.411884,-10436.903782,-842.705048
163407.680743,0.000000,-9252.574275,0.000000
163407.681062,-444.123565,-8068.244768,-459.657299
163407.681381,-74.020594,-9474.636058,-76.609550
163407.681700,-1332.370696,-9474.636058,-2221.676944
163407.682019,0.000000,-9178.553681,-1455.581446
163407.682338,-2368.659014,-7179.997637,0.000000
163407.682658,-296.082377,-11325.150913,153.219100
163407.682977,-74.020594,-10362.883188,-3140.991542
163407.683296,2294.638420,-10955.047942,842.705048
163407.683615,1554.432478,-7772.162391,919.314598
163407.683934,518.144159,-7550.100608,0.000000
163407.684253,518.144159,-9030.512492,-536.266849
163407.684573,1480.411884,-11325.150913,2451.505594
163407.684892,666.185348,-9104.533087,1302.362347
163407.685211,-1258.350101,-9030.512492,0.000000
163407.685530,-1776.494261,-10362.883188,-612.876398
163407.685849,0.000000,-8364.327145,0.000000
163407.686168,0.000000,-7179.997637,612.876398
163407.686487,-74.020594,-7105.977043,-383.047749
163407.686807,-2886.803174,-7624.121203,-2451.505594
163407.687126,-3552.988522,-9548.656652,-2451.505594
163407.687445,-74.020594,-11843.295072,-76.609550
163407.687764,-2368.659014,-10807.006753,-306.438199
163407.688083,-2146.597232,-10807.006753,-1072.533697
163407.688402,518.144159,-10955.047942,153.219100
163407.688721,2516.700203,-8956.491898,2068.457845
163407.689041,1184.329507,-7179.997637,1378.971896
163407.689360,-1184.329507,-8364.327145,-689.485948
163407.689679,-74.020594,-9474.636058,-76.609550
163407.689998,1702.473667,-9474.636058,-1302.362347
163407.690317,-2072.576638,-9548.656652,-1532.190996
163407.690636,-74.020594,-11843.295072,-76.609550
163407.690955,-1184.329507,-11325.150913,-459.657299
163407.691275,148.041188,-9548.656652,-536.266849
163407.691594,0.000000,-7179.997637,-689.485948
163407.691913,-962.267725,-7846.182985,-689.485948
163407.692232,296.082377,-9548.656652,306.438199
163407.692551,2072.576638,-9474.636058,1302.362347
163407.692870,2886.803174,-10658.965565,2987.772442
163407.693189,-814.226536,-8734.430116,229.828649
163407.693509,0.000000,-9548.656652,0.000000
163407.693828,3478.967927,-9474.636058,-76.609550
163407.694147,1184.329507,-7476.080014,1302.362347
163407.694466,-592.164754,-7846.182985,-229.828649
163407.694785,-1258.350101,-9474.636058,-2528.115143
163407.695104,592.164754,-11917.315666,536.266849
163407.695423,-1184.329507,-10732.986159,0.000000
163407.695743,-4145.153275,-10732.986159,0.000000
163407.696062,-2442.679609,-11547.212695,-1302.362347
163407.696381,-666.185348,-11843.295072,-76.609550
163407.696700,-1776.494261,-5995.668130,0.000000
163407.697019,-74.020594,-6809.894666,-76.609550
163407.697338,-296.082377,-7402.059420,-153.219100
163407.697657,740.205942,-8364.327145,-306.438199
163407.697977,148.041188,-8364.327145,0.000000
163407.698296,-1776.494261,-8956.491898,76.609550
163407.698615,-3256.906145,-10510.924376,-2451.505594
163407.698934,-1628.453072,-11621.233289,-1225.752797
163407.699253,1628.453072,-11029.068536,1915.238745
163407.699572,1702.473667,-9474.636058,-76.609550
163407.699891,-2368.659014,-6587.832884,-2451.505594
163407.700211,1110.308913,-9474.636058,-612.876398
163407.700530,1924.535449,-9400.615463,1149.143247
163407.700849,1184.329507,-8364.327145,1455.581446
163407.701168,-296.082377,-8660.409521,153.219100
163407.701487,-74.020594,-9918.759623,-76.609550
163407.701806,592.164754,-7328.038826,459.657299
163407.702125,0.000000,-5995.668130,306.438199
163407.702445,-74.020594,-9474.636058,-383.047749
163407.702764,-74.020594,-11251.130318,-76.609550
163407.703083,-3552.988522,-9548.656652,-1838.629195
163407.703402,-1850.514855,-9474.636058,-1072.533697
163407.703721,-3182.885551,-10658.965565,-1762.019645
163407.704040,-2072.576638,-10066.800811,-1685.410096
163407.704359,1110.308913,-9474.636058,-1302.362347
163407.704679,1702.473667,-7994.224174,-76.609550
163407.704998,1998.556043,-8290.306550,-383.047749
163407.705317,-1776.494261,-7772.162391,-2068.457845
163407.705636,1554.432478,-10436.903782,1532.190996
163407.705955,2294.638420,-12435.459826,2987.772442
163407.706274,-2368.659014,-10140.821405,-1225.752797
163407.706593,-1332.370696,-11029.068536,-842.705048
163407.706913,814.226536,-10436.903782,229.828649
163407.707232,1776.494261,-7772.162391,229.828649
163407.707551,1110.308913,-7698.141797,-76.609550
163407.707870,1184.329507,-9474.636058,-383.047749
163407.708189,814.226536,-8882.471304,-689.485948
163407.708508,370.102971,-8882.471304,-76.609550
163407.708827,-2368.659014,-7772.162391,-1838.629195
163407.709147,-74.020594,-13619.789333,-76.609550
163407.709466,-592.164754,-9622.677246,0.000000
163407.709785,1332.370696,-9178.553681,1685.410096
163407.710104,592.164754,-7994.224174,766.095498
163407.710424,-1776.494261,-7772.162391,0.000000
163407.710743,-888.247130,-8364.327145,0.000000
163407.711062,592.164754,-9844.739029,76.609550
163407.711381,-74.020594,-12287.418637,2834.553343
163407.711700,-2442.679609,-10658.965565,-1302.362347
163407.712020,-2442.679609,-10066.800811,-1608.800546
163407.712339,1406.391290,-11547.212695,1149.143247
163407.712658,-740.205942,-8142.265362,0.000000
163407.712977,-1184.329507,-8068.244768,-689.485948
163407.713297,-148.041188,-8142.265362,-536.266849
163407.713616,0.000000,-8364.327145,1225.752797
163407.713935,-888.247130,-9548.656652,0.000000
163407.714254,-1258.350101,-13027.624579,-76.609550
163407.714574,-3256.906145,-9548.656652,-1762.019645
163407.714893,1184.329507,-9548.656652,1225.752797
163407.715212,3478.967927,-8882.471304,536.266849
163407.715531,518.144159,-8142.265362,0.000000
163407.715851,0.000000,-8586.388927,-306.438199
163407.716170,1628.453072,-9622.677246,459.657299
163407.716489,592.164754,-9178.553681,689.485948
163407.716808,-3552.988522,-9548.656652,0.000000
163407.717128,-5255.462188,-8364.327145,-2145.067394
163407.717447,-1184.329507,-10140.821405,612.876398
163407.717766,1702.473667,-8882.471304,2374.896044
163407.718085,-74.020594,-7105.977043,-76.609550
163407.718404,-74.020594,-10658.965565,-76.609550
163407.718724,-518.144159,-8438.347739,-612.876398
163407.719043,-518.144159,-8882.471304,-459.657299
163407.719362,-2738.761985,-9474.636058,-842.705048
163407.719681,-4737.318029,-10140.821405,-1838.629195
163407.720001,-1480.411884,-10732.986159,-689.485948
163407.720320,1998.556043,-9474.636058,-76.609550
163407.720639,0.000000,-6809.894666,-1378.971896
163407.720958,-2368.659014,-7179.997637,-1225.752797
163407.721278,2886.803174,-13027.624579,-76.609550
163407.721597,592.164754,-9548.656652,-1072.533697
163407.721916,0.000000,-10140.821405,0.000000
163407.722235,-1850.514855,-11029.068536,-153.219100
163407.722555,-370.102971,-11177.109724,-76.609550
163407.722874,592.164754,-7179.997637,0.000000
163407.723193,2294.638420,-7772.162391,1455.581446
163407.723512,1332.370696,-7179.997637,-153.219100
163407.723832,1554.432478,-8364.327145,-536.266849
163407.724151,2146.597232,-9474.636058,-76.609550
163407.724470,1702.473667,-10658.965565,-689.485948
163407.724789,-1776.494261,-11547.212695,383.047749
163407.725108,-1258.350101,-11251.130318,-1608.800546
163407.725428,222.061783,-9474.636058,-76.609550
163407.725747,1184.329507,-7772.162391,1532.190996
163407.726066,0.000000,-5995.668130,0.000000
163407.726385,1110.308913,-8808.450710,76.609550
163407.726705,962.267725,-9030.512492,76.609550
163407.727024,-444.123565,-8882.471304,0.000000
163407.727343,-1850.514855,-10066.800811,-1762.019645
163407.727662,-3256.906145,-11325.150913,-1838.629195
163407.727982,-74.020594,-12435.459826,-76.609550
163407.728301,222.061783,-9474.636058,-76.609550
163407.728620,-1850.514855,-7031.956449,-1915.238745
163407.728939,0.000000,-8364.327145,-1685.410096
163407.729259,0.000000,-8660.409521,-1685.410096
163407.729578,740.205942,-8512.368333,-76.609550
163407.729897,-1480.411884,-9178.553681,-306.438199
163407.730216,-1554.432478,-10288.862594,-306.438199
163407.730536,518.144159,-9548.656652,-1225.752797
163407.730855,1776.494261,-8660.409521,2604.724693
163407.731174,1776.494261,-7476.080014,3064.381992
163407.731493,-74.020594,-8290.306550,-76.609550
163407.731812,444.123565,-8808.450710,-383.047749
163407.732132,0.000000,-11917.315666,2451.505594
163407.732451,-2812.782580,-10140.821405,-766.095498
163407.732770,-3849.070898,-11473.192101,-1302.362347
163407.733089,-2294.638420,-11399.171507,-383.047749
163407.733409,-2368.659014,-7179.997637,0.000000
163407.733728,-2960.823768,-5403.503377,-1225.752797
163407.734047,-3034.844362,-6587.832884,-2757.943793
163407.734366,-2960.823768,-8364.327145,-1225.752797
163407.734686,-444.123565,-10140.821405,0.000000
163407.735005,-74.020594,-10658.965565,-76.609550
163407.735324,-2664.741391,-10732.986159,229.828649
163407.735643,-2664.741391,-9918.759623,-1378.971896
163407.735963,74.020594,-8882.471304,459.657299
163407.736282,444.123565,-7550.100608,536.266849
163407.736601,-1776.494261,-6291.750507,-689.485948
163407.736920,-74.020594,-9474.636058,-1915.238745
163407.737240,-1258.350101,-9030.512492,-1532.190996
163407.737559,-1480.411884,-7476.080014,-3600.648841
163407.737878,-4145.153275,-9548.656652,0.000000
163407.738197,-74.020594,-11843.295072,-1302.362347
163407.738517,148.041188,-10732.986159,1225.752797
163407.738836,1406.391290,-8364.327145,842.705048
163407.739155,592.164754,-7550.100608,459.657299
163407.739474,666.185348,-8586.388927,-76.609550
163407.739793,1702.473667,-9252.574275,1302.362347
163407.740113,2294.638420,-9326.594869,1149.143247
163407.740432,-370.102971,-11251.130318,2374.896044
163407.740751,-2738.761985,-9178.553681,-2068.457845
163407.741070,-1184.329507,-9104.533087,0.000000
163407.741390,2294.638420,-8290.306550,-76.609550
163407.741709,0.000000,-7105.977043,306.438199
163407.742028,-962.267725,-8586.388927,-1455.581446
163407.742347,-518.144159,-9326.594869,-1455.581446
163407.742667,1036.288319,-10658.965565,1532.190996
163407.742986,-592.164754,-11029.068536,383.047749
163407.743305,-2368.659014,-11325.150913,-1225.752797
163407.743624,-74.020594,-12731.542202,-689.485948
163407.743944,74.020594,-8956.491898,0.000000
163407.744263,0.000000,-5403.503377,0.000000
163407.744582,-74.020594,-8290.306550,-1608.800546
163407.744901,370.102971,-9178.553681,-1072.533697
163407.745221,1924.535449,-9252.574275,76.609550
163407.745540,74.020594,-8882.471304,919.314598
163407.745859,1110.308913,-11621.233289,842.705048
163407.746178,0.000000,-8364.327145,0.000000
163407.746497,2960.823768,-9474.636058,2374.896044
163407.746817,2886.803174,-7105.977043,3600.648841
163407.747136,2294.638420,-9474.636058,-76.609550
163407.747455,-2368.659014,-7772.162391,0.000000
163407.747774,-1036.288319,-10214.842000,-536.266849
163407.748094,-1554.432478,-10140.821405,-612.876398
163407.748413,-2368.659014,-11325.150913,-995.924147
163407.748732,-1258.350101,-11399.171507,0.000000
163407.749051,2294.638420,-9474.636058,689.485948
163407.749371,2960.823768,-8216.285956,3140.991542
163407.749690,-370.102971,-7105.977043,-383.047749
163407.750009,-2738.761985,-7772.162391,-3677.258390
163407.750328,-1036.288319,-10140.821405,-612.876398
163407.750648,296.082377,-11843.295072,2068.457845
163407.750967,-3404.947333,-9770.718434,-1072.533697
163407.751286,-3701.029710,-10362.883188,-1685.410096
163407.751605,-1554.432478,-10140.821405,-306.438199
163407.751925,0.000000,-6291.750507,0.000000
163407.752244,0.000000,-6587.832884,0.000000
163407.752563,-592.164754,-9770.718434,-612.876398
163407.752882,-74.020594,-11843.295072,-76.609550
163407.753201,-666.185348,-8364.327145,0.000000
163407.753521,74.020594,-9474.636058,-76.609550
163407.753840,-74.020594,-12435.459826,-76.609550
163407.754159,0.000000,-11029.068536,0.000000
163407.754478,1776.494261,-8808.450710,995.924147
163407.754798,518.144159,-7772.162391,0.000000
163407.755117,-2368.659014,-8364.327145,0.000000
163407.755436,-2220.617826,-9548.656652,-2604.724693
163407.755755,-2368.659014,-8364.327145,0.000000
163407.756075,-74.020594,-10658.965565,-76.609550
163407.756394,-2368.659014,-9326.594869,-995.924147
163407.756713,-74.020594,-8290.306550,-689.485948
163407.757032,1998.556043,-8734.430116,2911.162892
163407.757352,1480.411884,-6365.771101,1838.629195
163407.757671,-592.164754,-7476.080014,-689.485948
163407.757990,-1406.391290,-9104.533087,-459.657299
163407.758309,-2368.659014,-8068.244768,0.000000
163407.758629,-2442.679609,-9252.574275,-2987.772442
163407.758948,-2368.659014,-12509.480420,-1072.533697
163407.759267,-1554.432478,-12287.418637,-1302.362347
163407.759586,1702.473667,-9474.636058,-2528.115143
163407.759906,4071.132681,-11251.130318,-76.609550
163407.760225,-592.164754,-7920.203579,-842.705048
163407.760544,-148.041188,-8660.409521,-1762.019645
163407.760863,1036.288319,-9400.615463,-383.047749
163407.761182,592.164754,-7772.162391,1532.190996
163407.761502,0.000000,-9252.574275,1455.581446
163407.761821,814.226536,-9474.636058,-76.609550
163407.762140,2146.597232,-10658.965565,2374.896044
163407.762459,1702.473667,-6883.915261,689.485948
163407.762779,1554.432478,-9474.636058,1762.019645
163407.763098,-2368.659014,-8364.327145,-1225.752797
163407.763417,-592.164754,-9918.759623,-1302.362347
163407.763736,-444.123565,-10732.986159,-612.876398
163407.764056,-1776.494261,-10807.006753,-995.924147
163407.764375,-3552.988522,-8660.409521,-4596.572988
163407.764694,370.102971,-11029.068536,76.609550
163407.765013,2146.597232,-9030.512492,1532.190996
163407.765333,518.144159,-8290.306550,1378.971896
163407.765652,-1258.350101,-8290.306550,-383.047749
163407.765971,-74.020594,-9474.636058,-2528.115143
163407.766290,-74.020594,-11399.171507,-76.609550
163407.766610,-2442.679609,-9696.697840,-1915.238745
163407.766929,-3404.947333,-9548.656652,-1915.238745
163407.767248,-1184.329507,-9844.739029,306.438199
163407.767567,0.000000,-7179.997637,0.000000
163407.767886,518.144159,-6883.915261,153.219100
163407.768206,-1406.391290,-7550.100608,-1685.410096
163407.768525,-1480.411884,-8882.471304,-1685.410096
163407.768844,1258.350101,-10288.862594,-612.876398
163407.769163,222.061783,-10362.883188,-76.609550
163407.769483,-296.082377,-10732.986159,612.876398
163407.769802,2886.803174,-13619.789333,2987.772442
163407.770121,3478.967927,-10066.800811,1762.019645
163407.770440,2368.659014,-7772.162391,2145.067394
163407.770760,-1184.329507,-7624.121203,-1072.533697
163407.771079,-1554.432478,-9548.656652,-1378.971896
163407.771398,-888.247130,-10214.842000,-1225.752797
163407.771717,-1480.411884,-10140.821405,76.609550
163407.772037,-2442.679609,-9104.533087,-1532.190996
163407.772356,-2368.659014,-9548.656652,0.000000
163407.772675,888.247130,-9474.636058,3294.210641
163407.772994,1998.556043,-7105.977043,1762.019645
163407.773314,-962.267725,-6513.812290,229.828649
163407.773633,-1776.494261,-9844.739029,766.095498
163407.773952,-1480.411884,-9696.697840,-1532.190996
163407.774271,-1924.535449,-10510.924376,-1225.752797
163407.774590,-3552.988522,-11399.171507,-1608.800546
163407.774910,-4737.318029,-10732.986159,-4290.134789
163407.775229,-2960.823768,-9548.656652,-3064.381992
163407.775548,0.000000,-7328.038826,0.000000
163407.775867,0.000000,-8364.327145,612.876398
163407.776187,-74.020594,-9178.553681,1149.143247
163407.776506,1702.473667,-9474.636058,-76.609550
163407.776825,1480.411884,-9252.574275,1532.190996
163407.777144,0.000000,-8216.285956,842.705048
163407.777464,-1406.391290,-9252.574275,76.609550
163407.777783,592.164754,-9548.656652,842.705048
163407.778102,592.164754,-7179.997637,1685.410096
163407.778421,1110.308913,-8216.285956,1455.581446
163407.778741,-1258.350101,-7994.224174,-1378.971896
163407.779060,-2368.659014,-7402.059420,-3753.867940
163407.779379,-2960.823768,-9548.656652,-919.314598
163407.779698,-74.020594,-10658.965565,-1302.362347
163407.780018,-1776.494261,-11029.068536,-766.095498
163407.780337,1036.288319,-11251.130318,459.657299
163407.780656,2590.720797,-9178.553681,1685.410096
163407.780975,1702.473667,-7698.141797,2374.896044
163407.781295,-370.102971,-7920.203579,-76.609550
163407.781614,-74.020594,-9474.636058,-1915.238745
163407.781933,1036.288319,-11251.130318,-76.609550
163407.782252,-2220.617826,-8364.327145,-1838.629195
163407.782571,-1702.473667,-10658.965565,0.000000
163407.782891,-74.020594,-10362.883188,-1302.362347
163407.783210,1850.514855,-9400.615463,689.485948
163407.783529,2294.638420,-7105.977043,0.000000
163407.783848,962.267725,-7105.977043,76.609550
163407.784168,1924.535449,-9474.636058,1149.143247
163407.784487,1776.494261,-8956.491898,-383.047749
163407.784806,592.164754,-9548.656652,612.876398
163407.785125,-74.020594,-11843.295072,-76.609550
163407.785445,-2072.576638,-10732.986159,-2221.676944
163407.785764,0.000000,-10140.821405,0.000000
163407.786083,1480.411884,-9548.656652,1225.752797
163407.786402,222.061783,-8364.327145,0.000000
163407.786722,-1480.411884,-8364.327145,-919.314598
163407.787041,0.000000,-9474.636058,-1685.410096
163407.787360,3478.967927,-10658.965565,-76.609550
163407.787679,444.123565,-8364.327145,1532.190996
163407.787999,-74.020594,-9474.636058,1149.143247
163407.788318,0.000000,-8364.327145,0.000000
163407.788637,1776.494261,-7179.997637,3064.381992
163407.788956,0.000000,-7179.997637,2451.505594
163407.789275,-2516.700203,-7698.141797,-1762.019645
163407.789595,-3330.926739,-9770.718434,-2528.115143
163407.789914,-2442.679609,-10436.903782,-1072.533697
163407.790233,-2812.782580,-9548.656652,-2451.505594
163407.790552,-2442.679609,-10584.944971,-2298.286494
163407.790872,-2368.659014,-11029.068536,0.000000
163407.791191,1998.556043,-10955.047942,3447.429741
163407.791510,-74.020594,-6809.894666,-1149.143247
163407.791829,-2368.659014,-9178.553681,842.705048
163407.792149,-2368.659014,-9844.739029,-612.876398
163407.792468,-296.082377,-9400.615463,-995.924147
163407.792787,-296.082377,-9844.739029,536.266849
163407.793106,-1258.350101,-9844.739029,766.095498
163407.793426,-2738.761985,-8364.327145,0.000000
163407.793745,518.144159,-8068.244768,1302.362347
163407.794064,296.082377,-4811.338623,0.000000
163407.794383,-2368.659014,-6291.750507,919.314598
163407.794703,-4145.153275,-7476.080014,-2451.505594
163407.795022,-74.020594,-10658.965565,-76.609550
163407.795341,-1776.494261,-9252.574275,612.876398
163407.795660,-3182.885551,-10214.842000,-689.485948
163407.795979,-3182.885551,-11177.109724,-1225.752797
163407.796299,-1110.308913,-10881.027347,-766.095498
163407.796618,0.000000,-7179.997637,0.000000
163407.796937,-1554.432478,-8808.450710,-1302.362347
163407.797256,-4145.153275,-7179.997637,-2451.505594
163407.797576,0.000000,-9548.656652,-1225.752797
163407.797895,1554.432478,-11251.130318,-76.609550
163407.798214,1184.329507,-10436.903782,3370.820191
163407.798533,-444.123565,-9252.574275,76.609550
163407.798853,888.247130,-9548.656652,-76.609550
163407.799172,1924.535449,-8512.368333,383.047749
163407.799491,0.000000,-5107.421000,-2451.505594
163407.799810,-296.082377,-9030.512492,-689.485948
163407.800130,740.205942,-10658.965565,-306.438199
163407.800449,1406.391290,-10066.800811,-76.609550
163407.800768,-74.020594,-8586.388927,-1302.362347
163407.801087,0.000000,-9844.739029,1225.752797
163407.801407,592.164754,-9548.656652,0.000000
163407.801726,4219.173869,-9622.677246,1991.848295
163407.802045,2590.720797,-7698.141797,1915.238745
163407.802364,-296.082377,-7772.162391,-766.095498
163407.802684,-74.020594,-8882.471304,-3140.991542
163407.803003,1480.411884,-10881.027347,-536.266849
163407.803322,592.164754,-9548.656652,0.000000
163407.803641,-1924.535449,-10214.842000,-536.266849
163407.803960,-1258.350101,-10140.821405,-76.609550
163407.804280,1702.473667,-9474.636058,1455.581446
163407.804599,1776.494261,-9474.636058,3600.648841
163407.804918,1110.308913,-7994.224174,-76.609550
163407.805237,-1628.453072,-7179.997637,-1302.362347
163407.805557,-1110.308913,-8512.368333,-2451.505594
163407.805876,-74.020594,-7994.224174,-1302.362347
163407.806195,-1628.453072,-10140.821405,-689.485948
163407.806514,-1554.432478,-10881.027347,-1149.143247
163407.806834,888.247130,-11621.233289,0.000000
163407.807153,3478.967927,-9770.718434,1991.848295
163407.807472,0.000000,-8364.327145,0.000000
163407.807791,-1776.494261,-8956.491898,-2145.067394
163407.808111,-74.020594,-11251.130318,-1532.190996
163407.808430,2886.803174,-11843.295072,1149.143247
163407.808749,-2368.659014,-8364.327145,0.000000
163407.809068,-74.020594,-9178.553681,229.828649
163407.809388,888.247130,-9622.677246,1685.410096
163407.809707,1702.473667,-7624.121203,2681.334243
163407.810026,592.164754,-6217.729913,1685.410096
163407.810345,-962.267725,-6217.729913,-76.609550
163407.810664,-2368.659014,-8660.409521,-1225.752797
163407.810984,-1184.329507,-7920.203579,-2221.676944
163407.811303,-2368.659014,-10140.821405,0.000000
163407.811622,-2442.679609,-12287.418637,-1608.800546
163407.811941,-4737.318029,-10140.821405,-1838.629195
163407.812261,-1258.350101,-10066.800811,-1072.533697
163407.812580,-1998.556043,-8808.450710,-1149.143247
163407.812899,-2960.823768,-8734.430116,-1991.848295
163407.813218,-1554.432478,-8364.327145,-3600.648841
163407.813538,1998.556043,-8586.388927,-2528.115143
163407.813857,296.082377,-7846.182985,-995.924147
163407.814176,-2960.823768,-7179.997637,0.000000
163407.814495,-74.020594,-10658.965565,-76.609550
163407.814815,2294.638420,-10658.965565,2068.457845
163407.815134,1480.411884,-8438.347739,2757.943793
163407.815453,-1998.556043,-5995.668130,-1838.629195
163407.815772,-74.020594,-9104.533087,-1455.581446
163407.816092,296.082377,-9400.615463,-1455.581446
163407.816411,-2368.659014,-8956.491898,-2451.505594
163407.816730,-4145.153275,-7772.162391,-2451.505594
163407.817049,-666.185348,-11251.130318,-1915.238745
163407.817368,222.061783,-9104.533087,0.000000
163407.817688,1332.370696,-7179.997637,383.047749
163407.818007,1702.473667,-8290.306550,1762.019645
163407.818326,888.247130,-8808.450710,306.438199
163407.818645,1776.494261,-9548.656652,-76.609550
163407.818965,1110.308913,-9474.636058,0.000000
163407.819284,-1776.494261,-9252.574275,-229.828649
163407.819603,-4145.153275,-8956.491898,-2374.896044
163407.819922,-74.020594,-11547.212695,-76.609550
163407.820242,0.000000,-8512.368333,-689.485948
163407.820561,-1776.494261,-5995.668130,-2451.505594
163407.820880,-4145.153275,-7476.080014,-1685.410096
163407.821199,-74.020594,-8882.471304,-1302.362347
163407.821519,592.164754,-9400.615463,612.876398
163407.821838,0.000000,-8882.471304,612.876398
163407.822157,-888.247130,-10214.842000,0.000000
163407.822476,444.123565,-10510.924376,1455.581446
163407.822796,1998.556043,-9844.739029,1532.190996
163407.823115,1406.391290,-9030.512492,1072.533697
163407.823434,-1258.350101,-8882.471304,-1302.362347
163407.823753,0.000000,-7772.162391,-2451.505594
163407.824072,888.247130,-10140.821405,0.000000
163407.824392,-74.020594,-10066.800811,-1302.362347
163407.824711,-2664.741391,-10584.944971,-536.266849
163407.825030,-1406.391290,-10140.821405,-383.047749
163407.825349,1702.473667,-9252.574275,1225.752797
163407.825669,3182.885551,-8290.306550,4213.525239
163407.825988,296.082377,-7846.182985,2604.724693
163407.826307,-74.020594,-9474.636058,-76.609550
163407.826626,-74.020594,-7994.224174,-995.924147
163407.826946,-2072.576638,-7920.203579,0.000000
163407.827265,-5921.647536,-8364.327145,-2451.505594
163407.827584,-2442.679609,-10658.965565,-2221.676944
163407.827903,-444.123565,-11029.068536,-1532.190996
163407.828223,-666.185348,-9474.636058,-383.047749
163407.828542,-2442.679609,-9252.574275,-1225.752797
163407.828861,-74.020594,-11177.109724,-1685.410096
163407.829180,0.000000,-9548.656652,-2451.505594
163407.829500,592.164754,-9548.656652,0.000000
163407.829819,-592.164754,-10658.965565,2374.896044
163407.830138,-74.020594,-10658.965565,-76.609550
163407.830457,0.000000,-8364.327145,0.000000
163407.830776,2812.782580,-8660.409521,2068.457845
163407.831096,1184.329507,-6587.832884,536.266849
163407.831415,0.000000,-8068.244768,229.828649
163407.831734,518.144159,-7772.162391,-1302.362347
163407.832053,444.123565,-9548.656652,-76.609550
163407.832373,-2960.823768,-8660.409521,0.000000
163407.832692,-2664.741391,-9548.656652,-3677.258390
163407.833011,0.000000,-11917.315666,0.000000
163407.833330,3478.967927,-11843.295072,2987.772442
163407.833650,0.000000,-7179.997637,0.000000
163407.833969,-666.185348,-8290.306550,-612.876398
163407.834288,0.000000,-9326.594869,-1685.410096
163407.834607,814.226536,-10214.842000,-766.095498
163407.834927,-1258.350101,-8438.347739,-1455.581446
163407.835246,-2590.720797,-10066.800811,-1302.362347
163407.835565,-2220.617826,-9548.656652,-3677.258390
163407.835884,0.000000,-9548.656652,612.876398
163407.836204,1110.308913,-8290.306550,1455.581446
163407.836523,-74.020594,-9474.636058,2834.553343
163407.836842,0.000000,-8364.327145,0.000000
163407.837161,1036.288319,-9030.512492,153.219100
163407.837480,-444.123565,-8290.306550,306.438199
163407.837800,-1924.535449,-9252.574275,-383.047749
163407.838119,-1258.350101,-9326.594869,-2681.334243
163407.838438,2146.597232,-13027.624579,-76.609550
163407.838757,1110.308913,-8882.471304,-383.047749
163407.839077,-1554.432478,-8808.450710,-1455.581446
163407.839396,-3552.988522,-8364.327145,-3677.258390
163407.839715,0.000000,-9548.656652,0.000000
163407.840034,1702.473667,-10288.862594,76.609550
163407.840354,-666.185348,-9474.636058,689.485948
163407.840673,-666.185348,-11103.089130,153.219100
163407.840992,1110.308913,-9104.533087,-306.438199
163407.841311,2664.741391,-7179.997637,2451.505594
163407.841631,296.082377,-5995.668130,2451.505594
163407.841950,1110.308913,-7698.141797,766.095498
163407.842269,2294.638420,-9474.636058,-76.609550
163407.842588,-2072.576638,-7476.080014,0.000000
163407.842908,-3330.926739,-8290.306550,-2374.896044
163407.843227,-4441.235652,-10807.006753,-3447.429741
163407.843546,-3627.009116,-11547.212695,-4060.306139
163407.843865,-2442.679609,-11029.068536,-1991.848295
163407.844184,-666.185348,-10658.965565,-76.609550
163407.844504,-2886.803174,-9400.615463,-2145.067394
163407.844823,74.020594,-10140.821405,-1685.410096
163407.845142,962.267725,-9474.636058,0.000000
163407.845461,-370.102971,-8882.471304,2374.896044
163407.845781,-2368.659014,-8364.327145,0.000000
163407.846100,0.000000,-7772.162391,0.000000
163407.846419,3849.070898,-9474.636058,3140.991542
163407.846738,2294.638420,-6809.894666,1762.019645
163407.847058,0.000000,-7179.997637,0.000000
163407.847377,1702.473667,-9474.636058,-76.609550
163407.847696,-1036.288319,-8956.491898,-766.095498
163407.848015,-1924.535449,-9252.574275,229.828649
163407.848335,-3627.009116,-9770.718434,-1455.581446
163407.848654,-2960.823768,-10955.047942,0.000000
163407.848973,962.267725,-10066.800811,766.095498
163407.849292,0.000000,-6809.894666,459.657299
163407.849611,-1776.494261,-7179.997637,0.000000
163407.849931,-592.164754,-9844.739029,-766.095498
163407.850250,-370.102971,-8512.368333,-3064.381992
163407.850569,1110.308913,-11251.130318,-76.609550
163407.850888,-2294.638420,-11547.212695,0.000000
163407.851208,-2368.659014,-10807.006753,-842.705048
163407.851527,-592.164754,-10362.883188,0.000000
163407.851846,1110.308913,-9474.636058,2221.676944
163407.852165,-666.185348,-6587.832884,0.000000
163407.852485,0.000000,-7476.080014,0.000000
163407.852804,1998.556043,-9474.636058,-76.609550
163407.853123,1110.308913,-8290.306550,-153.219100
163407.853442,-3849.070898,-7772.162391,-3677.258390
163407.853762,-2294.638420,-11251.130318,-1149.143247
163407.854081,-1184.329507,-10955.047942,-1378.971896
163407.854400,1110.308913,-9770.718434,153.219100
163407.854719,222.061783,-8586.388927,-76.609550
163407.855039,1998.556043,-9474.636058,-76.609550
163407.855358,2294.638420,-12435.459826,-76.609550
163407.855677,2886.803174,-9474.636058,-842.705048
163407.855996,0.000000,-9548.656652,0.000000
163407.856315,-888.247130,-10732.986159,2145.067394
163407.856635,-2368.659014,-8364.327145,0.000000
163407.856954,2368.659014,-9178.553681,2145.067394
163407.857273,1924.535449,-7254.018232,1915.238745
163407.857592,-148.041188,-7179.997637,536.266849
163407.857912,-74.020594,-8290.306550,-76.609550
163407.858231,1110.308913,-8956.491898,612.876398
163407.858550,-666.185348,-10066.800811,-76.609550
163407.858869,-3627.009116,-10807.006753,-1302.362347
163407.859189,-2442.679609,-10510.924376,-3753.867940
163407.859508,-1184.329507,-11029.068536,306.438199
163407.859827,-1184.329507,-8068.244768,0.000000
163407.860146,-1110.308913,-8216.285956,-1302.362347
163407.860466,-370.102971,-8808.450710,-2221.676944
163407.860785,2368.659014,-9844.739029,-766.095498
163407.861104,2146.597232,-10214.842000,0.000000
163407.861423,-2220.617826,-11029.068536,1072.533697
163407.861743,-666.185348,-10658.965565,-76.609550
163407.862062,0.000000,-8068.244768,-1225.752797
163407.862381,3552.988522,-8364.327145,3064.381992
163407.862700,2664.741391,-9178.553681,4213.525239
163407.863019,0.000000,-7328.038826,0.000000
163407.863339,0.000000,-8586.388927,-612.876398
163407.863658,-740.205942,-9326.594869,-842.705048
163407.863977,-4737.318029,-7772.162391,-3677.258390
163407.864296,-4737.318029,-8364.327145,-2451.505594
163407.864616,-1184.329507,-10140.821405,-2451.505594
163407.864935,592.164754,-9548.656652,2451.505594
163407.865254,-74.020594,-9178.553681,536.266849
163407.865573,-1850.514855,-9474.636058,-2528.115143
163407.865893,222.061783,-11547.212695,-1378.971896
163407.866212,148.041188,-9918.759623,0.000000
163407.866531,-592.164754,-10288.862594,229.828649
163407.866850,-2368.659014,-9844.739029,-459.657299
163407.867170,-2368.659014,-8364.327145,0.000000
163407.867489,592.164754,-7698.141797,-383.047749
163407.867808,0.000000,-7179.997637,612.876398
163407.868127,-74.020594,-8882.471304,536.266849
163407.868447,-2146.597232,-8290.306550,-1302.362347
163407.868766,-74.020594,-9474.636058,-1455.581446
163407.869085,-1036.288319,-9252.574275,153.219100
163407.869404,-2220.617826,-9474.636058,0.000000
163407.869723,-888.247130,-10140.821405,-689.485948
163407.870043,1628.453072,-9178.553681,1762.019645
163407.870362,0.000000,-7179.997637,1455.581446
163407.870681,-74.020594,-7698.141797,-383.047749
163407.871000,-888.247130,-8438.347739,-1915.238745
163407.871320,0.000000,-8364.327145,-1838.629195
163407.871639,962.267725,-11769.274478,0.000000
163407.871958,-2738.761985,-9474.636058,-1608.800546
163407.872277,-2590.720797,-11399.171507,-689.485948
163407.872597,370.102971,-9770.718434,0.000000
163407.872916,1110.308913,-8290.306550,995.924147
163407.873235,-74.020594,-9474.636058,2374.896044
163407.873554,-1184.329507,-8438.347739,-76.609550
163407.873874,-74.020594,-8734.430116,-76.609550
163407.874193,-1850.514855,-7179.997637,-2221.676944
163407.874512,-3552.988522,-9548.656652,0.000000
163407.874831,-4737.318029,-9548.656652,0.000000
163407.875151,-666.185348,-8882.471304,-1072.533697
163407.875470,962.267725,-9252.574275,0.000000
163407.875789,-592.164754,-7476.080014,-995.924147
163407.876108,-1554.432478,-9252.574275,-2834.553343
163407.876427,2294.638420,-11843.295072,-689.485948
163407.876747,1850.514855,-11103.089130,-919.314598
163407.877066,-74.020594,-13027.624579,-76.609550
163407.877385,-3552.988522,-9548.656652,-1838.629195
163407.877704,1628.453072,-10881.027347,0.000000
163407.878024,5255.462188,-8290.306550,229.828649
163407.878343,4219.173869,-7550.100608,2987.772442
163407.878662,1332.370696,-7105.977043,1455.581446
163407.878981,518.144159,-7328.038826,536.266849
163407.879301,1110.308913,-9474.636058,1149.143247
163407.879620,-2368.659014,-7772.162391,0.000000
163407.879939,-3923.091493,-8956.491898,-1685.410096
163407.880258,-1776.494261,-10436.903782,0.000000
163407.880578,592.164754,-9548.656652,612.876398
163407.880897,518.144159,-8142.265362,-76.609550
163407.881216,-814.226536,-9474.636058,-689.485948
163407.881535,-1406.391290,-9474.636058,-3064.381992
163407.881855,740.205942,-10658.965565,-1378.971896
163407.882174,-740.205942,-10658.965565,0.000000
163407.882493,-3552.988522,-10436.903782,612.876398
163407.882812,-1776.494261,-10362.883188,-766.095498
163407.883131,2886.803174,-9474.636058,536.266849
163407.883451,2294.638420,-5699.585753,0.000000
163407.883770,0.000000,-6587.832884,612.876398
163407.884089,1702.473667,-9474.636058,-76.609550
163407.884408,-592.164754,-8956.491898,-1685.410096
163407.884728,-666.185348,-9178.553681,-1072.533697
163407.885047,-2738.761985,-9992.780217,-229.828649
163407.885366,-1036.288319,-10510.924376,-76.609550
163407.885685,0.000000,-7179.997637,0.000000
163407.886005,1480.411884,-9252.574275,1762.019645
163407.886324,-666.185348,-7031.956449,842.705048
163407.886643,-962.267725,-7328.038826,-689.485948
163407.886962,2294.638420,-10658.965565,-1608.800546
163407.887282,1110.308913,-9548.656652,-536.266849
163407.887601,-1036.288319,-10140.821405,1685.410096
163407.887920,-1554.432478,-10658.965565,-76.609550
163407.888239,-1850.514855,-8660.409521,-2451.505594
163407.888559,1184.329507,-9844.739029,612.876398
163407.888878,-2368.659014,-5995.668130,0.000000
163407.889197,-2442.679609,-8068.244768,-842.705048
163407.889516,-1776.494261,-9474.636058,-2145.067394
163407.889835,-666.185348,-9770.718434,-766.095498
163407.890155,-2220.617826,-9030.512492,-995.924147
163407.890474,-3923.091493,-9622.677246,-1532.190996
163407.890793,-1258.350101,-10288.862594,0.000000
163407.891112,2294.638420,-10658.965565,1762.019645
163407.891432,1110.308913,-7105.977043,459.657299
163407.891751,-1776.494261,-8660.409521,306.438199
163407.892070,-1332.370696,-9622.677246,-2451.505594
163407.892389,814.226536,-10732.986159,-2068.457845
163407.892709,-814.226536,-10362.883188,-459.657299
163407.893028,-3034.844362,-10140.821405,-1838.629195
