#time,accel_x,accel_y,accel_z
59367.417589,0.000000,-8956.491898,1532.190996
59367.417898,-74.020594,-9178.553681,995.924147
59367.418208,-74.020594,-8290.306550,-76.609550
59367.418518,-1850.514855,-6735.874072,-919.314598
59367.418828,-1184.329507,-7476.080014,0.000000
59367.419138,2294.638420,-11843.295072,2374.896044
59367.419448,-2220.617826,-7328.038826,0.000000
59367.419758,1702.473667,-10881.027347,2757.943793
59367.420068,-1776.494261,-7772.162391,0.000000
59367.420377,-296.082377,-9178.553681,842.705048
59367.420687,-74.020594,-9400.615463,1149.143247
59367.420997,-74.020594,-9178.553681,842.705048
59367.421307,-74.020594,-9474.636058,2374.896044
59367.421617,-74.020594,-8882.471304,-76.609550
59367.421927,-592.164754,-7179.997637,-1838.629195
59367.422237,1702.473667,-11251.130318,2681.334243
59367.422547,-666.185348,-8290.306550,-76.609550
59367.422857,0.000000,-8660.409521,2451.505594
59367.423166,-1776.494261,-7920.203579,0.000000
59367.423476,-592.164754,-9030.512492,919.314598
59367.423786,-370.102971,-9178.553681,612.876398
59367.424096,0.000000,-9030.512492,919.314598
59367.424406,1110.308913,-11251.130318,2374.896044
59367.424716,2294.638420,-10658.965565,2374.896044
59367.425026,-74.020594,-8882.471304,-76.609550
59367.425336,0.000000,-9548.656652,1532.190996
59367.425645,-370.102971,-8882.471304,-76.609550
59367.425955,0.000000,-7772.162391,0.000000
59367.426265,-74.020594,-8882.471304,842.705048
59367.426575,-962.267725,-8734.430116,612.876398
59367.426885,-444.123565,-9030.512492,842.705048
59367.427195,-222.061783,-9104.533087,842.705048
59367.427505,74.020594,-9548.656652,2451.505594
59367.427815,2146.597232,-11251.130318,2374.896044
59367.428124,-74.020594,-9474.636058,-76.609550
59367.428434,0.000000,-8660.409521,1225.752797
59367.428744,-74.020594,-9474.636058,-76.609550
59367.429054,-2368.659014,-7179.997637,0.000000
59367.429364,1110.308913,-9474.636058,1149.143247
59367.429674,-444.123565,-9104.533087,612.876398
59367.429984,0.000000,-9326.594869,689.485948
59367.430294,-148.041188,-9178.553681,842.705048
59367.430603,0.000000,-7476.080014,612.876398
59367.430913,0.000000,-9548.656652,2451.505594
59367.431223,1184.329507,-10807.006753,3753.867940
59367.431533,-666.185348,-7698.141797,-383.047749
59367.431843,0.000000,-9104.533087,1838.629195
59367.432153,-74.020594,-8882.471304,-76.609550
59367.432463,1110.308913,-10362.883188,1762.019645
59367.432773,-222.061783,-9030.512492,536.266849
59367.433083,-592.164754,-8956.491898,766.095498
59367.433392,-444.123565,-9104.533087,919.314598
59367.433702,-2368.659014,-6587.832884,0.000000
59367.434012,-2368.659014,-7772.162391,0.000000
59367.434322,-74.020594,-11843.295072,3447.429741
59367.434632,-1850.514855,-7476.080014,0.000000
59367.434942,518.144159,-10214.842000,1991.848295
59367.435252,-74.020594,-9474.636058,2374.896044
59367.435562,0.000000,-9252.574275,1378.971896
59367.435871,-148.041188,-9030.512492,919.314598
59367.436181,-518.144159,-8882.471304,536.266849
59367.436491,-296.082377,-8882.471304,536.266849
59367.436801,-962.267725,-7698.141797,0.000000
59367.437111,-2368.659014,-7179.997637,0.000000
59367.437421,0.000000,-7772.162391,1225.752797
59367.437731,-74.020594,-9474.636058,-76.609550
59367.438041,-2072.576638,-7772.162391,0.000000
59367.438350,2146.597232,-11843.295072,3447.429741
59367.438660,0.000000,-8956.491898,612.876398
59367.438970,-74.020594,-9474.636058,1149.143247
59367.439280,-74.020594,-9104.533087,995.924147
59367.439590,0.000000,-8734.430116,842.705048
59367.439900,1998.556043,-8290.306550,536.266849
59367.440210,518.144159,-7105.977043,-76.609550
59367.440520,0.000000,-5995.668130,0.000000
59367.440829,2812.782580,-10658.965565,2681.334243
59367.441139,0.000000,-7772.162391,0.000000
59367.441449,2516.700203,-9548.656652,3064.381992
59367.441759,296.082377,-7772.162391,0.000000
59367.442069,2368.659014,-9252.574275,842.705048
59367.442379,2960.823768,-9252.574275,1225.752797
59367.442689,2812.782580,-9326.594869,689.485948
59367.442999,4663.297435,-10658.965565,-76.609550
59367.443309,4071.132681,-9474.636058,-76.609550
59367.443618,2294.638420,-7402.059420,-1302.362347
59367.443928,3552.988522,-9548.656652,2451.505594
59367.444238,4663.297435,-9474.636058,1149.143247
59367.444548,2368.659014,-7179.997637,1225.752797
59367.444858,5255.462188,-7772.162391,536.266849
59367.445168,5773.606348,-8512.368333,1762.019645
59367.445478,5551.544565,-8586.388927,1225.752797
59367.445788,5403.503377,-8586.388927,766.095498
59367.446097,7031.956449,-10658.965565,3294.210641
59367.446407,8216.285956,-11251.130318,1685.410096
59367.446717,7031.956449,-9474.636058,-76.609550
59367.447027,4737.318029,-9548.656652,0.000000
59367.447337,7031.956449,-11843.295072,-76.609550
59367.447647,2368.659014,-9548.656652,0.000000
59367.447957,3775.050304,-12731.542202,-76.609550
59367.448267,2368.659014,-12287.418637,0.000000
59367.448576,2368.659014,-10881.027347,766.095498
59367.448886,2368.659014,-9104.533087,919.314598
59367.449196,2960.823768,-7179.997637,2757.943793
59367.449506,5329.482782,-5995.668130,0.000000
59367.449816,8808.450710,-6513.812290,3600.648841
59367.450126,5921.647536,-2442.679609,1225.752797
59367.450436,10066.800811,-5921.647536,4673.182538
59367.450746,8808.450710,-5625.565159,76.609550
59367.451056,7328.038826,-10066.800811,1532.190996
59367.451365,222.061783,-14359.995275,-1149.143247
59367.451675,-2368.659014,-16580.613101,-2911.162892
59367.451985,-4145.153275,-17172.777854,-3370.820191
59367.452295,-5921.647536,-11325.150913,-3677.258390
59367.452605,-4737.318029,-8364.327145,-3447.429741
59367.452915,0.000000,-7476.080014,1225.752797
59367.453225,3478.967927,-7698.141797,3907.087040
59367.453535,5033.400406,-5255.462188,7354.516781
59367.453844,7031.956449,-7105.977043,4826.401637
59367.454154,3330.926739,-6217.729913,5898.935335
59367.454464,2294.638420,-4367.215058,3753.867940
59367.454774,3182.885551,-4737.318029,3294.210641
59367.455084,3701.029710,-3997.112087,1225.752797
59367.455394,0.000000,-5995.668130,-2451.505594
59367.455704,-3256.906145,-11917.315666,-3753.867940
59367.456014,-5921.647536,-17246.798449,-2451.505594
59367.456323,-5107.421000,-22354.219448,-3140.991542
59367.456633,-7105.977043,-13693.809927,-4903.011187
59367.456943,-1258.350101,-11843.295072,-1302.362347
59367.457253,0.000000,-5107.421000,0.000000
59367.457563,3034.844362,-5403.503377,3140.991542
59367.457873,4737.318029,-3775.050304,4903.011187
59367.458183,5625.565159,-4811.338623,5822.325785
59367.458493,5847.626942,-1924.535449,5745.716235
59367.458802,7105.977043,-444.123565,4213.525239
59367.459112,5921.647536,-3627.009116,6128.763984
59367.459422,6439.791695,-5921.647536,2987.772442
59367.459732,0.000000,-10732.986159,0.000000
59367.460042,-444.123565,-17616.901420,-1608.800546
59367.460352,-3552.988522,-16062.468941,-5975.544884
59367.460662,-3404.947333,-15100.201217,-5439.278036
59367.460972,-4737.318029,-14434.015869,-5362.668486
59367.461282,-4811.338623,-13397.727550,-3830.477490
59367.461591,2294.638420,-11843.295072,-1302.362347
59367.461901,8808.450710,-8882.471304,6511.811733
59367.462211,11621.233289,-1184.329507,5745.716235
59367.462521,12435.459826,-2590.720797,9193.145976
59367.462831,12361.439231,-5329.482782,6665.030833
59367.463141,7105.977043,-7179.997637,6128.763984
59367.463451,1776.494261,-7328.038826,766.095498
59367.463761,888.247130,-11399.171507,-1991.848295
59367.464070,-4811.338623,-14063.912898,-4366.744339
59367.464380,-7402.059420,-13471.748144,-6894.859482
59367.464690,-3627.009116,-14211.954086,-3753.867940
59367.465000,1406.391290,-9400.615463,-1838.629195
59367.465310,2294.638420,-10658.965565,-76.609550
59367.465620,-3552.988522,-6587.832884,0.000000
59367.465930,0.000000,-8364.327145,2757.943793
59367.466240,2368.659014,-3627.009116,3983.696590
59367.466549,4071.132681,-814.226536,3907.087040
59367.466859,1036.288319,-3034.844362,3677.258390
59367.467169,-1184.329507,-4811.338623,1455.581446
59367.467479,0.000000,-7179.997637,1838.629195
59367.467789,2072.576638,-9474.636058,3370.820191
59367.468099,-1184.329507,-8364.327145,306.438199
59367.468409,-4811.338623,-15988.448347,-1915.238745
59367.468719,-9548.656652,-14508.036463,-5056.230287
59367.469028,-8290.306550,-14582.057057,-1838.629195
59367.469338,-7105.977043,-8734.430116,-3064.381992
59367.469648,-3923.091493,-7105.977043,-689.485948
59367.469958,-3108.864956,-7328.038826,229.828649
59367.470268,0.000000,-6143.709319,3140.991542
59367.470578,4737.318029,-3256.906145,6281.983084
59367.470888,5921.647536,-1850.514855,7967.393179
59367.471198,592.164754,-2442.679609,4903.011187
59367.471508,-962.267725,-10955.047942,4213.525239
59367.471817,-5329.482782,-11621.233289,-919.314598
59367.472127,-3923.091493,-14211.954086,-76.609550
59367.472437,-7179.997637,-8586.388927,-6358.592633
59367.472747,-10288.862594,-13397.727550,-3677.258390
59367.473057,-9252.574275,-13323.706956,-3677.258390
59367.473367,-4219.173869,-11547.212695,-689.485948
59367.473677,3923.091493,-5847.626942,2911.162892
59367.473987,4737.318029,-1850.514855,3830.477490
59367.474296,3404.947333,-2664.741391,3907.087040
59367.474606,3552.988522,-7772.162391,5515.887586
59367.474916,3182.885551,-9474.636058,3600.648841
59367.475226,0.000000,-4811.338623,1225.752797
59367.475536,-74.020594,-9474.636058,-76.609550
59367.475846,-3701.029710,-12065.356855,-612.876398
59367.476156,-2442.679609,-13101.645173,-1225.752797
59367.476466,1036.288319,-11547.212695,-306.438199
59367.476775,2072.576638,-9770.718434,306.438199
59367.477085,0.000000,-8068.244768,-1532.190996
59367.477395,-1850.514855,-11843.295072,-1915.238745
59367.477705,-2368.659014,-11325.150913,0.000000
59367.478015,4071.132681,-10066.800811,2374.896044
59367.478325,1480.411884,-3627.009116,306.438199
59367.478635,5255.462188,-7698.141797,3600.648841
59367.478945,1480.411884,-7476.080014,2145.067394
59367.479255,3182.885551,-8068.244768,2374.896044
59367.479564,4959.379811,-7550.100608,3370.820191
59367.479874,3404.947333,-8216.285956,2374.896044
59367.480184,-74.020594,-10658.965565,-76.609550
59367.480494,-1554.432478,-13619.789333,-2528.115143
59367.480804,-4441.235652,-9548.656652,-2451.505594
59367.481114,1110.308913,-10584.944971,1149.143247
59367.481424,-2886.803174,-5699.585753,-3064.381992
59367.481734,592.164754,-10955.047942,1149.143247
59367.482043,-1036.288319,-9548.656652,-383.047749
59367.482353,3034.844362,-7772.162391,1608.800546
59367.482663,5329.482782,-5551.544565,3217.601092
59367.482973,2960.823768,-6513.812290,2451.505594
59367.483283,-74.020594,-10362.883188,2068.457845
59367.483593,-74.020594,-13027.624579,-689.485948
59367.483903,-3552.988522,-8512.368333,-1838.629195
59367.484213,-962.267725,-10658.965565,-76.609550
59367.484522,-5403.503377,-8882.471304,-3140.991542
59367.484832,-5921.647536,-12509.480420,-1072.533697
59367.485142,-1850.514855,-9474.636058,153.219100
59367.485452,2368.659014,-6365.771101,3217.601092
59367.485762,3034.844362,-4737.318029,3524.039291
59367.486071,-444.123565,-7031.956449,1762.019645
59367.486381,-1850.514855,-11695.253884,1149.143247
59367.486691,-74.020594,-11843.295072,-76.609550
59367.487000,-2812.782580,-7772.162391,-995.924147
59367.487310,-2664.741391,-9474.636058,2374.896044
59367.487620,-3627.009116,-11843.295072,-76.609550
59367.487930,-1406.391290,-11251.130318,1149.143247
59367.488239,296.082377,-7476.080014,2451.505594
59367.488549,4663.297435,-9474.636058,4826.401637
59367.488859,-1332.370696,-7698.141797,1685.410096
59367.489168,-4515.256246,-10436.903782,0.000000
59367.489478,-370.102971,-11843.295072,2374.896044
59367.489788,3478.967927,-9474.636058,2987.772442
59367.490098,0.000000,-4811.338623,612.876398
59367.490407,-2368.659014,-8364.327145,1838.629195
59367.490717,-74.020594,-10658.965565,-76.609550
59367.491027,296.082377,-10732.986159,3370.820191
59367.491336,2590.720797,-6957.935855,2987.772442
59367.491646,-740.205942,-8734.430116,2068.457845
59367.491956,-2738.761985,-10066.800811,76.609550
59367.492266,-2368.659014,-12361.439231,0.000000
59367.492575,1702.473667,-11251.130318,2221.676944
59367.492885,2886.803174,-9178.553681,3600.648841
59367.493195,-2368.659014,-5403.503377,0.000000
59367.493504,-666.185348,-9326.594869,1608.800546
59367.493814,-3552.988522,-7772.162391,0.000000
59367.494124,2368.659014,-6587.832884,3677.258390
59367.494433,4663.297435,-6513.812290,2987.772442
59367.494743,1850.514855,-7550.100608,1225.752797
59367.495053,-1480.411884,-12361.439231,0.000000
59367.495363,-1258.350101,-11547.212695,-842.705048
59367.495672,666.185348,-12213.398043,0.000000
59367.495982,0.000000,-9844.739029,919.314598
59367.496292,-2442.679609,-11251.130318,-1302.362347
59367.496601,-3552.988522,-10140.821405,0.000000
59367.496911,4663.297435,-11843.295072,4213.525239
59367.497221,4737.318029,-3182.885551,3677.258390
59367.497531,5107.421000,-4737.318029,3294.210641
59367.497840,814.226536,-8364.327145,1302.362347
59367.498150,-592.164754,-10732.986159,306.438199
59367.498460,370.102971,-10584.944971,0.000000
59367.498769,0.000000,-9548.656652,0.000000
59367.499079,-3552.988522,-9548.656652,0.000000
59367.499389,-1554.432478,-13027.624579,-1302.362347
59367.499699,-1554.432478,-9548.656652,-3677.258390
59367.500008,4145.153275,-9252.574275,3370.820191
59367.500318,2146.597232,-5403.503377,1685.410096
59367.500628,-518.144159,-8586.388927,306.438199
59367.500937,-3627.009116,-11843.295072,-995.924147
59367.501247,-1702.473667,-11029.068536,-842.705048
59367.501557,1628.453072,-7772.162391,1149.143247
59367.501866,0.000000,-4811.338623,0.000000
59367.502176,-4145.153275,-7179.997637,0.000000
59367.502486,-74.020594,-11843.295072,1608.800546
59367.502796,592.164754,-8956.491898,1838.629195
59367.503105,5847.626942,-8882.471304,2374.896044
59367.503415,-370.102971,-7105.977043,0.000000
59367.503725,-3849.070898,-11843.295072,-153.219100
59367.504034,-3701.029710,-12287.418637,-536.266849
59367.504344,-888.247130,-9844.739029,1225.752797
59367.504654,0.000000,-6809.894666,1915.238745
59367.504964,-3552.988522,-5403.503377,0.000000
59367.505273,-5921.647536,-5995.668130,0.000000
59367.505583,0.000000,-9844.739029,2451.505594
59367.505893,2590.720797,-6291.750507,0.000000
59367.506202,3256.906145,-7550.100608,4290.134789
59367.506512,-74.020594,-9474.636058,-1455.581446
59367.506822,-3552.988522,-12509.480420,-612.876398
59367.507132,-1480.411884,-12213.398043,0.000000
59367.507441,-444.123565,-10214.842000,689.485948
59367.507751,-2220.617826,-8956.491898,1149.143247
59367.508061,-4737.318029,-10362.883188,536.266849
59367.508370,-2960.823768,-8364.327145,0.000000
59367.508680,3256.906145,-7476.080014,4903.011187
59367.508990,5107.421000,-2738.761985,2374.896044
59367.509299,1184.329507,-5995.668130,3677.258390
59367.509609,-666.185348,-10510.924376,-76.609550
59367.509919,-3404.947333,-10510.924376,0.000000
59367.510229,-1036.288319,-9844.739029,536.266849
59367.510538,-814.226536,-8512.368333,536.266849
59367.510848,-2516.700203,-9474.636058,-76.609550
59367.511158,-2738.761985,-10658.965565,-76.609550
59367.511467,-74.020594,-8882.471304,-76.609550
59367.511777,1776.494261,-6291.750507,1838.629195
59367.512087,4663.297435,-9474.636058,4826.401637
59367.512397,-1850.514855,-7550.100608,-995.924147
59367.512706,-1258.350101,-12657.521608,-76.609550
59367.513016,-888.247130,-10436.903782,0.000000
59367.513326,1406.391290,-7920.203579,383.047749
59367.513635,-592.164754,-8068.244768,0.000000
59367.513945,-2738.761985,-9918.759623,-1225.752797
59367.514255,-74.020594,-11547.212695,1149.143247
59367.514565,4663.297435,-9474.636058,2374.896044
59367.514874,2368.659014,-5995.668130,1685.410096
59367.515184,2294.638420,-11843.295072,4213.525239
59367.515494,-5625.565159,-9548.656652,-2145.067394
59367.515803,-592.164754,-12287.418637,-76.609550
59367.516113,296.082377,-8660.409521,459.657299
59367.516423,0.000000,-7179.997637,995.924147
59367.516732,-2146.597232,-7994.224174,0.000000
59367.517042,-2146.597232,-9548.656652,0.000000
59367.517352,2294.638420,-9474.636058,2451.505594
59367.517662,5255.462188,-7550.100608,3907.087040
59367.517971,1184.329507,-5403.503377,459.657299
59367.518281,-666.185348,-13027.624579,-76.609550
59367.518591,-4515.256246,-10732.986159,-3447.429741
59367.518900,-1184.329507,-13027.624579,-76.609550
59367.519210,222.061783,-9918.759623,-153.219100
59367.519520,-2072.576638,-9474.636058,-383.047749
59367.519830,-2886.803174,-10955.047942,-306.438199
59367.520139,518.144159,-8956.491898,0.000000
59367.520449,5329.482782,-6661.853478,4903.011187
59367.520759,6735.874072,-6513.812290,6665.030833
59367.521068,-370.102971,-5995.668130,1378.971896
59367.521378,-1850.514855,-14211.954086,2374.896044
59367.521688,-4737.318029,-9548.656652,-1225.752797
59367.521998,-1776.494261,-9844.739029,2145.067394
59367.522307,-666.185348,-8290.306550,536.266849
59367.522617,-3182.885551,-9474.636058,76.609550
59367.522927,-2590.720797,-9918.759623,-306.438199
59367.523236,666.185348,-7772.162391,766.095498
59367.523546,2960.823768,-6291.750507,1225.752797
59367.523856,1480.411884,-7772.162391,2757.943793
59367.524165,-1258.350101,-10658.965565,-76.609550
59367.524475,-2368.659014,-11917.315666,1225.752797
59367.524785,2294.638420,-11251.130318,2068.457845
59367.525095,0.000000,-7179.997637,1532.190996
59367.525404,-1258.350101,-8882.471304,536.266849
59367.525714,-2664.741391,-10510.924376,0.000000
59367.526024,222.061783,-10214.842000,1378.971896
59367.526333,3552.988522,-7105.977043,3600.648841
59367.526643,1480.411884,-5995.668130,766.095498
59367.526953,-2368.659014,-8364.327145,1225.752797
59367.527263,-1850.514855,-12731.542202,-76.609550
59367.527572,-4737.318029,-8364.327145,0.000000
59367.527882,1702.473667,-9474.636058,4519.963438
59367.528192,-2072.576638,-5995.668130,0.000000
59367.528501,-2664.741391,-9178.553681,229.828649
59367.528811,-1554.432478,-9474.636058,0.000000
59367.529121,1406.391290,-7698.141797,1685.410096
59367.529431,3478.967927,-7105.977043,2374.896044
59367.529740,0.000000,-5995.668130,-76.609550
59367.530050,-3552.988522,-9548.656652,-1838.629195
59367.530360,-370.102971,-13619.789333,-76.609550
59367.530669,-1850.514855,-8956.491898,-2374.896044
59367.530979,1184.329507,-10436.903782,2451.505594
59367.531289,-2960.823768,-8364.327145,-1225.752797
59367.531599,-1776.494261,-11325.150913,153.219100
59367.531908,1406.391290,-8882.471304,1455.581446
59367.532218,4367.215058,-6291.750507,3830.477490
59367.532528,4071.132681,-7105.977043,4826.401637
59367.532837,-814.226536,-7402.059420,1149.143247
59367.533147,-4737.318029,-9548.656652,-1838.629195
59367.533457,-666.185348,-11695.253884,-76.609550
59367.533766,-2368.659014,-7179.997637,0.000000
59367.534076,-74.020594,-10658.965565,-612.876398
59367.534386,-4071.132681,-8956.491898,-2834.553343
59367.534696,-1924.535449,-10140.821405,0.000000
59367.535005,1628.453072,-7920.203579,1762.019645
59367.535315,3034.844362,-6513.812290,2145.067394
59367.535625,2294.638420,-9474.636058,3140.991542
59367.535934,-1850.514855,-11843.295072,-76.609550
59367.536244,-1554.432478,-10658.965565,-1608.800546
59367.536554,592.164754,-9252.574275,2451.505594
59367.536864,1702.473667,-7105.977043,-76.609550
59367.537173,-2368.659014,-8364.327145,0.000000
59367.537483,-1258.350101,-9474.636058,-689.485948
59367.537793,814.226536,-9548.656652,1608.800546
59367.538102,4219.173869,-7105.977043,3140.991542
59367.538412,2294.638420,-7476.080014,2911.162892
59367.538722,-1184.329507,-11029.068536,2451.505594
59367.539032,-2442.679609,-13915.871710,-76.609550
59367.539341,-666.185348,-10955.047942,-76.609550
59367.539651,0.000000,-7179.997637,1225.752797
59367.539961,-74.020594,-9474.636058,-76.609550
59367.540270,-4737.318029,-5403.503377,-2451.505594
59367.540580,-74.020594,-9474.636058,1455.581446
59367.540890,1850.514855,-6439.791695,2221.676944
59367.541199,2812.782580,-5995.668130,3064.381992
59367.541509,0.000000,-7698.141797,689.485948
59367.541819,-3552.988522,-10732.986159,0.000000
59367.542129,-666.185348,-12731.542202,1072.533697
59367.542438,-74.020594,-11843.295072,1149.143247
59367.542748,-1776.494261,-7476.080014,0.000000
59367.543058,-74.020594,-13027.624579,1762.019645
59367.543367,-2886.803174,-8512.368333,-1608.800546
59367.543677,4367.215058,-9474.636058,3294.210641
59367.543987,4737.318029,-5995.668130,4136.915689
59367.544297,2368.659014,-6291.750507,3140.991542
59367.544606,-1776.494261,-9178.553681,995.924147
59367.544916,-4737.318029,-9844.739029,0.000000
59367.545226,-592.164754,-9548.656652,1838.629195
59367.545535,-74.020594,-9474.636058,1762.019645
59367.545845,-4145.153275,-7476.080014,-3677.258390
59367.546155,-2072.576638,-11843.295072,-76.609550
59367.546465,-1850.514855,-9474.636058,-689.485948
59367.546774,3775.050304,-8882.471304,3294.210641
59367.547084,4071.132681,-6143.709319,2604.724693
59367.547394,370.102971,-8956.491898,1225.752797
59367.547703,-1998.556043,-11547.212695,-612.876398
59367.548013,-2368.659014,-10140.821405,-3064.381992
59367.548323,0.000000,-8364.327145,0.000000
59367.548632,1702.473667,-10658.965565,1455.581446
59367.548942,-2738.761985,-7179.997637,-3677.258390
59367.549252,-296.082377,-12065.356855,1225.752797
59367.549562,3478.967927,-9474.636058,2987.772442
59367.549871,4737.318029,-6587.832884,3830.477490
59367.550181,2664.741391,-7772.162391,2987.772442
59367.550491,-1850.514855,-10362.883188,229.828649
59367.550800,-2368.659014,-12139.377449,-306.438199
59367.551110,-370.102971,-9030.512492,-1302.362347
59367.551420,-2368.659014,-6587.832884,0.000000
59367.551730,-2368.659014,-8956.491898,153.219100
59367.552039,-2738.761985,-10658.965565,-1302.362347
59367.552349,-2368.659014,-8364.327145,0.000000
59367.552659,7031.956449,-9474.636058,4826.401637
59367.552968,2960.823768,-4811.338623,3064.381992
59367.553278,1406.391290,-8438.347739,1838.629195
59367.553588,-1776.494261,-11843.295072,-459.657299
59367.553898,-1184.329507,-10658.965565,-842.705048
59367.554207,1110.308913,-10658.965565,-76.609550
59367.554517,-1258.350101,-6957.935855,-1455.581446
59367.554827,-3552.988522,-9548.656652,0.000000
59367.555136,-74.020594,-13027.624579,-76.609550
59367.555446,296.082377,-7179.997637,1225.752797
59367.555756,6809.894666,-7772.162391,7354.516781
59367.556065,592.164754,-5995.668130,2451.505594
59367.556375,-2812.782580,-10807.006753,766.095498
59367.556685,-2516.700203,-11029.068536,306.438199
59367.556995,-1184.329507,-9474.636058,1225.752797
59367.557304,-74.020594,-8290.306550,2374.896044
59367.557614,-3034.844362,-7994.224174,-689.485948
59367.557924,-6217.729913,-7772.162391,-1685.410096
59367.558233,-74.020594,-11843.295072,3600.648841
59367.558543,2294.638420,-5033.400406,1455.581446
59367.558853,2368.659014,-5403.503377,3677.258390
59367.559163,-1924.535449,-8660.409521,0.000000
59367.559472,-2960.823768,-11473.192101,-383.047749
59367.559782,-1110.308913,-11029.068536,-459.657299
59367.560092,-444.123565,-8586.388927,-76.609550
59367.560401,-666.185348,-10658.965565,-76.609550
59367.560711,-1554.432478,-11251.130318,-1302.362347
59367.561021,-2368.659014,-9622.677246,-1149.143247
59367.561331,4515.256246,-10510.924376,5745.716235
59367.561640,4071.132681,-4737.318029,2681.334243
59367.561950,0.000000,-4811.338623,0.000000
59367.562260,-1406.391290,-10436.903782,689.485948
59367.562569,-2294.638420,-11029.068536,229.828649
59367.562879,-740.205942,-9696.697840,1072.533697
59367.563189,-1480.411884,-8512.368333,766.095498
59367.563498,-3256.906145,-9622.677246,1608.800546
59367.563808,-2442.679609,-11843.295072,-76.609550
59367.564118,-74.020594,-8290.306550,-76.609550
59367.564428,1184.329507,-4811.338623,1225.752797
59367.564737,5847.626942,-8290.306550,4826.401637
59367.565047,-1554.432478,-8216.285956,-1991.848295
59367.565357,-1406.391290,-11547.212695,-1302.362347
59367.565666,-1036.288319,-10214.842000,-1072.533697
59367.565976,148.041188,-8882.471304,76.609550
59367.566286,-1998.556043,-8882.471304,-995.924147
59367.566596,-2960.823768,-10140.821405,0.000000
59367.566905,1702.473667,-11843.295072,2221.676944
59367.567215,5847.626942,-8290.306550,3600.648841
59367.567525,2368.659014,-3627.009116,2451.505594
59367.567834,3478.967927,-9474.636058,3600.648841
59367.568144,-3849.070898,-8512.368333,-1608.800546
59367.568454,-666.185348,-12435.459826,842.705048
59367.568764,-666.185348,-9252.574275,459.657299
59367.569073,-1998.556043,-7846.182985,-306.438199
59367.569383,-3997.112087,-9030.512492,-1072.533697
59367.569693,-4737.318029,-8364.327145,0.000000
59367.570002,1184.329507,-8660.409521,2451.505594
59367.570312,4663.297435,-7105.977043,3600.648841
59367.570622,0.000000,-3627.009116,0.000000
59367.570931,-74.020594,-12435.459826,2374.896044
59367.571241,-1258.350101,-11251.130318,-1302.362347
59367.571551,-74.020594,-11843.295072,842.705048
59367.571861,-148.041188,-8882.471304,383.047749
59367.572170,-1702.473667,-9252.574275,-153.219100
59367.572480,-2812.782580,-10140.821405,-842.705048
59367.572790,-2072.576638,-8364.327145,0.000000
59367.573099,2960.823768,-7179.997637,3064.381992
59367.573409,5699.585753,-7698.141797,6052.154434
59367.573719,-2368.659014,-5995.668130,0.000000
59367.574029,-1258.350101,-12435.459826,2374.896044
59367.574338,-1850.514855,-11843.295072,2374.896044
59367.574648,296.082377,-9104.533087,2451.505594
59367.574958,-1776.494261,-7698.141797,842.705048
59367.575267,-4293.194464,-8660.409521,-612.876398
59367.575577,-3997.112087,-9548.656652,-689.485948
59367.575887,222.061783,-6587.832884,0.000000
59367.576197,592.164754,-4811.338623,1838.629195
59367.576506,1184.329507,-7772.162391,2757.943793
59367.576816,-1258.350101,-10658.965565,-1302.362347
59367.577126,-4737.318029,-10732.986159,0.000000
59367.577435,2294.638420,-13027.624579,3600.648841
59367.577745,0.000000,-7920.203579,306.438199
59367.578055,-1628.453072,-9178.553681,76.609550
59367.578364,-2442.679609,-10436.903782,-459.657299
59367.578674,1036.288319,-9474.636058,1225.752797
59367.578984,5847.626942,-7105.977043,2987.772442
59367.579294,2664.741391,-4811.338623,2451.505594
59367.579603,-1184.329507,-9548.656652,1225.752797
59367.579913,-1258.350101,-13027.624579,-76.609550
59367.580223,-2368.659014,-11029.068536,306.438199
59367.580532,1702.473667,-10436.903782,3447.429741
59367.580842,-3997.112087,-7179.997637,-1225.752797
59367.581152,-4885.359217,-9622.677246,-1225.752797
59367.581462,-3330.926739,-9844.739029,-919.314598
59367.581771,1850.514855,-7328.038826,2221.676944
59367.582081,7031.956449,-6513.812290,4826.401637
59367.582391,2738.761985,-5921.647536,1762.019645
59367.582700,-2072.576638,-9548.656652,0.000000
59367.583010,-74.020594,-13027.624579,-76.609550
59367.583320,0.000000,-9548.656652,0.000000
59367.583630,1184.329507,-9844.739029,1225.752797
59367.583939,-3849.070898,-8660.409521,-2757.943793
59367.584249,-3034.844362,-11769.274478,-1762.019645
59367.584559,1702.473667,-10288.862594,1149.143247
59367.584868,5847.626942,-7772.162391,3524.039291
59367.585178,7031.956449,-7994.224174,4826.401637
59367.585488,1110.308913,-9178.553681,2221.676944
59367.585798,-2368.659014,-9622.677246,-1302.362347
59367.586107,148.041188,-11547.212695,2451.505594
59367.586417,-814.226536,-7402.059420,-383.047749
59367.586727,-4737.318029,-5995.668130,0.000000
59367.587036,-4811.338623,-8882.471304,-1915.238745
59367.587346,-2738.761985,-9770.718434,-229.828649
59367.587655,2146.597232,-7698.141797,2374.896044
59367.587964,3404.947333,-6439.791695,3600.648841
59367.588274,2738.761985,-9474.636058,4826.401637
59367.588584,-74.020594,-12435.459826,-76.609550
59367.588893,-2738.761985,-9844.739029,-1608.800546
59367.589203,0.000000,-10140.821405,2451.505594
59367.589513,-74.020594,-7105.977043,-689.485948
59367.589822,-5921.647536,-7179.997637,-3677.258390
59367.590132,-4589.276840,-9548.656652,-1302.362347
59367.590442,0.000000,-7179.997637,0.000000
59367.590751,4737.318029,-7179.997637,3524.039291
59367.591061,3108.864956,-7550.100608,3677.258390
59367.591371,-74.020594,-12731.542202,3294.210641
59367.591680,-1258.350101,-12435.459826,-76.609550
59367.591990,-2368.659014,-9548.656652,0.000000
59367.592300,814.226536,-9474.636058,2987.772442
59367.592609,-4737.318029,-5551.544565,0.000000
59367.592919,-5921.647536,-8364.327145,0.000000
59367.593229,-2886.803174,-8068.244768,-383.047749
59367.593538,2146.597232,-6883.915261,2757.943793
59367.593848,3701.029710,-5699.585753,3677.258390
59367.594158,518.144159,-7772.162391,1838.629195
59367.594467,-1332.370696,-11843.295072,1762.019645
59367.594777,-74.020594,-13027.624579,-76.609550
59367.595087,-1480.411884,-8882.471304,-1532.190996
59367.595396,-2368.659014,-8364.327145,0.000000
59367.595706,-2442.679609,-11251.130318,-1915.238745
59367.596016,-5921.647536,-9548.656652,-3677.258390
59367.596326,2886.803174,-9474.636058,1762.019645
59367.596635,4811.338623,-7105.977043,3677.258390
59367.596945,3923.091493,-7105.977043,3753.867940
59367.597255,-222.061783,-10066.800811,1915.238745
59367.597564,-1184.329507,-10732.986159,2451.505594
59367.597874,1702.473667,-11103.089130,3294.210641
59367.598184,-74.020594,-7698.141797,842.705048
59367.598493,-5921.647536,-5995.668130,0.000000
59367.598803,-2442.679609,-11843.295072,-383.047749
59367.599113,-2738.761985,-7772.162391,-2834.553343
59367.599422,4367.215058,-8290.306550,2681.334243
59367.599732,3404.947333,-6587.832884,2681.334243
59367.600042,-518.144159,-9030.512492,1149.143247
59367.600351,-2368.659014,-11251.130318,-995.924147
59367.600661,-2368.659014,-10140.821405,0.000000
59367.600971,592.164754,-8956.491898,1225.752797
59367.601280,-74.020594,-9474.636058,-76.609550
59367.601590,-5921.647536,-7179.997637,-3677.258390
59367.601900,-74.020594,-12879.583391,-76.609550
59367.602209,3478.967927,-7105.977043,1149.143247
59367.602519,6439.791695,-7994.224174,4826.401637
59367.602829,3478.967927,-7254.018232,3447.429741
59367.603138,-740.205942,-10214.842000,1225.752797
59367.603448,-1332.370696,-11843.295072,842.705048
59367.603758,0.000000,-7476.080014,0.000000
59367.604067,0.000000,-7772.162391,1225.752797
59367.604377,-1850.514855,-9474.636058,-76.609550
59367.604687,-8882.471304,-7179.997637,-3677.258390
59367.604996,-74.020594,-11547.212695,-76.609550
59367.605306,3478.967927,-7105.977043,3600.648841
59367.605616,4145.153275,-7476.080014,4903.011187
59367.605926,-74.020594,-8586.388927,1455.581446
59367.606235,-2886.803174,-10584.944971,-229.828649
59367.606545,-1036.288319,-10140.821405,-459.657299
59367.606855,0.000000,-7179.997637,-2451.505594
59367.607164,-3552.988522,-7179.997637,0.000000
59367.607474,-2960.823768,-11621.233289,0.000000
59367.607784,-1554.432478,-9474.636058,-2528.115143
59367.608093,4145.153275,-10140.821405,3677.258390
59367.608403,7031.956449,-8290.306550,4826.401637
59367.608713,1776.494261,-7772.162391,3677.258390
59367.609022,-1554.432478,-10807.006753,919.314598
59367.609332,-2072.576638,-11325.150913,459.657299
59367.609642,-888.247130,-9104.533087,1762.019645
59367.609951,-1850.514855,-7105.977043,-1302.362347
59367.610261,-6513.812290,-7179.997637,-1838.629195
59367.610571,-5921.647536,-9548.656652,0.000000
59367.610880,-74.020594,-8882.471304,-76.609550
59367.611190,2368.659014,-4811.338623,3677.258390
59367.611500,5255.462188,-7920.203579,7277.907231
59367.611809,-2368.659014,-7772.162391,919.314598
59367.612119,-2664.741391,-11399.171507,-153.219100
59367.612429,-1258.350101,-10658.965565,-689.485948
59367.612738,222.061783,-8956.491898,306.438199
59367.613048,-74.020594,-9474.636058,-1302.362347
59367.613358,-3627.009116,-9622.677246,-3140.991542
59367.613667,-1776.494261,-9548.656652,-2451.505594
59367.613977,7031.956449,-10658.965565,3600.648841
59367.614287,2960.823768,-4811.338623,2451.505594
59367.614597,2368.659014,-9548.656652,4290.134789
59367.614906,-2368.659014,-10732.986159,0.000000
59367.615216,-666.185348,-11843.295072,383.047749
59367.615526,1036.288319,-9178.553681,1762.019645
59367.615835,-518.144159,-8068.244768,766.095498
59367.616145,-666.185348,-9474.636058,-76.609550
59367.616455,-2442.679609,-10362.883188,-689.485948
59367.616764,0.000000,-7179.997637,0.000000
59367.617074,6439.791695,-8290.306550,4519.963438
59367.617384,0.000000,-4811.338623,1225.752797
59367.617693,-1184.329507,-10140.821405,2604.724693
59367.618003,-3034.844362,-9844.739029,-1762.019645
59367.618313,-1184.329507,-10140.821405,-383.047749
59367.618622,296.082377,-7772.162391,76.609550
59367.618932,-2220.617826,-8586.388927,-1302.362347
59367.619242,-666.185348,-13027.624579,-76.609550
59367.619551,2886.803174,-10658.965565,-76.609550
59367.619861,4071.132681,-7179.997637,0.000000
59367.620171,7476.080014,-8882.471304,5439.278036
59367.620480,0.000000,-7476.080014,383.047749
59367.620790,-4145.153275,-10732.986159,0.000000
59367.621100,-666.185348,-11251.130318,-383.047749
59367.621409,0.000000,-8438.347739,919.314598
59367.621719,-1702.473667,-8660.409521,612.876398
59367.622029,-4219.173869,-8956.491898,-612.876398
59367.622338,-2368.659014,-11769.274478,1991.848295
59367.622648,2294.638420,-8586.388927,2987.772442
59367.622958,2812.782580,-4219.173869,1072.533697
59367.623267,3256.906145,-8216.285956,4749.792088
59367.623577,-4219.173869,-8660.409521,0.000000
59367.623887,-4071.132681,-9548.656652,-3064.381992
59367.624197,-370.102971,-10658.965565,-76.609550
59367.624506,-592.164754,-7254.018232,0.000000
59367.624816,-2368.659014,-8882.471304,-1149.143247
59367.625126,-3330.926739,-10288.862594,-1149.143247
59367.625435,-2368.659014,-9844.739029,1225.752797
59367.625745,4219.173869,-9400.615463,3064.381992
59367.626055,4663.297435,-8882.471304,3600.648841
59367.626364,-2960.823768,-7179.997637,0.000000
59367.626674,-1406.391290,-12583.501014,1455.581446
59367.626984,-666.185348,-9474.636058,-1915.238745
59367.627293,1110.308913,-8882.471304,2374.896044
59367.627603,-1850.514855,-8068.244768,1072.533697
59367.627913,-3923.091493,-9104.533087,306.438199
59367.628222,-2664.741391,-9326.594869,612.876398
59367.628532,592.164754,-5995.668130,2451.505594
59367.628842,2960.823768,-6291.750507,4290.134789
59367.629151,2294.638420,-9474.636058,3600.648841
59367.629461,-5699.585753,-7920.203579,-2451.505594
59367.629771,-2738.761985,-13027.624579,-383.047749
59367.630080,-74.020594,-10658.965565,-1915.238745
59367.630390,-370.102971,-9474.636058,766.095498
59367.630700,-2294.638420,-9622.677246,-689.485948
59367.631009,-2294.638420,-10510.924376,-689.485948
59367.631319,1998.556043,-9696.697840,1762.019645
59367.631629,3849.070898,-4811.338623,1838.629195
59367.631938,4737.318029,-5403.503377,3983.696590
59367.632248,2590.720797,-11843.295072,4826.401637
59367.632558,-4145.153275,-9548.656652,0.000000
59367.632867,-74.020594,-11843.295072,-76.609550
59367.633177,1702.473667,-9474.636058,1762.019645
59367.633487,-2368.659014,-9252.574275,0.000000
59367.633797,-4811.338623,-10436.903782,-1225.752797
59367.634106,-2812.782580,-9844.739029,-766.095498
59367.634416,2368.659014,-7772.162391,2604.724693
59367.634726,2738.761985,-4293.194464,1838.629195
59367.635035,0.000000,-5995.668130,1225.752797
59367.635345,-2960.823768,-10140.821405,2451.505594
59367.635655,-666.185348,-10658.965565,-1302.362347
59367.635964,0.000000,-7772.162391,0.000000
59367.636274,3478.967927,-9474.636058,4213.525239
59367.636584,-2368.659014,-8068.244768,-1149.143247
59367.636893,-1924.535449,-10807.006753,-1302.362347
59367.637203,1184.329507,-9992.780217,459.657299
59367.637513,4367.215058,-7920.203579,2221.676944
59367.637822,3478.967927,-7550.100608,1149.143247
59367.638132,-2072.576638,-10140.821405,0.000000
59367.638442,-2368.659014,-12509.480420,1225.752797
59367.638751,-74.020594,-11251.130318,-76.609550
59367.639061,0.000000,-7179.997637,1838.629195
59367.639371,-2368.659014,-7031.956449,383.047749
59367.639680,-3330.926739,-9474.636058,-229.828649
59367.639990,-1628.453072,-9400.615463,995.924147
59367.640300,3182.885551,-6439.791695,3677.258390
59367.640609,3849.070898,-5403.503377,4826.401637
59367.640919,0.000000,-8290.306550,2911.162892
59367.641229,-3256.906145,-10955.047942,-76.609550
59367.641538,-2442.679609,-10066.800811,-2834.553343
59367.641848,-2368.659014,-9548.656652,0.000000
59367.642158,-962.267725,-10066.800811,-76.609550
59367.642468,-2886.803174,-11251.130318,-689.485948
59367.642777,-3552.988522,-10436.903782,-1225.752797
59367.643087,1850.514855,-9030.512492,2068.457845
59367.643397,4959.379811,-5995.668130,3370.820191
59367.643706,3552.988522,-5625.565159,3140.991542
59367.644016,-370.102971,-8364.327145,536.266849
59367.644326,-1776.494261,-9844.739029,-2221.676944
59367.644635,1184.329507,-11917.315666,2911.162892
59367.644945,-74.020594,-7698.141797,536.266849
59367.645255,-3552.988522,-8660.409521,306.438199
59367.645564,-5255.462188,-9844.739029,-689.485948
59367.645874,-962.267725,-9474.636058,536.266849
59367.646184,2812.782580,-7402.059420,3677.258390
59367.646493,3182.885551,-6365.771101,4060.306139
59367.646803,-1406.391290,-8882.471304,1302.362347
59367.647113,-3182.885551,-11621.233289,-153.219100
59367.647422,-74.020594,-13027.624579,2374.896044
59367.647732,-74.020594,-7105.977043,-76.609550
59367.648042,0.000000,-6587.832884,612.876398
59367.648351,-666.185348,-11843.295072,-76.609550
59367.648661,-222.061783,-10066.800811,-2528.115143
59367.648971,1702.473667,-8956.491898,1378.971896
59367.649280,4293.194464,-6365.771101,2451.505594
59367.649590,3034.844362,-7402.059420,1532.190996
59367.649900,-962.267725,-10807.006753,1072.533697
59367.650209,-2960.823768,-11621.233289,-2145.067394
59367.650519,-3552.988522,-9548.656652,0.000000
59367.650829,1184.329507,-10584.944971,2451.505594
59367.651138,-1850.514855,-9474.636058,-689.485948
59367.651448,-2368.659014,-11325.150913,2451.505594
59367.651758,0.000000,-9252.574275,2757.943793
59367.652068,4071.132681,-6143.709319,4213.525239
59367.652377,3182.885551,-5107.421000,4290.134789
59367.652687,-1258.350101,-8290.306550,995.924147
59367.652997,-3404.947333,-9548.656652,-1302.362347
59367.653306,-1554.432478,-11103.089130,-612.876398
59367.653616,2294.638420,-11251.130318,2374.896044
59367.653926,-2886.803174,-7179.997637,-1608.800546
59367.654235,-3404.947333,-10436.903782,-306.438199
59367.654545,-74.020594,-11843.295072,-2528.115143
59367.654855,1406.391290,-7994.224174,229.828649
59367.655164,3775.050304,-6661.853478,2145.067394
59367.655474,2220.617826,-8068.244768,2298.286494
59367.655784,-1554.432478,-10807.006753,0.000000
59367.656093,-74.020594,-13397.727550,1838.629195
59367.656403,666.185348,-8882.471304,1149.143247
59367.656713,0.000000,-5995.668130,612.876398
59367.657022,-370.102971,-9474.636058,1762.019645
59367.657332,-2590.720797,-7994.224174,-1915.238745
59367.657642,0.000000,-9104.533087,2451.505594
59367.657951,4441.235652,-8068.244768,4903.011187
59367.658261,1406.391290,-6809.894666,2604.724693
59367.658571,-3404.947333,-9696.697840,76.609550
59367.658880,-4589.276840,-11473.192101,-1608.800546
59367.659190,-3108.864956,-8364.327145,-2068.457845
59367.659500,1110.308913,-8364.327145,2451.505594
59367.659809,-74.020594,-9474.636058,1762.019645
59367.660119,-4737.318029,-8364.327145,-2374.896044
59367.660429,-666.185348,-11251.130318,-76.609550
59367.660738,0.000000,-4811.338623,0.000000
59367.661048,3552.988522,-3923.091493,1762.019645
59367.661358,1628.453072,-7179.997637,1991.848295
59367.661668,-1776.494261,-10955.047942,-383.047749
59367.661977,-1332.370696,-12509.480420,0.000000
59367.662287,2294.638420,-13027.624579,3447.429741
59367.662597,-1258.350101,-8882.471304,536.266849
59367.662906,-5921.647536,-9548.656652,0.000000
59367.663216,-2442.679609,-11547.212695,-76.609550
59367.663526,0.000000,-5995.668130,612.876398
59367.663835,7031.956449,-8290.306550,6052.154434
59367.664145,4071.132681,-7105.977043,5286.058936
59367.664455,-2294.638420,-8882.471304,1149.143247
59367.664764,-3627.009116,-10436.903782,-842.705048
59367.665074,-1406.391290,-9770.718434,0.000000
59367.665384,-1776.494261,-5403.503377,0.000000
59367.665693,-1776.494261,-8512.368333,919.314598
59367.666003,-1850.514855,-11251.130318,-689.485948
59367.666313,-2368.659014,-9548.656652,-3677.258390
59367.666622,4663.297435,-10658.965565,3907.087040
59367.666932,1184.329507,-4811.338623,0.000000
59367.667242,0.000000,-7179.997637,306.438199
59367.667551,-2960.823768,-12287.418637,-919.314598
59367.667861,-518.144159,-12213.398043,-76.609550
59367.668171,962.267725,-9548.656652,1532.190996
59367.668480,2738.761985,-9474.636058,3600.648841
59367.668790,-2442.679609,-7254.018232,-842.705048
59367.669100,-3256.906145,-8956.491898,0.000000
59367.669409,3182.885551,-7105.977043,2374.896044
59367.669719,2368.659014,-5403.503377,3677.258390
59367.670029,3478.967927,-7105.977043,1762.019645
59367.670339,-2442.679609,-11251.130318,536.266849
59367.670648,-4441.235652,-11769.274478,-2068.457845
59367.670958,-2146.597232,-10881.027347,-995.924147
59367.671268,-296.082377,-8660.409521,306.438199
59367.671577,-4145.153275,-7179.997637,0.000000
59367.671887,-2072.576638,-11473.192101,-306.438199
59367.672197,1110.308913,-9474.636058,-76.609550
59367.672506,2960.823768,-5995.668130,3064.381992
59367.672816,7031.956449,-5921.647536,3600.648841
59367.673126,0.000000,-7772.162391,2451.505594
59367.673435,-2368.659014,-11029.068536,-919.314598
59367.673745,0.000000,-11991.336260,229.828649
59367.674055,1184.329507,-9622.677246,1225.752797
59367.674364,-1184.329507,-8734.430116,306.438199
59367.674674,-1850.514855,-11843.295072,-689.485948
59367.674984,-3256.906145,-10140.821405,0.000000
59367.675293,1998.556043,-7994.224174,2681.334243
59367.675603,3775.050304,-5699.585753,4290.134789
59367.675913,444.123565,-6587.832884,2911.162892
59367.676222,-4145.153275,-9548.656652,1225.752797
59367.676532,-2516.700203,-10881.027347,-76.609550
59367.676842,-3552.988522,-5995.668130,0.000000
59367.677151,1702.473667,-9474.636058,2374.896044
59367.677461,-3849.070898,-7772.162391,-1072.533697
59367.677771,-74.020594,-12435.459826,-76.609550
59367.678080,0.000000,-9548.656652,459.657299
59367.678390,4071.132681,-7105.977043,2221.676944
59367.678700,3404.947333,-5921.647536,2451.505594
59367.679009,-666.185348,-9844.739029,612.876398
59367.679319,-2960.823768,-10881.027347,0.000000
59367.679629,-592.164754,-12583.501014,1455.581446
59367.679939,-74.020594,-8882.471304,-76.609550
59367.680248,-2368.659014,-8364.327145,612.876398
59367.680558,-1850.514855,-11251.130318,-76.609550
59367.680868,-74.020594,-10658.965565,2374.896044
59367.681177,3404.947333,-7105.977043,4213.525239
59367.681487,2960.823768,-3923.091493,3677.258390
59367.681797,2294.638420,-9474.636058,3600.648841
59367.682106,-5921.647536,-9548.656652,0.000000
59367.682416,-2442.679609,-11843.295072,-229.828649
59367.682726,-1776.494261,-9252.574275,76.609550
59367.683035,-740.205942,-8216.285956,1072.533697
59367.683345,-3108.864956,-8956.491898,-919.314598
59367.683655,-3552.988522,-10510.924376,-1532.190996
59367.683964,0.000000,-7476.080014,0.000000
59367.684274,4663.297435,-6809.894666,2834.553343
59367.684584,3256.906145,-6291.750507,2451.505594
59367.684893,-666.185348,-9696.697840,536.266849
59367.685203,-1480.411884,-12213.398043,-383.047749
59367.685513,2294.638420,-11843.295072,-76.609550
59367.685822,1036.288319,-7254.018232,-383.047749
59367.686132,-2960.823768,-8660.409521,0.000000
59367.686442,-4219.173869,-10362.883188,-1915.238745
59367.686751,-2368.659014,-11029.068536,612.876398
59367.687061,3478.967927,-5699.585753,2451.505594
59367.687371,4515.256246,-6661.853478,4826.401637
59367.687680,-370.102971,-7328.038826,1149.143247
59367.687990,-4589.276840,-10658.965565,-689.485948
59367.688300,-2664.741391,-9992.780217,-536.266849
59367.688610,1110.308913,-10362.883188,2374.896044
59367.688919,-74.020594,-7105.977043,-76.609550
59367.689229,-4737.318029,-8364.327145,0.000000
59367.689539,-3552.988522,-10436.903782,-1225.752797
59367.689848,3478.967927,-11843.295072,3600.648841
59367.690158,4959.379811,-5773.606348,3064.381992
59367.690468,4737.318029,-6735.874072,3370.820191
59367.690777,-370.102971,-10658.965565,-76.609550
59367.691087,-2812.782580,-12065.356855,-1685.410096
59367.691397,148.041188,-13027.624579,536.266849
59367.691706,2886.803174,-10658.965565,2068.457845
59367.692016,-2442.679609,-9178.553681,-689.485948
59367.692326,-4737.318029,-7772.162391,0.000000
59367.692635,-74.020594,-11103.089130,2374.896044
59367.692945,4367.215058,-6365.771101,3524.039291
59367.693255,4367.215058,-5107.421000,2451.505594
59367.693564,-296.082377,-8068.244768,1072.533697
59367.693874,-3775.050304,-10658.965565,-383.047749
59367.694184,-2368.659014,-10658.965565,-536.266849
59367.694493,814.226536,-9030.512492,1455.581446
59367.694803,-74.020594,-9474.636058,2987.772442
59367.695113,-3034.844362,-11843.295072,-76.609550
59367.695422,-5921.647536,-9548.656652,-3600.648841
59367.695732,2590.720797,-10658.965565,2757.943793
59367.696042,5255.462188,-6365.771101,2987.772442
59367.696351,4071.132681,-6217.729913,1455.581446
59367.696661,-1776.494261,-9844.739029,0.000000
59367.696971,-1258.350101,-12065.356855,-229.828649
59367.697281,962.267725,-11029.068536,842.705048
59367.697590,0.000000,-8364.327145,2221.676944
59367.697900,-3256.906145,-8364.327145,612.876398
59367.698210,-1258.350101,-11843.295072,-76.609550
59367.698519,-518.144159,-8808.450710,383.047749
59367.698829,4737.318029,-7476.080014,6128.763984
59367.699139,2886.803174,-4145.153275,2374.896044
59367.699448,-962.267725,-9400.615463,2374.896044
59367.699758,-4737.318029,-10881.027347,-995.924147
59367.700068,-2590.720797,-10584.944971,-306.438199
59367.700377,-1258.350101,-8660.409521,1072.533697
59367.700687,-2664.741391,-8438.347739,0.000000
59367.700997,-4737.318029,-7476.080014,0.000000
59367.701306,-3552.988522,-10732.986159,612.876398
59367.701616,4663.297435,-8882.471304,2987.772442
59367.701926,3923.091493,-4885.359217,2451.505594
59367.702235,2664.741391,-5995.668130,2451.505594
59367.702545,-74.020594,-11843.295072,-76.609550
59367.702855,-2072.576638,-12065.356855,-995.924147
59367.703164,74.020594,-11177.109724,612.876398
59367.703474,0.000000,-8586.388927,766.095498
59367.703784,-2442.679609,-9696.697840,-1225.752797
59367.704093,-4737.318029,-9548.656652,0.000000
59367.704403,592.164754,-9548.656652,4290.134789
59367.704713,6439.791695,-7698.141797,3600.648841
59367.705023,2368.659014,-4811.338623,3677.258390
59367.705332,-666.185348,-9474.636058,536.266849
59367.705642,-2664.741391,-11843.295072,1762.019645
59367.705952,-1554.432478,-10584.944971,-76.609550
59367.706261,0.000000,-8660.409521,1072.533697
59367.706571,-2516.700203,-9030.512492,0.000000
59367.706881,-4367.215058,-10066.800811,-2451.505594
59367.707190,-3552.988522,-8364.327145,-2451.505594
59367.707500,2960.823768,-7179.997637,4903.011187
59367.707810,7031.956449,-5921.647536,3600.648841
59367.708119,592.164754,-5995.668130,1838.629195
59367.708429,-1258.350101,-11251.130318,-689.485948
59367.708739,-2368.659014,-12139.377449,-76.609550
59367.709048,444.123565,-11177.109724,306.438199
59367.709358,-592.164754,-8956.491898,459.657299
59367.709668,-3256.906145,-9696.697840,-1302.362347
59367.709977,-3182.885551,-10436.903782,-2451.505594
59367.710287,592.164754,-7179.997637,1225.752797
59367.710597,2960.823768,-4811.338623,3677.258390
59367.710906,5847.626942,-8290.306550,4826.401637
59367.711216,-2960.823768,-8364.327145,0.000000
59367.711526,-2960.823768,-11917.315666,229.828649
59367.711835,-1628.453072,-11103.089130,2068.457845
59367.712145,222.061783,-8142.265362,1455.581446
59367.712455,-2294.638420,-8660.409521,-153.219100
59367.712764,-3997.112087,-10066.800811,-1302.362347
59367.713074,-1554.432478,-9548.656652,-2374.896044
59367.713384,2590.720797,-6143.709319,842.705048
59367.713694,2886.803174,-3627.009116,1608.800546
59367.714003,1184.329507,-8956.491898,2451.505594
59367.714313,-1850.514855,-12287.418637,-689.485948
59367.714623,-2368.659014,-11917.315666,-995.924147
59367.714932,0.000000,-10732.986159,1532.190996
59367.715242,-296.082377,-9178.553681,842.705048
59367.715552,-3849.070898,-9178.553681,-919.314598
59367.715861,-2960.823768,-10214.842000,-459.657299
59367.716171,2368.659014,-6735.874072,2374.896044
59367.716481,5551.544565,-5033.400406,2987.772442
59367.716790,0.000000,-3627.009116,1532.190996
59367.717100,-1480.411884,-10881.027347,2604.724693
59367.717410,-3034.844362,-11843.295072,-76.609550
59367.717719,-1406.391290,-9992.780217,1149.143247
59367.718029,-888.247130,-7772.162391,612.876398
59367.718339,-2886.803174,-9474.636058,-229.828649
59367.718648,-4811.338623,-10584.944971,-1532.190996
59367.718958,-1628.453072,-9992.780217,-612.876398
59367.719268,3478.967927,-6513.812290,2987.772442
59367.719577,5847.626942,-5921.647536,4213.525239
59367.719887,-962.267725,-6069.688724,0.000000
59367.720197,-2368.659014,-12361.439231,919.314598
59367.720506,-74.020594,-11843.295072,-76.609550
59367.720816,0.000000,-8364.327145,1225.752797
59367.721126,-1776.494261,-7179.997637,0.000000
59367.721436,-4071.132681,-9474.636058,-1455.581446
59367.721745,-2442.679609,-10658.965565,-459.657299
59367.722055,2886.803174,-8808.450710,2374.896044
59367.722365,5995.668130,-7105.977043,6052.154434
59367.722674,4071.132681,-7994.224174,4826.401637
59367.722984,-74.020594,-11843.295072,-76.609550
59367.723294,-4737.318029,-10140.821405,-1838.629195
59367.723603,296.082377,-10214.842000,2451.505594
59367.723913,518.144159,-7698.141797,1225.752797
59367.724223,-4737.318029,-6735.874072,-2451.505594
59367.724532,-4441.235652,-10140.821405,-1225.752797
59367.724842,0.000000,-9696.697840,842.705048
59367.725152,4071.132681,-6883.915261,2911.162892
59367.725461,4663.297435,-6809.894666,4213.525239
59367.725771,888.247130,-9474.636058,3217.601092
59367.726081,-666.185348,-12435.459826,-689.485948
59367.726390,-2368.659014,-10732.986159,0.000000
59367.726700,2294.638420,-10510.924376,2374.896044
59367.727010,-2442.679609,-7772.162391,-2451.505594
59367.727319,-4663.297435,-9178.553681,-2528.115143
59367.727629,-2368.659014,-10066.800811,-536.266849
59367.727939,3923.091493,-7846.182985,3370.820191
59367.728248,6735.874072,-5403.503377,5132.839837
59367.728558,3775.050304,-7920.203579,4749.792088
59367.728868,-2368.659014,-11695.253884,306.438199
59367.729177,-74.020594,-13619.789333,-76.609550
59367.729487,-2368.659014,-7772.162391,0.000000
59367.729797,-1036.288319,-9400.615463,2298.286494
59367.730107,-4811.338623,-9030.512492,-2987.772442
59367.730416,-4959.379811,-11251.130318,-1915.238745
59367.730726,-1184.329507,-8956.491898,612.876398
59367.731036,4885.359217,-6439.791695,3140.991542
59367.731345,4663.297435,-4737.318029,3907.087040
59367.731655,0.000000,-8068.244768,1225.752797
59367.731965,-2368.659014,-11917.315666,0.000000
59367.732274,2294.638420,-13619.789333,2374.896044
59367.732584,1998.556043,-9326.594869,536.266849
59367.732894,-3552.988522,-7179.997637,0.000000
59367.733203,-3849.070898,-9696.697840,-2528.115143
59367.733513,-74.020594,-11251.130318,-76.609550
59367.733823,3701.029710,-8364.327145,2451.505594
59367.734132,4441.235652,-6439.791695,3907.087040
59367.734442,-740.205942,-8142.265362,1225.752797
59367.734752,-4737.318029,-9844.739029,0.000000
59367.735061,-2960.823768,-9548.656652,-2451.505594
59367.735371,0.000000,-8364.327145,1838.629195
59367.735681,-74.020594,-8882.471304,2068.457845
59367.735990,-4441.235652,-7772.162391,0.000000
59367.736300,-2442.679609,-10658.965565,-76.609550
59367.736610,2886.803174,-9474.636058,3294.210641
59367.736919,4589.276840,-5477.523971,3294.210641
59367.737229,3849.070898,-5699.585753,3064.381992
59367.737539,-888.247130,-9918.759623,306.438199
59367.737849,-4737.318029,-11917.315666,-1838.629195
59367.738158,-3256.906145,-10140.821405,-689.485948
59367.738468,-2368.659014,-8364.327145,0.000000
59367.738778,-666.185348,-9474.636058,-689.485948
59367.739087,-4737.318029,-9548.656652,-4903.011187
59367.739397,-74.020594,-11843.295072,1762.019645
59367.739707,5625.565159,-8290.306550,4749.792088
59367.740016,5847.626942,-5921.647536,4673.182538
59367.740326,518.144159,-7994.224174,1915.238745
59367.740636,-2960.823768,-10584.944971,306.438199
59367.740945,-2442.679609,-9770.718434,-76.609550
59367.741255,0.000000,-8290.306550,-76.609550
59367.741565,-4145.153275,-6291.750507,0.000000
59367.741874,-3330.926739,-10955.047942,-76.609550
59367.742184,-3923.091493,-10362.883188,-1302.362347
59367.742494,1406.391290,-9474.636058,2987.772442
59367.742803,4737.318029,-5403.503377,3983.696590
59367.743113,3478.967927,-5921.647536,2987.772442
59367.743423,-888.247130,-10140.821405,766.095498
59367.743732,-1702.473667,-11843.295072,-153.219100
59367.744042,814.226536,-10658.965565,842.705048
59367.744352,-74.020594,-9474.636058,2068.457845
59367.744661,-4367.215058,-6957.935855,-2987.772442
59367.744971,-3849.070898,-11325.150913,-919.314598
59367.745281,-74.020594,-8882.471304,-689.485948
59367.745590,5033.400406,-8660.409521,4290.134789
59367.745900,2960.823768,-5699.585753,3064.381992
59367.746210,-74.020594,-9474.636058,1991.848295
59367.746520,-2664.741391,-11769.274478,459.657299
59367.746829,-1110.308913,-10510.924376,229.828649
59367.747139,1998.556043,-9474.636058,1762.019645
59367.747449,-1332.370696,-7772.162391,0.000000
59367.747758,-4811.338623,-9474.636058,-2528.115143
59367.748068,-4737.318029,-10140.821405,-1685.410096
59367.748378,2294.638420,-9474.636058,2374.896044
59367.748687,2960.823768,-4811.338623,3677.258390
59367.748997,0.000000,-4959.379811,1838.629195
59367.749307,-2368.659014,-10288.862594,153.219100
59367.749616,-2294.638420,-11547.212695,0.000000
59367.749926,0.000000,-9844.739029,612.876398
59367.750236,1702.473667,-9474.636058,1302.362347
59367.750545,-3997.112087,-8068.244768,-2834.553343
59367.750855,-3627.009116,-11843.295072,-1608.800546
59367.751165,0.000000,-9548.656652,612.876398
59367.751474,7031.956449,-9474.636058,6052.154434
59367.751784,2368.659014,-4811.338623,2451.505594
59367.752094,-2146.597232,-7254.018232,0.000000
59367.752403,-4071.132681,-11991.336260,-766.095498
59367.752713,-1258.350101,-9992.780217,229.828649
59367.753023,148.041188,-7920.203579,1532.190996
59367.753332,-1850.514855,-8586.388927,0.000000
59367.753642,-5551.544565,-9770.718434,-2145.067394
59367.753952,-666.185348,-11843.295072,-76.609550
59367.754262,1776.494261,-6587.832884,1532.190996
59367.754571,5847.626942,-8290.306550,6665.030833
59367.754881,0.000000,-4811.338623,0.000000
59367.755191,-1850.514855,-11251.130318,-76.609550
59367.755500,-1850.514855,-12065.356855,-306.438199
59367.755810,296.082377,-10510.924376,459.657299
59367.756120,-148.041188,-7846.182985,153.219100
59367.756429,-4145.153275,-8956.491898,-1838.629195
59367.756739,-5921.647536,-9548.656652,-2451.505594
59367.757049,3478.967927,-11843.295072,2987.772442
59367.757358,5255.462188,-6661.853478,3140.991542
59367.757668,3552.988522,-5995.668130,4903.011187
59367.757978,-666.185348,-9622.677246,76.609550
59367.758287,-1554.432478,-12879.583391,-76.609550
59367.758597,-296.082377,-10140.821405,689.485948
59367.758907,1480.411884,-7772.162391,1838.629195
59367.759216,-2294.638420,-8438.347739,-306.438199
59367.759526,-6513.812290,-9548.656652,-2451.505594
59367.759836,-4737.318029,-8364.327145,0.000000
59367.760145,4441.235652,-9474.636058,4136.915689
59367.760455,4663.297435,-4737.318029,2987.772442
59367.760765,0.000000,-6291.750507,2451.505594
59367.761074,-1258.350101,-11843.295072,-76.609550
59367.761384,-74.020594,-12139.377449,-76.609550
59367.761694,814.226536,-9178.553681,536.266849
59367.762003,-1036.288319,-7994.224174,-536.266849
59367.762313,-3627.009116,-10140.821405,-842.705048
59367.762623,-3552.988522,-9548.656652,-1608.800546
59367.762933,2442.679609,-8586.388927,995.924147
59367.763242,4737.318029,-4811.338623,3064.381992
59367.763552,3849.070898,-7179.997637,4826.401637
59367.763862,-4219.173869,-8364.327145,-1225.752797
59367.764171,-1850.514855,-13027.624579,-76.609550
59367.764481,-74.020594,-11251.130318,1302.362347
59367.764791,370.102971,-7772.162391,1149.143247
59367.765100,-2812.782580,-8512.368333,-612.876398
59367.765410,-4367.215058,-10436.903782,-1608.800546
59367.765720,-1850.514855,-9326.594869,-76.609550
59367.766029,4367.215058,-6957.935855,3140.991542
59367.766339,3108.864956,-4219.173869,3064.381992
59367.766649,1702.473667,-9104.533087,3600.648841
59367.766958,-1850.514855,-11251.130318,-1302.362347
59367.767268,-518.144159,-13619.789333,1149.143247
59367.767578,592.164754,-8956.491898,766.095498
59367.767887,-1406.391290,-8290.306550,-306.438199
59367.768197,-4219.173869,-9400.615463,-1915.238745
59367.768507,-2664.741391,-10436.903782,-766.095498
59367.768816,3478.967927,-9178.553681,1762.019645
59367.769126,7031.956449,-7105.977043,4826.401637
59367.769436,148.041188,-4811.338623,1225.752797
59367.769745,-1702.473667,-11177.109724,2451.505594
59367.770055,-74.020594,-13915.871710,-76.609550
59367.770365,1110.308913,-11399.171507,2374.896044
59367.770675,-1776.494261,-7772.162391,919.314598
59367.770984,-3404.947333,-9992.780217,-383.047749
59367.771294,-5107.421000,-11325.150913,-1378.971896
59367.771604,-444.123565,-9918.759623,766.095498
59367.771913,5255.462188,-7698.141797,2681.334243
59367.772223,3849.070898,-4811.338623,3524.039291
59367.772533,-74.020594,-9474.636058,1455.581446
59367.772842,-4737.318029,-10732.986159,-3677.258390
59367.773152,-74.020594,-13915.871710,2374.896044
59367.773462,148.041188,-8364.327145,1838.629195
59367.773771,-2960.823768,-7179.997637,0.000000
59367.774081,-3627.009116,-9696.697840,-919.314598
59367.774391,-1998.556043,-10214.842000,-459.657299
59367.774700,3108.864956,-8512.368333,2451.505594
59367.775010,5847.626942,-7698.141797,4290.134789
59367.775320,2072.576638,-9474.636058,2681.334243
59367.775629,-3034.844362,-11251.130318,-76.609550
59367.775939,-4441.235652,-10732.986159,0.000000
59367.776249,2294.638420,-11843.295072,3600.648841
59367.776558,-1776.494261,-6587.832884,1838.629195
59367.776868,-4145.153275,-7179.997637,-1685.410096
59367.777178,-4145.153275,-9622.677246,-766.095498
59367.777487,444.123565,-8586.388927,1302.362347
59367.777797,4441.235652,-6143.709319,3524.039291
59367.778107,4441.235652,-5403.503377,3983.696590
59367.778416,-74.020594,-11621.233289,2987.772442
59367.778726,-3034.844362,-11251.130318,-1302.362347
59367.779036,-1776.494261,-10732.986159,0.000000
59367.779346,3478.967927,-9474.636058,-76.609550
59367.779655,-4737.318029,-5403.503377,0.000000
59367.779965,-3627.009116,-9770.718434,-1685.410096
59367.780275,-1776.494261,-10436.903782,0.000000
59367.780584,3701.029710,-8216.285956,2987.772442
59367.780894,5181.441594,-5551.544565,3677.258390
59367.781204,1184.329507,-6587.832884,1991.848295
59367.781513,-3552.988522,-10140.821405,0.000000
59367.781823,-74.020594,-12435.459826,1149.143247
59367.782133,1332.370696,-7772.162391,-1915.238745
59367.782442,0.000000,-8364.327145,1225.752797
59367.782752,-4071.132681,-8290.306550,-3064.381992
59367.783062,-3034.844362,-11843.295072,-1608.800546
59367.783371,592.164754,-9548.656652,1532.190996
59367.783681,4515.256246,-7105.977043,3064.381992
59367.783991,2516.700203,-5995.668130,2757.943793
59367.784300,-3552.988522,-9104.533087,612.876398
59367.784610,-4737.318029,-9548.656652,0.000000
59367.784920,962.267725,-11251.130318,2374.896044
59367.785229,1702.473667,-7105.977043,-76.609550
59367.785539,-3552.988522,-6587.832884,0.000000
59367.785849,-4219.173869,-8586.388927,-3294.210641
59367.786159,-370.102971,-11251.130318,842.705048
59367.786468,3182.885551,-8438.347739,1915.238745
59367.786778,3330.926739,-6069.688724,2681.334243
59367.787088,-1332.370696,-8512.368333,306.438199
59367.787398,-5551.544565,-10881.027347,-1302.362347
59367.787707,-1554.432478,-12435.459826,-76.609550
59367.788017,0.000000,-8364.327145,919.314598
59367.788327,-74.020594,-9474.636058,3600.648841
59367.788637,-5921.647536,-7476.080014,-2145.067394
59367.788946,-1850.514855,-11251.130318,-383.047749
59367.789256,2812.782580,-8882.471304,2987.772442
59367.789566,5107.421000,-5033.400406,3907.087040
59367.789876,3108.864956,-4959.379811,3064.381992
59367.790185,-1850.514855,-9622.677246,689.485948
59367.790495,-3256.906145,-11843.295072,229.828649
59367.790805,-74.020594,-11843.295072,1149.143247
59367.791115,-74.020594,-9474.636058,-76.609550
59367.791424,-5329.482782,-7254.018232,-2451.505594
59367.791734,-4293.194464,-11917.315666,0.000000
59367.792044,-814.226536,-9252.574275,1455.581446
59367.792353,3849.070898,-7031.956449,2911.162892
59367.792663,4071.132681,-5403.503377,3600.648841
59367.792973,-666.185348,-7624.121203,612.876398
59367.793283,-2442.679609,-10732.986159,0.000000
59367.793592,444.123565,-11325.150913,306.438199
59367.793902,1332.370696,-8438.347739,1225.752797
59367.794212,-74.020594,-9474.636058,1149.143247
59367.794522,-3923.091493,-8586.388927,-3753.867940
59367.794831,-3552.988522,-11917.315666,0.000000
59367.795141,0.000000,-7179.997637,1225.752797
59367.795451,4367.215058,-5329.482782,2987.772442
59367.795761,1480.411884,-6587.832884,2221.676944
59367.796070,-2886.803174,-10658.965565,306.438199
59367.796380,-2442.679609,-11843.295072,0.000000
59367.796690,444.123565,-9548.656652,1532.190996
59367.797000,740.205942,-7105.977043,1149.143247
59367.797309,-2368.659014,-8364.327145,612.876398
59367.797619,-2738.761985,-9474.636058,-1302.362347
59367.797929,0.000000,-8364.327145,1225.752797
59367.798239,3849.070898,-4367.215058,1225.752797
59367.798548,3775.050304,-5921.647536,2374.896044
59367.798858,-1480.411884,-9104.533087,-306.438199
59367.799168,-4441.235652,-12657.521608,-1685.410096
59367.799478,-1036.288319,-11917.315666,-689.485948
59367.799787,0.000000,-8956.491898,919.314598
59367.800097,-1406.391290,-8956.491898,-383.047749
59367.800407,-2738.761985,-11473.192101,-76.609550
59367.800717,-1258.350101,-8364.327145,-1915.238745
59367.801026,3552.988522,-7179.997637,4290.134789
59367.801336,5847.626942,-3552.988522,2987.772442
59367.801646,2294.638420,-6957.935855,2987.772442
59367.801956,-2886.803174,-10732.986159,0.000000
59367.802265,-3182.885551,-11843.295072,-842.705048
59367.802575,-296.082377,-10436.903782,536.266849
59367.802885,-2072.576638,-7179.997637,76.609550
59367.803195,-3627.009116,-9474.636058,-919.314598
59367.803504,-5329.482782,-10732.986159,-1225.752797
59367.803814,1702.473667,-11843.295072,3600.648841
59367.804124,1258.350101,-3923.091493,1225.752797
59367.804433,4367.215058,-6513.812290,2374.896044
59367.804743,-666.185348,-10066.800811,842.705048
59367.805053,-2886.803174,-11547.212695,-919.314598
59367.805363,74.020594,-11103.089130,306.438199
59367.805672,1850.514855,-8808.450710,1455.581446
59367.805982,-1258.350101,-8142.265362,-76.609550
59367.806292,-3627.009116,-10066.800811,-1302.362347
59367.806602,-2960.823768,-10140.821405,0.000000
59367.806911,4663.297435,-11547.212695,4826.401637
59367.807221,3478.967927,-4441.235652,2298.286494
59367.807531,1998.556043,-9474.636058,2987.772442
59367.807841,-3256.906145,-11621.233289,919.314598
59367.808150,-2368.659014,-11843.295072,-76.609550
59367.808460,518.144159,-8882.471304,1455.581446
59367.808770,0.000000,-7105.977043,1072.533697
59367.809080,-2442.679609,-8216.285956,536.266849
59367.809389,-3404.947333,-9992.780217,-306.438199
59367.809699,296.082377,-7550.100608,766.095498
59367.810009,4737.318029,-5995.668130,4903.011187
59367.810319,4663.297435,-8290.306550,2987.772442
59367.810628,-74.020594,-11843.295072,-76.609550
59367.810938,-4145.153275,-13101.645173,-1608.800546
59367.811248,-74.020594,-11695.253884,0.000000
59367.811558,740.205942,-9252.574275,1149.143247
59367.811867,-1924.535449,-9326.594869,-306.438199
59367.812177,-3330.926739,-10955.047942,0.000000
59367.812487,0.000000,-10436.903782,1838.629195
59367.812797,4663.297435,-6735.874072,2681.334243
59367.813106,4663.297435,-6809.894666,6665.030833
59367.813416,-1258.350101,-5921.647536,229.828649
59367.813726,-2960.823768,-11769.274478,2145.067394
59367.814036,-3256.906145,-11325.150913,0.000000
59367.814345,296.082377,-8660.409521,1302.362347
59367.814655,-518.144159,-7772.162391,919.314598
59367.814965,-3330.926739,-9474.636058,-842.705048
59367.815275,-2146.597232,-11695.253884,-1225.752797
59367.815584,1554.432478,-8956.491898,1608.800546
59367.815894,6439.791695,-7105.977043,3600.648841
59367.816204,1776.494261,-4811.338623,2451.505594
59367.816514,-74.020594,-11843.295072,-76.609550
59367.816823,-4145.153275,-11917.315666,0.000000
59367.817133,-888.247130,-10140.821405,-1072.533697
59367.817443,888.247130,-8438.347739,919.314598
59367.817752,-1258.350101,-9474.636058,-76.609550
59367.818062,-4145.153275,-10510.924376,-919.314598
59367.818372,-296.082377,-9622.677246,0.000000
59367.818682,3552.988522,-6291.750507,2757.943793
59367.818991,4885.359217,-5921.647536,6052.154434
59367.819301,-2738.761985,-5551.544565,0.000000
59367.819611,-4145.153275,-11917.315666,612.876398
59367.819921,-2368.659014,-10140.821405,0.000000
59367.820230,814.226536,-8216.285956,1149.143247
59367.820540,-962.267725,-6957.935855,459.657299
59367.820850,-3627.009116,-9252.574275,-612.876398
59367.821160,-2590.720797,-10807.006753,-689.485948
59367.821469,2072.576638,-8364.327145,1685.410096
59367.821779,4293.194464,-5477.523971,2681.334243
59367.822089,1998.556043,-7402.059420,2374.896044
59367.822399,-5921.647536,-8364.327145,-3064.381992
59367.822708,-1998.556043,-14063.912898,-76.609550
59367.823018,0.000000,-8364.327145,0.000000
59367.823328,1110.308913,-8586.388927,842.705048
59367.823638,-2368.659014,-9548.656652,-306.438199
59367.823947,-3256.906145,-11325.150913,-153.219100
59367.824257,814.226536,-9548.656652,2145.067394
59367.824567,4367.215058,-5329.482782,4213.525239
59367.824877,2368.659014,-3627.009116,3677.258390
59367.825186,-1184.329507,-9104.533087,3064.381992
59367.825496,-2442.679609,-13027.624579,-76.609550
59367.825806,-4737.318029,-9548.656652,-1838.629195
59367.826116,-2516.700203,-7772.162391,0.000000
59367.826425,-1554.432478,-8586.388927,-76.609550
59367.826735,-4663.297435,-9992.780217,-842.705048
59367.827045,-2368.659014,-10214.842000,0.000000
59367.827355,2664.741391,-6513.812290,2604.724693
59367.827664,4663.297435,-5329.482782,4826.401637
59367.827974,1702.473667,-6735.874072,1685.410096
59367.828284,-3552.988522,-10732.986159,0.000000
59367.828594,-74.020594,-13027.624579,-1302.362347
59367.828903,0.000000,-8660.409521,0.000000
59367.829213,1110.308913,-8142.265362,-689.485948
59367.829523,-2294.638420,-10658.965565,-689.485948
59367.829832,-3404.947333,-11399.171507,-1072.533697
59367.830142,1554.432478,-9474.636058,1991.848295
59367.830452,5329.482782,-6217.729913,4136.915689
59367.830762,4663.297435,-6809.894666,4826.401637
59367.831071,-2146.597232,-8734.430116,306.438199
59367.831381,-3849.070898,-11917.315666,0.000000
59367.831691,-74.020594,-13027.624579,-76.609550
59367.832001,0.000000,-6291.750507,0.000000
59367.832310,-370.102971,-8882.471304,-76.609550
59367.832620,-3997.112087,-10288.862594,-306.438199
59367.832930,-1258.350101,-10436.903782,459.657299
59367.833240,3034.844362,-6957.935855,1915.238745
59367.833549,3849.070898,-5033.400406,3217.601092
59367.833859,518.144159,-8364.327145,2145.067394
59367.834169,-3404.947333,-11769.274478,-383.047749
59367.834479,-2886.803174,-9622.677246,-3447.429741
59367.834788,740.205942,-10732.986159,2451.505594
59367.835098,1110.308913,-8290.306550,-76.609550
59367.835408,-1258.350101,-11251.130318,-76.609550
59367.835718,-3404.947333,-10584.944971,-612.876398
59367.836027,1776.494261,-8660.409521,2145.067394
59367.836337,4737.318029,-5699.585753,3370.820191
59367.836647,2886.803174,-6291.750507,3294.210641
59367.836957,-1036.288319,-10288.862594,1378.971896
59367.837266,-3108.864956,-12731.542202,459.657299
59367.837576,-666.185348,-10658.965565,-76.609550
59367.837886,0.000000,-6587.832884,612.876398
59367.838196,-1258.350101,-10658.965565,-76.609550
59367.838505,-3552.988522,-11251.130318,-76.609550
59367.838815,-1776.494261,-9548.656652,612.876398
59367.839125,4441.235652,-6365.771101,3447.429741
59367.839435,4293.194464,-4885.359217,3217.601092
59367.839744,-666.185348,-7994.224174,766.095498
59367.840054,-4737.318029,-10881.027347,-1225.752797
59367.840364,-1998.556043,-11473.192101,-612.876398
59367.840674,2220.617826,-11251.130318,-76.609550
59367.840983,-4145.153275,-5995.668130,-2451.505594
59367.841293,-4737.318029,-10732.986159,-1225.752797
59367.841603,-2664.741391,-12953.603985,-76.609550
59367.841913,2368.659014,-8808.450710,1302.362347
59367.842222,5255.462188,-5477.523971,3677.258390
59367.842532,2146.597232,-5995.668130,2604.724693
59367.842842,-2294.638420,-10214.842000,1225.752797
59367.843151,-3552.988522,-10732.986159,0.000000
59367.843461,222.061783,-9548.656652,1378.971896
59367.843771,1702.473667,-9474.636058,3600.648841
59367.844081,-5921.647536,-6291.750507,-2451.505594
59367.844390,-5329.482782,-10732.986159,-766.095498
59367.844700,-1184.329507,-9844.739029,1302.362347
59367.845010,4219.173869,-6809.894666,2681.334243
59367.845320,3775.050304,-5329.482782,2681.334243
59367.845629,-592.164754,-8660.409521,919.314598
59367.845939,-2442.679609,-12435.459826,-383.047749
59367.846249,-1184.329507,-9548.656652,-2374.896044
59367.846559,1184.329507,-8068.244768,766.095498
59367.846868,1110.308913,-9474.636058,-76.609550
59367.847178,-5033.400406,-8660.409521,-2451.505594
59367.847488,-1776.494261,-11621.233289,306.438199
59367.847798,2516.700203,-8956.491898,2298.286494
59367.848107,6143.709319,-5921.647536,4060.306139
59367.848417,2072.576638,-7254.018232,2681.334243
59367.848727,-2294.638420,-11621.233289,1072.533697
59367.849037,-2294.638420,-12213.398043,0.000000
59367.849346,-666.185348,-7846.182985,153.219100
59367.849656,-2220.617826,-6587.832884,0.000000
59367.849966,-2960.823768,-10288.862594,2604.724693
59367.850276,-4811.338623,-8882.471304,-1915.238745
59367.850585,0.000000,-7476.080014,1225.752797
59367.850895,3923.091493,-4219.173869,2834.553343
59367.851205,4071.132681,-5181.441594,2987.772442
59367.851515,-1480.411884,-8734.430116,536.266849
59367.851824,-3701.029710,-12435.459826,-1762.019645
59367.852134,-1332.370696,-11769.274478,-1149.143247
59367.852444,-74.020594,-8882.471304,-383.047749
59367.852754,-2664.741391,-8364.327145,-1762.019645
59367.853063,-3849.070898,-12657.521608,919.314598
59367.853373,-666.185348,-11251.130318,-383.047749
59367.853683,2368.659014,-7179.997637,1838.629195
59367.853993,5255.462188,-3849.070898,4290.134789
59367.854302,1998.556043,-7550.100608,2757.943793
59367.854612,-2590.720797,-11029.068536,1149.143247
59367.854922,-2516.700203,-12065.356855,612.876398
59367.855231,-74.020594,-9548.656652,1302.362347
59367.855541,-74.020594,-8290.306550,-76.609550
59367.855851,-5551.544565,-8586.388927,-995.924147
59367.856161,-6513.812290,-9548.656652,0.000000
59367.856470,3404.947333,-9474.636058,4060.306139
59367.856780,4663.297435,-6513.812290,3600.648841
59367.857090,2146.597232,-4145.153275,306.438199
59367.857400,-2368.659014,-10436.903782,306.438199
59367.857709,-2738.761985,-11991.336260,-919.314598
59367.858019,-1184.329507,-11695.253884,-612.876398
59367.858329,0.000000,-8512.368333,-76.609550
59367.858639,-1554.432478,-11251.130318,-76.609550
59367.858948,-2442.679609,-10955.047942,-1302.362347
59367.859258,-4145.153275,-7772.162391,0.000000
59367.859568,5181.441594,-9178.553681,4749.792088
59367.859878,6735.874072,-5921.647536,4060.306139
59367.860187,2294.638420,-8290.306550,1762.019645
59367.860497,-2368.659014,-11621.233289,1225.752797
59367.860807,-2294.638420,-12065.356855,689.485948
59367.861117,0.000000,-8068.244768,1072.533697
59367.861426,-1702.473667,-7624.121203,2068.457845
59367.861736,-3849.070898,-10732.986159,919.314598
59367.862046,-3330.926739,-11547.212695,-76.609550
59367.862356,-74.020594,-5995.668130,0.000000
59367.862665,3552.988522,-5995.668130,4290.134789
59367.862975,2886.803174,-7105.977043,2374.896044
59367.863285,-814.226536,-10955.047942,-76.609550
59367.863595,-3108.864956,-11695.253884,-1225.752797
59367.863904,666.185348,-10584.944971,229.828649
59367.864214,1110.308913,-8068.244768,536.266849
59367.864524,-1332.370696,-9030.512492,0.000000
59367.864834,-2812.782580,-10732.986159,0.000000
59367.865143,1702.473667,-11843.295072,2374.896044
59367.865453,3478.967927,-5847.626942,383.047749
59367.865763,4737.318029,-6587.832884,4903.011187
59367.866073,2146.597232,-10510.924376,2987.772442
59367.866382,-1332.370696,-12435.459826,1762.019645
59367.866692,-1998.556043,-10807.006753,612.876398
59367.867002,296.082377,-8216.285956,995.924147
59367.867311,-1702.473667,-7254.018232,383.047749
59367.867621,-4737.318029,-8660.409521,0.000000
59367.867931,-4737.318029,-8364.327145,0.000000
59367.868241,1776.494261,-7772.162391,3064.381992
59367.868550,7031.956449,-7105.977043,4213.525239
59367.868860,0.000000,-4811.338623,1225.752797
59367.869170,-2072.576638,-11695.253884,689.485948
59367.869480,-2664.741391,-14211.954086,-76.609550
59367.869789,74.020594,-10362.883188,-689.485948
59367.870099,444.123565,-8290.306550,229.828649
59367.870409,-2664.741391,-9474.636058,-1302.362347
59367.870719,-4071.132681,-10732.986159,-2451.505594
59367.871028,0.000000,-7772.162391,0.000000
59367.871338,5033.400406,-7179.997637,3064.381992
59367.871648,8216.285956,-7105.977043,4826.401637
59367.871958,0.000000,-7179.997637,766.095498
59367.872267,-1258.350101,-13323.706956,2221.676944
59367.872577,-2072.576638,-12065.356855,1685.410096
59367.872887,-74.020594,-8290.306550,995.924147
59367.873197,-2516.700203,-7772.162391,-153.219100
59367.873506,-5847.626942,-9992.780217,-1225.752797
59367.873816,-3404.947333,-9548.656652,-1838.629195
59367.874126,962.267725,-5995.668130,0.000000
59367.874436,2960.823768,-4811.338623,1225.752797
59367.874745,4071.132681,-9474.636058,3600.648841
59367.875055,-3330.926739,-9548.656652,-459.657299
59367.875365,-1776.494261,-12065.356855,1149.143247
59367.875675,0.000000,-8660.409521,1225.752797
59367.875984,-74.020594,-7476.080014,-383.047749
59367.876294,-3552.988522,-8660.409521,-1685.410096
59367.876604,-3552.988522,-11251.130318,-1455.581446
59367.876914,962.267725,-9474.636058,1149.143247
59367.877223,5551.544565,-6513.812290,536.266849
59367.877533,2960.823768,-4811.338623,0.000000
59367.877843,0.000000,-11621.233289,3064.381992
59367.878153,-1258.350101,-13027.624579,-76.609550
59367.878462,-1184.329507,-10140.821405,2451.505594
59367.878772,296.082377,-5995.668130,1225.752797
59367.879082,-2146.597232,-7772.162391,689.485948
59367.879392,-5107.421000,-9178.553681,-536.266849
59367.879701,-1850.514855,-9622.677246,612.876398
59367.880011,3478.967927,-7105.977043,4213.525239
59367.880321,5551.544565,-5921.647536,3600.648841
59367.880630,-1554.432478,-4811.338623,0.000000
59367.880940,-2072.576638,-13101.645173,1378.971896
59367.881250,-370.102971,-11843.295072,-1302.362347
59367.881560,0.000000,-9548.656652,0.000000
59367.881869,-1776.494261,-6143.709319,-2451.505594
59367.882179,-2960.823768,-10584.944971,-1838.629195
59367.882489,-2072.576638,-11843.295072,-766.095498
59367.882799,2368.659014,-9992.780217,1991.848295
59367.883108,5847.626942,-8290.306550,4826.401637
59367.883418,5847.626942,-7105.977043,4826.401637
59367.883728,-74.020594,-9474.636058,-76.609550
59367.884038,-4737.318029,-9548.656652,0.000000
59367.884347,1702.473667,-11547.212695,2374.896044
59367.884657,-518.144159,-6069.688724,0.000000
59367.884967,-4219.173869,-6661.853478,-1608.800546
59367.885277,-5625.565159,-9548.656652,-1225.752797
59367.885586,-2368.659014,-9770.718434,689.485948
59367.885896,2812.782580,-6957.935855,2374.896044
59367.886206,5255.462188,-7476.080014,5132.839837
59367.886516,1480.411884,-10658.965565,4213.525239
59367.886825,-666.185348,-14211.954086,2374.896044
59367.887135,-666.185348,-10658.965565,-1302.362347
59367.887445,0.000000,-9548.656652,612.876398
59367.887755,-74.020594,-7846.182985,-2298.286494
59367.888064,-3034.844362,-9474.636058,-1915.238745
59367.888374,-2738.761985,-11103.089130,-1302.362347
59367.888684,2886.803174,-9622.677246,1915.238745
59367.888993,5551.544565,-7031.956449,3524.039291
59367.889303,3849.070898,-6291.750507,3983.696590
59367.889613,0.000000,-11621.233289,2757.943793
59367.889922,-74.020594,-15396.283594,3600.648841
59367.890232,-74.020594,-10066.800811,-76.609550
59367.890542,-1184.329507,-8364.327145,1225.752797
59367.890851,-3627.009116,-7920.203579,-1302.362347
59367.891161,-5921.647536,-9622.677246,-2451.505594
59367.891471,-2368.659014,-10362.883188,2374.896044
59367.891780,2590.720797,-5403.503377,3064.381992
59367.892090,3256.906145,-4515.256246,3217.601092
59367.892400,-962.267725,-7402.059420,2221.676944
59367.892709,-2368.659014,-12509.480420,1225.752797
59367.893019,-962.267725,-11843.295072,-76.609550
59367.893329,-74.020594,-9474.636058,-689.485948
59367.893639,-2368.659014,-7179.997637,0.000000
59367.893948,-2146.597232,-11843.295072,-689.485948
59367.894258,-666.185348,-12435.459826,-1302.362347
59367.894568,2368.659014,-9252.574275,1378.971896
59367.894877,5403.503377,-7105.977043,3294.210641
59367.895187,2664.741391,-7402.059420,2987.772442
59367.895497,-1258.350101,-11473.192101,1532.190996
59367.895806,-1776.494261,-11917.315666,2451.505594
59367.896116,1702.473667,-10066.800811,3294.210641
59367.896426,-2442.679609,-4219.173869,-1149.143247
59367.896735,-3849.070898,-8364.327145,1225.752797
59367.897045,-4811.338623,-10658.965565,-689.485948
59367.897355,74.020594,-9918.759623,2374.896044
59367.897664,3775.050304,-6143.709319,3064.381992
59367.897974,3256.906145,-5329.482782,3064.381992
59367.898284,-1036.288319,-8512.368333,919.314598
59367.898593,-2442.679609,-11917.315666,0.000000
59367.898903,-1776.494261,-9548.656652,306.438199
59367.899213,1184.329507,-9178.553681,1225.752797
59367.899522,-74.020594,-8882.471304,-1302.362347
59367.899832,-5921.647536,-9548.656652,-3064.381992
59367.900142,-592.164754,-11621.233289,306.438199
59367.900451,3627.009116,-10658.965565,4060.306139
59367.900761,4663.297435,-5773.606348,2911.162892
59367.901071,1702.473667,-7550.100608,1838.629195
59367.901381,-1036.288319,-11103.089130,383.047749
59367.901690,-1480.411884,-11917.315666,0.000000
59367.902000,0.000000,-7179.997637,0.000000
59367.902310,0.000000,-7772.162391,1225.752797
59367.902619,-2442.679609,-8290.306550,-1302.362347
59367.902929,-4145.153275,-10288.862594,306.438199
59367.903239,1110.308913,-9474.636058,2374.896044
59367.903548,4145.153275,-6587.832884,5056.230287
59367.903858,3923.091493,-5773.606348,2987.772442
59367.904168,-1110.308913,-9252.574275,229.828649
59367.904477,-3330.926739,-11991.336260,-383.047749
59367.904787,-888.247130,-9548.656652,-995.924147
59367.905097,148.041188,-6883.915261,-2451.505594
59367.905406,-2368.659014,-7179.997637,-4290.134789
59367.905716,-2146.597232,-12731.542202,-76.609550
59367.906026,-1258.350101,-10658.965565,-842.705048
59367.906335,4145.153275,-9104.533087,4213.525239
59367.906645,4737.318029,-5995.668130,3677.258390
59367.906955,1776.494261,-7698.141797,2068.457845
59367.907264,-1998.556043,-11621.233289,383.047749
59367.907574,-1480.411884,-11991.336260,842.705048
59367.907884,444.123565,-9178.553681,1149.143247
59367.908193,-666.185348,-7105.977043,-1302.362347
59367.908503,-6365.771101,-5995.668130,-3753.867940
59367.908813,-4441.235652,-11029.068536,612.876398
59367.909123,2294.638420,-9474.636058,2374.896044
59367.909432,3552.988522,-4811.338623,3677.258390
59367.909742,2368.659014,-3627.009116,2451.505594
59367.910052,-1554.432478,-9474.636058,383.047749
59367.910361,-2516.700203,-11917.315666,-306.438199
59367.910671,-592.164754,-11177.109724,229.828649
59367.910981,370.102971,-9474.636058,-76.609550
59367.911290,-74.020594,-9474.636058,-689.485948
59367.911600,-4219.173869,-9622.677246,-3753.867940
59367.911910,-2368.659014,-9844.739029,612.876398
59367.912219,4663.297435,-8882.471304,2987.772442
59367.912529,4367.215058,-4811.338623,2451.505594
59367.912839,0.000000,-5403.503377,0.000000
59367.913148,-2220.617826,-11621.233289,612.876398
59367.913458,-1554.432478,-12361.439231,995.924147
59367.913768,222.061783,-9474.636058,1455.581446
59367.914077,-666.185348,-9474.636058,1762.019645
59367.914387,-3034.844362,-10658.965565,-76.609550
59367.914697,-3034.844362,-10658.965565,-76.609550
59367.915006,0.000000,-7179.997637,1225.752797
59367.915316,6439.791695,-7698.141797,4826.401637
59367.915626,962.267725,-4811.338623,0.000000
59367.915935,-2738.761985,-9104.533087,0.000000
59367.916245,-2812.782580,-11325.150913,0.000000
59367.916555,148.041188,-9696.697840,536.266849
59367.916864,814.226536,-7328.038826,536.266849
59367.917174,-222.061783,-8882.471304,306.438199
59367.917484,-2368.659014,-12435.459826,612.876398
59367.917794,-74.020594,-11843.295072,-76.609550
59367.918103,1184.329507,-5995.668130,612.876398
59367.918413,5847.626942,-8290.306550,4136.915689
59367.918723,-74.020594,-7179.997637,-1149.143247
59367.919032,-2442.679609,-12435.459826,-76.609550
59367.919342,-1332.370696,-11621.233289,153.219100
59367.919652,222.061783,-9178.553681,1302.362347
59367.919961,-1924.535449,-7624.121203,76.609550
59367.920271,-4737.318029,-8956.491898,0.000000
59367.920581,-4145.153275,-11325.150913,1225.752797
59367.920890,3923.091493,-10658.965565,5362.668486
59367.921200,4071.132681,-4145.153275,2374.896044
59367.921510,1184.329507,-6291.750507,2757.943793
59367.921819,-2146.597232,-9326.594869,-689.485948
59367.922129,-666.185348,-12435.459826,-76.609550
59367.922439,-592.164754,-9770.718434,306.438199
59367.922748,-148.041188,-7772.162391,76.609550
59367.923058,-2146.597232,-8734.430116,-1608.800546
59367.923368,-4145.153275,-9548.656652,-2451.505594
59367.923677,0.000000,-9548.656652,1225.752797
59367.923987,4737.318029,-8364.327145,4903.011187
59367.924297,4663.297435,-5921.647536,2374.896044
59367.924606,0.000000,-8364.327145,1225.752797
59367.924916,-1258.350101,-13915.871710,-76.609550
59367.925226,-74.020594,-13471.748144,1532.190996
59367.925536,222.061783,-9104.533087,229.828649
59367.925845,-2516.700203,-8290.306550,-536.266849
59367.926155,-4515.256246,-9844.739029,-612.876398
59367.926465,-3552.988522,-8660.409521,0.000000
59367.926774,0.000000,-4811.338623,2451.505594
59367.927084,3552.988522,-3627.009116,4903.011187
59367.927394,3478.967927,-8882.471304,2987.772442
59367.927703,-3997.112087,-9548.656652,0.000000
59367.928013,-1554.432478,-14211.954086,1762.019645
59367.928323,296.082377,-9696.697840,1532.190996
59367.928632,518.144159,-7550.100608,229.828649
59367.928942,-2368.659014,-8586.388927,-995.924147
59367.929252,-3108.864956,-11029.068536,-1225.752797
59367.929561,518.144159,-9474.636058,-689.485948
59367.929871,2738.761985,-5551.544565,536.266849
59367.930181,1184.329507,-4811.338623,1225.752797
59367.930490,-74.020594,-11843.295072,1762.019645
59367.930800,-3849.070898,-11769.274478,-1225.752797
59367.931110,1628.453072,-13915.871710,3600.648841
59367.931419,0.000000,-7772.162391,1225.752797
59367.931729,-1998.556043,-8216.285956,842.705048
59367.932039,-4145.153275,-9400.615463,76.609550
59367.932348,-888.247130,-9918.759623,1532.190996
59367.932658,5255.462188,-7105.977043,4826.401637
59367.932968,4663.297435,-4145.153275,3600.648841
59367.933278,-3478.967927,-3627.009116,0.000000
59367.933587,-3552.988522,-11325.150913,919.314598
59367.933897,-2442.679609,-11843.295072,-689.485948
59367.934207,0.000000,-8364.327145,1838.629195
59367.934516,0.000000,-6587.832884,0.000000
59367.934826,-2220.617826,-9104.533087,-689.485948
59367.935136,-2664.741391,-11399.171507,-842.705048
59367.935445,1184.329507,-9844.739029,1225.752797
59367.935755,4663.297435,-8290.306550,3600.648841
59367.936065,4663.297435,-7105.977043,2374.896044
59367.936374,-2738.761985,-7550.100608,-2528.115143
59367.936684,-2960.823768,-13101.645173,0.000000
59367.936994,1110.308913,-11843.295072,-76.609550
59367.937303,0.000000,-5995.668130,0.000000
59367.937613,-2368.659014,-7179.997637,-995.924147
59367.937923,-2886.803174,-9844.739029,0.000000
59367.938232,444.123565,-9918.759623,2068.457845
59367.938542,4885.359217,-7698.141797,4443.353888
59367.938852,5255.462188,-7105.977043,6205.373534
59367.939161,2294.638420,-9474.636058,2911.162892
59367.939471,-1258.350101,-11843.295072,-689.485948
59367.939781,-3552.988522,-10140.821405,0.000000
59367.940090,1110.308913,-9474.636058,1455.581446
59367.940400,-3552.988522,-4811.338623,-3370.820191
59367.940710,-3627.009116,-8734.430116,-2221.676944
59367.941020,-2516.700203,-10436.903782,-1149.143247
59367.941329,1480.411884,-9696.697840,1991.848295
59367.941639,3923.091493,-6365.771101,2221.676944
59367.941949,2368.659014,-7476.080014,2757.943793
59367.942258,-74.020594,-12065.356855,1225.752797
59367.942568,-74.020594,-14211.954086,-76.609550
59367.942878,-1776.494261,-9548.656652,0.000000
59367.943187,1110.308913,-9474.636058,2987.772442
59367.943497,-3923.091493,-7031.956449,-1378.971896
59367.943807,-1850.514855,-10658.965565,-76.609550
59367.944116,0.000000,-8808.450710,2374.896044
59367.944426,3627.009116,-5773.606348,4290.134789
59367.944736,3182.885551,-4737.318029,3677.258390
59367.945045,-2368.659014,-7772.162391,612.876398
59367.945355,-4145.153275,-10732.986159,0.000000
59367.945665,-3552.988522,-11917.315666,612.876398
59367.945974,-74.020594,-10658.965565,1762.019645
59367.946284,-2960.823768,-7179.997637,-3370.820191
59367.946594,-3034.844362,-9030.512492,-1455.581446
59367.946903,-666.185348,-11843.295072,-76.609550
59367.947213,2294.638420,-8512.368333,2145.067394
59367.947523,4145.153275,-5847.626942,2451.505594
59367.947832,1628.453072,-6291.750507,1685.410096
59367.948142,-4737.318029,-8364.327145,0.000000
59367.948452,-3552.988522,-10140.821405,-2451.505594
59367.948762,1184.329507,-11991.336260,3064.381992
59367.949071,-74.020594,-7105.977043,-76.609550
59367.949381,-3256.906145,-8956.491898,1685.410096
59367.949691,-1258.350101,-9474.636058,-76.609550
59367.950000,1998.556043,-10362.883188,3524.039291
59367.950310,3997.112087,-6735.874072,3753.867940
59367.950620,1776.494261,-6217.729913,2145.067394
59367.950929,-2812.782580,-9030.512492,-153.219100
59367.951239,-5551.544565,-9696.697840,-2145.067394
59367.951549,-3552.988522,-9548.656652,-536.266849
59367.951858,592.164754,-8364.327145,2451.505594
59367.952168,-74.020594,-7105.977043,-76.609550
59367.952478,-2960.823768,-9252.574275,612.876398
59367.952787,-74.020594,-13619.789333,-76.609550
59367.953097,3552.988522,-9104.533087,2451.505594
59367.953407,5107.421000,-6143.709319,2374.896044
59367.953716,2146.597232,-7031.956449,689.485948
59367.954026,-1924.535449,-11621.233289,-842.705048
59367.954336,-2442.679609,-12139.377449,-1302.362347
59367.954645,-962.267725,-10658.965565,-76.609550
59367.954955,-2960.823768,-7179.997637,0.000000
59367.955265,-1258.350101,-10955.047942,-76.609550
59367.955574,-2886.803174,-7402.059420,-2221.676944
59367.955884,2960.823768,-10140.821405,5209.449386
59367.956194,4737.318029,-5107.421000,4290.134789
59367.956504,2220.617826,-5477.523971,3064.381992
59367.956813,-3256.906145,-8438.347739,-612.876398
59367.957123,-5107.421000,-10881.027347,-1608.800546
59367.957433,-74.020594,-11843.295072,-76.609550
59367.957742,2294.638420,-9474.636058,2374.896044
59367.958052,-3552.988522,-5995.668130,-1838.629195
59367.958362,-2368.659014,-10362.883188,-306.438199
59367.958671,-1554.432478,-9104.533087,-2528.115143
59367.958981,3552.988522,-8956.491898,4903.011187
59367.959291,2368.659014,-5107.421000,1225.752797
59367.959600,-444.123565,-7698.141797,153.219100
59367.959910,-2516.700203,-11917.315666,-459.657299
59367.960220,-444.123565,-11991.336260,612.876398
59367.960529,4071.132681,-11843.295072,2987.772442
59367.960839,-74.020594,-9474.636058,2987.772442
59367.961149,-3923.091493,-7698.141797,-1608.800546
59367.961458,-4145.153275,-9548.656652,0.000000
59367.961768,2886.803174,-9474.636058,4826.401637
59367.962078,1184.329507,-4811.338623,3983.696590
59367.962387,0.000000,-5107.421000,1378.971896
59367.962697,-3108.864956,-9548.656652,459.657299
59367.963007,-2442.679609,-12361.439231,76.609550
59367.963316,-296.082377,-9770.718434,1838.629195
59367.963626,2738.761985,-8808.450710,2374.896044
59367.963936,-74.020594,-8956.491898,1991.848295
59367.964246,-1258.350101,-11251.130318,-689.485948
59367.964555,-2368.659014,-9548.656652,0.000000
59367.964865,5181.441594,-9696.697840,5515.887586
59367.965175,1480.411884,-3627.009116,612.876398
59367.965484,-370.102971,-7402.059420,-1302.362347
59367.965794,-3552.988522,-12065.356855,-1149.143247
59367.966104,-1184.329507,-13175.665768,-229.828649
59367.966413,370.102971,-10658.965565,1149.143247
59367.966723,-592.164754,-9548.656652,1225.752797
59367.967033,-2368.659014,-10732.986159,1838.629195
59367.967342,-74.020594,-10658.965565,-76.609550
59367.967652,2368.659014,-6587.832884,3677.258390
59367.967962,7920.203579,-7994.224174,7277.907231
59367.968271,222.061783,-3552.988522,0.000000
59367.968581,-1406.391290,-10066.800811,842.705048
59367.968891,-2886.803174,-11399.171507,0.000000
59367.969200,-740.205942,-10140.821405,612.876398
59367.969510,-1406.391290,-8068.244768,-383.047749
59367.969820,-4145.153275,-7179.997637,0.000000
59367.970129,-5921.647536,-9548.656652,0.000000
59367.970439,1702.473667,-11843.295072,2374.896044
59367.970749,3182.885551,-6809.894666,1455.581446
59367.971058,2368.659014,-4811.338623,3064.381992
59367.971368,-74.020594,-7698.141797,-1608.800546
59367.971678,-666.185348,-12731.542202,-76.609550
59367.971987,-296.082377,-11547.212695,612.876398
59367.972297,666.185348,-9474.636058,842.705048
59367.972607,-1184.329507,-8216.285956,-306.438199
59367.972917,-4737.318029,-7772.162391,-2298.286494
59367.973226,-4737.318029,-7179.997637,0.000000
59367.973536,2960.823768,-8956.491898,4596.572988
59367.973846,4663.297435,-7105.977043,4519.963438
59367.974155,-3552.988522,-4811.338623,0.000000
59367.974465,-2442.679609,-11843.295072,-76.609550
59367.974775,-1850.514855,-12361.439231,842.705048
59367.975084,-296.082377,-9326.594869,919.314598
59367.975394,-592.164754,-7254.018232,536.266849
59367.975704,-3108.864956,-8142.265362,-842.705048
59367.976013,-5329.482782,-8956.491898,-2604.724693
59367.976323,-666.185348,-7846.182985,76.609550
59367.976633,2368.659014,-5995.668130,3064.381992
59367.976942,3478.967927,-6513.812290,2374.896044
59367.977252,-4737.318029,-7179.997637,-2451.505594
59367.977562,-1258.350101,-14211.954086,-76.609550
59367.977871,-1184.329507,-13619.789333,612.876398
59367.978181,518.144159,-10436.903782,995.924147
59367.978491,-1258.350101,-8586.388927,0.000000
59367.978800,-2738.761985,-9918.759623,153.219100
59367.979110,-370.102971,-8734.430116,1762.019645
59367.979420,4071.132681,-5921.647536,2987.772442
59367.979729,2368.659014,-3627.009116,3677.258390
59367.980039,1110.308913,-7994.224174,2374.896044
59367.980349,-4811.338623,-8882.471304,-1915.238745
59367.980659,-1184.329507,-13619.789333,2374.896044
59367.980968,-1184.329507,-9844.739029,1225.752797
59367.981278,-1110.308913,-7994.224174,76.609550
59367.981588,-3923.091493,-9104.533087,-2068.457845
59367.981897,-3108.864956,-10881.027347,-919.314598
59367.982207,2294.638420,-10066.800811,2374.896044
59367.982517,6439.791695,-7105.977043,2374.896044
59367.982826,592.164754,-4811.338623,0.000000
59367.983136,-592.164754,-10140.821405,1838.629195
59367.983446,-74.020594,-11843.295072,-383.047749
59367.983755,148.041188,-12509.480420,3370.820191
59367.984065,0.000000,-7476.080014,153.219100
59367.984375,-1406.391290,-7920.203579,0.000000
59367.984684,-2812.782580,-9844.739029,-229.828649
59367.984994,-222.061783,-10288.862594,1149.143247
59367.985304,5551.544565,-9474.636058,3907.087040
59367.985613,4663.297435,-8290.306550,4213.525239
59367.985923,-1258.350101,-7994.224174,-76.609550
59367.986233,-4737.318029,-10732.986159,0.000000
59367.986542,-74.020594,-13619.789333,-76.609550
59367.986852,0.000000,-8364.327145,2757.943793
59367.987162,-1776.494261,-6439.791695,0.000000
59367.987471,-2960.823768,-8660.409521,-612.876398
59367.987781,-1332.370696,-10807.006753,0.000000
59367.988091,2442.679609,-8956.491898,2681.334243
59367.988401,5847.626942,-7698.141797,3600.648841
59367.988710,4663.297435,-8290.306550,3600.648841
59367.989020,-2590.720797,-8586.388927,-1915.238745
59367.989330,-2960.823768,-12509.480420,0.000000
59367.989639,-74.020594,-11843.295072,-76.609550
59367.989949,0.000000,-7179.997637,0.000000
59367.990259,-3552.988522,-8142.265362,-1532.190996
59367.990568,-3256.906145,-10362.883188,-766.095498
59367.990878,518.144159,-10066.800811,1762.019645
59367.991188,4441.235652,-6883.915261,4290.134789
59367.991497,4737.318029,-5995.668130,4290.134789
59367.991807,888.247130,-9104.533087,3064.381992
59367.992117,-1554.432478,-11843.295072,-76.609550
59367.992426,-74.020594,-13027.624579,-76.609550
59367.992736,0.000000,-7179.997637,0.000000
59367.993046,-3256.906145,-5995.668130,0.000000
59367.993356,-3775.050304,-8364.327145,-3677.258390
59367.993665,-1184.329507,-12139.377449,1149.143247
59367.993975,1998.556043,-9474.636058,2068.457845
59367.994285,4293.194464,-5921.647536,3677.258390
59367.994594,2886.803174,-8586.388927,2834.553343
59367.994904,-74.020594,-12879.583391,2374.896044
59367.995214,-74.020594,-13027.624579,-76.609550
59367.995523,0.000000,-9548.656652,0.000000
59367.995833,2294.638420,-9474.636058,-76.609550
59367.996143,-4145.153275,-7179.997637,-2451.505594
59367.996453,-2442.679609,-10066.800811,-1302.362347
59367.996762,592.164754,-9622.677246,1991.848295
59367.997072,4663.297435,-7105.977043,4366.744339
59367.997382,3034.844362,-6883.915261,2451.505594
59367.997691,-2368.659014,-8364.327145,1838.629195
59367.998001,-3552.988522,-12509.480420,1225.752797
59367.998311,-74.020594,-11843.295072,1149.143247
59367.998620,-2368.659014,-5995.668130,0.000000
59367.998930,-74.020594,-9474.636058,1762.019645
59367.999240,-6513.812290,-6587.832884,-3600.648841
59367.999549,-666.185348,-11251.130318,1149.143247
59367.999859,2516.700203,-7624.121203,2528.115143
59368.000169,4367.215058,-4959.379811,2681.334243
59368.000479,1702.473667,-6735.874072,1302.362347
59368.000788,-4145.153275,-9992.780217,-842.705048
59368.001098,-4737.318029,-11325.150913,0.000000
59368.001408,-74.020594,-12731.542202,1685.410096
59368.001717,-2146.597232,-7105.977043,-2834.553343
59368.002027,-4737.318029,-8364.327145,0.000000
59368.002337,-3330.926739,-9252.574275,-459.657299
59368.002646,2294.638420,-9474.636058,2374.896044
59368.002956,4515.256246,-6809.894666,4290.134789
59368.003266,3701.029710,-5181.441594,2528.115143
59368.003575,-888.247130,-8956.491898,1838.629195
59368.003885,-3552.988522,-10140.821405,612.876398
59368.004195,-2368.659014,-9548.656652,612.876398
59368.004505,1184.329507,-8956.491898,2681.334243
59368.004814,-1258.350101,-8290.306550,-689.485948
59368.005124,-7105.977043,-9548.656652,0.000000
59368.005434,-3552.988522,-8364.327145,0.000000
59368.005743,2886.803174,-8290.306550,2221.676944
59368.006053,3701.029710,-5033.400406,2298.286494
59368.006363,0.000000,-6291.750507,0.000000
59368.006672,-3256.906145,-11103.089130,-536.266849
59368.006982,-2368.659014,-11029.068536,0.000000
59368.007292,592.164754,-10732.986159,2451.505594
59368.007602,-74.020594,-9178.553681,-76.609550
59368.007911,-4145.153275,-7772.162391,0.000000
59368.008221,-74.020594,-12435.459826,2374.896044
59368.008531,1776.494261,-7254.018232,2145.067394
59368.008840,4737.318029,-5551.544565,3677.258390
59368.009150,2664.741391,-6957.935855,2757.943793
59368.009460,-2146.597232,-9992.780217,536.266849
59368.009769,-2442.679609,-12139.377449,0.000000
59368.010079,0.000000,-10140.821405,612.876398
59368.010389,-1776.494261,-7772.162391,612.876398
59368.010698,-2442.679609,-9474.636058,-689.485948
59368.011008,-5329.482782,-9548.656652,-1838.629195
59368.011318,-74.020594,-11843.295072,-76.609550
59368.011628,740.205942,-4811.338623,1532.190996
59368.011937,5255.462188,-6069.688724,3294.210641
59368.012247,1036.288319,-7402.059420,995.924147
59368.012557,-1702.473667,-11473.192101,306.438199
59368.012866,-814.226536,-12139.377449,0.000000
59368.013176,0.000000,-8364.327145,612.876398
59368.013486,-3552.988522,-7179.997637,0.000000
59368.013795,-2738.761985,-11251.130318,-153.219100
59368.014105,-2442.679609,-9548.656652,-3677.258390
59368.014415,4589.276840,-10584.944971,5056.230287
59368.014724,4367.215058,-4145.153275,1991.848295
59368.015034,2072.576638,-7105.977043,2757.943793
59368.015344,-3108.864956,-10140.821405,383.047749
59368.015654,-2886.803174,-11621.233289,76.609550
59368.015963,0.000000,-9918.759623,766.095498
59368.016273,-2072.576638,-5847.626942,0.000000
59368.016583,-5921.647536,-5995.668130,-2451.505594
59368.016892,-4145.153275,-10732.986159,-612.876398
59368.017202,1110.308913,-10658.965565,-76.609550
59368.017512,2368.659014,-4811.338623,3677.258390
59368.017821,4663.297435,-5329.482782,2221.676944
59368.018131,0.000000,-8068.244768,919.314598
59368.018441,-2442.679609,-12139.377449,-383.047749
59368.018751,-888.247130,-12361.439231,-612.876398
59368.019060,148.041188,-9400.615463,306.438199
59368.019370,-2738.761985,-7105.977043,-1302.362347
59368.019680,-4811.338623,-8586.388927,-2834.553343
59368.019989,-2368.659014,-10732.986159,0.000000
59368.020299,5551.544565,-11843.295072,4826.401637
59368.020609,4959.379811,-4811.338623,2911.162892
59368.020918,3478.967927,-8290.306550,2374.896044
59368.021228,-2960.823768,-11325.150913,1225.752797
59368.021538,-370.102971,-11177.109724,1378.971896
59368.021847,962.267725,-9178.553681,1915.238745
59368.022157,-444.123565,-6883.915261,306.438199
59368.022467,-3627.009116,-9178.553681,-76.609550
59368.022777,-6291.750507,-9178.553681,-3447.429741
59368.023086,-2368.659014,-9844.739029,612.876398
59368.023396,4663.297435,-9474.636058,4826.401637
59368.023706,1702.473667,-3182.885551,536.266849
59368.024015,1110.308913,-9474.636058,2374.896044
59368.024325,-2368.659014,-11325.150913,0.000000
59368.024635,-666.185348,-11769.274478,689.485948
59368.024944,222.061783,-7920.203579,306.438199
59368.025254,-1332.370696,-8068.244768,-995.924147
59368.025564,-1850.514855,-10362.883188,-76.609550
59368.025873,-74.020594,-11547.212695,-76.609550
59368.026183,2368.659014,-7328.038826,1915.238745
59368.026493,6439.791695,-9104.533087,6052.154434
59368.026803,1110.308913,-7698.141797,1149.143247
59368.027112,-2368.659014,-12731.542202,2298.286494
59368.027422,-2072.576638,-10807.006753,153.219100
59368.027732,592.164754,-9252.574275,1685.410096
59368.028041,-1110.308913,-7179.997637,459.657299
59368.028351,-3997.112087,-8660.409521,-766.095498
59368.028661,-2368.659014,-11103.089130,459.657299
59368.028970,3478.967927,-10658.965565,2987.772442
59368.029280,4071.132681,-5329.482782,2681.334243
59368.029590,1184.329507,-4811.338623,2451.505594
59368.029900,-74.020594,-11547.212695,2068.457845
59368.030209,-3552.988522,-13101.645173,1225.752797
59368.030519,-1406.391290,-11103.089130,-995.924147
59368.030829,-888.247130,-8512.368333,-919.314598
59368.031138,-2590.720797,-8512.368333,-1532.190996
59368.031448,-3256.906145,-10362.883188,-1225.752797
59368.031758,0.000000,-10732.986159,0.000000
59368.032067,5625.565159,-9474.636058,5056.230287
59368.032377,5699.585753,-5921.647536,3600.648841
59368.032687,0.000000,-6587.832884,2451.505594
59368.032996,-74.020594,-13027.624579,2374.896044
59368.033306,-2368.659014,-10140.821405,1225.752797
59368.033616,518.144159,-8586.388927,1149.143247
59368.033926,-1924.535449,-7402.059420,-153.219100
59368.034235,-4737.318029,-9622.677246,-1608.800546
59368.034545,-3775.050304,-10807.006753,-766.095498
59368.034855,592.164754,-8364.327145,0.000000
59368.035164,4737.318029,-5699.585753,3677.258390
59368.035474,4071.132681,-7105.977043,4826.401637
59368.035784,-2442.679609,-7846.182985,-1608.800546
59368.036093,-3552.988522,-11917.315666,0.000000
59368.036403,-1628.453072,-10140.821405,0.000000
59368.036713,-74.020594,-8882.471304,-76.609550
59368.037023,-2812.782580,-8364.327145,-1225.752797
59368.037332,-3923.091493,-10140.821405,-1225.752797
59368.037642,-370.102971,-10288.862594,842.705048
59368.037952,2664.741391,-6291.750507,2451.505594
59368.038261,2368.659014,-4811.338623,2451.505594
59368.038571,-74.020594,-9474.636058,2374.896044
59368.038881,-5847.626942,-9548.656652,-2451.505594
59368.039190,-148.041188,-12435.459826,1991.848295
59368.039500,-592.164754,-7179.997637,76.609550
59368.039810,-1628.453072,-7476.080014,383.047749
59368.040119,-3627.009116,-9252.574275,-459.657299
59368.040429,-2220.617826,-9918.759623,0.000000
59368.040739,1776.494261,-8808.450710,2374.896044
59368.041049,3182.885551,-4737.318029,2987.772442
59368.041358,0.000000,-5403.503377,306.438199
59368.041668,-814.226536,-11843.295072,2374.896044
59368.041978,-1258.350101,-11843.295072,-1302.362347
59368.042287,0.000000,-10288.862594,1225.752797
59368.042597,-74.020594,-6957.935855,-1991.848295
59368.042907,-2220.617826,-8364.327145,-842.705048
59368.043216,-2738.761985,-9844.739029,-766.095498
59368.043526,592.164754,-9918.759623,1302.362347
59368.043836,4811.338623,-7402.059420,3600.648841
59368.044145,4367.215058,-7105.977043,3600.648841
59368.044455,-1258.350101,-8734.430116,-76.609550
59368.044765,-4145.153275,-11325.150913,0.000000
59368.045075,-74.020594,-11843.295072,-76.609550
59368.045384,0.000000,-7179.997637,0.000000
59368.045694,-1258.350101,-7994.224174,-1455.581446
59368.046004,-4737.318029,-9622.677246,-1532.190996
59368.046313,-2294.638420,-10807.006753,76.609550
59368.046623,2812.782580,-8364.327145,3064.381992
59368.046933,4737.318029,-5551.544565,4826.401637
59368.047242,2886.803174,-8290.306550,2681.334243
59368.047552,-1554.432478,-10658.965565,-76.609550
59368.047862,-2368.659014,-10732.986159,-3064.381992
59368.048172,2738.761985,-12435.459826,3140.991542
59368.048481,-74.020594,-7698.141797,-76.609550
59368.048791,-1258.350101,-9178.553681,-995.924147
59368.049101,-3701.029710,-10140.821405,-919.314598
59368.049410,740.205942,-10214.842000,1685.410096
59368.049720,4663.297435,-7031.956449,3217.601092
59368.050030,2516.700203,-6587.832884,2604.724693
59368.050339,-370.102971,-10807.006753,2604.724693
59368.050649,-1258.350101,-13027.624579,-76.609550
59368.050959,-1480.411884,-8956.491898,0.000000
59368.051268,3182.885551,-9474.636058,2987.772442
59368.051578,-3627.009116,-5995.668130,-1608.800546
59368.051888,-3034.844362,-10288.862594,-76.609550
59368.052198,-1924.535449,-10436.903782,459.657299
59368.052507,2738.761985,-8068.244768,2757.943793
59368.052817,4071.132681,-6143.709319,3217.601092
59368.053127,1258.350101,-7772.162391,1225.752797
59368.053436,-888.247130,-11325.150913,1225.752797
59368.053746,-74.020594,-13619.789333,2068.457845
59368.054056,518.144159,-8290.306550,-76.609550
59368.054365,-3552.988522,-5995.668130,0.000000
59368.054675,-2442.679609,-10510.924376,-76.609550
59368.054985,-2960.823768,-11695.253884,-76.609550
59368.055294,888.247130,-9326.594869,1762.019645
59368.055604,3997.112087,-6439.791695,2834.553343
59368.055914,2368.659014,-6809.894666,2221.676944
59368.056224,-1924.535449,-9252.574275,0.000000
59368.056533,-4145.153275,-10732.986159,0.000000
59368.056843,444.123565,-11251.130318,1915.238745
59368.057153,1702.473667,-9474.636058,-76.609550
59368.057462,-5921.647536,-5995.668130,-2451.505594
59368.057772,-2886.803174,-11843.295072,-76.609550
59368.058082,-1036.288319,-11621.233289,1838.629195
59368.058391,4071.132681,-7105.977043,3217.601092
59368.058701,4367.215058,-5329.482782,2681.334243
59368.059011,592.164754,-7624.121203,1608.800546
59368.059321,-2442.679609,-10140.821405,-1532.190996
59368.059630,-3256.906145,-9844.739029,0.000000
59368.059940,0.000000,-9548.656652,612.876398
59368.060250,-74.020594,-9474.636058,-76.609550
59368.060559,-5921.647536,-7179.997637,-2451.505594
59368.060869,-666.185348,-11843.295072,1149.143247
59368.061179,1850.514855,-9548.656652,3064.381992
59368.061488,5921.647536,-6809.894666,3907.087040
59368.061798,2516.700203,-6735.874072,2221.676944
59368.062108,-1924.535449,-10288.862594,459.657299
59368.062417,-2368.659014,-11547.212695,-689.485948
59368.062727,-1480.411884,-8660.409521,-1532.190996
59368.063037,0.000000,-6587.832884,0.000000
59368.063347,-1850.514855,-11547.212695,-76.609550
59368.063656,-5107.421000,-8364.327145,-2681.334243
59368.063966,0.000000,-11029.068536,3524.039291
59368.064276,3182.885551,-5995.668130,3064.381992
59368.064585,4071.132681,-6291.750507,3140.991542
59368.064895,-370.102971,-8142.265362,1378.971896
59368.065205,-2960.823768,-11769.274478,-306.438199
59368.065514,-1406.391290,-11843.295072,-76.609550
59368.065824,518.144159,-8290.306550,-76.609550
59368.066134,-2368.659014,-5995.668130,0.000000
59368.066443,-3552.988522,-9548.656652,1225.752797
59368.066753,-666.185348,-10658.965565,-383.047749
59368.067063,148.041188,-7772.162391,2451.505594
59368.067373,2664.741391,-4219.173869,1838.629195
59368.067682,1036.288319,-6883.915261,1685.410096
59368.067992,-3182.885551,-11251.130318,-459.657299
59368.068302,-3034.844362,-13249.686362,-689.485948
59368.068611,-74.020594,-12435.459826,1762.019645
59368.068921,-74.020594,-8882.471304,-76.609550
59368.069231,-3701.029710,-7698.141797,-1455.581446
59368.069540,-4737.318029,-9548.656652,0.000000
59368.069850,4071.132681,-11251.130318,3600.648841
59368.070160,4145.153275,-4811.338623,2451.505594
59368.070470,3330.926739,-3478.967927,1685.410096
59368.070779,-1554.432478,-7920.203579,612.876398
59368.071089,-3256.906145,-11769.274478,-459.657299
59368.071399,-1702.473667,-11695.253884,-153.219100
59368.071708,-74.020594,-10214.842000,1455.581446
59368.072018,-666.185348,-9474.636058,-76.609550
59368.072328,-3627.009116,-9474.636058,-1302.362347
59368.072637,-4737.318029,-7772.162391,-2451.505594
59368.072947,3552.988522,-10140.821405,3983.696590
59368.073257,5551.544565,-5699.585753,1455.581446
59368.073566,1110.308913,-7402.059420,842.705048
59368.073876,-2812.782580,-10288.862594,-612.876398
59368.074186,-1850.514855,-11843.295072,0.000000
59368.074496,814.226536,-9474.636058,689.485948
59368.074805,888.247130,-7476.080014,2451.505594
59368.075115,-1776.494261,-10658.965565,2374.896044
59368.075425,-2442.679609,-11843.295072,-76.609550
59368.075734,0.000000,-7179.997637,0.000000
59368.076044,5477.523971,-8660.409521,4903.011187
59368.076354,3478.967927,-5329.482782,1149.143247
59368.076663,-74.020594,-9474.636058,-76.609550
59368.076973,-3034.844362,-12287.418637,-229.828649
59368.077283,-370.102971,-11473.192101,229.828649
59368.077592,222.061783,-8660.409521,995.924147
59368.077902,-2368.659014,-5995.668130,0.000000
59368.078212,-3552.988522,-9548.656652,1225.752797
59368.078522,-74.020594,-11547.212695,2374.896044
59368.078831,296.082377,-4811.338623,306.438199
59368.079141,6439.791695,-7550.100608,4826.401637
59368.079451,-1110.308913,-6217.729913,536.266849
59368.079760,-1480.411884,-13027.624579,-76.609550
59368.080070,-1628.453072,-12287.418637,-536.266849
59368.080380,592.164754,-9844.739029,612.876398
59368.080689,-370.102971,-7920.203579,306.438199
59368.080999,-4737.318029,-9548.656652,-2451.505594
59368.081309,-2960.823768,-9548.656652,0.000000
59368.081619,2368.659014,-9844.739029,3677.258390
59368.081928,7031.956449,-6513.812290,3600.648841
59368.082238,592.164754,-4811.338623,1838.629195
59368.082548,-1258.350101,-9474.636058,-76.609550
59368.082857,-2960.823768,-13693.809927,766.095498
59368.083167,-370.102971,-10807.006753,383.047749
59368.083477,0.000000,-7846.182985,612.876398
59368.083786,-1850.514855,-7846.182985,-229.828649
59368.084096,-4737.318029,-8438.347739,-2451.505594
59368.084406,0.000000,-8364.327145,0.000000
59368.084715,2960.823768,-7179.997637,2451.505594
59368.085025,5847.626942,-8290.306550,4213.525239
59368.085335,-3552.988522,-6587.832884,0.000000
59368.085645,-2590.720797,-14063.912898,-76.609550
59368.085954,-1924.535449,-12213.398043,612.876398
59368.086264,1406.391290,-9252.574275,1455.581446
59368.086574,0.000000,-7550.100608,536.266849
59368.086883,-2812.782580,-8734.430116,-229.828649
59368.087193,-2442.679609,-10362.883188,-76.609550
59368.087503,814.226536,-6143.709319,612.876398
59368.087812,2960.823768,-6291.750507,3064.381992
59368.088122,3478.967927,-9474.636058,2374.896044
59368.088432,-5921.647536,-9844.739029,0.000000
59368.088742,-962.267725,-15100.201217,2068.457845
59368.089051,0.000000,-9548.656652,0.000000
59368.089361,-222.061783,-7698.141797,842.705048
59368.089671,-2590.720797,-7254.018232,-766.095498
59368.089981,-3552.988522,-9696.697840,-76.609550
59368.090290,1110.308913,-9474.636058,-76.609550
59368.090600,4071.132681,-5625.565159,1762.019645
59368.090910,2368.659014,-3034.844362,0.000000
59368.091220,-74.020594,-9474.636058,1762.019645
59368.091530,-4589.276840,-10362.883188,-2451.505594
59368.091839,-592.164754,-12509.480420,1225.752797
59368.092149,0.000000,-8660.409521,0.000000
59368.092459,-1258.350101,-9400.615463,229.828649
59368.092769,-2442.679609,-10658.965565,-536.266849
59368.093078,-1628.453072,-10436.903782,612.876398
59368.093388,4663.297435,-10658.965565,4826.401637
59368.093698,7031.956449,-5921.647536,3600.648841
59368.094008,518.144159,-4811.338623,76.609550
59368.094318,-2368.659014,-10732.986159,1838.629195
59368.094627,-1258.350101,-13027.624579,-76.609550
59368.094937,0.000000,-8364.327145,0.000000
59368.095247,-1332.370696,-7105.977043,0.000000
59368.095557,-2812.782580,-8734.430116,0.000000
59368.095867,-2516.700203,-9770.718434,0.000000
59368.096176,74.020594,-9770.718434,1685.410096
59368.096486,5477.523971,-7698.141797,4366.744339
59368.096796,4663.297435,-8882.471304,3294.210641
59368.097106,-1258.350101,-7994.224174,-1608.800546
59368.097416,-4737.318029,-11917.315666,0.000000
59368.097725,-74.020594,-13027.624579,-76.609550
59368.098035,0.000000,-5995.668130,0.000000
59368.098345,-74.020594,-7698.141797,-76.609550
59368.098655,-2590.720797,-9548.656652,-612.876398
59368.098965,-296.082377,-9770.718434,1225.752797
59368.099274,4145.153275,-7772.162391,3064.381992
59368.099584,4737.318029,-6587.832884,4290.134789
59368.099894,2146.597232,-9474.636058,3600.648841
59368.100204,-2442.679609,-13619.789333,-76.609550
59368.100513,-4737.318029,-11917.315666,0.000000
59368.100823,2294.638420,-11251.130318,1762.019645
59368.101133,-962.267725,-4811.338623,-766.095498
59368.101443,-666.185348,-8734.430116,-76.609550
59368.101753,-2664.741391,-9548.656652,153.219100
59368.102062,1184.329507,-8956.491898,2221.676944
59368.102372,4071.132681,-5699.585753,3140.991542
59368.102682,592.164754,-4811.338623,2451.505594
59368.102992,-2368.659014,-8956.491898,612.876398
59368.103302,-1850.514855,-15396.283594,-76.609550
59368.103611,-3552.988522,-9548.656652,-2451.505594
59368.103921,1998.556043,-10658.965565,1149.143247
59368.104231,-1258.350101,-8290.306550,-1302.362347
59368.104541,-1776.494261,-12287.418637,-76.609550
59368.104851,-296.082377,-10807.006753,995.924147
59368.105160,3627.009116,-7476.080014,3294.210641
59368.105470,5773.606348,-5995.668130,5056.230287
59368.105780,-2368.659014,-4811.338623,1225.752797
59368.106090,-4737.318029,-9548.656652,0.000000
59368.106400,-74.020594,-13841.851115,3753.867940
59368.106709,-74.020594,-7550.100608,229.828649
59368.107019,0.000000,-7476.080014,2145.067394
59368.107329,-2442.679609,-9474.636058,-76.609550
59368.107639,-2960.823768,-10732.986159,919.314598
59368.107948,1110.308913,-9104.533087,1685.410096
59368.108258,3256.906145,-6069.688724,2528.115143
59368.108568,814.226536,-6439.791695,919.314598
59368.108878,-3627.009116,-8438.347739,-3677.258390
59368.109188,-4737.318029,-10732.986159,-1838.629195
59368.109497,0.000000,-9548.656652,0.000000
59368.109807,3478.967927,-10658.965565,2374.896044
59368.110117,-3997.112087,-7772.162391,-1838.629195
59368.110427,-1406.391290,-12879.583391,2681.334243
59368.110737,592.164754,-9844.739029,2145.067394
59368.111046,5403.503377,-6809.894666,4213.525239
59368.111356,4293.194464,-4663.297435,3677.258390
59368.111666,-592.164754,-8068.244768,1225.752797
59368.111976,-3034.844362,-11547.212695,-1915.238745
59368.112286,-3330.926739,-10584.944971,-995.924147
59368.112595,-2368.659014,-7179.997637,0.000000
59368.112905,-74.020594,-8956.491898,1915.238745
59368.113215,-3627.009116,-8142.265362,-995.924147
59368.113525,-1776.494261,-10732.986159,2145.067394
59368.113835,592.164754,-8364.327145,1685.410096
59368.114144,4515.256246,-5625.565159,3064.381992
59368.114454,1184.329507,-6143.709319,1225.752797
59368.114764,-2368.659014,-10066.800811,-919.314598
59368.115074,-74.020594,-13027.624579,-76.609550
59368.115383,1110.308913,-10066.800811,-76.609550
59368.115693,-2368.659014,-5995.668130,-2298.286494
59368.116003,-1184.329507,-10658.965565,459.657299
59368.116313,-1850.514855,-11547.212695,-842.705048
59368.116623,0.000000,-9548.656652,2451.505594
59368.116932,3849.070898,-5699.585753,2757.943793
59368.117242,2664.741391,-5625.565159,2757.943793
59368.117552,-3552.988522,-7772.162391,0.000000
59368.117862,-3034.844362,-12435.459826,76.609550
59368.118172,-74.020594,-12731.542202,2374.896044
59368.118481,-74.020594,-9178.553681,4213.525239
59368.118791,-1850.514855,-4441.235652,-995.924147
59368.119101,-3256.906145,-8660.409521,1225.752797
59368.119411,-666.185348,-9474.636058,1149.143247
59368.119721,0.000000,-5995.668130,1225.752797
59368.120030,3478.967927,-4885.359217,1532.190996
59368.120340,592.164754,-7179.997637,383.047749
59368.120650,-4145.153275,-11843.295072,-1532.190996
59368.120960,-3404.947333,-13397.727550,-1838.629195
59368.121269,814.226536,-13619.789333,2068.457845
59368.121579,1702.473667,-10658.965565,1685.410096
59368.121889,-1258.350101,-9474.636058,-1302.362347
59368.122199,-4737.318029,-9548.656652,0.000000
59368.122509,3330.926739,-10066.800811,3294.210641
59368.122818,2960.823768,-3034.844362,2451.505594
59368.123128,3404.947333,-4737.318029,3294.210641
59368.123438,-1998.556043,-8142.265362,995.924147
59368.123748,-3256.906145,-11917.315666,459.657299
59368.124058,-1406.391290,-11399.171507,612.876398
59368.124367,0.000000,-10140.821405,2757.943793
59368.124677,-1036.288319,-9400.615463,612.876398
59368.124987,-2442.679609,-10658.965565,-76.609550
59368.125297,-3552.988522,-9548.656652,-1225.752797
59368.125607,2368.659014,-7772.162391,3064.381992
59368.125916,3478.967927,-4441.235652,842.705048
59368.126226,1110.308913,-7698.141797,1685.410096
59368.126536,-2886.803174,-10881.027347,-306.438199
59368.126846,-1184.329507,-11843.295072,-153.219100
59368.127156,1406.391290,-9474.636058,1072.533697
59368.127465,0.000000,-7179.997637,1225.752797
59368.127775,-2960.823768,-9548.656652,0.000000
59368.128085,-74.020594,-13027.624579,-76.609550
59368.128395,0.000000,-8364.327145,459.657299
59368.128704,4737.318029,-7179.997637,4826.401637
59368.129014,2886.803174,-5921.647536,1762.019645
59368.129324,-1258.350101,-10658.965565,995.924147
59368.129634,-2812.782580,-13027.624579,-383.047749
59368.129944,-666.185348,-10658.965565,919.314598
59368.130253,592.164754,-7624.121203,1608.800546
59368.130563,-3552.988522,-5403.503377,0.000000
59368.130873,-4737.318029,-5995.668130,-2451.505594
59368.131183,296.082377,-10732.986159,2757.943793
59368.131493,3478.967927,-5921.647536,2374.896044
59368.131802,4145.153275,-5551.544565,4826.401637
59368.132112,2294.638420,-8290.306550,-76.609550
59368.132422,-3256.906145,-12953.603985,-1378.971896
59368.132732,-1850.514855,-13027.624579,-1302.362347
59368.133042,74.020594,-10955.047942,-76.609550
59368.133351,-1184.329507,-9400.615463,-766.095498
59368.133661,-5921.647536,-7624.121203,-3370.820191
59368.133971,-4145.153275,-9548.656652,-1608.800546
59368.134281,2368.659014,-7772.162391,3064.381992
59368.134591,7031.956449,-6513.812290,4826.401637
59368.134900,888.247130,-4811.338623,0.000000
59368.135210,-74.020594,-11843.295072,2987.772442
59368.135520,-2960.823768,-12509.480420,459.657299
59368.135830,-814.226536,-10288.862594,1378.971896
59368.136139,-666.185348,-8438.347739,766.095498
59368.136449,-2812.782580,-7402.059420,76.609550
59368.136759,-4515.256246,-8882.471304,-1302.362347
59368.137069,-2072.576638,-9178.553681,-76.609550
59368.137379,1184.329507,-5995.668130,2451.505594
59368.137688,5551.544565,-7105.977043,4213.525239
59368.137998,-962.267725,-6291.750507,-2451.505594
59368.138308,-2072.576638,-12953.603985,1915.238745
59368.138618,-2072.576638,-10732.986159,0.000000
59368.138928,1258.350101,-9104.533087,536.266849
59368.139237,0.000000,-8142.265362,153.219100
59368.139547,-2886.803174,-9548.656652,-919.314598
59368.139857,-74.020594,-10658.965565,-76.609550
59368.140167,3478.967927,-10658.965565,3600.648841
59368.140477,2664.741391,-4219.173869,1685.410096
59368.140786,592.164754,-7920.203579,2451.505594
59368.141096,-2442.679609,-11843.295072,-76.609550
59368.141406,-4145.153275,-12509.480420,612.876398
59368.141716,-1184.329507,-9844.739029,383.047749
59368.142026,-592.164754,-7476.080014,1455.581446
59368.142335,-3108.864956,-7254.018232,76.609550
59368.142645,-3182.885551,-8882.471304,153.219100
59368.142955,2886.803174,-9474.636058,2987.772442
59368.143265,7031.956449,-9474.636058,4826.401637
59368.143574,1184.329507,-3034.844362,1225.752797
59368.143884,1110.308913,-9474.636058,2068.457845
59368.144194,-3627.009116,-10732.986159,-3677.258390
59368.144504,-4145.153275,-10732.986159,0.000000
59368.144814,-1554.432478,-9918.759623,-766.095498
59368.145123,-2368.659014,-9030.512492,-1072.533697
59368.145433,-3849.070898,-10436.903782,-1991.848295
59368.145743,-888.247130,-11029.068536,383.047749
59368.146053,6439.791695,-9474.636058,4826.401637
59368.146363,8216.285956,-7994.224174,7124.688131
59368.146672,2294.638420,-7105.977043,2374.896044
59368.146982,-4145.153275,-9548.656652,0.000000
59368.147292,-1258.350101,-11843.295072,-76.609550
59368.147602,0.000000,-7179.997637,1225.752797
59368.147912,-74.020594,-7994.224174,1149.143247
59368.148221,-3775.050304,-8068.244768,0.000000
59368.148531,-3701.029710,-9918.759623,-229.828649
59368.148841,666.185348,-8882.471304,1762.019645
59368.149151,4737.318029,-7476.080014,4903.011187
59368.149461,3552.988522,-6291.750507,4290.134789
59368.149770,-74.020594,-10658.965565,-76.609550
59368.150080,-3923.091493,-10955.047942,-2374.896044
59368.150390,-222.061783,-13545.768739,1149.143247
59368.150700,-1406.391290,-6365.771101,-1838.629195
59368.151009,-666.185348,-8586.388927,-1302.362347
59368.151319,-2442.679609,-9844.739029,-1378.971896
59368.151629,74.020594,-10658.965565,0.000000
59368.151939,4293.194464,-8956.491898,3217.601092
59368.152249,4737.318029,-6587.832884,3677.258390
59368.152558,0.000000,-7179.997637,1225.752797
59368.152868,-74.020594,-14211.954086,-76.609550
59368.153178,-2664.741391,-10732.986159,0.000000
59368.153488,2294.638420,-12435.459826,4519.963438
59368.153798,-1258.350101,-5625.565159,-995.924147
59368.154107,-3849.070898,-8734.430116,612.876398
59368.154417,-2516.700203,-9252.574275,459.657299
59368.154727,1184.329507,-8068.244768,2374.896044
59368.155037,4367.215058,-5033.400406,3677.258390
59368.155347,592.164754,-3034.844362,1225.752797
59368.155656,-4737.318029,-7179.997637,0.000000
59368.155966,-666.185348,-14211.954086,-76.609550
59368.156276,-2960.823768,-10140.821405,-1991.848295
59368.156586,-74.020594,-11843.295072,-76.609550
59368.156895,-2442.679609,-8882.471304,-3447.429741
59368.157205,-4737.318029,-10732.986159,-1838.629195
59368.157515,-666.185348,-11103.089130,383.047749
59368.157825,4293.194464,-7476.080014,3140.991542
59368.158135,4663.297435,-6143.709319,3524.039291
59368.158444,0.000000,-6069.688724,229.828649
59368.158754,-4219.173869,-9548.656652,-1225.752797
59368.159064,-74.020594,-13693.809927,2834.553343
59368.159374,518.144159,-8586.388927,1762.019645
59368.159684,-296.082377,-9252.574275,3064.381992
59368.159993,-2442.679609,-9474.636058,-76.609550
59368.160303,-4293.194464,-9548.656652,0.000000
59368.160613,1184.329507,-8956.491898,2451.505594
