#time,accel_x,accel_y,accel_z
163380.009004,0.000000,-10140.821405,1762.019645
163380.009324,-1184.329507,-8438.347739,0.000000
163380.009643,-888.247130,-8882.471304,0.000000
163380.009962,-814.226536,-9622.677246,-306.438199
163380.010282,-1110.308913,-9548.656652,-1838.629195
163380.010601,-2812.782580,-7179.997637,-2374.896044
163380.010921,-74.020594,-9474.636058,-1302.362347
163380.011240,-2072.576638,-9548.656652,0.000000
163380.011559,-74.020594,-10066.800811,-76.609550
163380.011879,-962.267725,-9474.636058,-689.485948
163380.012198,296.082377,-10807.006753,1532.190996
163380.012518,0.000000,-9844.739029,-919.314598
163380.012837,0.000000,-9844.739029,-766.095498
163380.013156,0.000000,-9548.656652,-536.266849
163380.013476,-1184.329507,-8364.327145,0.000000
163380.013795,148.041188,-9548.656652,0.000000
163380.014115,1702.473667,-9474.636058,-383.047749
163380.014434,0.000000,-8660.409521,-1302.362347
163380.014753,-2368.659014,-7772.162391,0.000000
163380.015073,2294.638420,-10658.965565,-76.609550
163380.015392,814.226536,-10288.862594,1072.533697
163380.015712,0.000000,-8660.409521,229.828649
163380.016031,-518.144159,-8660.409521,306.438199
163380.016350,-370.102971,-8734.430116,306.438199
163380.016670,0.000000,-9104.533087,1225.752797
163380.016989,-1184.329507,-9104.533087,306.438199
163380.017309,-74.020594,-10732.986159,2145.067394
163380.017628,-74.020594,-9178.553681,-689.485948
163380.017947,-1776.494261,-8660.409521,0.000000
163380.018267,-74.020594,-9474.636058,-689.485948
163380.018586,-1258.350101,-9030.512492,-459.657299
163380.018906,-666.185348,-9178.553681,-766.095498
163380.019225,-592.164754,-9992.780217,-612.876398
163380.019544,-74.020594,-10658.965565,-76.609550
163380.019864,296.082377,-11251.130318,1991.848295
163380.020183,0.000000,-8364.327145,0.000000
163380.020503,1110.308913,-11177.109724,-76.609550
163380.020822,-814.226536,-8956.491898,-1455.581446
163380.021141,0.000000,-8364.327145,0.000000
163380.021461,-74.020594,-9178.553681,-842.705048
163380.021780,444.123565,-9548.656652,0.000000
163380.022100,222.061783,-9326.594869,0.000000
163380.022419,370.102971,-9326.594869,536.266849
163380.022738,2146.597232,-10658.965565,612.876398
163380.023058,0.000000,-8660.409521,-612.876398
163380.023377,0.000000,-8364.327145,153.219100
163380.023697,148.041188,-9400.615463,919.314598
163380.024016,-74.020594,-11251.130318,-76.609550
163380.024335,-2368.659014,-7179.997637,0.000000
163380.024655,-370.102971,-8808.450710,-689.485948
163380.024974,-1258.350101,-8660.409521,0.000000
163380.025294,-1258.350101,-9474.636058,0.000000
163380.025613,-1258.350101,-9474.636058,-153.219100
163380.025932,-518.144159,-8660.409521,-383.047749
163380.026252,-962.267725,-8586.388927,-689.485948
163380.026571,-1184.329507,-9548.656652,0.000000
163380.026891,-74.020594,-11843.295072,-76.609550
163380.027210,-2072.576638,-8660.409521,-689.485948
163380.027529,-2368.659014,-7772.162391,0.000000
163380.027849,444.123565,-10140.821405,-995.924147
163380.028168,74.020594,-10140.821405,-689.485948
163380.028488,-370.102971,-9548.656652,-842.705048
163380.028807,-740.205942,-8216.285956,-1225.752797
163380.029126,-74.020594,-9178.553681,-995.924147
163380.029446,962.267725,-11843.295072,-76.609550
163380.029765,-1776.494261,-8068.244768,0.000000
163380.030085,0.000000,-9548.656652,612.876398
163380.030404,2294.638420,-11843.295072,1762.019645
163380.030723,0.000000,-8956.491898,0.000000
163380.031043,-74.020594,-8956.491898,-76.609550
163380.031362,-74.020594,-9030.512492,229.828649
163380.031682,0.000000,-9400.615463,229.828649
163380.032001,-814.226536,-7920.203579,-842.705048
163380.032320,-592.164754,-9844.739029,1072.533697
163380.032640,-74.020594,-9474.636058,-76.609550
163380.032959,-666.185348,-9030.512492,-76.609550
163380.033279,-2960.823768,-7476.080014,-2145.067394
163380.033598,1110.308913,-11843.295072,-76.609550
163380.033917,-1776.494261,-8364.327145,-1072.533697
163380.034237,-740.205942,-9252.574275,-766.095498
163380.034556,-888.247130,-9548.656652,-842.705048
163380.034876,-888.247130,-9548.656652,-306.438199
163380.035195,-74.020594,-8882.471304,-306.438199
163380.035514,296.082377,-10955.047942,-76.609550
163380.035834,-74.020594,-9474.636058,-536.266849
163380.036153,-666.185348,-8290.306550,-1608.800546
163380.036473,0.000000,-7772.162391,0.000000
163380.036792,3478.967927,-11843.295072,-76.609550
163380.037111,222.061783,-8882.471304,0.000000
163380.037431,296.082377,-9326.594869,76.609550
163380.037750,0.000000,-9104.533087,0.000000
163380.038070,0.000000,-9548.656652,1225.752797
163380.038389,0.000000,-9548.656652,0.000000
163380.038708,0.000000,-9104.533087,0.000000
163380.039028,1998.556043,-10436.903782,1608.800546
163380.039347,1110.308913,-8882.471304,-76.609550
163380.039667,518.144159,-6809.894666,-1302.362347
163380.039986,2294.638420,-9474.636058,1149.143247
163380.040305,296.082377,-8660.409521,-536.266849
163380.040625,666.185348,-9548.656652,-689.485948
163380.040944,814.226536,-9844.739029,-612.876398
163380.041264,0.000000,-9548.656652,1225.752797
163380.041583,296.082377,-7920.203579,-2834.553343
163380.041902,2368.659014,-10807.006753,1072.533697
163380.042222,2294.638420,-9326.594869,-995.924147
163380.042541,2664.741391,-8364.327145,-2298.286494
163380.042861,5551.544565,-9474.636058,-76.609550
163380.043180,4145.153275,-8956.491898,229.828649
163380.043499,5329.482782,-9400.615463,0.000000
163380.043819,5477.523971,-9400.615463,536.266849
163380.044138,5625.565159,-9548.656652,1532.190996
163380.044458,5107.421000,-10066.800811,-76.609550
163380.044777,7031.956449,-10658.965565,-76.609550
163380.045096,5551.544565,-9474.636058,-842.705048
163380.045416,3034.844362,-7476.080014,-2451.505594
163380.045735,6439.791695,-11103.089130,-76.609550
163380.046055,5921.647536,-9548.656652,0.000000
163380.046374,7994.224174,-9252.574275,383.047749
163380.046693,7624.121203,-8956.491898,383.047749
163380.047013,6883.915261,-9548.656652,-689.485948
163380.047332,2812.782580,-8660.409521,0.000000
163380.047652,3478.967927,-12139.377449,-76.609550
163380.047971,1924.535449,-11917.315666,0.000000
163380.048290,1850.514855,-11769.274478,766.095498
163380.048610,2590.720797,-10140.821405,842.705048
163380.048929,4663.297435,-8290.306550,2068.457845
163380.049249,5551.544565,-7994.224174,2374.896044
163380.049568,4663.297435,-5625.565159,-1302.362347
163380.049887,2368.659014,-4293.194464,-3064.381992
163380.050207,2960.823768,-7179.997637,-1532.190996
163380.050526,0.000000,-7179.997637,-4903.011187
163380.050846,3552.988522,-12805.562797,-2528.115143
163380.051165,2220.617826,-15322.262999,-1302.362347
163380.051484,1924.535449,-16210.510130,919.314598
163380.051804,3478.967927,-14211.954086,2068.457845
163380.052123,3182.885551,-9548.656652,1302.362347
163380.052443,3997.112087,-7698.141797,1838.629195
163380.052762,2738.761985,-5181.441594,-76.609550
163380.053081,4663.297435,-6513.812290,-76.609550
163380.053401,3849.070898,-6587.832884,1838.629195
163380.053720,1480.411884,-6587.832884,0.000000
163380.054040,-814.226536,-9400.615463,-383.047749
163380.054359,-3256.906145,-9548.656652,-1225.752797
163380.054678,-1332.370696,-10288.862594,-383.047749
163380.054998,1184.329507,-9104.533087,0.000000
163380.055317,1702.473667,-9770.718434,76.609550
163380.055637,1480.411884,-10732.986159,0.000000
163380.055956,1184.329507,-10732.986159,2757.943793
163380.056275,3034.844362,-9474.636058,1762.019645
163380.056595,592.164754,-8364.327145,-76.609550
163380.056914,-2590.720797,-6661.853478,-4903.011187
163380.057234,-2220.617826,-9474.636058,-4979.620737
163380.057553,0.000000,-12139.377449,-2145.067394
163380.057872,1850.514855,-12361.439231,0.000000
163380.058192,0.000000,-9548.656652,0.000000
163380.058511,740.205942,-7476.080014,-1915.238745
163380.058831,0.000000,-8364.327145,0.000000
163380.059150,4071.132681,-9474.636058,1378.971896
163380.059469,5551.544565,-8882.471304,3600.648841
163380.059789,7994.224174,-8808.450710,6971.469032
163380.060108,5033.400406,-6217.729913,919.314598
163380.060428,666.185348,-7254.018232,-4519.963438
163380.060747,-2960.823768,-10732.986159,-7124.688131
163380.061066,-4737.318029,-12509.480420,-6588.421283
163380.061386,-3034.844362,-15692.365970,-2298.286494
163380.061705,-1850.514855,-13027.624579,-2221.676944
163380.062025,-2072.576638,-9548.656652,-1838.629195
163380.062344,4145.153275,-9548.656652,4596.572988
163380.062663,10584.944971,-7105.977043,7277.907231
163380.062983,11843.295072,-4663.297435,11721.261119
163380.063302,7328.038826,-740.205942,7354.516781
163380.063622,1924.535449,-1554.432478,1608.800546
163380.063941,-2442.679609,-6957.935855,-3447.429741
163380.064260,-4811.338623,-13101.645173,-2757.943793
163380.064580,-5403.503377,-16136.489536,-3447.429741
163380.064899,-9548.656652,-14285.974681,-6205.373534
163380.065219,-10732.986159,-13915.871710,-10495.508323
163380.065538,-10436.903782,-13101.645173,-8427.050478
163380.065857,-1258.350101,-12731.542202,-1302.362347
163380.066177,2738.761985,-7179.997637,5286.058936
163380.066496,5773.606348,-2886.803174,5745.716235
163380.066816,4959.379811,-592.164754,4136.915689
163380.067135,5847.626942,-5181.441594,4826.401637
163380.067454,3849.070898,-9844.739029,7354.516781
163380.067774,1036.288319,-11251.130318,4903.011187
163380.068093,-3034.844362,-13619.789333,-995.924147
163380.068413,-8660.409521,-13323.706956,-7890.783629
163380.068732,-11177.109724,-13693.809927,-9806.022374
163380.069051,-5403.503377,-15322.262999,-4979.620737
163380.069371,-2368.659014,-11621.233289,-1149.143247
163380.069690,-2368.659014,-7179.997637,-2298.286494
163380.070010,-1036.288319,-3330.926739,-3294.210641
163380.070329,3478.967927,-8290.306550,2374.896044
163380.070648,2886.803174,-6587.832884,4290.134789
163380.070968,2368.659014,-6291.750507,7354.516781
163380.071287,2886.803174,-5921.647536,4519.963438
163380.071607,-74.020594,-9474.636058,1762.019645
163380.071926,-3552.988522,-9548.656652,0.000000
163380.072245,-1406.391290,-12435.459826,995.924147
163380.072565,-1924.535449,-10658.965565,-919.314598
163380.072884,-4367.215058,-11029.068536,-5439.278036
163380.073204,-5625.565159,-10436.903782,-8963.317327
163380.073523,-2516.700203,-13027.624579,-5286.058936
163380.073842,-2960.823768,-10140.821405,-1225.752797
163380.074162,1480.411884,-9104.533087,1991.848295
163380.074481,2960.823768,-7328.038826,2757.943793
163380.074801,3478.967927,-5921.647536,1762.019645
163380.075120,4737.318029,-5403.503377,4903.011187
163380.075439,6587.832884,-7994.224174,6665.030833
163380.075759,5033.400406,-7698.141797,3983.696590
163380.076078,1110.308913,-7994.224174,-1532.190996
163380.076398,-2220.617826,-8956.491898,-6894.859482
163380.076717,-1850.514855,-13767.830521,-5132.839837
163380.077036,-3552.988522,-14582.057057,-2528.115143
163380.077356,-3330.926739,-11991.336260,-3753.867940
163380.077675,-2960.823768,-9548.656652,-3983.696590
163380.077995,3923.091493,-11251.130318,-76.609550
163380.078314,4737.318029,-7772.162391,4903.011187
163380.078633,7476.080014,-6069.688724,7277.907231
163380.078953,5699.585753,-3627.009116,5745.716235
163380.079272,3627.009116,-3182.885551,842.705048
163380.079592,222.061783,-4811.338623,-4136.915689
163380.079911,0.000000,-11177.109724,995.924147
163380.080230,-2442.679609,-11621.233289,-2221.676944
163380.080550,-5773.606348,-12213.398043,-2911.162892
163380.080869,-6365.771101,-11917.315666,-7354.516781
163380.081189,-5921.647536,-11917.315666,-4903.011187
163380.081508,-518.144159,-11251.130318,-995.924147
163380.081827,1184.329507,-8364.327145,1762.019645
163380.082147,1554.432478,-5181.441594,1149.143247
163380.082466,1184.329507,-3627.009116,-3370.820191
163380.082785,4071.132681,-7105.977043,-919.314598
163380.083105,592.164754,-8956.491898,2451.505594
163380.083424,1110.308913,-12139.377449,4213.525239
163380.083743,-1258.350101,-13027.624579,2068.457845
163380.084063,-3478.967927,-10658.965565,-2298.286494
163380.084382,-3256.906145,-10288.862594,-3600.648841
163380.084701,962.267725,-12435.459826,1915.238745
163380.085021,1184.329507,-8956.491898,2451.505594
163380.085340,-814.226536,-6957.935855,-459.657299
163380.085659,-74.020594,-7105.977043,-3753.867940
163380.085979,-2146.597232,-7920.203579,-3447.429741
163380.086298,-1554.432478,-9918.759623,306.438199
163380.086617,-4737.318029,-8068.244768,0.000000
163380.086937,-4737.318029,-8956.491898,0.000000
163380.087256,-3627.009116,-7550.100608,-3677.258390
163380.087575,-74.020594,-10658.965565,689.485948
163380.087895,1776.494261,-9844.739029,3600.648841
163380.088214,1480.411884,-7772.162391,3600.648841
163380.088533,-888.247130,-6883.915261,-1302.362347
163380.088853,-1184.329507,-9474.636058,-1532.190996
163380.089172,-2368.659014,-10140.821405,-3140.991542
163380.089491,-2294.638420,-12287.418637,383.047749
163380.089811,-2812.782580,-11399.171507,-383.047749
163380.090130,-4737.318029,-7772.162391,-3064.381992
163380.090449,-4737.318029,-8290.306550,-4060.306139
163380.090769,1702.473667,-10066.800811,-76.609550
163380.091088,2146.597232,-8956.491898,3064.381992
163380.091407,0.000000,-5995.668130,1838.629195
163380.091727,-74.020594,-7105.977043,-2528.115143
163380.092046,1036.288319,-9178.553681,-2145.067394
163380.092365,814.226536,-10658.965565,-612.876398
163380.092685,962.267725,-11473.192101,2834.553343
163380.093004,-1406.391290,-10510.924376,1378.971896
163380.093324,-2220.617826,-9252.574275,-536.266849
163380.093643,-222.061783,-9474.636058,-2374.896044
163380.093962,2590.720797,-9770.718434,2374.896044
163380.094282,4663.297435,-8290.306550,3600.648841
163380.094601,1110.308913,-5699.585753,995.924147
163380.094920,2294.638420,-6513.812290,-2528.115143
163380.095240,1184.329507,-8660.409521,-2757.943793
163380.095559,962.267725,-11547.212695,-306.438199
163380.095878,-1110.308913,-11843.295072,1838.629195
163380.096198,-3552.988522,-10732.986159,-689.485948
163380.096517,-3256.906145,-11843.295072,-1915.238745
163380.096836,-666.185348,-10658.965565,-1302.362347
163380.097156,3478.967927,-11843.295072,1149.143247
163380.097475,2294.638420,-8216.285956,2528.115143
163380.097794,0.000000,-5403.503377,0.000000
163380.098114,-1554.432478,-4145.153275,-5286.058936
163380.098433,518.144159,-8512.368333,-3907.087040
163380.098752,666.185348,-11843.295072,0.000000
163380.099072,0.000000,-11769.274478,1915.238745
163380.099391,-74.020594,-12435.459826,2068.457845
163380.099710,-74.020594,-11843.295072,-3677.258390
163380.100030,2368.659014,-11917.315666,919.314598
163380.100349,5255.462188,-11251.130318,3600.648841
163380.100668,2886.803174,-9474.636058,4826.401637
163380.100988,0.000000,-4811.338623,0.000000
163380.101307,-1258.350101,-5625.565159,-3753.867940
163380.101626,-518.144159,-8956.491898,-2681.334243
163380.101946,-1628.453072,-10955.047942,612.876398
163380.102265,-3330.926739,-11399.171507,1072.533697
163380.102584,-3034.844362,-11251.130318,-689.485948
163380.102904,-3404.947333,-8660.409521,-3600.648841
163380.103223,444.123565,-9844.739029,306.438199
163380.103542,3478.967927,-11843.295072,6052.154434
163380.103862,296.082377,-5107.421000,1838.629195
163380.104181,0.000000,-5995.668130,612.876398
163380.104500,-2294.638420,-6661.853478,-4979.620737
163380.104820,-1924.535449,-10436.903782,-3140.991542
163380.105139,-2220.617826,-11917.315666,76.609550
163380.105458,-4441.235652,-10732.986159,-2451.505594
163380.105778,-5181.441594,-9548.656652,-4903.011187
163380.106097,-3256.906145,-9918.759623,-3294.210641
163380.106416,0.000000,-9548.656652,0.000000
163380.106736,2960.823768,-9400.615463,4903.011187
163380.107055,3404.947333,-7994.224174,4213.525239
163380.107374,1184.329507,-6291.750507,1225.752797
163380.107694,1258.350101,-7105.977043,-2221.676944
163380.108013,518.144159,-9474.636058,-306.438199
163380.108332,-888.247130,-11473.192101,2298.286494
163380.108652,-4145.153275,-8660.409521,0.000000
163380.108971,-4737.318029,-8512.368333,-3064.381992
163380.109290,-1850.514855,-9770.718434,-3753.867940
163380.109610,0.000000,-9844.739029,306.438199
163380.109929,2368.659014,-9252.574275,1225.752797
163380.110248,2886.803174,-8290.306550,2374.896044
163380.110568,-1110.308913,-5847.626942,-2145.067394
163380.110887,-1110.308913,-7698.141797,-3983.696590
163380.111206,0.000000,-10436.903782,-612.876398
163380.111526,-1184.329507,-11177.109724,1838.629195
163380.111845,-4737.318029,-9548.656652,-1685.410096
163380.112164,-1258.350101,-10955.047942,-1915.238745
163380.112484,-370.102971,-9252.574275,-1762.019645
163380.112803,2960.823768,-9548.656652,306.438199
163380.113122,2368.659014,-7772.162391,4903.011187
163380.113442,2886.803174,-7105.977043,-383.047749
163380.113761,-1184.329507,-6957.935855,-3677.258390
163380.114080,-1628.453072,-9548.656652,-4979.620737
163380.114400,-1998.556043,-11843.295072,-1378.971896
163380.114719,-1258.350101,-13323.706956,2374.896044
163380.115038,-1628.453072,-11399.171507,842.705048
163380.115358,1110.308913,-10362.883188,-1302.362347
163380.115677,3775.050304,-10658.965565,2374.896044
163380.115996,5847.626942,-8586.388927,4519.963438
163380.116316,2368.659014,-5107.421000,3677.258390
163380.116635,2146.597232,-5477.523971,-76.609550
163380.116954,-1406.391290,-7105.977043,-3600.648841
163380.117274,-1850.514855,-10214.842000,-3830.477490
163380.117593,-1480.411884,-11547.212695,-459.657299
163380.117912,-962.267725,-14211.954086,1762.019645
163380.118232,-3627.009116,-11177.109724,-2068.457845
163380.118551,-1924.535449,-11103.089130,-1915.238745
163380.118870,1998.556043,-10955.047942,-76.609550
163380.119190,2886.803174,-8882.471304,4443.353888
163380.119509,592.164754,-4811.338623,3064.381992
163380.119828,1110.308913,-5329.482782,-76.609550
163380.120148,-518.144159,-6217.729913,-2451.505594
163380.120467,-1036.288319,-10214.842000,-1915.238745
163380.120786,-2368.659014,-11621.233289,536.266849
163380.121106,-2442.679609,-13619.789333,-76.609550
163380.121425,-5773.606348,-10140.821405,-3064.381992
163380.121744,-1924.535449,-11177.109724,-3370.820191
163380.122064,1554.432478,-11251.130318,919.314598
163380.122383,3775.050304,-10658.965565,4290.134789
163380.122702,-1258.350101,-4811.338623,0.000000
163380.123022,-814.226536,-6661.853478,-1762.019645
163380.123341,-518.144159,-6883.915261,-3140.991542
163380.123660,0.000000,-9770.718434,0.000000
163380.123980,1110.308913,-13027.624579,4213.525239
163380.124299,-1628.453072,-9992.780217,1149.143247
163380.124618,-3627.009116,-8808.450710,-1608.800546
163380.124938,-1184.329507,-7772.162391,-3524.039291
163380.125257,296.082377,-9548.656652,1532.190996
163380.125576,1924.535449,-7624.121203,2451.505594
163380.125896,-74.020594,-7698.141797,1149.143247
163380.126215,-2886.803174,-6957.935855,-3217.601092
163380.126534,-2146.597232,-8364.327145,-4596.572988
163380.126854,-1850.514855,-10658.965565,-1532.190996
163380.127173,-3256.906145,-11769.274478,2298.286494
163380.127492,-3627.009116,-9548.656652,-1302.362347
163380.127812,-1480.411884,-9622.677246,-2298.286494
163380.128131,2072.576638,-9770.718434,-1455.581446
163380.128450,3552.988522,-9844.739029,2451.505594
163380.128770,1184.329507,-7179.997637,2757.943793
163380.129089,-74.020594,-6217.729913,-1915.238745
163380.129408,-2368.659014,-7031.956449,-4903.011187
163380.129728,-1776.494261,-9844.739029,-6128.763984
163380.130047,-444.123565,-11843.295072,-76.609550
163380.130366,962.267725,-13027.624579,2681.334243
163380.130686,-2072.576638,-9770.718434,-383.047749
163380.131005,-222.061783,-8364.327145,-1302.362347
163380.131324,3404.947333,-8956.491898,1532.190996
163380.131644,4737.318029,-7476.080014,5056.230287
163380.131963,3849.070898,-6957.935855,5515.887586
163380.132282,518.144159,-6217.729913,229.828649
163380.132602,-1480.411884,-7105.977043,-3753.867940
163380.132921,-3256.906145,-8364.327145,-4290.134789
163380.133240,-666.185348,-13027.624579,-1302.362347
163380.133560,-2664.741391,-12731.542202,536.266849
163380.133879,-3775.050304,-10658.965565,-2451.505594
163380.134199,-1184.329507,-9844.739029,-3140.991542
163380.134518,2368.659014,-10288.862594,229.828649
163380.134837,3552.988522,-9104.533087,5822.325785
163380.135157,1924.535449,-6587.832884,3447.429741
163380.135476,-666.185348,-5921.647536,-1915.238745
163380.135795,-3256.906145,-6291.750507,-4903.011187
163380.136115,-2072.576638,-10584.944971,-2911.162892
163380.136434,-1850.514855,-11177.109724,-2528.115143
163380.136753,-2812.782580,-11991.336260,-153.219100
163380.137073,-3478.967927,-10510.924376,-2757.943793
163380.137392,-1332.370696,-10288.862594,-2528.115143
163380.137711,3330.926739,-11251.130318,2374.896044
163380.138031,6439.791695,-11843.295072,7277.907231
163380.138350,3256.906145,-6883.915261,4903.011187
163380.138669,1702.473667,-6365.771101,-1302.362347
163380.138989,-1184.329507,-6661.853478,-3753.867940
163380.139308,0.000000,-9548.656652,0.000000
163380.139627,-2738.761985,-9918.759623,306.438199
163380.139947,-3034.844362,-11251.130318,612.876398
163380.140266,-2812.782580,-10140.821405,-2068.457845
163380.140585,-518.144159,-9918.759623,-1072.533697
163380.140905,4663.297435,-11843.295072,3600.648841
163380.141224,2960.823768,-8364.327145,6128.763984
163380.141543,2146.597232,-7624.121203,2911.162892
163380.141863,-962.267725,-6661.853478,-1302.362347
163380.142182,-1258.350101,-9474.636058,-4979.620737
163380.142501,-4441.235652,-9844.739029,-1225.752797
163380.142821,-3849.070898,-10288.862594,-612.876398
163380.143140,-4811.338623,-10732.986159,-1915.238745
163380.143459,-3849.070898,-10510.924376,-3524.039291
163380.143779,0.000000,-10658.965565,-995.924147
163380.144098,4589.276840,-10436.903782,2451.505594
163380.144417,3552.988522,-7179.997637,4903.011187
163380.144737,1702.473667,-5773.606348,0.000000
163380.145056,296.082377,-8290.306550,-995.924147
163380.145375,-74.020594,-9474.636058,-2528.115143
163380.145695,-1184.329507,-12509.480420,1915.238745
163380.146014,-2590.720797,-11769.274478,-229.828649
163380.146333,-3552.988522,-10510.924376,-1532.190996
163380.146653,-1554.432478,-10362.883188,-2681.334243
163380.146972,592.164754,-9548.656652,0.000000
163380.147291,2516.700203,-8956.491898,3677.258390
163380.147611,2072.576638,-7179.997637,1532.190996
163380.147930,-1184.329507,-6291.750507,0.000000
163380.148249,-74.020594,-7698.141797,-2834.553343
163380.148569,-740.205942,-7772.162391,-3600.648841
163380.148888,0.000000,-9696.697840,1685.410096
163380.149207,-1480.411884,-10214.842000,1608.800546
163380.149527,-2960.823768,-8438.347739,-1225.752797
163380.149846,-1776.494261,-8808.450710,-2911.162892
163380.150165,3775.050304,-11843.295072,2987.772442
163380.150485,5107.421000,-11251.130318,5515.887586
163380.150804,2368.659014,-7772.162391,4596.572988
163380.151123,-74.020594,-8290.306550,-1915.238745
163380.151443,-3552.988522,-7179.997637,-6281.983084
163380.151762,-4737.318029,-9844.739029,-4903.011187
163380.152081,-1850.514855,-11843.295072,-383.047749
163380.152401,-3108.864956,-10955.047942,-306.438199
163380.152720,-2368.659014,-9548.656652,-1991.848295
163380.153039,814.226536,-9548.656652,-2221.676944
163380.153359,7031.956449,-11843.295072,4826.401637
163380.153678,3849.070898,-7179.997637,5515.887586
163380.153997,3701.029710,-6291.750507,4213.525239
163380.154317,-74.020594,-6513.812290,-1532.190996
163380.154636,-74.020594,-9474.636058,-4979.620737
163380.154955,-4145.153275,-10732.986159,-2451.505594
163380.155275,-2442.679609,-12583.501014,76.609550
163380.155594,-4441.235652,-11547.212695,-1685.410096
163380.155913,-3478.967927,-10362.883188,-2911.162892
163380.156233,0.000000,-9548.656652,-3064.381992
163380.156552,4589.276840,-8956.491898,2374.896044
163380.156871,3552.988522,-5995.668130,5515.887586
163380.157191,2960.823768,-4145.153275,2451.505594
163380.157510,2294.638420,-7105.977043,-76.609550
163380.157829,-74.020594,-9178.553681,-2528.115143
163380.158149,-2368.659014,-10732.986159,0.000000
163380.158468,-3923.091493,-11843.295072,-76.609550
163380.158787,-5625.565159,-11473.192101,-2757.943793
163380.159107,-3775.050304,-11325.150913,-4673.182538
163380.159426,-1554.432478,-9548.656652,-3983.696590
163380.159745,1850.514855,-9696.697840,1915.238745
163380.160065,1036.288319,-7994.224174,3600.648841
163380.160384,-2368.659014,-4811.338623,0.000000
163380.160703,-74.020594,-6735.874072,-2451.505594
163380.161023,2294.638420,-9474.636058,-76.609550
163380.161342,0.000000,-11473.192101,1532.190996
163380.161661,-1258.350101,-11325.150913,1762.019645
163380.161981,-3108.864956,-9770.718434,-459.657299
163380.162300,-1850.514855,-10066.800811,-2221.676944
163380.162619,0.000000,-8364.327145,0.000000
163380.162939,3775.050304,-10658.965565,4213.525239
163380.163258,1110.308913,-6439.791695,2681.334243
163380.163577,-2368.659014,-5403.503377,-1225.752797
163380.163897,-2368.659014,-6587.832884,-3677.258390
163380.164216,-1480.411884,-11621.233289,-306.438199
163380.164535,-2664.741391,-10140.821405,612.876398
163380.164855,-3404.947333,-9622.677246,919.314598
163380.165174,-3256.906145,-8734.430116,-919.314598
163380.165493,-2368.659014,-7476.080014,-3677.258390
163380.165813,2960.823768,-9844.739029,2145.067394
163380.166132,3997.112087,-10658.965565,4826.401637
163380.166451,-74.020594,-7846.182985,1608.800546
163380.166771,-2442.679609,-6513.812290,-4596.572988
163380.167090,-2960.823768,-8660.409521,-5515.887586
163380.167409,-2368.659014,-10732.986159,-4290.134789
163380.167729,-814.226536,-12657.521608,76.609550
163380.168048,-2442.679609,-11029.068536,-842.705048
163380.168367,-2516.700203,-9252.574275,-2451.505594
163380.168687,2886.803174,-8882.471304,-2528.115143
163380.169006,5625.565159,-9252.574275,3064.381992
163380.169325,7105.977043,-7179.997637,4903.011187
163380.169645,2368.659014,-4811.338623,4903.011187
163380.169964,1776.494261,-6143.709319,-76.609550
163380.170283,-1776.494261,-7179.997637,-3064.381992
163380.170603,-1258.350101,-11251.130318,-2834.553343
163380.170922,-3627.009116,-12139.377449,-459.657299
163380.171241,-4811.338623,-12139.377449,-1838.629195
163380.171561,-2960.823768,-9548.656652,-4826.401637
163380.171880,3478.967927,-11843.295072,-1302.362347
163380.172199,3404.947333,-9844.739029,2604.724693
163380.172519,3775.050304,-8142.265362,5286.058936
163380.172838,1702.473667,-5403.503377,1685.410096
163380.173157,-1184.329507,-4811.338623,-2451.505594
163380.173477,-1184.329507,-7254.018232,-4903.011187
163380.173796,-2072.576638,-10881.027347,0.000000
163380.174115,-1850.514855,-12953.603985,1762.019645
163380.174435,-4219.173869,-10658.965565,-3447.429741
163380.174754,-5403.503377,-9548.656652,-7354.516781
163380.175073,-74.020594,-12657.521608,-1302.362347
163380.175393,3849.070898,-10732.986159,3140.991542
163380.175712,3849.070898,-7550.100608,4213.525239
163380.176032,814.226536,-5403.503377,1072.533697
163380.176351,74.020594,-7105.977043,-1302.362347
163380.176670,370.102971,-9030.512492,-1915.238745
163380.176990,-1258.350101,-10658.965565,-76.609550
163380.177309,-4737.318029,-9548.656652,0.000000
163380.177628,-3552.988522,-10510.924376,-995.924147
163380.177948,-3552.988522,-7772.162391,-4903.011187
163380.178267,2886.803174,-11177.109724,689.485948
163380.178586,2960.823768,-10510.924376,3907.087040
163380.178906,444.123565,-7846.182985,3524.039291
163380.179225,-2072.576638,-5033.400406,-2528.115143
163380.179544,-1258.350101,-7105.977043,-3140.991542
163380.179864,-1258.350101,-10658.965565,-1302.362347
163380.180183,-1850.514855,-10658.965565,1302.362347
163380.180502,-3404.947333,-9548.656652,612.876398
163380.180822,-3552.988522,-10362.883188,-1532.190996
163380.181141,-5921.647536,-7772.162391,-4749.792088
163380.181460,740.205942,-11029.068536,229.828649
163380.181780,2516.700203,-9252.574275,3907.087040
163380.182099,740.205942,-7846.182985,1915.238745
163380.182418,-1554.432478,-7105.977043,-2528.115143
163380.182738,-74.020594,-11251.130318,-2221.676944
163380.183057,-74.020594,-11251.130318,-1302.362347
163380.183376,-1184.329507,-10436.903782,229.828649
163380.183696,-3997.112087,-8364.327145,-1225.752797
163380.184015,-1184.329507,-11843.295072,842.705048
163380.184334,0.000000,-7772.162391,-2451.505594
163380.184653,4441.235652,-11103.089130,2681.334243
163380.184972,3552.988522,-8808.450710,4519.963438
163380.185292,518.144159,-6735.874072,1149.143247
163380.185611,-74.020594,-7105.977043,-3753.867940
163380.185930,148.041188,-9326.594869,-3753.867940
163380.186249,1702.473667,-12139.377449,-76.609550
163380.186568,-1258.350101,-11843.295072,-76.609550
163380.186888,-4737.318029,-8512.368333,-2068.457845
163380.187207,-1850.514855,-11251.130318,-1302.362347
163380.187526,0.000000,-9548.656652,0.000000
163380.187845,4959.379811,-9474.636058,4213.525239
163380.188164,5329.482782,-6957.935855,6052.154434
163380.188483,1776.494261,-4811.338623,2834.553343
163380.188803,-370.102971,-5773.606348,-1378.971896
163380.189122,-148.041188,-9474.636058,-3140.991542
163380.189441,-1258.350101,-13619.789333,-76.609550
163380.189760,-4515.256246,-11103.089130,-2145.067394
163380.190079,-5625.565159,-10732.986159,-3983.696590
163380.190399,-74.020594,-11843.295072,-3753.867940
163380.190718,1258.350101,-10436.903782,0.000000
163380.191037,4071.132681,-9474.636058,3370.820191
163380.191356,2368.659014,-6957.935855,3677.258390
163380.191675,0.000000,-5995.668130,153.219100
163380.191994,0.000000,-6587.832884,-3217.601092
163380.192314,2294.638420,-12435.459826,-689.485948
163380.192633,444.123565,-10732.986159,229.828649
163380.192952,-2368.659014,-10732.986159,153.219100
163380.193271,-4367.215058,-8364.327145,-3677.258390
163380.193590,-74.020594,-10658.965565,-2834.553343
163380.193909,1480.411884,-10881.027347,459.657299
163380.194229,3849.070898,-9918.759623,3907.087040
163380.194548,2146.597232,-6587.832884,3294.210641
163380.194867,888.247130,-6883.915261,1225.752797
163380.195186,-3256.906145,-4811.338623,-3983.696590
163380.195505,296.082377,-10140.821405,-383.047749
163380.195825,-1258.350101,-10658.965565,2068.457845
163380.196144,-4515.256246,-8216.285956,-766.095498
163380.196463,-5921.647536,-7772.162391,-3677.258390
163380.196782,-666.185348,-10955.047942,-1608.800546
163380.197101,1628.453072,-10584.944971,1302.362347
163380.197420,1110.308913,-9696.697840,3447.429741
163380.197740,-1258.350101,-6809.894666,-76.609550
163380.198059,-3849.070898,-5773.606348,-3753.867940
163380.198378,-3256.906145,-7179.997637,-6588.421283
163380.198697,0.000000,-9844.739029,-3677.258390
163380.199016,0.000000,-12657.521608,2451.505594
163380.199336,-370.102971,-11843.295072,1532.190996
163380.199655,-5921.647536,-7179.997637,-3370.820191
163380.199974,222.061783,-10362.883188,-1532.190996
163380.200293,4367.215058,-10214.842000,3370.820191
163380.200612,4885.359217,-8586.388927,5515.887586
163380.200931,3182.885551,-6809.894666,1762.019645
163380.201251,-74.020594,-6513.812290,-2528.115143
163380.201570,-962.267725,-9474.636058,-2528.115143
163380.201889,-888.247130,-10066.800811,-1762.019645
163380.202208,-2812.782580,-10732.986159,1225.752797
163380.202527,-2072.576638,-12731.542202,2068.457845
163380.202847,-3997.112087,-9548.656652,-2451.505594
163380.203166,0.000000,-9992.780217,-612.876398
163380.203485,2590.720797,-9474.636058,3140.991542
163380.203804,1554.432478,-7105.977043,3447.429741
163380.204123,-666.185348,-4811.338623,-1302.362347
163380.204442,-1850.514855,-8882.471304,-2528.115143
163380.204762,-1258.350101,-8734.430116,-4443.353888
163380.205081,0.000000,-11917.315666,0.000000
163380.205400,-2368.659014,-10732.986159,1225.752797
163380.205719,-4737.318029,-9548.656652,-2451.505594
163380.206038,-3330.926739,-9400.615463,-4060.306139
163380.206358,888.247130,-10732.986159,-612.876398
163380.206677,4737.318029,-9844.739029,3600.648841
163380.206996,3330.926739,-6217.729913,2068.457845
163380.207315,74.020594,-5551.544565,0.000000
163380.207634,-1036.288319,-7476.080014,-2451.505594
163380.207953,1110.308913,-10066.800811,-76.609550
163380.208273,2294.638420,-12435.459826,-76.609550
163380.208592,-4737.318029,-9548.656652,0.000000
163380.208911,-3775.050304,-9400.615463,-1991.848295
163380.209230,-1258.350101,-10362.883188,-1532.190996
163380.209549,2442.679609,-10362.883188,1762.019645
163380.209868,3775.050304,-9030.512492,4443.353888
163380.210188,4071.132681,-8290.306550,3600.648841
163380.210507,-1184.329507,-4811.338623,-1838.629195
163380.210826,-740.205942,-7105.977043,-3677.258390
163380.211145,444.123565,-10362.883188,-1532.190996
163380.211464,-888.247130,-11621.233289,2374.896044
163380.211784,-4737.318029,-10732.986159,1225.752797
163380.212103,-8290.306550,-8364.327145,-4903.011187
163380.212422,-1850.514855,-11547.212695,-2528.115143
163380.212741,1110.308913,-11251.130318,536.266849
163380.213060,2664.741391,-8660.409521,1532.190996
163380.213379,2886.803174,-7105.977043,1762.019645
163380.213699,-1480.411884,-5551.544565,-1838.629195
163380.214018,-814.226536,-7476.080014,-3064.381992
163380.214337,296.082377,-10066.800811,-76.609550
163380.214656,296.082377,-11029.068536,2451.505594
163380.214975,-1332.370696,-10362.883188,842.705048
163380.215295,-3849.070898,-9548.656652,-2451.505594
163380.215614,1998.556043,-11177.109724,153.219100
163380.215933,4959.379811,-11843.295072,4213.525239
163380.216252,0.000000,-6587.832884,1225.752797
163380.216571,-74.020594,-7105.977043,-76.609550
163380.216890,-1924.535449,-6365.771101,-4136.915689
163380.217210,148.041188,-9252.574275,-3524.039291
163380.217529,1258.350101,-11621.233289,995.924147
163380.217848,-74.020594,-11843.295072,2374.896044
163380.218167,-2294.638420,-9918.759623,-383.047749
163380.218486,-4145.153275,-6883.915261,-5286.058936
163380.218806,-2368.659014,-7772.162391,0.000000
163380.219125,3256.906145,-10881.027347,3677.258390
163380.219444,1184.329507,-5995.668130,3677.258390
163380.219763,-74.020594,-5921.647536,-153.219100
163380.220082,-2220.617826,-6365.771101,-3830.477490
163380.220401,-1776.494261,-9622.677246,-3217.601092
163380.220721,-1258.350101,-10881.027347,-536.266849
163380.221040,-1850.514855,-11251.130318,-76.609550
163380.221359,-4663.297435,-8142.265362,-2834.553343
163380.221678,-3552.988522,-8660.409521,-2451.505594
163380.221997,1924.535449,-10288.862594,1225.752797
163380.222317,4663.297435,-10658.965565,6052.154434
163380.222636,0.000000,-5403.503377,3064.381992
163380.222955,-814.226536,-6143.709319,-2068.457845
163380.223274,-222.061783,-7550.100608,-4366.744339
163380.223593,814.226536,-10436.903782,-1915.238745
163380.223912,-74.020594,-10955.047942,536.266849
163380.224232,-1258.350101,-12731.542202,1762.019645
163380.224551,-4811.338623,-9474.636058,-3753.867940
163380.224870,-4293.194464,-10140.821405,-3677.258390
163380.225189,-814.226536,-8512.368333,0.000000
163380.225508,5847.626942,-11843.295072,6971.469032
163380.225828,1776.494261,-5995.668130,3370.820191
163380.226147,-74.020594,-5181.441594,-383.047749
163380.226466,0.000000,-5921.647536,-2145.067394
163380.226785,518.144159,-9400.615463,0.000000
163380.227104,-74.020594,-10807.006753,2145.067394
163380.227423,-1554.432478,-11843.295072,-76.609550
163380.227743,-3330.926739,-10807.006753,-229.828649
163380.228062,-74.020594,-13027.624579,-2528.115143
163380.228381,518.144159,-10732.986159,76.609550
163380.228700,2294.638420,-10658.965565,3600.648841
163380.229019,-2146.597232,-6069.688724,-919.314598
163380.229338,-2368.659014,-6883.915261,-4749.792088
163380.229658,0.000000,-8882.471304,-4136.915689
163380.229977,1776.494261,-10881.027347,1838.629195
163380.230296,1184.329507,-10140.821405,3677.258390
163380.230615,-1702.473667,-9548.656652,0.000000
163380.230934,-1702.473667,-11103.089130,-1072.533697
163380.231254,-74.020594,-9474.636058,-1608.800546
163380.231573,2220.617826,-8660.409521,1455.581446
163380.231892,5847.626942,-9474.636058,5439.278036
163380.232211,1480.411884,-6587.832884,919.314598
163380.232530,-592.164754,-6587.832884,-2681.334243
163380.232849,-222.061783,-8438.347739,-2681.334243
163380.233169,-888.247130,-11917.315666,1915.238745
163380.233488,-2072.576638,-9844.739029,0.000000
163380.233807,-4737.318029,-9548.656652,0.000000
163380.234126,-2220.617826,-10066.800811,-1302.362347
163380.234445,2886.803174,-11843.295072,2374.896044
163380.234765,592.164754,-6661.853478,306.438199
163380.235084,1998.556043,-8142.265362,3294.210641
163380.235403,-1628.453072,-5625.565159,-1608.800546
163380.235722,-2590.720797,-7698.141797,-4596.572988
163380.236041,-1110.308913,-11177.109724,-3524.039291
163380.236360,-1184.329507,-11917.315666,153.219100
163380.236680,-3923.091493,-10436.903782,-1225.752797
163380.236999,-5329.482782,-9548.656652,-3064.381992
163380.237318,-3256.906145,-9844.739029,-3677.258390
163380.237637,2294.638420,-11843.295072,536.266849
163380.237956,1184.329507,-7179.997637,2451.505594
163380.238276,3923.091493,-7105.977043,3830.477490
163380.238595,592.164754,-5181.441594,-612.876398
163380.238914,-222.061783,-7402.059420,-2451.505594
163380.239233,1702.473667,-9474.636058,-1302.362347
163380.239552,1406.391290,-11251.130318,2374.896044
163380.239871,-1998.556043,-10584.944971,1915.238745
163380.240191,-4219.173869,-8438.347739,-2681.334243
163380.240510,-2368.659014,-9844.739029,-2145.067394
163380.240829,2516.700203,-11769.274478,4136.915689
163380.241148,1184.329507,-7772.162391,3064.381992
163380.241467,222.061783,-5995.668130,1149.143247
163380.241787,-1998.556043,-5107.421000,-2374.896044
163380.242106,-888.247130,-7624.121203,-3907.087040
163380.242425,-74.020594,-10066.800811,-1915.238745
163380.242744,-1258.350101,-11473.192101,1762.019645
163380.243063,-4219.173869,-9474.636058,-2221.676944
163380.243382,-7624.121203,-9844.739029,-4903.011187
163380.243702,-2960.823768,-10732.986159,-4903.011187
163380.244021,0.000000,-10732.986159,1225.752797
163380.244340,4367.215058,-9326.594869,4290.134789
163380.244659,1850.514855,-6513.812290,1225.752797
163380.244978,-148.041188,-6069.688724,-2528.115143
163380.245297,-370.102971,-6291.750507,-4366.744339
163380.245617,888.247130,-11843.295072,306.438199
163380.245936,-2368.659014,-10732.986159,1532.190996
163380.246255,-1850.514855,-11695.253884,459.657299
163380.246574,-1702.473667,-11621.233289,-76.609550
163380.246893,444.123565,-9844.739029,0.000000
163380.247213,2886.803174,-7920.203579,2374.896044
163380.247532,2664.741391,-7254.018232,3447.429741
163380.247851,-370.102971,-5625.565159,0.000000
163380.248170,-740.205942,-6143.709319,-3907.087040
163380.248489,1702.473667,-10658.965565,-1302.362347
163380.248808,444.123565,-12065.356855,995.924147
163380.249128,-2812.782580,-10140.821405,0.000000
163380.249447,-7105.977043,-7772.162391,-3677.258390
163380.249766,-4145.153275,-9844.739029,-3677.258390
163380.250085,74.020594,-9548.656652,-2451.505594
163380.250404,4959.379811,-10362.883188,5286.058936
163380.250724,4737.318029,-6439.791695,4596.572988
163380.251043,814.226536,-5033.400406,-383.047749
163380.251362,-888.247130,-7179.997637,-3294.210641
163380.251681,-518.144159,-11399.171507,-995.924147
163380.252000,-1184.329507,-10955.047942,459.657299
163380.252319,-2220.617826,-11177.109724,76.609550
163380.252639,-3627.009116,-10881.027347,-1991.848295
163380.252958,-2960.823768,-9548.656652,-3677.258390
163380.253277,962.267725,-10140.821405,612.876398
163380.253596,4367.215058,-9474.636058,2374.896044
163380.253915,296.082377,-6587.832884,1225.752797
163380.254235,-3256.906145,-4811.338623,-3677.258390
163380.254554,-74.020594,-7994.224174,-3753.867940
163380.254873,2812.782580,-12065.356855,-76.609550
163380.255192,74.020594,-11843.295072,1838.629195
163380.255511,-3034.844362,-10436.903782,76.609550
163380.255830,-4145.153275,-9548.656652,-2528.115143
163380.256150,-1850.514855,-9844.739029,-1762.019645
163380.256469,2886.803174,-10807.006753,2068.457845
163380.256788,4959.379811,-8734.430116,5286.058936
163380.257107,3330.926739,-5625.565159,2374.896044
163380.257426,-1332.370696,-4811.338623,-2145.067394
163380.257746,-74.020594,-7105.977043,-4366.744339
163380.258065,-1036.288319,-10584.944971,-766.095498
163380.258384,-2146.597232,-11399.171507,1455.581446
163380.258703,-4145.153275,-11325.150913,-383.047749
163380.259022,-4811.338623,-10288.862594,-1991.848295
163380.259341,-444.123565,-11547.212695,-76.609550
163380.259661,2294.638420,-9918.759623,2451.505594
163380.259980,4071.132681,-8882.471304,2987.772442
163380.260299,-1702.473667,-5403.503377,0.000000
163380.260618,-2664.741391,-6439.791695,-4290.134789
163380.260937,-1850.514855,-7328.038826,-5439.278036
163380.261256,-444.123565,-11843.295072,-612.876398
163380.261576,-1924.535449,-11769.274478,766.095498
163380.261895,-4515.256246,-10807.006753,-1762.019645
163380.262214,-2442.679609,-12435.459826,-2528.115143
163380.262533,2886.803174,-12435.459826,0.000000
163380.262852,5921.647536,-11029.068536,5056.230287
163380.263172,6365.771101,-8068.244768,6052.154434
163380.263491,3775.050304,-7105.977043,3830.477490
163380.263810,-2368.659014,-4811.338623,-2451.505594
163380.264129,-1258.350101,-8438.347739,-3753.867940
163380.264448,-740.205942,-11251.130318,1225.752797
163380.264767,-2590.720797,-10881.027347,1225.752797
163380.265087,-3701.029710,-10732.986159,-459.657299
163380.265406,-1406.391290,-11251.130318,-1608.800546
163380.265725,0.000000,-9548.656652,0.000000
163380.266044,2664.741391,-9548.656652,3370.820191
163380.266363,1184.329507,-7179.997637,3064.381992
163380.266683,-370.102971,-7698.141797,-689.485948
163380.267002,-2368.659014,-7179.997637,-2451.505594
163380.267321,-666.185348,-9474.636058,-2681.334243
163380.267640,0.000000,-11917.315666,0.000000
163380.267959,-1998.556043,-11251.130318,-153.219100
163380.268278,-5033.400406,-10140.821405,-4596.572988
163380.268598,-2886.803174,-9844.739029,-5975.544884
163380.268917,1480.411884,-11029.068536,-612.876398
163380.269236,3552.988522,-9548.656652,3677.258390
163380.269555,3997.112087,-7476.080014,3677.258390
163380.269874,1110.308913,-7105.977043,-76.609550
163380.270194,0.000000,-7179.997637,-1532.190996
163380.270513,518.144159,-9844.739029,-1532.190996
163380.270832,-296.082377,-11621.233289,1685.410096
163380.271151,-2146.597232,-10658.965565,766.095498
163380.271470,-4737.318029,-7179.997637,-2451.505594
163380.271789,-1776.494261,-8364.327145,-1838.629195
163380.272109,0.000000,-7179.997637,612.876398
163380.272428,2368.659014,-8068.244768,4903.011187
163380.272747,1110.308913,-6439.791695,1225.752797
163380.273066,-74.020594,-7105.977043,-2528.115143
163380.273385,-2294.638420,-8808.450710,-3677.258390
163380.273705,-1332.370696,-11251.130318,-1915.238745
163380.274024,-2442.679609,-11473.192101,919.314598
163380.274343,-4663.297435,-10658.965565,-1378.971896
163380.274662,-7105.977043,-8364.327145,-5975.544884
163380.274981,-74.020594,-11251.130318,-2834.553343
163380.275300,2442.679609,-9622.677246,1225.752797
163380.275620,4737.318029,-8364.327145,2451.505594
163380.275939,3552.988522,-7698.141797,3907.087040
163380.276258,-74.020594,-6809.894666,-3753.867940
163380.276577,-1628.453072,-8364.327145,-3677.258390
163380.276896,-1554.432478,-11399.171507,-1225.752797
163380.277216,-1554.432478,-11621.233289,995.924147
163380.277535,-2442.679609,-11843.295072,1149.143247
163380.277854,-2220.617826,-10732.986159,-153.219100
163380.278173,2294.638420,-10510.924376,842.705048
163380.278492,3034.844362,-9474.636058,3600.648841
163380.278811,1480.411884,-5551.544565,3064.381992
163380.279131,0.000000,-4811.338623,0.000000
163380.279450,-1554.432478,-6513.812290,-4366.744339
163380.279769,-1036.288319,-9548.656652,-2987.772442
163380.280088,-444.123565,-11325.150913,536.266849
163380.280407,-2442.679609,-10658.965565,536.266849
163380.280726,-3034.844362,-11843.295072,-76.609550
163380.281046,-2516.700203,-9474.636058,-3753.867940
163380.281365,1332.370696,-11473.192101,1225.752797
163380.281684,5255.462188,-11103.089130,4826.401637
163380.282003,2886.803174,-7402.059420,3753.867940
163380.282322,-3552.988522,-3627.009116,0.000000
163380.282642,-2442.679609,-6735.874072,-4366.744339
163380.282961,-1628.453072,-9844.739029,-2987.772442
163380.283280,-1258.350101,-11917.315666,383.047749
163380.283599,-2072.576638,-11325.150913,612.876398
163380.283918,-1258.350101,-11251.130318,-76.609550
163380.284237,-1184.329507,-8364.327145,-1838.629195
163380.284556,4663.297435,-11251.130318,2374.896044
163380.284876,4663.297435,-8586.388927,4213.525239
163380.285195,3478.967927,-7698.141797,2451.505594
163380.285514,-2442.679609,-3701.029710,-3907.087040
163380.285833,-444.123565,-8512.368333,-4366.744339
163380.286152,1110.308913,-11843.295072,-1915.238745
163380.286471,-1110.308913,-12213.398043,1149.143247
163380.286790,-1554.432478,-13027.624579,-76.609550
163380.287109,-3627.009116,-9622.677246,-3294.210641
163380.287429,-962.267725,-8956.491898,-2911.162892
163380.287748,3256.906145,-8364.327145,0.000000
163380.288067,4737.318029,-8660.409521,7354.516781
163380.288386,4663.297435,-4737.318029,2987.772442
163380.288705,1110.308913,-6217.729913,-1302.362347
163380.289024,-2368.659014,-7105.977043,-4213.525239
163380.289343,-2738.761985,-10362.883188,-2451.505594
163380.289662,-2886.803174,-12287.418637,0.000000
163380.289982,-4441.235652,-11917.315666,306.438199
163380.290301,-4589.276840,-9548.656652,-3294.210641
163380.290620,-666.185348,-9622.677246,-1378.971896
163380.290939,3256.906145,-9474.636058,2374.896044
163380.291258,3552.988522,-7550.100608,2451.505594
163380.291577,-814.226536,-3923.091493,153.219100
163380.291896,-74.020594,-5921.647536,-3753.867940
163380.292215,-1554.432478,-8364.327145,-4596.572988
163380.292535,0.000000,-12509.480420,0.000000
163380.292854,-1258.350101,-11843.295072,-76.609550
163380.293173,-2960.823768,-11917.315666,-76.609550
163380.293492,-2664.741391,-10436.903782,-4213.525239
163380.293811,1332.370696,-10807.006753,-1532.190996
163380.294130,4515.256246,-11177.109724,4136.915689
163380.294449,3849.070898,-7476.080014,5439.278036
163380.294768,296.082377,-6439.791695,1685.410096
163380.295088,-2146.597232,-6217.729913,-3294.210641
163380.295407,-3256.906145,-7179.997637,-6128.763984
163380.295726,-3552.988522,-11029.068536,612.876398
163380.296045,-74.020594,-11251.130318,2374.896044
163380.296364,-2072.576638,-10362.883188,995.924147
163380.296683,-2590.720797,-9030.512492,-1378.971896
163380.297002,1036.288319,-9474.636058,229.828649
163380.297321,2812.782580,-9844.739029,3447.429741
163380.297641,592.164754,-8438.347739,4060.306139
163380.297960,-3330.926739,-7179.997637,-2145.067394
163380.298279,-3034.844362,-10362.883188,-3753.867940
163380.298598,-1258.350101,-11843.295072,-4366.744339
163380.298917,-2442.679609,-11843.295072,-842.705048
163380.299236,-3034.844362,-10362.883188,-3140.991542
163380.299555,-3923.091493,-9252.574275,-2604.724693
163380.299875,-592.164754,-9252.574275,-2681.334243
163380.300194,4589.276840,-10066.800811,2145.067394
163380.300513,7476.080014,-10362.883188,8197.221829
163380.300832,6439.791695,-8882.471304,7277.907231
163380.301151,2072.576638,-7550.100608,1838.629195
163380.301470,-74.020594,-8290.306550,-4213.525239
163380.301789,-2812.782580,-10732.986159,-2834.553343
163380.302108,-3552.988522,-11917.315666,0.000000
163380.302428,-3330.926739,-10881.027347,-995.924147
163380.302747,-3034.844362,-10732.986159,-1838.629195
163380.303066,-296.082377,-9400.615463,-1838.629195
163380.303385,3034.844362,-8956.491898,2528.115143
163380.303704,7031.956449,-9474.636058,6052.154434
163380.304023,1480.411884,-4811.338623,2068.457845
163380.304342,-1776.494261,-5699.585753,-1838.629195
163380.304661,-1554.432478,-8290.306550,-3983.696590
163380.304981,-666.185348,-13323.706956,-689.485948
163380.305300,-4737.318029,-11917.315666,0.000000
163380.305619,-5181.441594,-11325.150913,-2987.772442
163380.305938,-4071.132681,-10881.027347,-4519.963438
163380.306257,74.020594,-10881.027347,-2987.772442
163380.306576,4663.297435,-11103.089130,2987.772442
163380.306895,5995.668130,-7254.018232,4673.182538
163380.307214,888.247130,-4811.338623,919.314598
163380.307534,-1776.494261,-5995.668130,-4903.011187
163380.307853,-74.020594,-10658.965565,-2834.553343
163380.308172,-370.102971,-11843.295072,-76.609550
163380.308491,-2072.576638,-12213.398043,3064.381992
163380.308810,-2590.720797,-10214.842000,-612.876398
163380.309129,-1554.432478,-9400.615463,-2145.067394
163380.309448,1776.494261,-10214.842000,383.047749
163380.309767,3108.864956,-8364.327145,2451.505594
163380.310087,1924.535449,-5995.668130,2757.943793
163380.310406,0.000000,-5921.647536,-76.609550
163380.310725,-3552.988522,-4811.338623,-4903.011187
163380.311044,-1184.329507,-9548.656652,-3064.381992
163380.311363,-74.020594,-13619.789333,-76.609550
163380.311682,-2368.659014,-12065.356855,1302.362347
163380.312001,-5625.565159,-10288.862594,-2987.772442
163380.312320,-3997.112087,-9770.718434,-4826.401637
163380.312640,518.144159,-11547.212695,-689.485948
163380.312959,1184.329507,-9548.656652,3370.820191
163380.313278,1924.535449,-7105.977043,3600.648841
163380.313597,-1850.514855,-4367.215058,-1608.800546
163380.313916,-2368.659014,-6587.832884,-3983.696590
163380.314235,-74.020594,-11621.233289,-153.219100
163380.314554,-74.020594,-11843.295072,1149.143247
163380.314874,-2368.659014,-10288.862594,1225.752797
163380.315193,-3404.947333,-10140.821405,-1915.238745
163380.315512,-1554.432478,-10214.842000,-3370.820191
163380.315831,1332.370696,-11695.253884,1149.143247
163380.316150,666.185348,-8882.471304,2911.162892
163380.316469,1702.473667,-8290.306550,1762.019645
163380.316788,-2072.576638,-6143.709319,-2374.896044
163380.317107,-2368.659014,-5995.668130,-4903.011187
163380.317427,0.000000,-9548.656652,0.000000
163380.317746,-74.020594,-10658.965565,1149.143247
163380.318065,-2738.761985,-9844.739029,459.657299
163380.318384,-3627.009116,-8808.450710,-2145.067394
163380.318703,148.041188,-9326.594869,-1762.019645
163380.319022,5847.626942,-13027.624579,4826.401637
163380.319341,5403.503377,-9474.636058,7277.907231
163380.319660,1702.473667,-6513.812290,4213.525239
163380.319980,-666.185348,-6513.812290,-3140.991542
163380.320299,-4737.318029,-7179.997637,-6741.640382
163380.320618,-4737.318029,-10732.986159,-3677.258390
163380.320937,-2146.597232,-11695.253884,-229.828649
163380.321256,-3256.906145,-10732.986159,-766.095498
163380.321575,-2960.823768,-9622.677246,-2145.067394
163380.321894,814.226536,-9474.636058,-1532.190996
163380.322213,6735.874072,-11843.295072,4826.401637
163380.322533,4663.297435,-8068.244768,5209.449386
163380.322852,4071.132681,-8290.306550,1762.019645
163380.323171,-1258.350101,-6291.750507,-3830.477490
163380.323490,-592.164754,-9548.656652,-4903.011187
163380.323809,-74.020594,-11399.171507,-2681.334243
163380.324128,-1702.473667,-12435.459826,459.657299
163380.324447,-3849.070898,-11325.150913,-2221.676944
163380.324766,-2368.659014,-9918.759623,-3140.991542
163380.325086,2590.720797,-11547.212695,-76.609550
163380.325405,4737.318029,-9548.656652,4290.134789
163380.325724,3182.885551,-6365.771101,3677.258390
163380.326043,0.000000,-5107.421000,612.876398
163380.326362,-1776.494261,-5995.668130,-1838.629195
163380.326681,-666.185348,-8882.471304,-3907.087040
163380.327000,-74.020594,-13619.789333,1455.581446
163380.327319,-2738.761985,-11769.274478,1455.581446
163380.327639,-3997.112087,-9918.759623,-1225.752797
163380.327958,-2516.700203,-9474.636058,-2834.553343
163380.328277,0.000000,-10732.986159,1378.971896
163380.328596,2146.597232,-9474.636058,2987.772442
163380.328915,1110.308913,-7402.059420,2681.334243
163380.329234,-74.020594,-7105.977043,-1302.362347
163380.329553,-2960.823768,-6587.832884,-4290.134789
163380.329873,-74.020594,-11251.130318,-1302.362347
163380.330192,-1776.494261,-11029.068536,306.438199
163380.330511,-2960.823768,-11325.150913,-689.485948
163380.330830,-4811.338623,-10362.883188,-2987.772442
163380.331149,-1628.453072,-10955.047942,-1608.800546
163380.331468,0.000000,-9548.656652,0.000000
163380.331787,5699.585753,-10288.862594,5132.839837
163380.332106,2960.823768,-7031.956449,3447.429741
163380.332426,-444.123565,-5995.668130,-1378.971896
163380.332745,-370.102971,-7105.977043,-4366.744339
163380.333064,1406.391290,-10881.027347,-919.314598
163380.333383,1110.308913,-13027.624579,2987.772442
163380.333702,-2294.638420,-9918.759623,1072.533697
163380.334021,-3330.926739,-7254.018232,-1915.238745
163380.334340,962.267725,-10732.986159,1072.533697
163380.334659,1184.329507,-8660.409521,1838.629195
163380.334979,2368.659014,-8882.471304,4213.525239
163380.335298,-888.247130,-6587.832884,995.924147
163380.335617,-3404.947333,-6883.915261,-4366.744339
163380.335936,-2442.679609,-8808.450710,-6588.421283
163380.336255,-2516.700203,-10658.965565,-2528.115143
163380.336574,-1998.556043,-11843.295072,612.876398
163380.336893,-2442.679609,-11843.295072,-689.485948
163380.337212,-2146.597232,-10066.800811,-3140.991542
163380.337532,2294.638420,-11843.295072,-76.609550
163380.337851,3997.112087,-9622.677246,3370.820191
163380.338170,4589.276840,-8808.450710,5362.668486
163380.338489,666.185348,-6735.874072,919.314598
163380.338808,-2220.617826,-6883.915261,-3677.258390
163380.339127,-3552.988522,-8364.327145,-4903.011187
163380.339446,0.000000,-11917.315666,-2451.505594
163380.339765,1110.308913,-13619.789333,3600.648841
163380.340085,-1258.350101,-10658.965565,-76.609550
163380.340404,-1998.556043,-6957.935855,-3447.429741
163380.340723,4663.297435,-12435.459826,1149.143247
163380.341042,4145.153275,-9252.574275,4060.306139
163380.341361,3034.844362,-7179.997637,4749.792088
163380.341680,-148.041188,-5699.585753,0.000000
163380.341999,-2368.659014,-6587.832884,-2451.505594
163380.342318,-2368.659014,-8660.409521,-3447.429741
163380.342638,-2368.659014,-11029.068536,306.438199
163380.342957,-1998.556043,-12435.459826,995.924147
163380.343276,-4811.338623,-11843.295072,-1302.362347
163380.343595,-3034.844362,-8586.388927,-5592.497135
163380.343914,2294.638420,-11843.295072,-76.609550
163380.344233,3256.906145,-9696.697840,3907.087040
163380.344552,2368.659014,-6809.894666,3677.258390
163380.344871,-814.226536,-5551.544565,-1378.971896
163380.345191,-1776.494261,-7179.997637,-4290.134789
163380.345510,-74.020594,-10066.800811,-3370.820191
163380.345829,0.000000,-11473.192101,1302.362347
163380.346148,-2368.659014,-10732.986159,1225.752797
163380.346467,-2294.638420,-10955.047942,-1455.581446
163380.346786,-2960.823768,-8512.368333,-5822.325785
163380.347105,3775.050304,-11843.295072,3064.381992
163380.347425,3552.988522,-9326.594869,4290.134789
163380.347744,1924.535449,-7105.977043,2451.505594
163380.348063,-444.123565,-5921.647536,-2528.115143
163380.348382,-74.020594,-8290.306550,-1915.238745
163380.348701,74.020594,-10066.800811,-919.314598
163380.349020,-962.267725,-9474.636058,842.705048
163380.349339,-4737.318029,-9548.656652,0.000000
163380.349658,-4145.153275,-9548.656652,-1225.752797
163380.349978,-2368.659014,-8660.409521,-2451.505594
163380.350297,3775.050304,-10658.965565,3370.820191
163380.350616,3997.112087,-8734.430116,5745.716235
163380.350935,148.041188,-5995.668130,1838.629195
163380.351254,-1258.350101,-6513.812290,-3753.867940
163380.351573,-1850.514855,-9474.636058,-5209.449386
163380.351892,-74.020594,-13027.624579,-1915.238745
163380.352211,-3478.967927,-11325.150913,919.314598
163380.352531,-2664.741391,-10510.924376,0.000000
163380.352850,-2368.659014,-9104.533087,612.876398
163380.353169,-1036.288319,-7772.162391,-1838.629195
163380.353488,3034.844362,-8660.409521,2757.943793
163380.353807,2960.823768,-7772.162391,4213.525239
163380.354126,814.226536,-6217.729913,536.266849
163380.354445,-74.020594,-7105.977043,-3600.648841
163380.354764,0.000000,-9548.656652,-2145.067394
163380.355084,1110.308913,-13027.624579,-76.609550
163380.355403,-2442.679609,-11843.295072,-76.609550
163380.355722,-5477.523971,-9326.594869,-3294.210641
163380.356041,-2516.700203,-11843.295072,-2528.115143
163380.356360,1036.288319,-10362.883188,-1838.629195
163380.356679,3923.091493,-10214.842000,3983.696590
163380.356998,2886.803174,-7476.080014,5132.839837
163380.357317,0.000000,-3923.091493,0.000000
163380.357637,0.000000,-4811.338623,-3524.039291
163380.357956,740.205942,-9844.739029,-1838.629195
163380.358275,2294.638420,-14211.954086,4213.525239
163380.358594,-1258.350101,-11251.130318,1149.143247
163380.358913,-3775.050304,-10214.842000,-1915.238745
163380.359232,-1702.473667,-11843.295072,-2528.115143
163380.359551,-814.226536,-10584.944971,-1225.752797
163380.359870,888.247130,-9474.636058,2451.505594
163380.360190,592.164754,-6957.935855,1838.629195
163380.360509,-2072.576638,-4811.338623,-1838.629195
163380.360828,0.000000,-6291.750507,-4290.134789
163380.361147,0.000000,-7476.080014,-2451.505594
163380.361466,1554.432478,-11843.295072,2987.772442
163380.361785,-1406.391290,-10214.842000,1149.143247
163380.362104,-3034.844362,-8586.388927,-3140.991542
163380.362424,-74.020594,-10658.965565,-1915.238745
163380.362743,2442.679609,-11399.171507,1762.019645
163380.363062,3997.112087,-9844.739029,4903.011187
163380.363381,1776.494261,-6365.771101,2374.896044
163380.363700,-2368.659014,-4811.338623,-2451.505594
163380.364019,-2590.720797,-6587.832884,-6741.640382
163380.364338,592.164754,-12361.439231,-306.438199
163380.364657,-74.020594,-12731.542202,3600.648841
163380.364977,-666.185348,-8438.347739,-689.485948
163380.365296,-74.020594,-11251.130318,-76.609550
163380.365615,74.020594,-9844.739029,-766.095498
163380.365934,2812.782580,-9770.718434,2757.943793
163380.366253,2220.617826,-8068.244768,4136.915689
163380.366572,0.000000,-7179.997637,612.876398
163380.366891,-2442.679609,-7698.141797,-3983.696590
163380.367210,-1850.514855,-9770.718434,-4979.620737
163380.367530,-1406.391290,-11843.295072,-1302.362347
163380.367849,-4441.235652,-10140.821405,0.000000
163380.368168,-3034.844362,-11843.295072,-76.609550
163380.368487,-4145.153275,-9548.656652,-3677.258390
163380.368806,370.102971,-10658.965565,-1302.362347
163380.369125,3775.050304,-9622.677246,2834.553343
163380.369444,3478.967927,-7994.224174,4596.572988
163380.369763,-2368.659014,-2442.679609,0.000000
163380.370083,-74.020594,-6809.894666,-3447.429741
163380.370402,222.061783,-9992.780217,-2987.772442
163380.370721,296.082377,-12435.459826,919.314598
163380.371040,-1924.535449,-11547.212695,1762.019645
163380.371359,-2442.679609,-10658.965565,-919.314598
163380.371678,-666.185348,-9474.636058,-3140.991542
163380.371997,0.000000,-9844.739029,0.000000
163380.372316,3478.967927,-9474.636058,3064.381992
163380.372636,3775.050304,-7476.080014,5669.106685
163380.372955,0.000000,-3627.009116,0.000000
163380.373274,-222.061783,-6143.709319,-3753.867940
163380.373593,-666.185348,-9844.739029,-1915.238745
163380.373912,-1554.432478,-11917.315666,1302.362347
163380.374231,-3330.926739,-11843.295072,76.609550
163380.374550,-5995.668130,-10732.986159,-3370.820191
163380.374869,-2442.679609,-11251.130318,-4366.744339
163380.375189,74.020594,-11547.212695,-76.609550
163380.375508,2738.761985,-8956.491898,2451.505594
163380.375827,3256.906145,-9178.553681,5745.716235
163380.376146,-1184.329507,-4811.338623,-2298.286494
163380.376465,0.000000,-7105.977043,-4443.353888
163380.376784,666.185348,-10584.944971,-1532.190996
163380.377103,296.082377,-12213.398043,2221.676944
163380.377423,-3552.988522,-9548.656652,0.000000
163380.377742,-3552.988522,-9622.677246,-2374.896044
163380.378061,-74.020594,-11621.233289,-153.219100
163380.378380,3478.967927,-11843.295072,2374.896044
163380.378699,3108.864956,-9326.594869,4366.744339
163380.379018,3478.967927,-8290.306550,3600.648841
163380.379337,0.000000,-4811.338623,-2451.505594
163380.379656,1110.308913,-7624.121203,-2911.162892
163380.379976,1036.288319,-10658.965565,459.657299
163380.380295,-1184.329507,-10732.986159,3677.258390
163380.380614,-4145.153275,-9548.656652,0.000000
163380.380933,-6513.812290,-7476.080014,-3677.258390
163380.381252,444.123565,-11251.130318,-689.485948
163380.381571,2886.803174,-11103.089130,4213.525239
163380.381890,2590.720797,-7328.038826,2374.896044
163380.382206,-74.020594,-7105.977043,1149.143247
163380.382525,-2072.576638,-5699.585753,-3983.696590
163380.382844,-888.247130,-8734.430116,-4443.353888
163380.383163,0.000000,-11917.315666,-76.609550
163380.383482,-2368.659014,-11325.150913,1532.190996
163380.383801,-3034.844362,-10510.924376,-76.609550
163380.384121,-4145.153275,-9548.656652,-2451.505594
163380.384440,592.164754,-10732.986159,-1838.629195
163380.384759,3701.029710,-11547.212695,3600.648841
163380.385078,518.144159,-5995.668130,306.438199
163380.385397,518.144159,-6809.894666,-383.047749
163380.385716,0.000000,-6365.771101,-3677.258390
163380.386035,740.205942,-9474.636058,-2757.943793
163380.386354,148.041188,-11843.295072,1225.752797
163380.386673,-2368.659014,-11325.150913,2681.334243
163380.386992,-2960.823768,-10214.842000,-76.609550
163380.387311,-1480.411884,-10584.944971,-1685.410096
163380.387631,2590.720797,-10362.883188,-76.609550
163380.387950,3182.885551,-9474.636058,4213.525239
163380.388269,1480.411884,-5107.421000,2451.505594
163380.388588,-962.267725,-5033.400406,-1225.752797
163380.388907,-1480.411884,-6735.874072,-4366.744339
163380.389226,-518.144159,-10140.821405,-3140.991542
163380.389545,-740.205942,-11325.150913,0.000000
163380.389864,-2590.720797,-10807.006753,-1455.581446
163380.390183,-4589.276840,-9844.739029,-1225.752797
163380.390502,-4145.153275,-9548.656652,-3677.258390
163380.390821,1702.473667,-11843.295072,995.924147
163380.391140,2886.803174,-11251.130318,4826.401637
163380.391460,0.000000,-6587.832884,3064.381992
163380.391779,-518.144159,-5699.585753,-2528.115143
163380.392098,-74.020594,-7772.162391,-4366.744339
163380.392417,444.123565,-11325.150913,-2068.457845
163380.392736,-1406.391290,-10140.821405,0.000000
163380.393055,-2886.803174,-9622.677246,229.828649
163380.393374,-1850.514855,-8586.388927,-2528.115143
163380.393693,0.000000,-9548.656652,-2221.676944
163380.394012,4145.153275,-9548.656652,1302.362347
163380.394331,6735.874072,-9474.636058,7277.907231
163380.394650,888.247130,-5699.585753,2757.943793
163380.394970,-1406.391290,-5403.503377,-2834.553343
163380.395289,-962.267725,-8364.327145,-4443.353888
163380.395608,-296.082377,-11769.274478,-229.828649
163380.395927,-3256.906145,-10732.986159,612.876398
163380.396246,-2442.679609,-10658.965565,-689.485948
163380.396565,-4663.297435,-9548.656652,-3677.258390
163380.396884,-1776.494261,-9030.512492,-3753.867940
163380.397203,1184.329507,-9548.656652,1532.190996
163380.397522,4663.297435,-8290.306550,2374.896044
163380.397841,518.144159,-5847.626942,842.705048
163380.398160,-1258.350101,-6365.771101,-3600.648841
163380.398480,-814.226536,-9326.594869,-3524.039291
163380.398799,-74.020594,-13323.706956,-76.609550
163380.399118,-2146.597232,-12361.439231,2987.772442
163380.399437,-3923.091493,-10362.883188,-1608.800546
163380.399756,-3627.009116,-9474.636058,-3140.991542
163380.400075,0.000000,-9548.656652,-2145.067394
163380.400394,2368.659014,-8364.327145,1225.752797
163380.400713,3182.885551,-6513.812290,2374.896044
163380.401032,0.000000,-5551.544565,-842.705048
163380.401351,-740.205942,-6587.832884,-4519.963438
163380.401670,296.082377,-9992.780217,-2834.553343
163380.401990,2886.803174,-15396.283594,3600.648841
163380.402309,370.102971,-11843.295072,3294.210641
163380.402628,-1110.308913,-11843.295072,1762.019645
163380.402947,-1258.350101,-10658.965565,-3140.991542
163380.403266,518.144159,-10955.047942,612.876398
163380.403585,0.000000,-7179.997637,3064.381992
163380.403904,2294.638420,-6513.812290,2911.162892
163380.404223,-666.185348,-5255.462188,-919.314598
163380.404542,-1110.308913,-6883.915261,-4366.744339
163380.404861,-1258.350101,-9622.677246,-2451.505594
163380.405180,-74.020594,-13915.871710,2374.896044
163380.405499,-4737.318029,-10140.821405,612.876398
163380.405819,-4071.132681,-10658.965565,-1378.971896
163380.406138,-1258.350101,-10066.800811,-2528.115143
163380.406457,3478.967927,-11547.212695,766.095498
163380.406776,1110.308913,-6291.750507,1915.238745
163380.407095,1036.288319,-6587.832884,1762.019645
163380.407414,-1480.411884,-5847.626942,-3677.258390
163380.407733,-1110.308913,-8882.471304,-5362.668486
163380.408052,1998.556043,-14211.954086,-76.609550
163380.408371,370.102971,-11843.295072,1991.848295
163380.408690,-2812.782580,-9548.656652,0.000000
163380.409009,-2960.823768,-7772.162391,-3983.696590
163380.409329,0.000000,-9548.656652,-1225.752797
163380.409648,3330.926739,-9104.533087,1149.143247
163380.409967,4663.297435,-8882.471304,4826.401637
163380.410286,1332.370696,-5477.523971,1072.533697
163380.410605,-666.185348,-5699.585753,-2987.772442
163380.410924,-370.102971,-8808.450710,-3907.087040
163380.411243,0.000000,-12509.480420,2068.457845
163380.411562,-2146.597232,-10658.965565,1532.190996
163380.411881,-4293.194464,-10066.800811,-459.657299
163380.412200,-3552.988522,-9474.636058,-2911.162892
163380.412519,740.205942,-9548.656652,0.000000
163380.412839,2368.659014,-7772.162391,2451.505594
163380.413158,4071.132681,-5921.647536,3753.867940
163380.413477,0.000000,-4811.338623,0.000000
163380.413796,-370.102971,-7105.977043,-3064.381992
163380.414115,-962.267725,-9474.636058,-4979.620737
163380.414434,-74.020594,-14211.954086,1532.190996
163380.414753,-2738.761985,-12435.459826,919.314598
163380.415072,-4145.153275,-10807.006753,-1532.190996
163380.415391,-2812.782580,-10436.903782,-4136.915689
163380.415710,-1406.391290,-9548.656652,-1302.362347
163380.416029,2664.741391,-10436.903782,3677.258390
163380.416349,3478.967927,-7105.977043,3600.648841
163380.416668,444.123565,-4441.235652,-1302.362347
163380.416987,-2368.659014,-4811.338623,-4290.134789
163380.417306,-74.020594,-10362.883188,-2528.115143
163380.417625,-148.041188,-12435.459826,2298.286494
163380.417944,-2516.700203,-11843.295072,1455.581446
163380.418263,-3256.906145,-9918.759623,-1225.752797
163380.418582,-1332.370696,-9548.656652,-2757.943793
163380.418901,2368.659014,-10436.903782,2681.334243
163380.419220,4145.153275,-8882.471304,5056.230287
163380.419539,1924.535449,-5921.647536,2987.772442
163380.419858,-2072.576638,-3923.091493,-2298.286494
163380.420178,-2368.659014,-6365.771101,-4903.011187
163380.420497,-666.185348,-10362.883188,-5286.058936
163380.420816,-1628.453072,-12287.418637,1532.190996
163380.421135,-3330.926739,-11325.150913,766.095498
163380.421454,-3997.112087,-9252.574275,-2221.676944
163380.421773,-1258.350101,-11251.130318,-2528.115143
163380.422092,2294.638420,-12731.542202,2374.896044
163380.422411,4071.132681,-11029.068536,6052.154434
163380.422730,2886.803174,-7550.100608,2374.896044
163380.423049,-1258.350101,-5995.668130,-3753.867940
163380.423368,-2368.659014,-7179.997637,-4903.011187
163380.423688,-962.267725,-10362.883188,-2528.115143
163380.424007,-370.102971,-11917.315666,2068.457845
163380.424326,-1998.556043,-10436.903782,229.828649
163380.424645,-2590.720797,-9696.697840,-2145.067394
163380.424964,2886.803174,-11843.295072,-689.485948
163380.425283,2664.741391,-9548.656652,3064.381992
163380.425602,4737.318029,-8364.327145,6435.202183
163380.425921,2590.720797,-6513.812290,2681.334243
163380.426240,-74.020594,-7994.224174,-1608.800546
163380.426559,-2368.659014,-7179.997637,-3677.258390
163380.426878,-1850.514855,-11177.109724,-1149.143247
163380.427198,-2368.659014,-11769.274478,2068.457845
163380.427517,-4145.153275,-9992.780217,-153.219100
163380.427836,-3849.070898,-9252.574275,-2834.553343
163380.428155,-74.020594,-9696.697840,-2374.896044
163380.428474,1924.535449,-9548.656652,3064.381992
163380.428793,3552.988522,-7179.997637,2451.505594
163380.429112,0.000000,-4811.338623,919.314598
163380.429431,-1258.350101,-6735.874072,-4060.306139
163380.429750,-2960.823768,-10732.986159,-3370.820191
163380.430069,-2294.638420,-12435.459826,-1072.533697
163380.430388,-2812.782580,-11251.130318,383.047749
163380.430708,-4367.215058,-10955.047942,-1838.629195
163380.431027,-3997.112087,-8364.327145,-4903.011187
163380.431346,296.082377,-9548.656652,-2145.067394
163380.431665,4737.318029,-8882.471304,4519.963438
163380.431984,2368.659014,-4811.338623,4903.011187
163380.432303,2368.659014,-5847.626942,1378.971896
163380.432622,2294.638420,-8290.306550,-2528.115143
163380.432941,296.082377,-10288.862594,-1838.629195
163380.433260,-1110.308913,-12139.377449,919.314598
163380.433579,-2886.803174,-11547.212695,612.876398
163380.433898,-4441.235652,-10732.986159,-2451.505594
163380.434218,-4737.318029,-8364.327145,-4903.011187
163380.434537,962.267725,-11843.295072,-76.609550
163380.434856,3478.967927,-9474.636058,3907.087040
163380.435175,1776.494261,-6143.709319,3524.039291
163380.435494,0.000000,-3627.009116,0.000000
163380.435813,-74.020594,-7105.977043,-4979.620737
163380.436132,-2072.576638,-10436.903782,-2298.286494
163380.436451,-1776.494261,-11769.274478,1608.800546
163380.436770,-3256.906145,-10584.944971,383.047749
163380.437089,-4145.153275,-10140.821405,-2528.115143
163380.437408,-2442.679609,-8956.491898,-2834.553343
163380.437727,4071.132681,-11843.295072,2068.457845
163380.438047,3108.864956,-7476.080014,3830.477490
163380.438366,0.000000,-4811.338623,612.876398
163380.438685,-666.185348,-7105.977043,-4290.134789
163380.439004,-666.185348,-8290.306550,-5898.935335
163380.439323,-888.247130,-11695.253884,-1302.362347
163380.439642,-1184.329507,-11917.315666,1762.019645
163380.439961,-2368.659014,-10584.944971,229.828649
163380.440280,-666.185348,-11251.130318,-76.609550
163380.440599,1628.453072,-10362.883188,-306.438199
163380.440918,4441.235652,-10584.944971,3830.477490
163380.441237,7031.956449,-9474.636058,7277.907231
163380.441557,1110.308913,-5625.565159,1225.752797
163380.441876,-4145.153275,-4811.338623,-4903.011187
163380.442195,-2146.597232,-9178.553681,-4979.620737
163380.442514,-2220.617826,-12657.521608,-689.485948
163380.442833,-2960.823768,-11991.336260,1378.971896
163380.443152,-4441.235652,-9844.739029,-689.485948
163380.443471,-1258.350101,-11843.295072,-383.047749
163380.443790,1036.288319,-9992.780217,-229.828649
163380.444109,5847.626942,-10658.965565,5745.716235
163380.444428,4071.132681,-6587.832884,5439.278036
163380.444747,0.000000,-3627.009116,-995.924147
163380.445067,-1850.514855,-6069.688724,-5898.935335
163380.445386,-1998.556043,-10066.800811,-3907.087040
163380.445705,-2516.700203,-12361.439231,-842.705048
163380.446024,-3701.029710,-12213.398043,0.000000
163380.446343,-4293.194464,-11843.295072,-2528.115143
163380.446662,-3552.988522,-9770.718434,-3447.429741
163380.446981,814.226536,-9548.656652,-1532.190996
163380.447300,4737.318029,-10140.821405,4903.011187
163380.447619,1184.329507,-4811.338623,3677.258390
163380.447938,592.164754,-4219.173869,-2145.067394
163380.448257,-74.020594,-6661.853478,-6128.763984
163380.448577,-74.020594,-10658.965565,-2528.115143
163380.448896,222.061783,-12509.480420,1532.190996
163380.449215,-740.205942,-11325.150913,1762.019645
163380.449534,-592.164754,-11843.295072,1762.019645
163380.449853,-518.144159,-9770.718434,-2298.286494
163380.450172,2886.803174,-10066.800811,1455.581446
163380.450491,4071.132681,-7179.997637,3600.648841
163380.450810,1924.535449,-5107.421000,4903.011187
163380.451129,-74.020594,-6513.812290,-1608.800546
163380.451448,-1776.494261,-7328.038826,-4443.353888
163380.451767,-2072.576638,-10436.903782,-3447.429741
163380.452086,-2886.803174,-11843.295072,536.266849
163380.452406,-3923.091493,-11325.150913,-76.609550
163380.452725,-4737.318029,-10140.821405,-1838.629195
163380.453044,-1480.411884,-11029.068536,-3294.210641
163380.453363,2146.597232,-10807.006753,1455.581446
163380.453682,4219.173869,-9252.574275,4903.011187
163380.454001,518.144159,-4811.338623,2068.457845
163380.454320,-666.185348,-4959.379811,-3370.820191
163380.454639,-1258.350101,-9474.636058,-4979.620737
163380.454958,-666.185348,-12213.398043,-1915.238745
163380.455277,-370.102971,-11547.212695,229.828649
163380.455596,-666.185348,-12435.459826,1762.019645
163380.455916,-2960.823768,-9696.697840,-1225.752797
163380.456235,1258.350101,-10362.883188,-919.314598
163380.456554,5329.482782,-10214.842000,4596.572988
163380.456873,5107.421000,-7179.997637,6511.811733
163380.457192,1258.350101,-4737.318029,2757.943793
163380.457511,-1776.494261,-5995.668130,-2451.505594
163380.457830,-666.185348,-8882.471304,-3677.258390
163380.458149,-74.020594,-13027.624579,-76.609550
163380.458468,-3627.009116,-10584.944971,459.657299
163380.458787,-3034.844362,-11843.295072,-1302.362347
163380.459106,-4959.379811,-10436.903782,-4290.134789
163380.459426,-740.205942,-11325.150913,-1762.019645
163380.459745,2294.638420,-10436.903782,3447.429741
163380.460064,2368.659014,-7476.080014,6052.154434
163380.460383,0.000000,-5995.668130,919.314598
163380.460702,-1776.494261,-7105.977043,-4903.011187
163380.461021,-1184.329507,-11325.150913,-2451.505594
163380.461340,-74.020594,-12731.542202,995.924147
163380.461659,-1258.350101,-10140.821405,0.000000
163380.461978,-1258.350101,-9474.636058,-689.485948
163380.462297,-2368.659014,-9400.615463,-2911.162892
163380.462616,2442.679609,-10881.027347,612.876398
163380.462936,5255.462188,-9770.718434,4903.011187
163380.463255,3849.070898,-8216.285956,6511.811733
163380.463574,0.000000,-4811.338623,-1532.190996
163380.463893,-3552.988522,-5403.503377,-5515.887586
163380.464212,296.082377,-11251.130318,-1991.848295
163380.464531,-74.020594,-14211.954086,3447.429741
163380.464850,-4737.318029,-9548.656652,0.000000
163380.465169,-2442.679609,-10066.800811,-1915.238745
163380.465488,-962.267725,-10140.821405,-2987.772442
163380.465807,3108.864956,-10881.027347,1608.800546
163380.466126,4367.215058,-9326.594869,5362.668486
163380.466445,2368.659014,-5995.668130,3983.696590
163380.466765,-2294.638420,-4959.379811,-3447.429741
163380.467084,-2960.823768,-8512.368333,-5362.668486
163380.467403,-666.185348,-13619.789333,-689.485948
163380.467722,-1258.350101,-11547.212695,536.266849
163380.468041,-4737.318029,-8364.327145,0.000000
163380.468360,-3627.009116,-9474.636058,-3140.991542
163380.468679,-444.123565,-9844.739029,-2528.115143
163380.468998,3552.988522,-10066.800811,3370.820191
163380.469317,4959.379811,-6735.874072,4979.620737
163380.469636,2294.638420,-5033.400406,1762.019645
163380.469955,-2220.617826,-5403.503377,-3217.601092
163380.470275,-4737.318029,-5995.668130,-6741.640382
163380.470594,-1184.329507,-12583.501014,-1225.752797
163380.470913,-1258.350101,-14211.954086,2068.457845
163380.471232,-4737.318029,-10732.986159,0.000000
163380.471551,-2886.803174,-10362.883188,-2528.115143
163380.471870,1406.391290,-10436.903782,-383.047749
163380.472189,5255.462188,-9474.636058,4979.620737
163380.472508,4663.297435,-4959.379811,4443.353888
163380.472827,1406.391290,-3627.009116,1762.019645
163380.473146,-1258.350101,-4737.318029,-4366.744339
163380.473465,-2960.823768,-8956.491898,-4290.134789
163380.473785,-370.102971,-13027.624579,0.000000
163380.474104,-666.185348,-14211.954086,2987.772442
163380.474423,-5329.482782,-10436.903782,-1838.629195
163380.474742,-2812.782580,-9918.759623,-3907.087040
163380.475061,888.247130,-10732.986159,-536.266849
163380.475380,4367.215058,-9770.718434,4213.525239
163380.475699,2294.638420,-5699.585753,4366.744339
163380.476018,1110.308913,-7105.977043,995.924147
163380.476337,-666.185348,-6513.812290,-4519.963438
163380.476656,-1702.473667,-8068.244768,-4366.744339
163380.476975,-2368.659014,-10732.986159,0.000000
163380.477295,-370.102971,-11843.295072,-76.609550
163380.477614,-3849.070898,-10436.903782,-2145.067394
163380.477933,-1110.308913,-10288.862594,-3217.601092
163380.478252,3478.967927,-11473.192101,383.047749
163380.478571,6291.750507,-10732.986159,5975.544884
163380.478890,2738.761985,-6587.832884,4290.134789
163380.479209,-74.020594,-6513.812290,-1302.362347
163380.479528,-74.020594,-9474.636058,-3753.867940
163380.479847,-666.185348,-10658.965565,-4366.744339
163380.480166,-2368.659014,-9548.656652,0.000000
163380.480485,-1258.350101,-9474.636058,-76.609550
163380.480805,-2368.659014,-8734.430116,-1072.533697
163380.481124,0.000000,-8882.471304,-2451.505594
163380.481443,4219.173869,-9918.759623,3064.381992
163380.481762,7624.121203,-9474.636058,8503.660028
163380.482081,3182.885551,-6735.874072,4673.182538
163380.482400,-74.020594,-8290.306550,-76.609550
163380.482719,-1850.514855,-8882.471304,-4979.620737
163380.483038,-3330.926739,-10362.883188,-4596.572988
163380.483357,-4737.318029,-10732.986159,0.000000
163380.483676,-4811.338623,-10955.047942,-2298.286494
163380.483995,-4811.338623,-10584.944971,-4136.915689
163380.484314,-1406.391290,-11251.130318,-2068.457845
163380.484634,1776.494261,-10436.903782,1149.143247
163380.484953,5847.626942,-11251.130318,7277.907231
163380.485272,2072.576638,-6883.915261,4290.134789
163380.485591,-74.020594,-6513.812290,-2834.553343
163380.485910,-1554.432478,-7920.203579,-4749.792088
163380.486229,-2368.659014,-10140.821405,0.000000
163380.486548,-2294.638420,-9770.718434,0.000000
163380.486867,-2220.617826,-11029.068536,0.000000
163380.487186,-2442.679609,-10066.800811,-3753.867940
163380.487505,444.123565,-11251.130318,-1378.971896
163380.487824,5551.544565,-11843.295072,4826.401637
163380.488143,4071.132681,-7105.977043,6052.154434
163380.488462,0.000000,-4219.173869,919.314598
163380.488782,-1184.329507,-4811.338623,-4903.011187
163380.489101,-1184.329507,-8512.368333,-2451.505594
163380.489420,-1258.350101,-8956.491898,-1838.629195
163380.489739,-1258.350101,-11547.212695,1762.019645
163380.490058,-4219.173869,-10658.965565,-842.705048
163380.490377,-3034.844362,-10140.821405,-3140.991542
163380.490696,222.061783,-10658.965565,-612.876398
163380.491015,3256.906145,-11843.295072,4826.401637
163380.491334,740.205942,-7624.121203,2834.553343
163380.491653,-1998.556043,-6439.791695,-2068.457845
163380.491972,-2590.720797,-7254.018232,-5745.716235
163380.492291,-1480.411884,-10510.924376,-4903.011187
163380.492610,-2368.659014,-10732.986159,0.000000
163380.492930,-1850.514855,-8734.430116,-1149.143247
163380.493249,-3256.906145,-8660.409521,-1225.752797
163380.493568,-74.020594,-10066.800811,-1838.629195
163380.493887,4071.132681,-10362.883188,1762.019645
163380.494206,8142.265362,-11103.089130,9346.365076
163380.494525,5477.523971,-7105.977043,6358.592633
163380.494844,0.000000,-6069.688724,-1225.752797
163380.495163,-1924.535449,-7846.182985,-4903.011187
163380.495482,-2368.659014,-10436.903782,-4213.525239
163380.495801,-1850.514855,-11843.295072,-76.609550
163380.496120,-4737.318029,-10140.821405,0.000000
163380.496439,-3849.070898,-8364.327145,-4060.306139
163380.496758,-2368.659014,-7772.162391,-2451.505594
163380.497078,4071.132681,-9178.553681,1149.143247
163380.497397,4663.297435,-9474.636058,6052.154434
163380.497716,592.164754,-6143.709319,3370.820191
163380.498035,-2590.720797,-5551.544565,-3064.381992
163380.498354,-2442.679609,-7994.224174,-5286.058936
163380.498673,-444.123565,-12657.521608,-1302.362347
163380.498992,-1850.514855,-11843.295072,459.657299
163380.499311,-4145.153275,-9548.656652,-2528.115143
163380.499630,-6513.812290,-8364.327145,-4290.134789
163380.499949,-888.247130,-11547.212695,-1915.238745
163380.500268,4071.132681,-10510.924376,1225.752797
163380.500587,3108.864956,-7179.997637,4903.011187
163380.500906,2072.576638,-5551.544565,2604.724693
163380.501226,-444.123565,-5403.503377,-2911.162892
163380.501545,370.102971,-7846.182985,-3753.867940
163380.501864,2294.638420,-10658.965565,-76.609550
163380.502183,-1258.350101,-10362.883188,2374.896044
163380.502502,-5625.565159,-9548.656652,0.000000
163380.502821,-3256.906145,-11029.068536,-2757.943793
163380.503140,1702.473667,-12731.542202,-76.609550
163380.503459,296.082377,-9548.656652,2451.505594
163380.503778,2220.617826,-7994.224174,4213.525239
163380.504097,-592.164754,-5995.668130,459.657299
163380.504416,-1480.411884,-6365.771101,-4596.572988
163380.504735,-74.020594,-9178.553681,-4213.525239
163380.505054,370.102971,-12213.398043,995.924147
163380.505374,-222.061783,-12435.459826,2374.896044
163380.505693,-3627.009116,-9104.533087,-689.485948
163380.506012,-4219.173869,-7179.997637,-4903.011187
163380.506331,3478.967927,-13249.686362,2374.896044
163380.506650,2368.659014,-9548.656652,3983.696590
163380.506969,2442.679609,-7179.997637,4213.525239
163380.507288,-888.247130,-5773.606348,-766.095498
163380.507607,-2442.679609,-7550.100608,-5439.278036
163380.507926,-1998.556043,-10955.047942,-4903.011187
163380.508245,-2220.617826,-12657.521608,229.828649
163380.508564,-2738.761985,-11843.295072,2911.162892
163380.508883,-1258.350101,-10658.965565,-1302.362347
163380.509203,-1776.494261,-8586.388927,-2757.943793
163380.509522,5255.462188,-11843.295072,3600.648841
163380.509841,3849.070898,-8068.244768,5669.106685
163380.510160,2294.638420,-6735.874072,4290.134789
163380.510479,-814.226536,-6291.750507,-1838.629195
163380.510798,-1776.494261,-7179.997637,-4290.134789
163380.511117,-1776.494261,-9844.739029,-2451.505594
163380.511436,-370.102971,-12361.439231,0.000000
163380.511755,-2072.576638,-12139.377449,1991.848295
163380.512074,-2812.782580,-10362.883188,-1608.800546
163380.512393,-1554.432478,-8882.471304,-3753.867940
163380.512712,4367.215058,-11843.295072,2374.896044
163380.513031,4441.235652,-8956.491898,6281.983084
163380.513351,2812.782580,-5255.462188,4213.525239
163380.513670,-444.123565,-4811.338623,-1455.581446
163380.513989,-1184.329507,-7476.080014,-2451.505594
163380.514308,-2960.823768,-10288.862594,-2834.553343
163380.514627,-4145.153275,-11917.315666,1225.752797
163380.514946,-3627.009116,-11843.295072,-153.219100
163380.515265,-2442.679609,-12879.583391,-1915.238745
163380.515584,-1850.514855,-9548.656652,-5822.325785
163380.515903,2886.803174,-11547.212695,1762.019645
163380.516222,2664.741391,-8290.306550,3677.258390
163380.516541,1776.494261,-5921.647536,842.705048
163380.516860,666.185348,-6217.729913,-3983.696590
163380.517179,1184.329507,-8364.327145,-3677.258390
163380.517499,1702.473667,-10732.986159,-689.485948
163380.517818,296.082377,-11917.315666,2451.505594
163380.518137,-2368.659014,-9548.656652,0.000000
163380.518456,-518.144159,-11473.192101,-306.438199
163380.518775,0.000000,-7179.997637,-3677.258390
163380.519094,4885.359217,-10881.027347,4213.525239
163380.519413,5699.585753,-7105.977043,5975.544884
163380.519732,2368.659014,-4737.318029,2068.457845
163380.520051,-74.020594,-4737.318029,-3753.867940
163380.520370,-74.020594,-8882.471304,-4366.744339
163380.520689,-1406.391290,-11473.192101,-306.438199
163380.521008,-4737.318029,-9696.697840,0.000000
163380.521327,-5625.565159,-10288.862594,-919.314598
163380.521647,-2368.659014,-11621.233289,-2145.067394
163380.521966,0.000000,-9548.656652,-2145.067394
163380.522285,3034.844362,-10140.821405,2987.772442
163380.522604,1332.370696,-6957.935855,3370.820191
163380.522923,-1036.288319,-6735.874072,-2221.676944
163380.523242,-74.020594,-8290.306550,-6818.249932
163380.523561,148.041188,-10658.965565,-3753.867940
163380.523880,-74.020594,-10658.965565,-383.047749
163380.524199,-2368.659014,-10732.986159,1225.752797
163380.524518,-3034.844362,-10807.006753,-3677.258390
163380.524837,-4737.318029,-9548.656652,-4290.134789
163380.525156,1702.473667,-11251.130318,1149.143247
163380.525475,4145.153275,-9844.739029,6052.154434
163380.525795,2664.741391,-6365.771101,4826.401637
163380.526114,-592.164754,-3997.112087,-1302.362347
163380.526433,-814.226536,-7920.203579,-3600.648841
163380.526752,-3552.988522,-8660.409521,-1225.752797
163380.527071,-1776.494261,-11843.295072,2451.505594
163380.527390,-4219.173869,-13027.624579,2987.772442
163380.527709,-6291.750507,-8956.491898,-3677.258390
163380.528028,-3034.844362,-9474.636058,-4366.744339
163380.528347,74.020594,-10807.006753,1225.752797
163380.528666,0.000000,-8216.285956,3217.601092
163380.528985,-888.247130,-6291.750507,1072.533697
163380.529304,-74.020594,-8290.306550,-2528.115143
163380.529623,-666.185348,-8290.306550,-4519.963438
163380.529943,-1036.288319,-10658.965565,-689.485948
163380.530262,-2738.761985,-9548.656652,153.219100
163380.530581,-5329.482782,-10140.821405,-1225.752797
163380.530900,-4811.338623,-9178.553681,-5592.497135
163380.531219,-1480.411884,-11251.130318,-2604.724693
163380.531538,1998.556043,-10436.903782,2987.772442
163380.531857,4145.153275,-7402.059420,5209.449386
163380.532176,1998.556043,-5551.544565,2221.676944
163380.532495,0.000000,-7179.997637,-2145.067394
163380.532814,74.020594,-8808.450710,-4366.744339
163380.533133,0.000000,-12213.398043,0.000000
163380.533452,-814.226536,-12805.562797,2528.115143
163380.533771,-3552.988522,-9548.656652,0.000000
163380.534091,-2146.597232,-9844.739029,-2145.067394
163380.534410,3182.885551,-10658.965565,-76.609550
163380.534729,2960.823768,-8660.409521,2757.943793
163380.535048,1184.329507,-5995.668130,3064.381992
163380.535367,2294.638420,-7105.977043,-76.609550
163380.535686,296.082377,-8364.327145,-3983.696590
163380.536005,148.041188,-10066.800811,-4596.572988
163380.536324,148.041188,-11991.336260,306.438199
163380.536643,-1406.391290,-10955.047942,1685.410096
163380.536962,-3478.967927,-10362.883188,-612.876398
163380.537281,-2368.659014,-10214.842000,-3370.820191
163380.537600,666.185348,-10066.800811,-689.485948
163380.537919,4663.297435,-8882.471304,3447.429741
163380.538239,3108.864956,-5995.668130,3677.258390
163380.538558,4663.297435,-6513.812290,-76.609550
163380.538877,296.082377,-6809.894666,-3677.258390
163380.539196,-518.144159,-9474.636058,-3677.258390
163380.539515,-1702.473667,-12657.521608,153.219100
163380.539834,-2516.700203,-11843.295072,919.314598
163380.540153,-2960.823768,-11473.192101,-229.828649
163380.540472,-370.102971,-10362.883188,-1532.190996
163380.540791,4663.297435,-11843.295072,2068.457845
163380.541110,2590.720797,-8364.327145,3294.210641
163380.541429,592.164754,-4959.379811,1225.752797
163380.541748,-666.185348,-4737.318029,-2834.553343
163380.542067,-1184.329507,-7994.224174,-4596.572988
163380.542387,74.020594,-11103.089130,-1685.410096
163380.542706,-592.164754,-11547.212695,2757.943793
163380.543025,-1258.350101,-11843.295072,2987.772442
163380.543344,-3404.947333,-11325.150913,-3677.258390
163380.543663,-3552.988522,-11029.068536,-2757.943793
163380.543982,1110.308913,-12139.377449,1608.800546
163380.544301,3478.967927,-10658.965565,6052.154434
163380.544620,0.000000,-4811.338623,1225.752797
163380.544939,-74.020594,-5033.400406,-2221.676944
163380.545258,-1258.350101,-7254.018232,-4366.744339
163380.545577,-1406.391290,-10362.883188,-1378.971896
163380.545896,-2812.782580,-11991.336260,1378.971896
163380.546215,-3552.988522,-11621.233289,1378.971896
163380.546535,-5551.544565,-10140.821405,-3370.820191
163380.546854,-2072.576638,-10732.986159,-1838.629195
163380.547173,592.164754,-9548.656652,1225.752797
163380.547492,3478.967927,-8512.368333,4136.915689
163380.547811,0.000000,-3627.009116,306.438199
163380.548130,-814.226536,-5921.647536,-4826.401637
163380.548449,-444.123565,-9474.636058,-5056.230287
163380.548768,370.102971,-12287.418637,153.219100
163380.549087,-222.061783,-10732.986159,689.485948
163380.549406,-1850.514855,-9400.615463,-2068.457845
163380.549725,-2368.659014,-9548.656652,-2757.943793
163380.550044,0.000000,-8956.491898,-2451.505594
163380.550363,3552.988522,-10436.903782,5056.230287
163380.550683,4811.338623,-7994.224174,7277.907231
163380.551002,1184.329507,-4811.338623,1225.752797
163380.551321,444.123565,-6439.791695,-3753.867940
163380.551640,-666.185348,-8882.471304,-3294.210641
163380.551959,-1554.432478,-11177.109724,229.828649
163380.552278,-3627.009116,-9548.656652,0.000000
163380.552597,-4811.338623,-9548.656652,-2221.676944
163380.552916,-6513.812290,-8364.327145,-4903.011187
163380.553235,0.000000,-10140.821405,0.000000
163380.553554,1998.556043,-10584.944971,3064.381992
163380.553873,3478.967927,-8882.471304,4826.401637
163380.554192,0.000000,-6291.750507,-1225.752797
163380.554511,-222.061783,-7179.997637,-4673.182538
163380.554831,444.123565,-10510.924376,-2681.334243
163380.555150,0.000000,-12213.398043,1455.581446
163380.555469,-2812.782580,-9844.739029,536.266849
163380.555788,-1258.350101,-11843.295072,-1302.362347
163380.556107,-666.185348,-10881.027347,-3753.867940
163380.556426,2146.597232,-11251.130318,-76.609550
163380.556745,3701.029710,-7476.080014,4443.353888
163380.557064,5847.626942,-7105.977043,4826.401637
163380.557383,592.164754,-4959.379811,-1225.752797
163380.557702,0.000000,-7105.977043,-4136.915689
163380.558021,0.000000,-10732.986159,-995.924147
163380.558340,-74.020594,-12509.480420,3983.696590
163380.558659,-2442.679609,-10955.047942,2451.505594
163380.558979,-2738.761985,-10658.965565,-1915.238745
163380.559298,-1924.535449,-10066.800811,-1915.238745
163380.559617,0.000000,-8068.244768,459.657299
163380.559936,0.000000,-5995.668130,306.438199
163380.560255,-74.020594,-7105.977043,-76.609550
163380.560574,-2886.803174,-6439.791695,-4596.572988
163380.560893,-1184.329507,-9326.594869,-5439.278036
163380.561212,-888.247130,-12287.418637,-1532.190996
163380.561531,-1258.350101,-14804.118840,4213.525239
163380.561850,-3552.988522,-11621.233289,-459.657299
163380.562169,-3256.906145,-10732.986159,-2757.943793
163380.562488,1110.308913,-11843.295072,-1302.362347
163380.562807,3478.967927,-10288.862594,4213.525239
163380.563127,2368.659014,-4811.338623,4903.011187
163380.563446,3182.885551,-5625.565159,1762.019645
163380.563765,0.000000,-6069.688724,-2987.772442
163380.564084,-518.144159,-9178.553681,-3907.087040
163380.564403,-1184.329507,-11399.171507,306.438199
163380.564722,-666.185348,-13027.624579,3524.039291
163380.565041,-3256.906145,-10732.986159,1225.752797
163380.565360,-666.185348,-10658.965565,-1302.362347
163380.565679,814.226536,-10066.800811,1532.190996
163380.565998,3330.926739,-9474.636058,3830.477490
163380.566317,1110.308913,-5921.647536,2374.896044
163380.566636,-518.144159,-6587.832884,153.219100
163380.566956,-1406.391290,-6957.935855,-4749.792088
163380.567275,-1332.370696,-9992.780217,-3753.867940
163380.567594,-74.020594,-14211.954086,2374.896044
163380.567913,-1924.535449,-11843.295072,1149.143247
163380.568232,-3627.009116,-10362.883188,-2068.457845
163380.568551,-2368.659014,-9104.533087,-4979.620737
163380.568870,0.000000,-9844.739029,0.000000
163380.569189,4663.297435,-10362.883188,3907.087040
163380.569508,5107.421000,-7698.141797,4826.401637
163380.569827,1258.350101,-5773.606348,-919.314598
163380.570146,-296.082377,-7105.977043,-4366.744339
163380.570465,-814.226536,-10362.883188,-2911.162892
163380.570784,-2368.659014,-11917.315666,2451.505594
163380.571104,-2220.617826,-11621.233289,1455.581446
163380.571423,-2368.659014,-9992.780217,-689.485948
163380.571742,-444.123565,-9622.677246,-2528.115143
163380.572061,2368.659014,-9548.656652,0.000000
163380.572380,2590.720797,-7179.997637,2757.943793
163380.572699,2886.803174,-4737.318029,1762.019645
163380.573018,-888.247130,-4811.338623,-3064.381992
163380.573337,0.000000,-7772.162391,-6741.640382
163380.573656,-222.061783,-12435.459826,-1302.362347
163380.573975,-2368.659014,-12213.398043,3064.381992
163380.574294,-3182.885551,-11177.109724,0.000000
163380.574613,-3330.926739,-10066.800811,-2451.505594
163380.574932,-1110.308913,-10881.027347,-2374.896044
163380.575252,1554.432478,-8734.430116,2451.505594
163380.575571,3849.070898,-7772.162391,5056.230287
163380.575890,3775.050304,-5773.606348,2528.115143
163380.576209,0.000000,-5329.482782,-2528.115143
163380.576528,-3552.988522,-5995.668130,-6128.763984
163380.576847,-666.185348,-12435.459826,-1302.362347
163380.577166,-2368.659014,-12583.501014,1838.629195
163380.577485,-3256.906145,-10881.027347,229.828649
163380.577804,-2072.576638,-9548.656652,-2068.457845
163380.578123,-74.020594,-10140.821405,-1915.238745
163380.578442,1776.494261,-10140.821405,2451.505594
163380.578761,1184.329507,-8068.244768,3524.039291
163380.579080,2146.597232,-8290.306550,2221.676944
163380.579400,-74.020594,-7698.141797,-4979.620737
163380.579719,-1628.453072,-9548.656652,-4290.134789
163380.580038,-370.102971,-11843.295072,-689.485948
163380.580357,-1776.494261,-11473.192101,2298.286494
163380.580676,-2220.617826,-9918.759623,0.000000
163380.580995,-1628.453072,-9326.594869,-2374.896044
163380.581314,2886.803174,-11103.089130,2068.457845
163380.581633,5625.565159,-11251.130318,7890.783629
163380.581952,3552.988522,-6291.750507,6128.763984
163380.582271,1702.473667,-6735.874072,1149.143247
163380.582590,-1850.514855,-6513.812290,-3753.867940
163380.582909,-4737.318029,-8364.327145,-7048.078582
163380.583229,-3034.844362,-11843.295072,-1915.238745
163380.583548,-3552.988522,-12361.439231,1225.752797
163380.583867,-3478.967927,-9992.780217,-766.095498
163380.584186,-2072.576638,-9178.553681,-2451.505594
163380.584505,2886.803174,-11177.109724,1149.143247
163380.584824,2368.659014,-7772.162391,3217.601092
163380.585143,2368.659014,-6291.750507,4290.134789
163380.585462,1480.411884,-5995.668130,-2451.505594
163380.585782,0.000000,-8364.327145,-4290.134789
163380.586101,-2368.659014,-9548.656652,-3677.258390
163380.586420,-1998.556043,-12435.459826,0.000000
163380.586739,-3330.926739,-11621.233289,0.000000
163380.587058,-3330.926739,-10807.006753,-3064.381992
163380.587377,-666.185348,-10955.047942,-2987.772442
163380.587696,2368.659014,-10140.821405,2451.505594
163380.588016,2368.659014,-5995.668130,3677.258390
163380.588335,3775.050304,-5033.400406,3064.381992
163380.588654,740.205942,-4811.338623,-4290.134789
163380.588973,0.000000,-7179.997637,-3677.258390
163380.589292,-2368.659014,-8956.491898,-2451.505594
163380.589611,-666.185348,-12731.542202,2221.676944
163380.589930,-2590.720797,-11103.089130,1302.362347
163380.590249,-3108.864956,-10214.842000,-1762.019645
163380.590569,-1036.288319,-9770.718434,-1915.238745
163380.590888,1998.556043,-9474.636058,2374.896044
163380.591207,1332.370696,-7254.018232,3753.867940
163380.591526,-666.185348,-4441.235652,0.000000
163380.591845,-2368.659014,-4811.338623,-4290.134789
163380.592164,-74.020594,-10288.862594,-3524.039291
163380.592483,-4737.318029,-10140.821405,-2451.505594
163380.592803,-3182.885551,-11843.295072,76.609550
163380.593122,-4071.132681,-10584.944971,-1608.800546
163380.593441,-2442.679609,-10436.903782,-3753.867940
163380.593760,2294.638420,-11843.295072,-2834.553343
163380.594079,4663.297435,-11251.130318,6052.154434
163380.594398,7031.956449,-8882.471304,6052.154434
163380.594717,2146.597232,-5033.400406,766.095498
163380.595037,-888.247130,-5403.503377,-5515.887586
163380.595356,-74.020594,-11547.212695,-1608.800546
163380.595675,-2960.823768,-10436.903782,0.000000
163380.595994,-1554.432478,-10955.047942,1991.848295
163380.596313,-1998.556043,-10584.944971,306.438199
163380.596632,-1480.411884,-9548.656652,-2221.676944
163380.596951,1110.308913,-9474.636058,-76.609550
163380.597270,3478.967927,-11843.295072,4826.401637
163380.597590,2294.638420,-8290.306550,4213.525239
163380.597909,-370.102971,-5921.647536,-76.609550
163380.598228,-2664.741391,-5477.523971,-4749.792088
163380.598547,-74.020594,-11843.295072,-76.609550
163380.598866,-2812.782580,-10807.006753,0.000000
163380.599185,-4145.153275,-10807.006753,0.000000
163380.599504,-4737.318029,-10140.821405,-2834.553343
163380.599824,-2368.659014,-9548.656652,-3677.258390
163380.600143,1184.329507,-10436.903782,76.609550
163380.600462,4367.215058,-10658.965565,4826.401637
163380.600781,4071.132681,-9178.553681,4826.401637
163380.601100,-74.020594,-5181.441594,-2834.553343
163380.601419,-1776.494261,-5995.668130,-5898.935335
163380.601738,-74.020594,-11843.295072,-1302.362347
163380.602058,-1480.411884,-11325.150913,1455.581446
163380.602377,-1406.391290,-10881.027347,1991.848295
163380.602696,-1258.350101,-9844.739029,-459.657299
163380.603015,0.000000,-8956.491898,0.000000
163380.603334,2368.659014,-9104.533087,2451.505594
163380.603653,2664.741391,-7476.080014,5515.887586
163380.603972,2886.803174,-7994.224174,3294.210641
163380.604291,-740.205942,-6217.729913,-3140.991542
163380.604611,-2442.679609,-6291.750507,-7354.516781
163380.604930,-962.267725,-11843.295072,-1915.238745
163380.605249,-2516.700203,-12805.562797,306.438199
163380.605568,-2664.741391,-11177.109724,0.000000
163380.605887,-2146.597232,-9696.697840,-2298.286494
163380.606206,1184.329507,-10140.821405,0.000000
163380.606525,592.164754,-8364.327145,1225.752797
163380.606845,3849.070898,-8660.409521,6128.763984
163380.607164,2294.638420,-6365.771101,2374.896044
163380.607483,-666.185348,-5773.606348,-5592.497135
163380.607802,-1258.350101,-9474.636058,-5592.497135
163380.608121,-3552.988522,-11621.233289,-2451.505594
163380.608440,-2516.700203,-11843.295072,459.657299
163380.608759,-1998.556043,-10955.047942,459.657299
163380.609079,0.000000,-10436.903782,-76.609550
163380.609398,1110.308913,-9474.636058,-383.047749
163380.609717,3182.885551,-9178.553681,2987.772442
163380.610036,2368.659014,-5995.668130,1838.629195
163380.610355,2368.659014,-8660.409521,2681.334243
163380.610674,-74.020594,-7105.977043,-3140.991542
163380.610993,-888.247130,-9548.656652,-3064.381992
163380.611312,-1184.329507,-11547.212695,-919.314598
163380.611632,-1776.494261,-11917.315666,229.828649
163380.611951,-2294.638420,-10732.986159,-689.485948
163380.612270,-2368.659014,-8364.327145,-2451.505594
163380.612589,2886.803174,-10436.903782,383.047749
163380.612908,4885.359217,-9178.553681,4596.572988
163380.613227,4293.194464,-7328.038826,5056.230287
163380.613546,740.205942,-4219.173869,-919.314598
163380.613866,-1258.350101,-6513.812290,-4979.620737
163380.614185,-1554.432478,-11843.295072,-3753.867940
163380.614504,-4515.256246,-11621.233289,-1915.238745
163380.614823,-4737.318029,-11029.068536,-2451.505594
163380.615142,-2738.761985,-12435.459826,-76.609550
163380.615461,-3552.988522,-9548.656652,-2451.505594
163380.615780,1332.370696,-9696.697840,995.924147
163380.616100,3330.926739,-7994.224174,4136.915689
163380.616419,2886.803174,-6439.791695,3064.381992
163380.616738,-296.082377,-5921.647536,-2374.896044
163380.617057,-1998.556043,-6735.874072,-5515.887586
163380.617376,-370.102971,-11547.212695,-2528.115143
163380.617695,-2442.679609,-14211.954086,-76.609550
163380.618014,-3627.009116,-12435.459826,-689.485948
163380.618333,-1258.350101,-14211.954086,-689.485948
163380.618653,0.000000,-10881.027347,-1838.629195
163380.618972,4145.153275,-10807.006753,3294.210641
163380.619291,5255.462188,-7550.100608,6205.373534
163380.619610,3256.906145,-4811.338623,3907.087040
163380.619929,0.000000,-3923.091493,-1225.752797
163380.620248,-740.205942,-7698.141797,-3677.258390
163380.620567,-1258.350101,-13619.789333,-76.609550
163380.620887,-3034.844362,-9992.780217,76.609550
163380.621206,-4367.215058,-9844.739029,0.000000
163380.621525,-666.185348,-11547.212695,-1302.362347
163380.621844,-1628.453072,-10436.903782,-2528.115143
163380.622163,962.267725,-10881.027347,2221.676944
163380.622482,2294.638420,-8142.265362,3447.429741
163380.622801,444.123565,-7624.121203,2604.724693
163380.623121,-2368.659014,-7772.162391,-2451.505594
163380.623440,-4145.153275,-7772.162391,-4903.011187
163380.623759,-1776.494261,-11029.068536,0.000000
163380.624078,-814.226536,-11547.212695,2987.772442
163380.624397,-3849.070898,-8364.327145,-2757.943793
163380.624716,-74.020594,-9474.636058,-2528.115143
163380.625035,2442.679609,-10436.903782,153.219100
163380.625354,5329.482782,-10510.924376,4903.011187
163380.625674,4441.235652,-8364.327145,5286.058936
163380.625993,592.164754,-6735.874072,1225.752797
163380.626312,-4071.132681,-5403.503377,-5975.544884
163380.626631,-4145.153275,-9548.656652,-4903.011187
163380.626950,-2368.659014,-10955.047942,0.000000
163380.627269,-888.247130,-11917.315666,3600.648841
163380.627588,-2812.782580,-7179.997637,0.000000
163380.627908,1406.391290,-8586.388927,-689.485948
163380.628227,2812.782580,-9326.594869,2145.067394
163380.628546,4071.132681,-8142.265362,4826.401637
163380.628865,2368.659014,-6587.832884,4060.306139
163380.629184,-1036.288319,-6513.812290,-1302.362347
163380.629503,-3552.988522,-7179.997637,-6128.763984
163380.629822,-3552.988522,-10140.821405,-6741.640382
163380.630141,-2812.782580,-13767.830521,-76.609550
163380.630461,-3627.009116,-13027.624579,-76.609550
163380.630780,-4737.318029,-9548.656652,-3677.258390
163380.631099,-888.247130,-10288.862594,-2911.162892
163380.631418,2516.700203,-9844.739029,1455.581446
163380.631737,4885.359217,-8586.388927,5362.668486
163380.632056,4367.215058,-5329.482782,3600.648841
163380.632375,1702.473667,-5921.647536,-689.485948
163380.632695,-1258.350101,-7105.977043,-4979.620737
163380.633014,-4737.318029,-9548.656652,-3677.258390
163380.633333,-2368.659014,-12287.418637,459.657299
163380.633652,-1406.391290,-12879.583391,2298.286494
163380.633971,-3849.070898,-9548.656652,-2145.067394
163380.634290,222.061783,-10066.800811,-1608.800546
163380.634609,1850.514855,-9844.739029,2145.067394
163380.634929,2738.761985,-7772.162391,4826.401637
163380.635248,1110.308913,-4145.153275,1149.143247
163380.635567,-74.020594,-7994.224174,-76.609550
163380.635886,-74.020594,-9178.553681,-3140.991542
163380.636205,-2664.741391,-9548.656652,-1762.019645
163380.636524,-4737.318029,-9548.656652,0.000000
163380.636843,-1258.350101,-13027.624579,1762.019645
163380.637162,-3108.864956,-9696.697840,-3064.381992
163380.637482,-74.020594,-10807.006753,-1608.800546
163380.637801,2812.782580,-10362.883188,2451.505594
163380.638120,3034.844362,-8808.450710,5209.449386
163380.638439,1702.473667,-7105.977043,689.485948
163380.638758,-1258.350101,-8290.306550,-4060.306139
163380.639077,-2738.761985,-9474.636058,-3753.867940
163380.639396,-1850.514855,-11547.212695,-2528.115143
163380.639716,-2368.659014,-10140.821405,0.000000
163380.640035,-74.020594,-11843.295072,-76.609550
163380.640354,-1184.329507,-8660.409521,-1762.019645
163380.640673,1924.535449,-9770.718434,229.828649
163380.640992,5181.441594,-9548.656652,4749.792088
163380.641311,3552.988522,-6587.832884,6128.763984
163380.641630,0.000000,-6587.832884,766.095498
163380.641950,-666.185348,-7550.100608,-3677.258390
163380.642269,-74.020594,-11251.130318,-3140.991542
163380.642588,-2442.679609,-11843.295072,-1608.800546
163380.642907,-3923.091493,-10140.821405,-1838.629195
163380.643226,-2442.679609,-11843.295072,-689.485948
163380.643545,-1998.556043,-9770.718434,-2451.505594
163380.643864,1110.308913,-9474.636058,1455.581446
163380.644183,3923.091493,-8438.347739,5515.887586
163380.644503,4145.153275,-7179.997637,6741.640382
163380.644822,518.144159,-4811.338623,0.000000
163380.645141,-74.020594,-8586.388927,-2528.115143
163380.645460,-3034.844362,-9474.636058,-4443.353888
163380.645779,-3404.947333,-10732.986159,-1302.362347
163380.646098,-1554.432478,-13027.624579,-76.609550
163380.646417,-4737.318029,-11177.109724,-2757.943793
163380.646737,-2886.803174,-10140.821405,-3524.039291
163380.647056,0.000000,-10288.862594,0.000000
163380.647375,4663.297435,-9992.780217,5745.716235
163380.647694,666.185348,-5921.647536,2987.772442
163380.648013,-74.020594,-5329.482782,-2834.553343
163380.648332,-2368.659014,-7476.080014,-4596.572988
163380.648651,-74.020594,-13619.789333,-76.609550
163380.648971,-74.020594,-13027.624579,2374.896044
163380.649290,-444.123565,-11843.295072,2451.505594
163380.649609,-592.164754,-9696.697840,-1608.800546
163380.649928,1184.329507,-9992.780217,-1225.752797
163380.650247,4293.194464,-11177.109724,2604.724693
163380.650566,2368.659014,-7179.997637,4903.011187
163380.650885,1702.473667,-6883.915261,2374.896044
163380.651204,-666.185348,-7031.956449,-1608.800546
163380.651524,-666.185348,-8882.471304,-5286.058936
163380.651843,-2960.823768,-9622.677246,-1838.629195
163380.652162,148.041188,-12213.398043,4596.572988
163380.652481,-1628.453072,-9844.739029,612.876398
163380.652800,-2146.597232,-8586.388927,-1685.410096
163380.653119,-444.123565,-9326.594869,-919.314598
163380.653438,2664.741391,-9992.780217,2451.505594
163380.653758,2294.638420,-6661.853478,2451.505594
163380.654077,370.102971,-7105.977043,383.047749
163380.654396,-2368.659014,-6809.894666,-4596.572988
163380.654715,-1406.391290,-9844.739029,-5132.839837
163380.655034,-74.020594,-13027.624579,-229.828649
163380.655353,-962.267725,-11621.233289,1149.143247
163380.655672,-2368.659014,-10732.986159,0.000000
163380.655992,-370.102971,-10066.800811,-1302.362347
163380.656311,4367.215058,-11843.295072,1149.143247
163380.656630,3552.988522,-8364.327145,4903.011187
163380.656949,4071.132681,-6587.832884,4366.744339
163380.657268,148.041188,-6143.709319,-383.047749
163380.657587,-2146.597232,-6957.935855,-4903.011187
163380.657906,-1480.411884,-10732.986159,-4136.915689
163380.658225,-296.082377,-12213.398043,-76.609550
163380.658545,-1406.391290,-12065.356855,1762.019645
163380.658864,-2664.741391,-10436.903782,0.000000
163380.659183,-592.164754,-10510.924376,-612.876398
163380.659502,2220.617826,-11251.130318,1455.581446
163380.659821,2368.659014,-8364.327145,6128.763984
163380.660140,2072.576638,-6587.832884,3600.648841
163380.660459,-1110.308913,-4885.359217,-536.266849
163380.660779,-1924.535449,-6883.915261,-4673.182538
163380.661098,-1554.432478,-9696.697840,-3677.258390
163380.661417,-2368.659014,-10732.986159,-2451.505594
163380.661736,-4515.256246,-9696.697840,-1762.019645
163380.662055,-7105.977043,-9548.656652,-3677.258390
163380.662374,-2368.659014,-10510.924376,-2911.162892
163380.662693,1554.432478,-12731.542202,1149.143247
163380.663012,2960.823768,-9696.697840,5822.325785
163380.663332,814.226536,-6217.729913,2528.115143
163380.663651,-1628.453072,-5255.462188,-2451.505594
163380.663970,-1628.453072,-7846.182985,-4826.401637
163380.664289,-2960.823768,-8364.327145,-1532.190996
163380.664608,-1998.556043,-11251.130318,2374.896044
163380.664927,-3182.885551,-9548.656652,229.828649
163380.665246,-2960.823768,-8956.491898,-1838.629195
163380.665566,0.000000,-9548.656652,-2451.505594
163380.665885,4663.297435,-11843.295072,2374.896044
163380.666204,3256.906145,-9104.533087,5822.325785
163380.666523,592.164754,-6809.894666,1838.629195
163380.666842,-1332.370696,-5699.585753,-2987.772442
163380.667161,-1702.473667,-8512.368333,-4673.182538
163380.667480,-1332.370696,-10214.842000,0.000000
163380.667800,-1258.350101,-11251.130318,1915.238745
163380.668119,-3478.967927,-9474.636058,536.266849
163380.668438,-3034.844362,-8290.306550,-3753.867940
163380.668757,-1258.350101,-9844.739029,-919.314598
163380.669076,3478.967927,-9474.636058,1762.019645
163380.669395,2664.741391,-7772.162391,3677.258390
163380.669714,0.000000,-6365.771101,-306.438199
163380.670033,-1702.473667,-6661.853478,-5132.839837
163380.670353,-666.185348,-11769.274478,-4366.744339
163380.670672,-74.020594,-13915.871710,1149.143247
163380.670991,-666.185348,-12657.521608,1762.019645
163380.671310,-74.020594,-11251.130318,-383.047749
163380.671629,-1776.494261,-9548.656652,-3524.039291
163380.671948,592.164754,-9548.656652,0.000000
163380.672267,4663.297435,-9178.553681,3447.429741
163380.672587,4959.379811,-6513.812290,5362.668486
163380.672906,2072.576638,-5403.503377,153.219100
163380.673225,444.123565,-6143.709319,-3447.429741
163380.673544,2294.638420,-11843.295072,-689.485948
163380.673863,1480.411884,-11621.233289,0.000000
163380.674182,-74.020594,-13471.748144,2374.896044
163380.674501,-3034.844362,-11251.130318,-1915.238745
163380.674821,-2442.679609,-11843.295072,-2834.553343
163380.675140,0.000000,-9548.656652,0.000000
163380.675459,3478.967927,-9474.636058,2987.772442
163380.675778,2664.741391,-7328.038826,2911.162892
163380.676097,-592.164754,-5995.668130,-919.314598
163380.676416,-1258.350101,-6883.915261,-4519.963438
163380.676735,-74.020594,-11843.295072,-1072.533697
163380.677054,0.000000,-11473.192101,2451.505594
163380.677374,-1258.350101,-11843.295072,1762.019645
163380.677693,-3627.009116,-11843.295072,-1302.362347
163380.678012,-2442.679609,-10658.965565,-3753.867940
163380.678331,0.000000,-10732.986159,1225.752797
163380.678650,1702.473667,-9030.512492,2528.115143
163380.678969,814.226536,-6883.915261,1455.581446
163380.679288,-814.226536,-6365.771101,-2451.505594
163380.679608,-1924.535449,-5995.668130,-5209.449386
163380.679927,-666.185348,-9918.759623,-1302.362347
163380.680246,-1702.473667,-9696.697840,1838.629195
163380.680565,-3552.988522,-9548.656652,1225.752797
163380.680884,-1406.391290,-10362.883188,-536.266849
163380.681203,-74.020594,-12435.459826,1762.019645
163380.681522,1776.494261,-9844.739029,3983.696590
163380.681842,2960.823768,-7994.224174,4596.572988
163380.682161,666.185348,-6439.791695,536.266849
163380.682480,-1998.556043,-6513.812290,-4519.963438
163380.682799,-4441.235652,-7179.997637,-7354.516781
163380.683118,-1406.391290,-11843.295072,-689.485948
163380.683437,-3997.112087,-9622.677246,0.000000
163380.683756,-4737.318029,-10288.862594,-919.314598
163380.684075,-3701.029710,-9548.656652,-4903.011187
163380.684395,-1776.494261,-10732.986159,306.438199
163380.684714,1998.556043,-9622.677246,3140.991542
163380.685033,1850.514855,-6957.935855,3830.477490
163380.685352,-74.020594,-6069.688724,842.705048
163380.685671,-962.267725,-5921.647536,-4903.011187
163380.685991,-74.020594,-10658.965565,-4596.572988
163380.686310,-592.164754,-12657.521608,766.095498
163380.686629,-1258.350101,-12139.377449,689.485948
163380.686948,-2738.761985,-11695.253884,-1915.238745
163380.687267,-2368.659014,-10732.986159,-1838.629195
163380.687587,0.000000,-9548.656652,0.000000
163380.687906,4367.215058,-9474.636058,4673.182538
163380.688225,3997.112087,-6365.771101,3677.258390
163380.688544,2146.597232,-5181.441594,153.219100
163380.688864,222.061783,-5403.503377,-5439.278036
163380.689183,518.144159,-9474.636058,-1762.019645
163380.689502,2294.638420,-13027.624579,2374.896044
163380.689821,-1998.556043,-10140.821405,689.485948
163380.690140,-4293.194464,-8364.327145,-3907.087040
163380.690460,-2812.782580,-10881.027347,-1302.362347
163380.690779,-444.123565,-11029.068536,306.438199
163380.691098,2294.638420,-9030.512492,3983.696590
163380.691417,1258.350101,-6661.853478,2451.505594
163380.691737,-518.144159,-5773.606348,-1608.800546
163380.692056,-2294.638420,-5477.523971,-7277.907231
163380.692375,-518.144159,-11251.130318,-1072.533697
163380.692694,-888.247130,-10807.006753,1378.971896
163380.693013,-2886.803174,-10510.924376,919.314598
163380.693333,-2590.720797,-10955.047942,-995.924147
163380.693652,-74.020594,-11843.295072,-2528.115143
163380.693971,1776.494261,-11917.315666,3064.381992
163380.694290,4071.132681,-9474.636058,4519.963438
163380.694610,2294.638420,-8290.306550,2374.896044
163380.694929,0.000000,-5995.668130,-2451.505594
163380.695248,-2442.679609,-6587.832884,-5898.935335
163380.695567,-592.164754,-11399.171507,-842.705048
163380.695886,0.000000,-11473.192101,2145.067394
163380.696206,-1406.391290,-10807.006753,1225.752797
163380.696525,-1554.432478,-10288.862594,-1149.143247
163380.696844,-1258.350101,-9548.656652,-995.924147
163380.697163,1184.329507,-9548.656652,2911.162892
163380.697482,2368.659014,-7179.997637,4903.011187
163380.697802,1998.556043,-6957.935855,1915.238745
163380.698121,-1776.494261,-5995.668130,-1838.629195
163380.698440,-1776.494261,-8364.327145,-4366.744339
163380.698759,-444.123565,-11991.336260,-383.047749
163380.699079,-2294.638420,-11473.192101,995.924147
163380.699398,-4293.194464,-10881.027347,-995.924147
163380.699717,-4811.338623,-9548.656652,-4903.011187
163380.700036,-1036.288319,-11325.150913,-1149.143247
163380.700355,1184.329507,-9548.656652,3064.381992
163380.700675,3478.967927,-8290.306550,4213.525239
163380.700994,518.144159,-5921.647536,-383.047749
163380.701313,0.000000,-8068.244768,-1838.629195
163380.701632,-1480.411884,-9548.656652,-4596.572988
163380.701952,-1258.350101,-11843.295072,0.000000
163380.702271,-1258.350101,-11695.253884,1608.800546
163380.702590,-3552.988522,-10732.986159,0.000000
163380.702909,-4441.235652,-6587.832884,-3677.258390
163380.703228,-370.102971,-8734.430116,-1455.581446
163380.703548,1776.494261,-7476.080014,3064.381992
163380.703867,3108.864956,-5403.503377,766.095498
163380.704186,2294.638420,-6513.812290,-383.047749
163380.704505,592.164754,-7402.059420,-3447.429741
163380.704825,370.102971,-9918.759623,-2221.676944
163380.705144,148.041188,-11769.274478,919.314598
163380.705463,-1554.432478,-10658.965565,1532.190996
163380.705782,-5477.523971,-9548.656652,-2451.505594
163380.706101,-1258.350101,-9474.636058,-2528.115143
163380.706421,1110.308913,-10140.821405,306.438199
163380.706740,2812.782580,-5995.668130,2068.457845
163380.707059,592.164754,-4811.338623,2451.505594
163380.707378,-74.020594,-5329.482782,-2528.115143
163380.707698,-592.164754,-7328.038826,-5056.230287
163380.708017,-1184.329507,-10807.006753,-3064.381992
163380.708336,-2146.597232,-12953.603985,0.000000
163380.708655,-3627.009116,-12657.521608,229.828649
163380.708974,-3627.009116,-12435.459826,-1915.238745
163380.709294,-1850.514855,-11843.295072,-2834.553343
163380.709613,814.226536,-11843.295072,2374.896044
163380.709932,962.267725,-5995.668130,2451.505594
163380.710251,1480.411884,-5995.668130,1225.752797
163380.710571,518.144159,-4145.153275,-3294.210641
163380.710890,74.020594,-7772.162391,-3447.429741
163380.711209,962.267725,-10658.965565,842.705048
163380.711528,222.061783,-10658.965565,2604.724693
163380.711847,-666.185348,-13027.624579,3600.648841
163380.712167,-2442.679609,-11843.295072,-919.314598
163380.712486,-370.102971,-12731.542202,-76.609550
163380.712805,1110.308913,-11251.130318,1149.143247
163380.713124,962.267725,-7105.977043,2604.724693
163380.713444,-2368.659014,-4811.338623,0.000000
163380.713763,-1998.556043,-5255.462188,-4136.915689
163380.714082,-1258.350101,-8290.306550,-3370.820191
163380.714401,-740.205942,-10510.924376,1225.752797
163380.714720,-1258.350101,-10510.924376,2604.724693
163380.715040,-666.185348,-11251.130318,1149.143247
163380.715359,-4145.153275,-8364.327145,-2451.505594
163380.715678,-444.123565,-11473.192101,383.047749
163380.715997,1702.473667,-9844.739029,3294.210641
163380.716317,2294.638420,-9474.636058,2374.896044
163380.716636,-2368.659014,-6291.750507,-1838.629195
163380.716955,-2368.659014,-7550.100608,-6128.763984
163380.717274,-1480.411884,-10881.027347,-4519.963438
163380.717593,74.020594,-11547.212695,306.438199
163380.717913,-222.061783,-10140.821405,0.000000
163380.718232,222.061783,-9992.780217,0.000000
163380.718551,296.082377,-9548.656652,0.000000
163380.718870,5551.544565,-10214.842000,2451.505594
163380.719190,7105.977043,-9474.636058,7124.688131
163380.719509,4737.318029,-8290.306550,4519.963438
163380.719828,592.164754,-6069.688724,0.000000
163380.720147,-296.082377,-7105.977043,-5132.839837
163380.720466,-1628.453072,-11177.109724,-4290.134789
163380.720786,-2146.597232,-13027.624579,-612.876398
163380.721105,-4441.235652,-10732.986159,-2451.505594
163380.721424,-3478.967927,-10584.944971,-1838.629195
163380.721743,-1184.329507,-9548.656652,-3677.258390
163380.722063,2368.659014,-9696.697840,3370.820191
163380.722382,5699.585753,-7105.977043,4826.401637
163380.722701,4663.297435,-4737.318029,3600.648841
163380.723020,1184.329507,-5329.482782,0.000000
163380.723339,148.041188,-7254.018232,-3907.087040
163380.723659,-148.041188,-11621.233289,-1302.362347
163380.723978,-1258.350101,-12065.356855,919.314598
163380.724297,-5921.647536,-9548.656652,0.000000
163380.724616,-4219.173869,-11251.130318,-3753.867940
163380.724936,-4145.153275,-9548.656652,-4903.011187
163380.725255,1480.411884,-10288.862594,1225.752797
163380.725574,3552.988522,-7476.080014,4903.011187
163380.725893,1776.494261,-7105.977043,3907.087040
163380.726212,-370.102971,-5699.585753,-2451.505594
163380.726532,444.123565,-7994.224174,-2757.943793
163380.726851,814.226536,-11251.130318,1072.533697
163380.727170,-1776.494261,-9844.739029,1225.752797
163380.727489,-1850.514855,-10584.944971,1225.752797
163380.727809,-1554.432478,-11251.130318,-689.485948
163380.728128,-222.061783,-10658.965565,-76.609550
163380.728447,3182.885551,-10658.965565,2374.896044
163380.728766,2072.576638,-8364.327145,4596.572988
163380.729085,-2368.659014,-4959.379811,0.000000
163380.729405,-3701.029710,-6513.812290,-4673.182538
163380.729724,-3256.906145,-9400.615463,-4826.401637
163380.730043,-2368.659014,-11325.150913,-1149.143247
163380.730362,-1850.514855,-9474.636058,536.266849
163380.730681,-3182.885551,-10658.965565,689.485948
163380.731001,-2812.782580,-9104.533087,-1225.752797
163380.731320,0.000000,-9992.780217,995.924147
163380.731639,2072.576638,-9104.533087,4366.744339
163380.731958,1924.535449,-8882.471304,4749.792088
163380.732278,-2368.659014,-5995.668130,0.000000
163380.732597,-1924.535449,-8586.388927,-4443.353888
163380.732916,-2442.679609,-9400.615463,-4979.620737
163380.733235,-2738.761985,-11917.315666,-1225.752797
163380.733554,-4219.173869,-9696.697840,-2145.067394
163380.733874,-2516.700203,-10732.986159,-1302.362347
163380.734193,-814.226536,-9844.739029,-1455.581446
163380.734512,2590.720797,-10288.862594,1378.971896
163380.734831,7031.956449,-9474.636058,6052.154434
163380.735151,4663.297435,-6809.894666,3600.648841
163380.735470,1776.494261,-6143.709319,1225.752797
163380.735789,-74.020594,-7105.977043,-2911.162892
163380.736108,-74.020594,-10658.965565,-3753.867940
163380.736427,-2368.659014,-11917.315666,1225.752797
163380.736747,-2516.700203,-10732.986159,0.000000
163380.737066,-2812.782580,-10436.903782,-1302.362347
163380.737385,-1554.432478,-9918.759623,-1762.019645
163380.737704,2220.617826,-9992.780217,766.095498
163380.738024,4663.297435,-7846.182985,2987.772442
163380.738343,1850.514855,-6439.791695,1915.238745
163380.738662,-888.247130,-5995.668130,-4903.011187
163380.738981,-2368.659014,-8364.327145,-4903.011187
163380.739300,-74.020594,-12731.542202,-1991.848295
163380.739620,-2368.659014,-12657.521608,2451.505594
163380.739939,-2886.803174,-11251.130318,0.000000
163380.740258,-2220.617826,-10362.883188,-1685.410096
163380.740577,518.144159,-10066.800811,-1532.190996
163380.740897,3701.029710,-10140.821405,2451.505594
163380.741216,3182.885551,-5995.668130,1225.752797
163380.741535,1776.494261,-4811.338623,76.609550
163380.741854,-1480.411884,-4811.338623,-4290.134789
163380.742173,-1628.453072,-8512.368333,-5515.887586
163380.742493,-370.102971,-13027.624579,-76.609550
163380.742812,-592.164754,-12509.480420,2528.115143
163380.743131,-2516.700203,-10436.903782,766.095498
163380.743450,-2738.761985,-9474.636058,-1685.410096
163380.743770,-370.102971,-9770.718434,0.000000
163380.744089,1184.329507,-7179.997637,2451.505594
163380.744408,2886.803174,-7105.977043,5745.716235
163380.744727,518.144159,-4293.194464,612.876398
163380.745046,-2368.659014,-4811.338623,-3370.820191
163380.745366,-4737.318029,-7179.997637,-4903.011187
163380.745685,-1258.350101,-13027.624579,-1302.362347
163380.746004,-3849.070898,-13397.727550,229.828649
163380.746323,-5329.482782,-11325.150913,-2451.505594
163380.746643,-3997.112087,-11325.150913,-3294.210641
163380.746962,0.000000,-11177.109724,-842.705048
163380.747281,1924.535449,-9548.656652,3140.991542
163380.747600,0.000000,-4811.338623,1225.752797
163380.747919,296.082377,-7031.956449,-459.657299
163380.748239,-814.226536,-8068.244768,-3677.258390
163380.748558,-74.020594,-11843.295072,-2528.115143
163380.748877,-2368.659014,-10140.821405,0.000000
163380.749196,-592.164754,-11251.130318,2068.457845
163380.749516,-1628.453072,-9844.739029,-76.609550
163380.749835,-370.102971,-9918.759623,-995.924147
163380.750154,3108.864956,-10066.800811,2987.772442
163380.750473,4663.297435,-8882.471304,4826.401637
163380.750792,1110.308913,-6217.729913,2374.896044
163380.751112,-666.185348,-6513.812290,-3753.867940
