#time,accel_x,accel_y,accel_z
59413.165860,-74.020594,-9474.636058,-76.609550
59413.166170,0.000000,-10214.842000,2068.457845
59413.166480,-222.061783,-9178.553681,536.266849
59413.166790,-814.226536,-9030.512492,306.438199
59413.167099,-666.185348,-9104.533087,689.485948
59413.167409,-148.041188,-8660.409521,0.000000
59413.167719,-2368.659014,-7179.997637,0.000000
59413.168029,-1184.329507,-8364.327145,153.219100
59413.168338,-74.020594,-11843.295072,3600.648841
59413.168648,-1776.494261,-8364.327145,0.000000
59413.168958,1702.473667,-10510.924376,1762.019645
59413.169268,-1184.329507,-8956.491898,1225.752797
59413.169577,-74.020594,-9326.594869,1378.971896
59413.169887,-370.102971,-9178.553681,612.876398
59413.170197,-370.102971,-9400.615463,919.314598
59413.170507,-370.102971,-8512.368333,-76.609550
59413.170816,-962.267725,-7772.162391,-1608.800546
59413.171126,-1628.453072,-7920.203579,0.000000
59413.171436,1628.453072,-11547.212695,3600.648841
59413.171746,-2368.659014,-7179.997637,0.000000
59413.172055,1110.308913,-10066.800811,2987.772442
59413.172365,-1036.288319,-7179.997637,0.000000
59413.172675,-148.041188,-9400.615463,995.924147
59413.172985,-222.061783,-9104.533087,766.095498
59413.173294,-370.102971,-9104.533087,459.657299
59413.173604,-222.061783,-9474.636058,-76.609550
59413.173914,-74.020594,-8586.388927,-76.609550
59413.174224,-1184.329507,-8068.244768,0.000000
59413.174533,592.164754,-10732.986159,3677.258390
59413.174843,-74.020594,-9474.636058,-76.609550
59413.175153,-2368.659014,-7772.162391,0.000000
59413.175463,-1184.329507,-7402.059420,0.000000
59413.175772,-740.205942,-9030.512492,612.876398
59413.176082,-74.020594,-9400.615463,842.705048
59413.176392,-74.020594,-9326.594869,689.485948
59413.176702,-74.020594,-10510.924376,2374.896044
59413.177011,1702.473667,-10658.965565,-76.609550
59413.177321,-74.020594,-9474.636058,842.705048
59413.177631,0.000000,-8364.327145,1225.752797
59413.177941,-74.020594,-9474.636058,-76.609550
59413.178250,0.000000,-8364.327145,0.000000
59413.178560,-666.185348,-8734.430116,689.485948
59413.178870,-592.164754,-8734.430116,919.314598
59413.179180,-370.102971,-9030.512492,536.266849
59413.179489,-222.061783,-9030.512492,536.266849
59413.179799,518.144159,-9696.697840,1838.629195
59413.180109,962.267725,-11251.130318,3140.991542
59413.180418,-74.020594,-9474.636058,1149.143247
59413.180728,-2368.659014,-7179.997637,0.000000
59413.181038,2294.638420,-11251.130318,2068.457845
59413.181348,-1776.494261,-7179.997637,-2221.676944
59413.181657,-74.020594,-9474.636058,1149.143247
59413.181967,-962.267725,-8438.347739,0.000000
59413.182277,-444.123565,-9326.594869,459.657299
59413.182587,-444.123565,-9030.512492,229.828649
59413.182896,0.000000,-7772.162391,1225.752797
59413.183206,0.000000,-9548.656652,2757.943793
59413.183516,888.247130,-10214.842000,2374.896044
59413.183826,-2368.659014,-6587.832884,-1532.190996
59413.184135,0.000000,-9696.697840,1991.848295
59413.184445,-148.041188,-7994.224174,-76.609550
59413.184755,1702.473667,-10658.965565,1762.019645
59413.185065,-74.020594,-9474.636058,1072.533697
59413.185374,-370.102971,-9178.553681,536.266849
59413.185684,-370.102971,-9326.594869,689.485948
59413.185994,-1776.494261,-8364.327145,0.000000
59413.186304,0.000000,-7179.997637,612.876398
59413.186613,0.000000,-8956.491898,2451.505594
59413.186923,-74.020594,-8290.306550,-76.609550
59413.187233,0.000000,-9548.656652,1225.752797
59413.187543,-74.020594,-10658.965565,-76.609550
59413.187852,148.041188,-9844.739029,1838.629195
59413.188162,-74.020594,-9252.574275,1072.533697
59413.188472,296.082377,-8660.409521,842.705048
59413.188782,814.226536,-8438.347739,995.924147
59413.189091,0.000000,-7179.997637,0.000000
59413.189401,0.000000,-5995.668130,0.000000
59413.189711,592.164754,-8068.244768,612.876398
59413.190021,3478.967927,-9474.636058,-76.609550
59413.190330,1776.494261,-9252.574275,1225.752797
59413.190640,2294.638420,-9474.636058,1149.143247
59413.190950,2368.659014,-8956.491898,1378.971896
59413.191260,3478.967927,-9474.636058,1149.143247
59413.191569,2960.823768,-9104.533087,919.314598
59413.191879,2590.720797,-9326.594869,536.266849
59413.192189,4071.132681,-9178.553681,-76.609550
59413.192499,2886.803174,-7698.141797,-995.924147
59413.192808,3256.906145,-7772.162391,0.000000
59413.193118,7031.956449,-9474.636058,2374.896044
59413.193428,4737.318029,-7772.162391,612.876398
59413.193738,7476.080014,-9992.780217,4060.306139
59413.194047,3849.070898,-7179.997637,153.219100
59413.194357,5699.585753,-9104.533087,1378.971896
59413.194667,5551.544565,-8956.491898,536.266849
59413.194977,5699.585753,-9030.512492,0.000000
59413.195286,7624.121203,-10658.965565,-76.609550
59413.195596,7624.121203,-9474.636058,-76.609550
59413.195906,6143.709319,-9474.636058,-1915.238745
59413.196216,4737.318029,-11917.315666,612.876398
59413.196525,5255.462188,-13619.789333,-76.609550
59413.196835,1184.329507,-11917.315666,0.000000
59413.197145,1184.329507,-10732.986159,-842.705048
59413.197455,1776.494261,-9326.594869,612.876398
59413.197764,2812.782580,-7624.121203,1378.971896
59413.198074,3849.070898,-5477.523971,1991.848295
59413.198384,7328.038826,-6513.812290,4519.963438
59413.198694,9400.615463,-7105.977043,4213.525239
59413.199003,11177.109724,-5921.647536,3600.648841
59413.199313,7105.977043,-5403.503377,2451.505594
59413.199623,8216.285956,-10658.965565,1762.019645
59413.199933,0.000000,-11325.150913,-3677.258390
59413.200242,-666.185348,-17172.777854,-2528.115143
59413.200552,-3997.112087,-17024.736666,-3830.477490
59413.200862,-5107.421000,-16876.695478,-2834.553343
59413.201172,-4219.173869,-10658.965565,-3294.210641
59413.201481,-2368.659014,-8956.491898,612.876398
59413.201791,3552.988522,-7476.080014,4443.353888
59413.202101,7031.956449,-7105.977043,7277.907231
59413.202411,4145.153275,-2442.679609,4290.134789
59413.202720,5477.523971,-5107.421000,6511.811733
59413.203030,2294.638420,-3552.988522,2374.896044
59413.203340,4367.215058,-4737.318029,3600.648841
59413.203650,3034.844362,-5033.400406,1915.238745
59413.203959,2294.638420,-6069.688724,153.219100
59413.204269,-592.164754,-11843.295072,-1532.190996
59413.204579,-4737.318029,-16062.468941,-2451.505594
59413.204889,-7105.977043,-20207.622217,-4290.134789
59413.205198,-8882.471304,-19023.292709,-3677.258390
59413.205508,-2442.679609,-14211.954086,-3140.991542
59413.205818,-2368.659014,-6143.709319,-2451.505594
59413.206128,4071.132681,-4737.318029,2374.896044
59413.206437,5255.462188,-5551.544565,5362.668486
59413.206747,5255.462188,-5477.523971,5439.278036
59413.207057,6513.812290,-5255.462188,6205.373534
59413.207367,8438.347739,-3478.967927,5898.935335
59413.207676,6069.688724,-1850.514855,3677.258390
59413.207986,4737.318029,-3627.009116,2451.505594
59413.208296,592.164754,-9548.656652,2451.505594
59413.208606,-74.020594,-16284.530724,-1302.362347
59413.208915,-4367.215058,-15470.304188,-5515.887586
59413.209225,-666.185348,-18949.272115,-1915.238745
59413.209535,-4145.153275,-15544.324782,-3983.696590
59413.209845,-3701.029710,-13101.645173,-4060.306139
59413.210154,-1332.370696,-9326.594869,-1685.410096
59413.210464,5181.441594,-6587.832884,2604.724693
59413.210774,11473.192101,-148.041188,3753.867940
59413.211084,11843.295072,-74.020594,6741.640382
59413.211393,9474.636058,-666.185348,5669.106685
59413.211703,10362.883188,-8364.327145,7048.078582
59413.212013,5847.626942,-7105.977043,1608.800546
59413.212323,2960.823768,-11621.233289,2451.505594
59413.212632,-3256.906145,-14434.015869,-3524.039291
59413.212942,-4589.276840,-16210.510130,-4826.401637
59413.213252,-1702.473667,-16432.571912,-3830.477490
59413.213562,3108.864956,-12879.583391,-2068.457845
59413.213871,4663.297435,-13027.624579,-76.609550
59413.214181,2294.638420,-9030.512492,-76.609550
59413.214491,3182.885551,-8512.368333,76.609550
59413.214800,7105.977043,-5995.668130,4903.011187
59413.215110,9400.615463,-4145.153275,4826.401637
59413.215420,3552.988522,-4811.338623,3677.258390
59413.215730,3034.844362,-5995.668130,612.876398
59413.216039,6587.832884,-9178.553681,1991.848295
59413.216349,6291.750507,-10584.944971,2221.676944
59413.216659,444.123565,-12509.480420,-76.609550
59413.216969,-666.185348,-16580.613101,-1302.362347
59413.217278,-1258.350101,-14211.954086,-2834.553343
59413.217588,-1258.350101,-16580.613101,-1302.362347
59413.217898,-3404.947333,-8364.327145,-1838.629195
59413.218208,2664.741391,-9548.656652,2374.896044
59413.218517,4737.318029,-3034.844362,2451.505594
59413.218827,5033.400406,-5329.482782,2221.676944
59413.219137,1332.370696,-7698.141797,2911.162892
59413.219447,-1184.329507,-7550.100608,1302.362347
59413.219756,-2590.720797,-8364.327145,459.657299
59413.220066,-1850.514855,-10362.883188,1762.019645
59413.220376,-1850.514855,-11547.212695,1225.752797
59413.220686,-74.020594,-11547.212695,2374.896044
59413.220995,-4071.132681,-7846.182985,-1532.190996
59413.221305,-5921.647536,-11917.315666,306.438199
59413.221615,-6661.853478,-9622.677246,-2145.067394
59413.221925,-3627.009116,-9474.636058,766.095498
59413.222234,-2960.823768,-6143.709319,919.314598
59413.222544,-2590.720797,-6883.915261,1225.752797
59413.222854,0.000000,-6217.729913,2145.067394
59413.223164,1480.411884,-8364.327145,5515.887586
59413.223473,-74.020594,-8660.409521,612.876398
59413.223783,-3182.885551,-12435.459826,2374.896044
59413.224093,-6291.750507,-11251.130318,-689.485948
59413.224403,-7105.977043,-10140.821405,0.000000
59413.224712,-5403.503377,-9474.636058,0.000000
59413.225022,-2738.761985,-8586.388927,1149.143247
59413.225332,-2072.576638,-7550.100608,1685.410096
59413.225642,-1776.494261,-7994.224174,1608.800546
59413.225951,-2442.679609,-7994.224174,1455.581446
59413.226261,-3552.988522,-7179.997637,1838.629195
59413.226571,0.000000,-4811.338623,0.000000
59413.226881,1628.453072,-8512.368333,3370.820191
59413.227190,-962.267725,-7105.977043,229.828649
59413.227500,592.164754,-8660.409521,2451.505594
59413.227810,3478.967927,-11251.130318,-76.609550
59413.228120,-222.061783,-13027.624579,536.266849
59413.228429,-3330.926739,-13471.748144,-1225.752797
59413.228739,-3849.070898,-12953.603985,-766.095498
59413.229049,-1998.556043,-10658.965565,-842.705048
59413.229359,0.000000,-7179.997637,0.000000
59413.229668,1184.329507,-4959.379811,919.314598
59413.229978,4737.318029,-5995.668130,4290.134789
59413.230288,4663.297435,-8290.306550,2374.896044
59413.230598,1332.370696,-8068.244768,2757.943793
59413.230907,4663.297435,-9474.636058,2374.896044
59413.231217,2590.720797,-8068.244768,1225.752797
59413.231527,1776.494261,-8882.471304,153.219100
59413.231837,1110.308913,-10140.821405,-612.876398
59413.232147,2590.720797,-10658.965565,-536.266849
59413.232457,1110.308913,-10214.842000,-1608.800546
59413.232767,0.000000,-10732.986159,-2528.115143
59413.233077,-2960.823768,-11325.150913,0.000000
59413.233387,2294.638420,-12435.459826,2068.457845
59413.233696,0.000000,-7179.997637,0.000000
59413.234006,4663.297435,-9474.636058,4826.401637
59413.234316,4145.153275,-3923.091493,2757.943793
59413.234626,2886.803174,-6217.729913,1608.800546
59413.234936,222.061783,-8290.306550,153.219100
59413.235246,-222.061783,-9474.636058,229.828649
59413.235556,1924.535449,-10140.821405,2757.943793
59413.235866,2072.576638,-9104.533087,3064.381992
59413.236176,-1702.473667,-8364.327145,-1532.190996
59413.236486,1184.329507,-10732.986159,1225.752797
59413.236796,1406.391290,-10658.965565,-76.609550
59413.237106,-1554.432478,-9770.718434,-1838.629195
59413.237416,-4737.318029,-11399.171507,-1225.752797
59413.237725,-3182.885551,-10807.006753,-612.876398
59413.238035,-2368.659014,-9844.739029,153.219100
59413.238345,-1628.453072,-6809.894666,689.485948
59413.238655,0.000000,-7772.162391,3064.381992
59413.238965,3404.947333,-6069.688724,3677.258390
59413.239275,2294.638420,-5921.647536,-76.609550
59413.239585,-4145.153275,-9548.656652,1225.752797
59413.239895,-1850.514855,-11547.212695,1762.019645
59413.240205,-2442.679609,-7624.121203,-2068.457845
59413.240515,-666.185348,-10214.842000,1455.581446
59413.240825,-1776.494261,-8882.471304,995.924147
59413.241135,-370.102971,-8438.347739,1532.190996
59413.241444,0.000000,-9548.656652,1915.238745
59413.241754,-3552.988522,-9548.656652,612.876398
59413.242064,-4441.235652,-11325.150913,0.000000
59413.242374,-814.226536,-12435.459826,2374.896044
59413.242684,-3034.844362,-7698.141797,-383.047749
59413.242994,-2368.659014,-7254.018232,2451.505594
59413.243304,-74.020594,-7105.977043,-76.609550
59413.243614,2590.720797,-7994.224174,3294.210641
59413.243924,148.041188,-8512.368333,1991.848295
59413.244234,-2516.700203,-10584.944971,1455.581446
59413.244544,-2368.659014,-9992.780217,995.924147
59413.244854,-2368.659014,-7179.997637,612.876398
59413.245164,0.000000,-5995.668130,0.000000
59413.245473,2368.659014,-9844.739029,4290.134789
59413.245783,1702.473667,-6217.729913,1149.143247
59413.246093,592.164754,-8364.327145,2451.505594
59413.246403,-74.020594,-11843.295072,-76.609550
59413.246713,-3108.864956,-12065.356855,-612.876398
59413.247023,-2146.597232,-11103.089130,-1072.533697
59413.247333,-1554.432478,-9696.697840,-766.095498
59413.247643,-1702.473667,-9992.780217,-536.266849
59413.247953,0.000000,-6587.832884,0.000000
59413.248263,0.000000,-5995.668130,0.000000
59413.248573,0.000000,-9548.656652,2451.505594
59413.248883,1702.473667,-10658.965565,2374.896044
59413.249193,0.000000,-7476.080014,0.000000
59413.249502,4663.297435,-9474.636058,4519.963438
59413.249812,1332.370696,-6661.853478,2451.505594
59413.250122,3701.029710,-6587.832884,2298.286494
59413.250432,3923.091493,-6809.894666,1532.190996
59413.250742,1776.494261,-8586.388927,153.219100
59413.251052,-1850.514855,-10807.006753,-2528.115143
59413.251362,-3182.885551,-11843.295072,-2528.115143
59413.251672,-4145.153275,-10140.821405,-3677.258390
59413.251982,-1184.329507,-12213.398043,-612.876398
59413.252292,-962.267725,-9548.656652,-3217.601092
59413.252602,1184.329507,-10955.047942,3217.601092
59413.252912,0.000000,-7920.203579,76.609550
59413.253221,0.000000,-8956.491898,1378.971896
59413.253531,814.226536,-8068.244768,1991.848295
59413.253841,1998.556043,-6291.750507,2834.553343
59413.254151,3478.967927,-6513.812290,2374.896044
59413.254461,2294.638420,-8290.306550,3600.648841
59413.254771,1184.329507,-4811.338623,612.876398
59413.255081,3478.967927,-9252.574275,2374.896044
59413.255391,-1258.350101,-10658.965565,-1302.362347
59413.255701,-5921.647536,-13101.645173,-1225.752797
59413.256011,-4663.297435,-13101.645173,-3370.820191
59413.256321,-3478.967927,-13323.706956,-1838.629195
59413.256631,-2664.741391,-11399.171507,-995.924147
59413.256941,-1554.432478,-9178.553681,153.219100
59413.257250,2294.638420,-9474.636058,3600.648841
59413.257560,-74.020594,-9474.636058,4213.525239
59413.257870,-2368.659014,-5403.503377,1149.143247
59413.258180,0.000000,-6587.832884,3983.696590
59413.258490,1998.556043,-4811.338623,1072.533697
59413.258800,0.000000,-4811.338623,2451.505594
59413.259110,1406.391290,-6291.750507,2528.115143
59413.259420,2516.700203,-7254.018232,2145.067394
59413.259730,296.082377,-10436.903782,1762.019645
59413.260040,-3701.029710,-12435.459826,-766.095498
59413.260350,-3034.844362,-15396.283594,-1072.533697
59413.260660,-3034.844362,-15322.262999,842.705048
59413.260969,-2442.679609,-12435.459826,-1302.362347
59413.261279,-4737.318029,-8364.327145,0.000000
59413.261589,-666.185348,-11843.295072,3600.648841
59413.261899,-2368.659014,-3627.009116,0.000000
59413.262209,-74.020594,-7698.141797,3294.210641
59413.262519,740.205942,-5995.668130,3524.039291
59413.262829,1332.370696,-5699.585753,3294.210641
59413.263139,2368.659014,-5107.421000,3217.601092
59413.263449,2664.741391,-7179.997637,3983.696590
59413.263759,2368.659014,-8364.327145,4903.011187
59413.264069,3478.967927,-9474.636058,-76.609550
59413.264379,-2960.823768,-10732.986159,-1838.629195
59413.264689,-3404.947333,-14878.139434,0.000000
59413.264998,-5995.668130,-13841.851115,-3983.696590
59413.265308,-3034.844362,-13027.624579,-2528.115143
59413.265618,-2590.720797,-11251.130318,-1838.629195
59413.265928,-518.144159,-8808.450710,-612.876398
59413.266238,814.226536,-7402.059420,842.705048
59413.266548,1184.329507,-5995.668130,2451.505594
59413.266858,0.000000,-5995.668130,1225.752797
59413.267168,4071.132681,-9474.636058,5439.278036
59413.267478,2220.617826,-4589.276840,2681.334243
59413.267788,3552.988522,-7476.080014,5669.106685
59413.268098,4071.132681,-5921.647536,1149.143247
59413.268408,4071.132681,-7846.182985,2757.943793
59413.268717,2146.597232,-9696.697840,612.876398
59413.269027,-1628.453072,-12509.480420,-1838.629195
59413.269337,-4589.276840,-14211.954086,-3217.601092
59413.269647,-5921.647536,-12509.480420,-4290.134789
59413.269957,-5921.647536,-9548.656652,-4749.792088
59413.270267,-1776.494261,-9548.656652,0.000000
59413.270577,2886.803174,-8882.471304,1149.143247
59413.270887,0.000000,-3627.009116,0.000000
59413.271197,3478.967927,-7698.141797,2374.896044
59413.271507,0.000000,-7772.162391,2145.067394
59413.271817,1554.432478,-7920.203579,3294.210641
59413.272127,2072.576638,-6661.853478,3524.039291
59413.272437,1850.514855,-6587.832884,2451.505594
59413.272746,814.226536,-6365.771101,842.705048
59413.273056,1110.308913,-4885.359217,0.000000
59413.273366,0.000000,-10732.986159,1225.752797
59413.273676,-2442.679609,-13619.789333,-1302.362347
59413.273986,-8882.471304,-11917.315666,-4903.011187
59413.274296,-2738.761985,-14211.954086,-1302.362347
59413.274606,-3997.112087,-10584.944971,-1685.410096
59413.274916,-1332.370696,-8586.388927,-76.609550
59413.275226,1036.288319,-7105.977043,1608.800546
59413.275536,1702.473667,-6809.894666,2987.772442
59413.275846,-74.020594,-8290.306550,2987.772442
59413.276156,-74.020594,-8290.306550,2374.896044
59413.276466,-2368.659014,-6291.750507,2451.505594
59413.276775,1110.308913,-8586.388927,3907.087040
59413.277085,-3552.988522,-4811.338623,0.000000
59413.277395,4441.235652,-8734.430116,4826.401637
59413.277705,1776.494261,-7179.997637,1532.190996
59413.278015,-1628.453072,-9992.780217,153.219100
59413.278325,-5699.585753,-13027.624579,-2221.676944
59413.278635,-5107.421000,-13249.686362,-2374.896044
59413.278945,-3034.844362,-12435.459826,-76.609550
59413.279255,-1258.350101,-10658.965565,-76.609550
59413.279565,-2960.823768,-6587.832884,-1838.629195
59413.279875,740.205942,-7624.121203,2374.896044
59413.280185,-74.020594,-6365.771101,-76.609550
59413.280494,-1184.329507,-9548.656652,3064.381992
59413.280804,-592.164754,-8364.327145,2911.162892
59413.281114,1406.391290,-7402.059420,3983.696590
59413.281424,2368.659014,-6661.853478,3677.258390
59413.281734,2664.741391,-6587.832884,3600.648841
59413.282044,4663.297435,-8290.306550,4443.353888
59413.282354,4663.297435,-11251.130318,2374.896044
59413.282664,-2146.597232,-10510.924376,-2221.676944
59413.282974,-4737.318029,-12509.480420,-2451.505594
59413.283284,-666.185348,-15100.201217,-76.609550
59413.283594,-3256.906145,-11325.150913,-2145.067394
59413.283904,-962.267725,-10066.800811,-1915.238745
59413.284214,148.041188,-8956.491898,-536.266849
59413.284523,888.247130,-8364.327145,383.047749
59413.284833,666.185348,-9770.718434,1838.629195
59413.285143,1332.370696,-10288.862594,2757.943793
59413.285453,2368.659014,-9696.697840,5209.449386
59413.285763,2294.638420,-5921.647536,2987.772442
59413.286073,2368.659014,-4811.338623,4290.134789
59413.286383,7031.956449,-8290.306550,4826.401637
59413.286693,3552.988522,-3627.009116,2451.505594
59413.287003,2220.617826,-9992.780217,1149.143247
59413.287313,-2738.761985,-12139.377449,-2221.676944
59413.287623,-4441.235652,-13767.830521,-3524.039291
59413.287933,-3701.029710,-12509.480420,-3370.820191
59413.288242,-2960.823768,-11325.150913,-3677.258390
59413.288552,-2368.659014,-9548.656652,0.000000
59413.288862,2294.638420,-9474.636058,-383.047749
59413.289172,0.000000,-8660.409521,0.000000
59413.289482,3182.885551,-11843.295072,2987.772442
59413.289792,-962.267725,-7772.162391,2757.943793
59413.290102,1184.329507,-7105.977043,4519.963438
59413.290412,1850.514855,-5921.647536,3907.087040
59413.290722,3034.844362,-5921.647536,5132.839837
59413.291032,4737.318029,-4441.235652,4826.401637
59413.291342,2664.741391,-4811.338623,2604.724693
59413.291652,-2368.659014,-9548.656652,0.000000
59413.291962,-3997.112087,-13397.727550,-1685.410096
59413.292271,-4811.338623,-14211.954086,-3140.991542
59413.292581,-6513.812290,-12509.480420,-3677.258390
59413.292891,-4589.276840,-10732.986159,-2451.505594
59413.293201,-1628.453072,-10658.965565,-1302.362347
59413.293511,-370.102971,-9178.553681,0.000000
59413.293821,370.102971,-9474.636058,919.314598
59413.294131,-814.226536,-9400.615463,2757.943793
59413.294441,0.000000,-7179.997637,3677.258390
59413.294751,0.000000,-4811.338623,3677.258390
59413.295061,2294.638420,-6513.812290,5439.278036
59413.295371,1184.329507,-3627.009116,3677.258390
59413.295681,6439.791695,-7105.977043,6052.154434
59413.295991,1850.514855,-6883.915261,1838.629195
59413.296300,-3034.844362,-11251.130318,-1302.362347
59413.296610,-5329.482782,-13841.851115,-3064.381992
59413.296920,-5699.585753,-13027.624579,-3753.867940
59413.297230,-5921.647536,-12361.439231,-3447.429741
59413.297540,-3997.112087,-10140.821405,-2451.505594
59413.297850,-3552.988522,-8364.327145,0.000000
59413.298160,-74.020594,-10066.800811,-76.609550
59413.298470,-1184.329507,-9104.533087,2068.457845
59413.298780,-1850.514855,-7476.080014,1149.143247
59413.299090,1702.473667,-6587.832884,4673.182538
59413.299400,2294.638420,-6957.935855,4826.401637
59413.299710,2960.823768,-3627.009116,4060.306139
59413.300019,5033.400406,-5255.462188,5132.839837
59413.300329,5551.544565,-5921.647536,4060.306139
59413.300639,666.185348,-10732.986159,1225.752797
59413.300949,-4737.318029,-13101.645173,-1225.752797
59413.301259,-3627.009116,-15396.283594,-3140.991542
59413.301569,-5699.585753,-11917.315666,-6205.373534
59413.301879,-4737.318029,-10732.986159,-2451.505594
59413.302189,-2368.659014,-9548.656652,-2451.505594
59413.302499,888.247130,-9326.594869,-689.485948
59413.302809,740.205942,-8216.285956,459.657299
59413.303119,888.247130,-9992.780217,2145.067394
59413.303429,1184.329507,-9104.533087,3600.648841
59413.303739,592.164754,-5995.668130,3064.381992
59413.304048,0.000000,-5403.503377,3677.258390
59413.304358,4663.297435,-6217.729913,5439.278036
59413.304668,5551.544565,-3552.988522,2374.896044
59413.304978,2368.659014,-5403.503377,3064.381992
59413.305288,-1776.494261,-9548.656652,0.000000
59413.305598,-3034.844362,-14063.912898,-1608.800546
59413.305908,-4885.359217,-13175.665768,-3983.696590
59413.306218,-3775.050304,-11621.233289,-3064.381992
59413.306528,-2738.761985,-10658.965565,-2451.505594
59413.306838,-1776.494261,-7772.162391,-2451.505594
59413.307148,0.000000,-7772.162391,0.000000
59413.307458,2294.638420,-11251.130318,-76.609550
59413.307767,-1702.473667,-9548.656652,0.000000
59413.308077,3182.885551,-11843.295072,4826.401637
59413.308387,1110.308913,-8068.244768,4826.401637
59413.308697,962.267725,-5403.503377,3677.258390
59413.309007,3627.009116,-5255.462188,4749.792088
59413.309317,5403.503377,-5255.462188,5132.839837
59413.309627,2960.823768,-7031.956449,3064.381992
59413.309937,-1036.288319,-11325.150913,0.000000
59413.310247,-2442.679609,-15248.242405,-76.609550
59413.310557,-4219.173869,-11251.130318,-3753.867940
59413.310867,-5921.647536,-9844.739029,-1838.629195
59413.311177,-2442.679609,-8882.471304,-3140.991542
59413.311487,-4145.153275,-7179.997637,-1838.629195
59413.311796,-74.020594,-9474.636058,-229.828649
59413.312106,-1332.370696,-10955.047942,459.657299
59413.312416,-1924.535449,-11325.150913,1838.629195
59413.312726,-296.082377,-9400.615463,3447.429741
59413.313036,0.000000,-7179.997637,3677.258390
59413.313346,0.000000,-4811.338623,4903.011187
59413.313656,5847.626942,-6809.894666,6052.154434
59413.313966,3997.112087,-3627.009116,1225.752797
59413.314276,1776.494261,-9252.574275,3983.696590
59413.314586,-4959.379811,-11917.315666,0.000000
59413.314896,-3034.844362,-11103.089130,-2068.457845
59413.315206,-4219.173869,-11695.253884,-2145.067394
59413.315515,-3034.844362,-8586.388927,-2834.553343
59413.315825,-3627.009116,-9622.677246,-2528.115143
59413.316135,-2368.659014,-8364.327145,-1838.629195
59413.316445,-3552.988522,-9548.656652,-2451.505594
59413.316755,-1776.494261,-13323.706956,1608.800546
59413.317065,-3108.864956,-9548.656652,0.000000
59413.317375,-74.020594,-10658.965565,4826.401637
59413.317685,1554.432478,-5477.523971,1532.190996
59413.317995,4145.153275,-4737.318029,6052.154434
59413.318305,5773.606348,-2812.782580,5745.716235
59413.318615,5699.585753,-5921.647536,4903.011187
59413.318925,1332.370696,-9252.574275,2374.896044
59413.319235,-4145.153275,-10732.986159,-1608.800546
59413.319544,-7105.977043,-9548.656652,-4903.011187
59413.319854,-3849.070898,-11917.315666,-2451.505594
59413.320164,-2886.803174,-10658.965565,-4979.620737
59413.320474,-4737.318029,-8364.327145,-4290.134789
59413.320784,-74.020594,-10658.965565,-2911.162892
59413.321094,-1184.329507,-11769.274478,-1302.362347
59413.321404,-1924.535449,-12287.418637,0.000000
59413.321714,-1110.308913,-11621.233289,2298.286494
59413.322024,74.020594,-7328.038826,4826.401637
59413.322334,1850.514855,-5181.441594,5439.278036
59413.322644,3849.070898,-1554.432478,4290.134789
59413.322954,7994.224174,-3923.091493,7354.516781
59413.323264,4663.297435,-4811.338623,1685.410096
59413.323573,0.000000,-9548.656652,2451.505594
59413.323883,-1258.350101,-12435.459826,-2528.115143
59413.324193,-4441.235652,-12213.398043,-3217.601092
59413.324503,-4811.338623,-11769.274478,-3907.087040
59413.324813,-3552.988522,-11029.068536,-3907.087040
59413.325123,-1850.514855,-10732.986159,-2068.457845
59413.325433,-74.020594,-11251.130318,-1302.362347
59413.325743,-666.185348,-10955.047942,-1455.581446
59413.326053,-1776.494261,-10732.986159,1225.752797
59413.326363,1998.556043,-9474.636058,4826.401637
59413.326673,0.000000,-4811.338623,2528.115143
59413.326983,4663.297435,-6291.750507,6665.030833
59413.327292,5699.585753,-1924.535449,6128.763984
59413.327602,6661.853478,-3627.009116,6052.154434
59413.327912,2590.720797,-6661.853478,2987.772442
59413.328222,-2886.803174,-11325.150913,0.000000
59413.328532,-3034.844362,-13027.624579,-1608.800546
59413.328842,-4811.338623,-13027.624579,-4979.620737
59413.329152,-7105.977043,-10140.821405,-5515.887586
59413.329462,-4145.153275,-12509.480420,-1225.752797
59413.329772,-74.020594,-11251.130318,-1915.238745
59413.330082,-148.041188,-11547.212695,-76.609550
59413.330392,-962.267725,-10955.047942,383.047749
59413.330702,-888.247130,-10510.924376,2451.505594
59413.331012,-1110.308913,-7698.141797,3447.429741
59413.331321,962.267725,-5625.565159,3677.258390
59413.331631,5033.400406,-5107.421000,6741.640382
59413.331941,8216.285956,-4737.318029,7277.907231
59413.332251,4663.297435,-3701.029710,4213.525239
59413.332561,0.000000,-8956.491898,3983.696590
59413.332871,-1258.350101,-13027.624579,-76.609550
59413.333181,-4737.318029,-13323.706956,-689.485948
59413.333491,-5033.400406,-12509.480420,-3677.258390
59413.333801,-5033.400406,-11843.295072,-4136.915689
59413.334111,-4071.132681,-11621.233289,-3370.820191
59413.334420,-1332.370696,-9548.656652,-3370.820191
59413.334730,-814.226536,-10436.903782,0.000000
59413.335040,-74.020594,-12139.377449,2451.505594
59413.335350,-74.020594,-9474.636058,2987.772442
59413.335660,0.000000,-7179.997637,4903.011187
59413.335969,4663.297435,-7105.977043,6665.030833
59413.336279,3849.070898,-3923.091493,6128.763984
59413.336589,5329.482782,-3034.844362,4903.011187
59413.336899,2220.617826,-5995.668130,2451.505594
59413.337209,-592.164754,-9548.656652,306.438199
59413.337518,-2590.720797,-10807.006753,-1991.848295
59413.337828,-4145.153275,-10732.986159,-4903.011187
59413.338138,-3849.070898,-12657.521608,-2298.286494
59413.338448,-2442.679609,-11251.130318,-3140.991542
59413.338758,-5329.482782,-7179.997637,-4903.011187
59413.339068,962.267725,-11547.212695,-76.609550
59413.339377,-1702.473667,-10732.986159,0.000000
59413.339687,-740.205942,-11325.150913,1378.971896
59413.339997,-370.102971,-9400.615463,2145.067394
59413.340307,1036.288319,-7698.141797,3677.258390
59413.340617,3404.947333,-5329.482782,4826.401637
59413.340926,4737.318029,-2442.679609,3907.087040
59413.341236,3552.988522,-4811.338623,4903.011187
59413.341546,3478.967927,-8882.471304,4826.401637
59413.341856,-1258.350101,-9474.636058,-1302.362347
59413.342166,-2960.823768,-10732.986159,0.000000
59413.342475,-4737.318029,-9548.656652,-3524.039291
59413.342785,-3701.029710,-10881.027347,-2298.286494
59413.343095,-2960.823768,-10066.800811,-2604.724693
59413.343405,-296.082377,-8808.450710,-1838.629195
59413.343715,-814.226536,-11251.130318,-689.485948
59413.344025,-3552.988522,-9696.697840,-1302.362347
59413.344334,-4145.153275,-9548.656652,0.000000
59413.344644,-74.020594,-10732.986159,3907.087040
59413.344954,0.000000,-5403.503377,2451.505594
59413.345264,5255.462188,-7698.141797,5515.887586
59413.345574,4145.153275,-2146.597232,4060.306139
59413.345883,4145.153275,-5699.585753,4903.011187
59413.346193,444.123565,-9474.636058,2834.553343
59413.346503,-2516.700203,-10955.047942,76.609550
59413.346813,-1850.514855,-12731.542202,-76.609550
59413.347123,-3627.009116,-11843.295072,-1302.362347
59413.347432,-4737.318029,-8364.327145,-3677.258390
59413.347742,-2368.659014,-8956.491898,-1838.629195
59413.348052,-74.020594,-9474.636058,-1302.362347
59413.348362,-3552.988522,-8364.327145,-2451.505594
59413.348672,-3923.091493,-10955.047942,-1915.238745
59413.348982,-3478.967927,-11325.150913,229.828649
59413.349291,-1776.494261,-9178.553681,1915.238745
59413.349601,592.164754,-8216.285956,3600.648841
59413.349911,5847.626942,-6217.729913,6741.640382
59413.350221,7031.956449,-5921.647536,7277.907231
59413.350531,3478.967927,-5255.462188,3907.087040
59413.350840,592.164754,-8660.409521,3064.381992
59413.351150,-74.020594,-10658.965565,-76.609550
59413.351460,-3552.988522,-8364.327145,-2451.505594
59413.351770,-3627.009116,-11843.295072,-1608.800546
59413.352080,-4145.153275,-9474.636058,-3677.258390
59413.352389,-2146.597232,-9030.512492,-2528.115143
59413.352699,0.000000,-9770.718434,-1915.238745
59413.353009,-2368.659014,-10732.986159,0.000000
59413.353319,-1850.514855,-13619.789333,1149.143247
59413.353629,-74.020594,-11251.130318,1149.143247
59413.353939,0.000000,-7179.997637,1838.629195
59413.354248,4663.297435,-9474.636058,6665.030833
59413.354558,2368.659014,-2442.679609,3753.867940
59413.354868,6439.791695,-6513.812290,5439.278036
59413.355178,1554.432478,-7698.141797,2911.162892
59413.355488,-592.164754,-9326.594869,1149.143247
59413.355797,-1406.391290,-10658.965565,229.828649
59413.356107,-3552.988522,-8364.327145,-2451.505594
59413.356417,-2220.617826,-11029.068536,-1225.752797
59413.356727,-74.020594,-11251.130318,-1915.238745
59413.357037,-1776.494261,-7179.997637,-6052.154434
59413.357347,0.000000,-11917.315666,306.438199
59413.357656,-2442.679609,-10658.965565,-2528.115143
59413.357966,-888.247130,-12731.542202,689.485948
59413.358276,-370.102971,-9400.615463,1302.362347
59413.358586,1406.391290,-7698.141797,3370.820191
59413.358896,3701.029710,-5995.668130,4903.011187
59413.359205,2812.782580,-3627.009116,3064.381992
59413.359515,2368.659014,-5107.421000,4903.011187
59413.359825,1776.494261,-10362.883188,3217.601092
59413.360135,-666.185348,-9178.553681,-995.924147
59413.360445,-2368.659014,-10140.821405,0.000000
59413.360754,-666.185348,-13027.624579,-76.609550
59413.361064,-2960.823768,-10140.821405,-2451.505594
59413.361374,-1480.411884,-9104.533087,-2604.724693
59413.361684,-1258.350101,-8808.450710,-2298.286494
59413.361994,-2220.617826,-10732.986159,-2145.067394
59413.362304,-3330.926739,-10066.800811,-2834.553343
59413.362613,-3552.988522,-8364.327145,0.000000
59413.362923,0.000000,-8364.327145,2604.724693
59413.363233,2294.638420,-7105.977043,3600.648841
59413.363543,592.164754,-4811.338623,4903.011187
59413.363853,7031.956449,-8882.471304,8503.660028
59413.364162,592.164754,-7179.997637,3677.258390
59413.364472,-1258.350101,-9030.512492,1685.410096
59413.364782,-3330.926739,-11325.150913,536.266849
59413.365092,-2146.597232,-10362.883188,-689.485948
59413.365402,-1850.514855,-9474.636058,-1302.362347
59413.365711,-3034.844362,-7772.162391,-2834.553343
59413.366021,-1776.494261,-6587.832884,-2298.286494
59413.366331,1332.370696,-11177.109724,2145.067394
59413.366641,-1850.514855,-8882.471304,-2834.553343
59413.366951,-2960.823768,-12509.480420,1225.752797
59413.367261,-3552.988522,-9548.656652,-1225.752797
59413.367570,-1480.411884,-10436.903782,1532.190996
59413.367880,1110.308913,-7772.162391,3217.601092
59413.368190,2516.700203,-7179.997637,4749.792088
59413.368500,3478.967927,-7105.977043,6052.154434
59413.368810,962.267725,-7994.224174,2068.457845
59413.369119,-1184.329507,-7328.038826,1378.971896
59413.369429,0.000000,-8364.327145,2451.505594
59413.369739,-74.020594,-9474.636058,-76.609550
59413.370049,-4737.318029,-6587.832884,-2451.505594
59413.370359,-2072.576638,-7179.997637,-2451.505594
59413.370668,444.123565,-8068.244768,-1225.752797
59413.370978,-1110.308913,-9918.759623,-1762.019645
59413.371288,-3552.988522,-11695.253884,-2374.896044
59413.371598,-2442.679609,-14211.954086,-76.609550
59413.371908,-74.020594,-11843.295072,-76.609550
59413.372218,-814.226536,-9548.656652,1072.533697
59413.372527,2664.741391,-10288.862594,6588.421283
59413.372837,3182.885551,-6513.812290,2987.772442
59413.373147,1184.329507,-4811.338623,2451.505594
59413.373457,2294.638420,-6809.894666,3294.210641
59413.373767,1554.432478,-7624.121203,3294.210641
59413.374076,962.267725,-7624.121203,2298.286494
59413.374386,-962.267725,-8438.347739,-459.657299
59413.374696,-592.164754,-9844.739029,536.266849
59413.375006,-74.020594,-9474.636058,-383.047749
59413.375316,-74.020594,-9178.553681,-1991.848295
59413.375625,-3552.988522,-10732.986159,-1838.629195
59413.375935,-2442.679609,-13619.789333,-2528.115143
59413.376245,-5255.462188,-9696.697840,-4596.572988
59413.376555,-74.020594,-10955.047942,-76.609550
59413.376865,1258.350101,-9252.574275,2911.162892
59413.377175,3034.844362,-7920.203579,4136.915689
59413.377484,3404.947333,-6883.915261,4519.963438
59413.377794,1776.494261,-7179.997637,5209.449386
59413.378104,2738.761985,-9474.636058,5515.887586
59413.378414,2590.720797,-7105.977043,3600.648841
59413.378724,-3552.988522,-4811.338623,0.000000
59413.379033,-370.102971,-10658.965565,-76.609550
59413.379343,-2442.679609,-7698.141797,-3753.867940
59413.379653,1110.308913,-10510.924376,-1302.362347
59413.379963,-2294.638420,-9622.677246,-2834.553343
59413.380273,-4145.153275,-11843.295072,-2374.896044
59413.380583,-3849.070898,-12509.480420,-2528.115143
59413.380892,-2960.823768,-10140.821405,0.000000
59413.381202,1480.411884,-10140.821405,3064.381992
59413.381512,2886.803174,-9474.636058,4826.401637
59413.381822,0.000000,-3627.009116,1532.190996
59413.382132,4367.215058,-8290.306550,5745.716235
59413.382441,1110.308913,-6809.894666,2987.772442
59413.382751,1110.308913,-9178.553681,3907.087040
59413.383061,148.041188,-7846.182985,2374.896044
59413.383371,-1998.556043,-8882.471304,0.000000
59413.383681,-2812.782580,-9326.594869,-1378.971896
59413.383990,-3552.988522,-7476.080014,-2451.505594
59413.384300,0.000000,-9548.656652,0.000000
59413.384610,-1258.350101,-11843.295072,-76.609550
59413.384920,-2442.679609,-13027.624579,-2528.115143
59413.385230,-4145.153275,-11325.150913,0.000000
59413.385540,-74.020594,-11843.295072,-76.609550
59413.385849,1184.329507,-8808.450710,3370.820191
59413.386159,2516.700203,-7328.038826,4749.792088
59413.386469,2960.823768,-5477.523971,4519.963438
59413.386779,1776.494261,-6735.874072,4290.134789
59413.387089,0.000000,-6069.688724,766.095498
59413.387398,0.000000,-7179.997637,1838.629195
59413.387708,0.000000,-8660.409521,2987.772442
59413.388018,-3627.009116,-6957.935855,-2834.553343
59413.388328,-1776.494261,-10510.924376,-1149.143247
59413.388638,-74.020594,-11843.295072,-76.609550
59413.388947,0.000000,-9622.677246,-612.876398
59413.389257,-1480.411884,-11399.171507,-1455.581446
59413.389567,-3627.009116,-12435.459826,-2068.457845
59413.389877,-2960.823768,-11325.150913,-766.095498
59413.390187,-666.185348,-8586.388927,-689.485948
59413.390497,0.000000,-6735.874072,1532.190996
59413.390806,1776.494261,-6587.832884,4903.011187
59413.391116,4367.215058,-6809.894666,3600.648841
59413.391426,2368.659014,-8068.244768,4290.134789
59413.391736,3478.967927,-10658.965565,6358.592633
59413.392046,0.000000,-7476.080014,1838.629195
59413.392355,-740.205942,-8142.265362,919.314598
59413.392665,-2220.617826,-9178.553681,-995.924147
59413.392975,-962.267725,-9474.636058,-766.095498
59413.393285,2294.638420,-10658.965565,-1302.362347
59413.393595,-1258.350101,-9252.574275,-2528.115143
59413.393904,-3997.112087,-10140.821405,-4903.011187
59413.394214,-2368.659014,-12509.480420,-612.876398
59413.394524,-1258.350101,-9918.759623,-1302.362347
59413.394834,0.000000,-7772.162391,2451.505594
59413.395144,740.205942,-7179.997637,2451.505594
59413.395454,3552.988522,-6439.791695,3524.039291
59413.395763,2886.803174,-7476.080014,3830.477490
59413.396073,1554.432478,-8586.388927,3294.210641
59413.396383,3182.885551,-10658.965565,3600.648841
59413.396693,-74.020594,-8734.430116,1149.143247
59413.397003,-2960.823768,-7179.997637,-3677.258390
59413.397312,-592.164754,-11251.130318,1302.362347
59413.397622,1110.308913,-8290.306550,-689.485948
59413.397932,0.000000,-6587.832884,0.000000
59413.398242,-1776.494261,-9178.553681,-2528.115143
59413.398552,-3627.009116,-11695.253884,-2145.067394
59413.398861,-3034.844362,-11325.150913,-1762.019645
59413.399171,-1184.329507,-10140.821405,-229.828649
59413.399481,1702.473667,-11251.130318,4213.525239
59413.399791,3478.967927,-8882.471304,3600.648841
59413.400101,2886.803174,-7105.977043,2374.896044
59413.400411,0.000000,-7179.997637,3677.258390
59413.400720,-74.020594,-11251.130318,3600.648841
59413.401030,0.000000,-6143.709319,612.876398
59413.401340,-148.041188,-8290.306550,1225.752797
59413.401650,-1776.494261,-7550.100608,612.876398
59413.401960,-1480.411884,-8364.327145,76.609550
59413.402269,888.247130,-7254.018232,153.219100
59413.402579,888.247130,-9474.636058,1915.238745
59413.402889,-1258.350101,-11843.295072,-383.047749
59413.403199,-3627.009116,-11843.295072,-2528.115143
59413.403509,-4737.318029,-9548.656652,0.000000
59413.403819,-74.020594,-10658.965565,1149.143247
59413.404128,-2072.576638,-6587.832884,0.000000
59413.404438,3478.967927,-8586.388927,3600.648841
59413.404748,2664.741391,-8438.347739,3140.991542
59413.405058,1258.350101,-9400.615463,2834.553343
59413.405368,-962.267725,-9992.780217,2221.676944
59413.405677,-2368.659014,-7179.997637,1225.752797
59413.405987,-2368.659014,-7179.997637,0.000000
59413.406297,-74.020594,-9474.636058,2911.162892
59413.406607,-518.144159,-6291.750507,-536.266849
59413.406917,2072.576638,-7624.121203,2987.772442
59413.407226,2294.638420,-9474.636058,-383.047749
59413.407536,-1850.514855,-11251.130318,-1302.362347
59413.407846,-3182.885551,-11695.253884,-1838.629195
59413.408156,-2294.638420,-10807.006753,-1149.143247
59413.408466,-666.185348,-10288.862594,383.047749
59413.408776,0.000000,-7476.080014,0.000000
59413.409085,592.164754,-7328.038826,2451.505594
59413.409395,2664.741391,-9844.739029,5515.887586
59413.409705,2294.638420,-9474.636058,2374.896044
59413.410015,74.020594,-8956.491898,3064.381992
59413.410325,2294.638420,-9474.636058,3600.648841
59413.410634,-1924.535449,-8512.368333,919.314598
59413.410944,-814.226536,-8216.285956,459.657299
59413.411254,1628.453072,-7105.977043,766.095498
59413.411564,2294.638420,-7772.162391,76.609550
59413.411874,-2368.659014,-8364.327145,-3064.381992
59413.412183,-4737.318029,-10436.903782,-3064.381992
59413.412493,-4737.318029,-10732.986159,0.000000
59413.412803,-1850.514855,-10658.965565,-1302.362347
59413.413113,-2368.659014,-9548.656652,0.000000
59413.413423,3478.967927,-11251.130318,4213.525239
59413.413733,1776.494261,-7476.080014,3064.381992
59413.414042,1628.453072,-8882.471304,3140.991542
59413.414352,-222.061783,-9918.759623,3064.381992
59413.414662,814.226536,-7254.018232,2451.505594
59413.414972,-74.020594,-7402.059420,689.485948
59413.415282,-1406.391290,-5773.606348,383.047749
59413.415591,-1184.329507,-8364.327145,2757.943793
59413.415901,3478.967927,-8290.306550,-76.609550
59413.416211,0.000000,-7772.162391,0.000000
59413.416521,-3849.070898,-10140.821405,-2451.505594
59413.416831,-3627.009116,-11843.295072,-2528.115143
59413.417140,-2812.782580,-10288.862594,-1378.971896
59413.417450,-814.226536,-9400.615463,229.828649
59413.417760,296.082377,-8882.471304,1915.238745
59413.418070,2368.659014,-8808.450710,3294.210641
59413.418380,3182.885551,-9474.636058,4826.401637
59413.418690,1110.308913,-8142.265362,1149.143247
59413.418999,0.000000,-9548.656652,2451.505594
59413.419309,-74.020594,-9474.636058,2374.896044
59413.419619,-962.267725,-8586.388927,1149.143247
59413.419929,-1036.288319,-7920.203579,1532.190996
59413.420239,592.164754,-7550.100608,1072.533697
59413.420548,1998.556043,-7254.018232,995.924147
59413.420858,-74.020594,-9252.574275,-229.828649
59413.421168,-3849.070898,-8956.491898,-2451.505594
59413.421478,-4145.153275,-9548.656652,-4290.134789
59413.421788,-74.020594,-11843.295072,-76.609550
59413.422098,-2960.823768,-7476.080014,0.000000
59413.422407,2294.638420,-10066.800811,2068.457845
59413.422717,0.000000,-7179.997637,2451.505594
59413.423027,1702.473667,-9918.759623,1762.019645
59413.423337,222.061783,-10510.924376,1608.800546
59413.423647,-222.061783,-10658.965565,1991.848295
59413.423956,-370.102971,-9474.636058,1455.581446
59413.424266,-74.020594,-9474.636058,2068.457845
59413.424576,-74.020594,-9474.636058,2374.896044
59413.424886,0.000000,-5403.503377,306.438199
59413.425196,3478.967927,-8290.306550,2374.896044
59413.425505,-2960.823768,-8512.368333,-3677.258390
59413.425815,-666.185348,-10658.965565,-2145.067394
59413.426125,-1184.329507,-9548.656652,-536.266849
59413.426435,-592.164754,-9622.677246,842.705048
59413.426745,-1110.308913,-7846.182985,-383.047749
59413.427055,74.020594,-9400.615463,1762.019645
59413.427364,1776.494261,-6587.832884,1225.752797
59413.427674,0.000000,-9548.656652,1225.752797
59413.427984,-74.020594,-13027.624579,2374.896044
59413.428294,-3997.112087,-9696.697840,0.000000
59413.428604,-666.185348,-9178.553681,-76.609550
59413.428913,-2368.659014,-10140.821405,2374.896044
59413.429223,-74.020594,-6217.729913,1378.971896
59413.429533,2886.803174,-6143.709319,1838.629195
59413.429843,2590.720797,-6883.915261,1762.019645
59413.430153,-592.164754,-8364.327145,0.000000
59413.430462,-74.020594,-10955.047942,-76.609550
59413.430772,-74.020594,-9474.636058,-689.485948
59413.431082,-2960.823768,-8364.327145,0.000000
59413.431392,1110.308913,-10066.800811,-76.609550
59413.431702,0.000000,-8364.327145,0.000000
59413.432012,0.000000,-8438.347739,0.000000
59413.432321,-444.123565,-11843.295072,1072.533697
59413.432631,-1406.391290,-11473.192101,1685.410096
59413.432941,-1998.556043,-9326.594869,842.705048
59413.433251,-1554.432478,-9474.636058,2374.896044
59413.433561,-2368.659014,-5995.668130,229.828649
59413.433870,0.000000,-4811.338623,1225.752797
59413.434180,4367.215058,-7105.977043,2987.772442
59413.434490,0.000000,-7179.997637,0.000000
59413.434800,-74.020594,-11843.295072,-76.609550
59413.435110,-74.020594,-11251.130318,-76.609550
59413.435419,-1554.432478,-9326.594869,-383.047749
59413.435729,-1332.370696,-9548.656652,76.609550
59413.436039,0.000000,-10362.883188,766.095498
59413.436349,0.000000,-9548.656652,0.000000
59413.436658,1702.473667,-12435.459826,2604.724693
59413.436968,-3552.988522,-9548.656652,0.000000
59413.437278,-2072.576638,-10732.986159,2451.505594
59413.437587,-4737.318029,-5995.668130,0.000000
59413.437897,-370.102971,-9326.594869,3447.429741
59413.438207,296.082377,-7328.038826,2604.724693
59413.438516,4663.297435,-5921.647536,3600.648841
59413.438826,1184.329507,-3627.009116,306.438199
59413.439136,-888.247130,-8956.491898,612.876398
59413.439446,-2442.679609,-10066.800811,-1302.362347
59413.439755,-3552.988522,-9548.656652,0.000000
59413.440065,-74.020594,-11843.295072,-76.609550
59413.440375,-2368.659014,-9548.656652,-995.924147
59413.440684,2960.823768,-12361.439231,4366.744339
59413.440994,1702.473667,-7920.203579,0.000000
59413.441304,814.226536,-9474.636058,1455.581446
59413.441613,-1702.473667,-10140.821405,1225.752797
59413.441923,-1850.514855,-8882.471304,1149.143247
59413.442233,-1924.535449,-8068.244768,919.314598
59413.442542,-888.247130,-8660.409521,2451.505594
59413.442852,2294.638420,-7105.977043,1149.143247
59413.443162,1184.329507,-4811.338623,153.219100
59413.443471,2738.761985,-8808.450710,2374.896044
59413.443781,-4145.153275,-7179.997637,-3064.381992
59413.444091,-1776.494261,-12657.521608,842.705048
59413.444401,-592.164754,-11473.192101,0.000000
59413.444710,-74.020594,-10658.965565,383.047749
59413.445020,888.247130,-10140.821405,919.314598
59413.445330,2368.659014,-9474.636058,1762.019645
59413.445639,1998.556043,-7476.080014,0.000000
59413.445949,0.000000,-9548.656652,1838.629195
59413.446259,-74.020594,-10658.965565,2374.896044
59413.446568,-2294.638420,-7476.080014,0.000000
59413.446878,-74.020594,-9474.636058,2374.896044
59413.447188,-3404.947333,-5107.421000,0.000000
59413.447497,666.185348,-5847.626942,229.828649
59413.447807,2368.659014,-6735.874072,1225.752797
59413.448117,222.061783,-9326.594869,536.266849
59413.448426,-2220.617826,-10584.944971,-766.095498
59413.448736,-666.185348,-12435.459826,-76.609550
59413.449046,-74.020594,-10658.965565,-76.609550
59413.449356,0.000000,-8364.327145,0.000000
59413.449665,2294.638420,-9474.636058,-76.609550
59413.449975,0.000000,-7476.080014,1225.752797
59413.450285,4663.297435,-11251.130318,2374.896044
59413.450594,-148.041188,-10732.986159,2145.067394
59413.450904,-1406.391290,-9474.636058,842.705048
59413.451214,-2294.638420,-8808.450710,842.705048
59413.451523,-2368.659014,-8808.450710,536.266849
59413.451833,-3552.988522,-5403.503377,0.000000
59413.452143,296.082377,-7179.997637,1225.752797
59413.452452,1702.473667,-9474.636058,1762.019645
59413.452762,-4737.318029,-7179.997637,-2451.505594
59413.453072,-1258.350101,-11843.295072,-76.609550
59413.453381,-3552.988522,-8364.327145,1225.752797
59413.453691,-888.247130,-8364.327145,536.266849
59413.454001,666.185348,-8364.327145,1532.190996
59413.454311,2368.659014,-7846.182985,1991.848295
59413.454620,2812.782580,-8068.244768,2604.724693
59413.454930,2294.638420,-12435.459826,2987.772442
59413.455240,-1850.514855,-10658.965565,76.609550
59413.455549,-4145.153275,-10140.821405,0.000000
59413.455859,-4959.379811,-8364.327145,-2068.457845
59413.456169,-1628.453072,-10658.965565,1149.143247
59413.456478,-74.020594,-7105.977043,-1302.362347
59413.456788,1184.329507,-7476.080014,1455.581446
59413.457098,-74.020594,-8438.347739,1378.971896
59413.457407,-1850.514855,-9474.636058,689.485948
59413.457717,-814.226536,-8882.471304,842.705048
59413.458027,-1036.288319,-7179.997637,1685.410096
59413.458336,962.267725,-8586.388927,2068.457845
59413.458646,1406.391290,-8290.306550,1532.190996
59413.458956,3034.844362,-7772.162391,1838.629195
59413.459266,1554.432478,-9474.636058,842.705048
59413.459575,-74.020594,-11843.295072,-383.047749
59413.459885,-3034.844362,-11251.130318,-2221.676944
59413.460195,-4737.318029,-10732.986159,-2451.505594
59413.460504,-1850.514855,-13027.624579,-76.609550
59413.460814,-2590.720797,-9474.636058,-689.485948
59413.461124,0.000000,-5107.421000,1225.752797
59413.461433,2960.823768,-7105.977043,2757.943793
59413.461743,814.226536,-7698.141797,1915.238745
59413.462053,0.000000,-8660.409521,1685.410096
59413.462362,1776.494261,-7105.977043,2145.067394
59413.462672,3478.967927,-7994.224174,2374.896044
59413.462982,518.144159,-7994.224174,-76.609550
59413.463291,0.000000,-7772.162391,1225.752797
59413.463601,3182.885551,-8882.471304,1149.143247
59413.463911,0.000000,-9696.697840,0.000000
59413.464221,-4145.153275,-10436.903782,-1838.629195
59413.464530,-4071.132681,-13249.686362,-1455.581446
59413.464840,-3330.926739,-11843.295072,-1455.581446
59413.465150,-2812.782580,-9992.780217,-612.876398
59413.465459,-814.226536,-8586.388927,995.924147
59413.465769,3478.967927,-7698.141797,2987.772442
59413.466079,2738.761985,-6809.894666,2374.896044
59413.466388,0.000000,-6291.750507,1225.752797
59413.466698,2294.638420,-8882.471304,2987.772442
59413.467008,0.000000,-6883.915261,1532.190996
59413.467317,1110.308913,-7698.141797,0.000000
59413.467627,1480.411884,-9400.615463,2145.067394
59413.467937,2442.679609,-9178.553681,1915.238745
59413.468246,1554.432478,-9326.594869,1072.533697
59413.468556,-1776.494261,-11547.212695,-76.609550
59413.468866,-2368.659014,-14211.954086,-306.438199
59413.469176,-1850.514855,-14211.954086,-76.609550
59413.469485,-4589.276840,-8364.327145,-2298.286494
59413.469795,-2368.659014,-9548.656652,612.876398
59413.470105,1702.473667,-8290.306550,2068.457845
59413.470414,3182.885551,-5921.647536,1608.800546
59413.470724,518.144159,-6291.750507,2068.457845
59413.471034,-370.102971,-7920.203579,1225.752797
59413.471343,0.000000,-8216.285956,1378.971896
59413.471653,518.144159,-9178.553681,2834.553343
59413.471963,0.000000,-10140.821405,1838.629195
59413.472272,1628.453072,-11251.130318,2681.334243
59413.472582,814.226536,-7402.059420,-383.047749
59413.472892,1184.329507,-10214.842000,1838.629195
59413.473201,-1258.350101,-10955.047942,-153.219100
59413.473511,-2442.679609,-12287.418637,-76.609550
59413.473821,-3034.844362,-11029.068536,0.000000
59413.474131,-2220.617826,-10066.800811,0.000000
59413.474440,-1332.370696,-8142.265362,229.828649
59413.474750,518.144159,-6809.894666,1838.629195
59413.475060,0.000000,-4959.379811,1838.629195
59413.475369,-296.082377,-8956.491898,2911.162892
59413.475679,-666.185348,-9474.636058,-76.609550
59413.475989,-2368.659014,-8364.327145,612.876398
59413.476298,-74.020594,-10066.800811,1762.019645
59413.476608,1998.556043,-9474.636058,2987.772442
59413.476918,1998.556043,-7846.182985,1915.238745
59413.477227,2960.823768,-7846.182985,2681.334243
59413.477537,1110.308913,-9622.677246,1378.971896
59413.477847,-962.267725,-10732.986159,0.000000
59413.478156,-3256.906145,-9548.656652,0.000000
59413.478466,-3552.988522,-8364.327145,0.000000
59413.478776,-666.185348,-11843.295072,-76.609550
59413.479086,-2146.597232,-7846.182985,-1302.362347
59413.479395,0.000000,-7476.080014,766.095498
59413.479705,-888.247130,-8882.471304,2374.896044
59413.480015,-2146.597232,-8660.409521,0.000000
59413.480324,-2072.576638,-8956.491898,766.095498
59413.480634,0.000000,-8808.450710,1455.581446
59413.480944,740.205942,-8068.244768,612.876398
59413.481253,74.020594,-5995.668130,1225.752797
59413.481563,1184.329507,-4811.338623,1225.752797
59413.481873,5847.626942,-9474.636058,4213.525239
59413.482182,-1332.370696,-8956.491898,0.000000
59413.482492,-2368.659014,-11917.315666,459.657299
59413.482802,-2368.659014,-13323.706956,-76.609550
59413.483111,-2146.597232,-11251.130318,-995.924147
59413.483421,-2812.782580,-10362.883188,-766.095498
59413.483731,-1406.391290,-8808.450710,-689.485948
59413.484041,-888.247130,-6587.832884,-1608.800546
59413.484350,-1850.514855,-7105.977043,-1225.752797
59413.484660,-4145.153275,-6587.832884,0.000000
59413.484970,2886.803174,-9474.636058,4213.525239
59413.485279,0.000000,-5699.585753,1838.629195
59413.485589,2368.659014,-7550.100608,4519.963438
59413.485899,2368.659014,-5995.668130,4290.134789
59413.486208,4663.297435,-6587.832884,2911.162892
59413.486518,1184.329507,-8586.388927,612.876398
59413.486828,-1924.535449,-11473.192101,-766.095498
59413.487137,-3256.906145,-13323.706956,-1608.800546
59413.487447,-1850.514855,-13323.706956,-2681.334243
59413.487757,-4515.256246,-10732.986159,-3677.258390
59413.488066,-4145.153275,-10140.821405,0.000000
59413.488376,-74.020594,-9474.636058,2374.896044
59413.488686,74.020594,-6365.771101,2068.457845
59413.488996,-1480.411884,-5995.668130,1225.752797
59413.489305,370.102971,-8142.265362,2451.505594
59413.489615,1628.453072,-6513.812290,3447.429741
59413.489925,1850.514855,-6439.791695,3217.601092
59413.490234,1702.473667,-6809.894666,2987.772442
59413.490544,4663.297435,-8290.306550,3600.648841
59413.490854,3182.885551,-5921.647536,-76.609550
59413.491163,0.000000,-10732.986159,612.876398
59413.491473,-2738.761985,-13027.624579,-1608.800546
59413.491783,-5477.523971,-13989.892304,-3677.258390
59413.492092,-4737.318029,-11917.315666,-3677.258390
59413.492402,-3256.906145,-12805.562797,-1225.752797
59413.492712,-814.226536,-10066.800811,76.609550
59413.493021,1110.308913,-7105.977043,1378.971896
59413.493331,1406.391290,-7105.977043,3600.648841
59413.493641,2072.576638,-8290.306550,1991.848295
59413.493951,2886.803174,-8882.471304,4826.401637
59413.494260,0.000000,-4811.338623,2451.505594
59413.494570,2664.741391,-7624.121203,4826.401637
59413.494880,2294.638420,-6587.832884,1225.752797
59413.495189,1998.556043,-5921.647536,459.657299
59413.495499,1184.329507,-7920.203579,766.095498
59413.495809,-2516.700203,-11769.274478,-1378.971896
59413.496118,-5255.462188,-13397.727550,-3370.820191
59413.496428,-3627.009116,-16210.510130,-1302.362347
59413.496738,-3552.988522,-13397.727550,-2145.067394
59413.497047,-962.267725,-13027.624579,-76.609550
59413.497357,-962.267725,-6809.894666,-842.705048
59413.497667,592.164754,-6587.832884,3064.381992
59413.497976,1406.391290,-5995.668130,995.924147
59413.498286,1702.473667,-6809.894666,2374.896044
59413.498596,1036.288319,-6143.709319,2911.162892
59413.498906,1406.391290,-6735.874072,3064.381992
59413.499215,1110.308913,-7031.956449,2604.724693
59413.499525,1776.494261,-8364.327145,3064.381992
59413.499835,2368.659014,-7624.121203,2681.334243
59413.500144,1776.494261,-11251.130318,2145.067394
59413.500454,-3034.844362,-12287.418637,-1608.800546
59413.500764,-4737.318029,-12805.562797,-4903.011187
59413.501073,-3627.009116,-12953.603985,-2528.115143
59413.501383,-1554.432478,-11843.295072,-689.485948
59413.501693,-1924.535449,-9844.739029,-306.438199
59413.502002,888.247130,-6809.894666,842.705048
59413.502312,1258.350101,-5329.482782,1302.362347
59413.502622,0.000000,-5995.668130,1225.752797
59413.502932,0.000000,-5995.668130,0.000000
59413.503241,0.000000,-7179.997637,3064.381992
59413.503551,2294.638420,-8882.471304,2987.772442
59413.503861,296.082377,-6291.750507,0.000000
59413.504170,3478.967927,-8290.306550,3294.210641
59413.504480,4663.297435,-9474.636058,2987.772442
59413.504790,-518.144159,-10807.006753,0.000000
59413.505099,-2664.741391,-12583.501014,-1302.362347
59413.505409,-3108.864956,-13323.706956,-1532.190996
59413.505719,-4441.235652,-10140.821405,-2451.505594
59413.506028,-3552.988522,-10658.965565,-229.828649
59413.506338,-2368.659014,-6291.750507,-2068.457845
59413.506648,296.082377,-7179.997637,1225.752797
59413.506957,-74.020594,-6291.750507,-1608.800546
59413.507267,-1702.473667,-9474.636058,1762.019645
59413.507577,-518.144159,-9992.780217,3064.381992
59413.507887,444.123565,-8512.368333,2604.724693
59413.508196,1110.308913,-7624.121203,2911.162892
59413.508506,2220.617826,-7254.018232,2911.162892
59413.508816,2146.597232,-4811.338623,2374.896044
59413.509125,2738.761985,-8586.388927,2145.067394
59413.509435,-2368.659014,-9548.656652,0.000000
59413.509745,-1036.288319,-13915.871710,-76.609550
59413.510054,-3034.844362,-11843.295072,-2528.115143
59413.510364,-3034.844362,-11843.295072,-689.485948
59413.510674,-2960.823768,-10288.862594,-919.314598
59413.510983,-222.061783,-8586.388927,-229.828649
59413.511293,0.000000,-7994.224174,0.000000
59413.511603,-1258.350101,-9326.594869,612.876398
59413.511912,-1850.514855,-8882.471304,1455.581446
59413.512222,-666.185348,-9252.574275,2604.724693
59413.512532,-74.020594,-7105.977043,2068.457845
59413.512842,592.164754,-5995.668130,3064.381992
59413.513151,4663.297435,-7105.977043,4826.401637
59413.513461,5403.503377,-6291.750507,4903.011187
59413.513771,1184.329507,-7179.997637,612.876398
59413.514080,-1924.535449,-11843.295072,-76.609550
59413.514390,-4293.194464,-12583.501014,-2221.676944
59413.514700,-3849.070898,-12361.439231,-1991.848295
59413.515009,-2442.679609,-11843.295072,-1915.238745
59413.515319,-1258.350101,-9548.656652,-1225.752797
59413.515629,1702.473667,-9474.636058,-76.609550
59413.515938,-1628.453072,-7772.162391,-1149.143247
59413.516248,-74.020594,-13027.624579,3294.210641
59413.516558,0.000000,-8364.327145,2451.505594
59413.516867,0.000000,-7179.997637,2451.505594
59413.517177,1480.411884,-6735.874072,3830.477490
59413.517487,2886.803174,-6217.729913,4290.134789
59413.517797,4367.215058,-5477.523971,3830.477490
59413.518106,5847.626942,-7105.977043,2987.772442
59413.518416,0.000000,-8808.450710,612.876398
59413.518726,-1258.350101,-13027.624579,-689.485948
59413.519035,-4737.318029,-11917.315666,-3370.820191
59413.519345,-2072.576638,-13693.809927,306.438199
59413.519655,-3552.988522,-9844.739029,-2451.505594
59413.519964,-2812.782580,-8364.327145,-2298.286494
59413.520274,0.000000,-8956.491898,153.219100
59413.520584,296.082377,-9326.594869,536.266849
59413.520893,-740.205942,-10140.821405,1685.410096
59413.521203,1036.288319,-8956.491898,3064.381992
59413.521513,0.000000,-6587.832884,3677.258390
59413.521822,2294.638420,-6513.812290,3600.648841
59413.522132,1184.329507,-3627.009116,3064.381992
59413.522442,5847.626942,-8290.306550,6052.154434
59413.522752,148.041188,-5403.503377,0.000000
59413.523061,-1554.432478,-11547.212695,-383.047749
59413.523371,-4737.318029,-11991.336260,-2298.286494
59413.523681,-5329.482782,-14434.015869,-2451.505594
59413.523990,-2368.659014,-11325.150913,-2451.505594
59413.524300,-2072.576638,-10140.821405,-1532.190996
59413.524610,0.000000,-7179.997637,0.000000
59413.524919,-74.020594,-10510.924376,842.705048
59413.525229,-2442.679609,-8882.471304,-536.266849
59413.525539,-888.247130,-11029.068536,3064.381992
59413.525848,-2738.761985,-7846.182985,1149.143247
59413.526158,-74.020594,-6513.812290,2987.772442
59413.526468,1998.556043,-5477.523971,4903.011187
59413.526777,6513.812290,-3627.009116,5209.449386
59413.527087,5625.565159,-5625.565159,4519.963438
59413.527397,0.000000,-7179.997637,1225.752797
59413.527707,-4737.318029,-11325.150913,-2145.067394
59413.528016,-4737.318029,-13841.851115,-919.314598
59413.528326,-2738.761985,-14211.954086,-1915.238745
59413.528636,-6513.812290,-9548.656652,-3677.258390
59413.528945,-74.020594,-9326.594869,-2528.115143
59413.529255,2590.720797,-9474.636058,-76.609550
59413.529565,740.205942,-8734.430116,0.000000
59413.529874,-1776.494261,-10066.800811,689.485948
59413.530184,-814.226536,-9326.594869,1608.800546
59413.530494,-1998.556043,-7476.080014,1838.629195
59413.530803,0.000000,-5107.421000,1685.410096
59413.531113,2368.659014,-5995.668130,4903.011187
59413.531423,5847.626942,-4737.318029,4519.963438
59413.531732,2960.823768,-5995.668130,4903.011187
59413.532042,-74.020594,-11843.295072,-76.609550
59413.532352,-2146.597232,-13471.748144,-76.609550
59413.532662,-3923.091493,-13027.624579,-2221.676944
59413.532971,-3552.988522,-12139.377449,-2528.115143
59413.533281,-2812.782580,-10658.965565,-2221.676944
59413.533591,-370.102971,-7402.059420,-76.609550
59413.533900,1110.308913,-7698.141797,-383.047749
59413.534210,-1776.494261,-9548.656652,0.000000
59413.534520,-666.185348,-12435.459826,2374.896044
59413.534829,-1258.350101,-8290.306550,536.266849
59413.535139,1110.308913,-9474.636058,4826.401637
59413.535449,1924.535449,-6883.915261,4903.011187
59413.535759,3849.070898,-5255.462188,4979.620737
59413.536068,5255.462188,-4737.318029,4749.792088
59413.536378,3256.906145,-7624.121203,3677.258390
59413.536688,-1258.350101,-10658.965565,689.485948
59413.536998,-2442.679609,-12435.459826,-689.485948
59413.537308,-5107.421000,-10732.986159,-3370.820191
59413.537617,-4441.235652,-8068.244768,-4826.401637
59413.537927,-1776.494261,-9844.739029,0.000000
59413.538237,3478.967927,-11843.295072,-76.609550
59413.538547,1554.432478,-8808.450710,-2451.505594
59413.538857,-3552.988522,-10732.986159,0.000000
59413.539166,-2516.700203,-11251.130318,-76.609550
59413.539476,-1850.514855,-10066.800811,1149.143247
59413.539786,-74.020594,-7402.059420,2987.772442
59413.540096,2146.597232,-6143.709319,3983.696590
59413.540406,2664.741391,-3034.844362,3677.258390
59413.540715,6439.791695,-6735.874072,5439.278036
59413.541025,814.226536,-6143.709319,229.828649
59413.541335,-962.267725,-13323.706956,2145.067394
59413.541645,-3997.112087,-11917.315666,-1225.752797
59413.541955,-3627.009116,-11843.295072,-2221.676944
59413.542264,-3404.947333,-11029.068536,-2298.286494
59413.542574,-1036.288319,-9104.533087,-1608.800546
59413.542884,1998.556043,-9474.636058,-76.609550
59413.543194,0.000000,-9844.739029,919.314598
59413.543503,-1850.514855,-11251.130318,-76.609550
59413.543813,-3552.988522,-10140.821405,1225.752797
59413.544123,-74.020594,-10658.965565,4213.525239
59413.544433,296.082377,-7254.018232,4826.401637
59413.544743,1184.329507,-3923.091493,3677.258390
59413.545052,5699.585753,-3627.009116,5056.230287
59413.545362,4589.276840,-4885.359217,3217.601092
59413.545672,666.185348,-8586.388927,1149.143247
59413.545982,-1850.514855,-13027.624579,-76.609550
59413.546292,-4145.153275,-12287.418637,-2451.505594
59413.546601,-2442.679609,-14063.912898,-1915.238745
59413.546911,-4071.132681,-9548.656652,-5515.887586
59413.547221,0.000000,-10732.986159,0.000000
59413.547531,1184.329507,-10140.821405,0.000000
59413.547841,-1628.453072,-9844.739029,-1149.143247
59413.548150,-2220.617826,-11399.171507,842.705048
59413.548460,-1258.350101,-8882.471304,1762.019645
59413.548770,-1702.473667,-6735.874072,2757.943793
59413.549080,2072.576638,-6291.750507,4443.353888
59413.549390,4145.153275,-3330.926739,4903.011187
59413.549699,6439.791695,-3552.988522,4519.963438
59413.550009,2368.659014,-5403.503377,3064.381992
59413.550319,-74.020594,-11843.295072,-76.609550
59413.550629,-4737.318029,-9548.656652,-2451.505594
59413.550939,-3627.009116,-12287.418637,-2987.772442
59413.551248,-3108.864956,-12509.480420,-2298.286494
59413.551558,-3330.926739,-11621.233289,-2604.724693
59413.551868,-1184.329507,-10807.006753,-1532.190996
59413.552178,592.164754,-10140.821405,-612.876398
59413.552487,-2072.576638,-10732.986159,1225.752797
59413.552797,-74.020594,-11547.212695,2374.896044
59413.553107,-370.102971,-6513.812290,1149.143247
59413.553417,0.000000,-5403.503377,3677.258390
59413.553727,592.164754,-3034.844362,2451.505594
59413.554036,5255.462188,-2960.823768,4826.401637
59413.554346,5107.421000,-3627.009116,4366.744339
59413.554656,2146.597232,-7550.100608,2451.505594
59413.554966,-2072.576638,-11547.212695,153.219100
59413.555276,-4737.318029,-12361.439231,-1762.019645
59413.555585,-4737.318029,-11917.315666,-4290.134789
59413.555895,-3256.906145,-13101.645173,-1991.848295
59413.556205,-1258.350101,-13027.624579,-2528.115143
59413.556515,0.000000,-7772.162391,-3677.258390
59413.556825,-518.144159,-9252.574275,-2757.943793
59413.557134,-1258.350101,-12435.459826,-76.609550
59413.557444,-1924.535449,-10140.821405,1378.971896
59413.557754,-666.185348,-8660.409521,2604.724693
59413.558064,888.247130,-6735.874072,4213.525239
59413.558374,2960.823768,-2960.823768,5132.839837
59413.558683,6143.709319,-3256.906145,5286.058936
59413.558993,3552.988522,-3775.050304,4290.134789
59413.559303,1998.556043,-9474.636058,3600.648841
59413.559613,-4737.318029,-9548.656652,0.000000
59413.559922,-2442.679609,-12287.418637,-1302.362347
59413.560232,-2442.679609,-12879.583391,-1915.238745
59413.560542,-3034.844362,-12139.377449,-1915.238745
59413.560852,-2812.782580,-10658.965565,-1991.848295
59413.561162,-444.123565,-9178.553681,-2068.457845
59413.561471,-2738.761985,-10881.027347,-766.095498
59413.561781,-2442.679609,-10658.965565,-383.047749
59413.562091,-3404.947333,-8364.327145,0.000000
59413.562401,0.000000,-8364.327145,3983.696590
59413.562711,3478.967927,-8290.306550,4826.401637
59413.563020,6439.791695,-4737.318029,4826.401637
59413.563330,6069.688724,-4441.235652,5669.106685
59413.563640,3478.967927,-6365.771101,3907.087040
59413.563950,-370.102971,-10066.800811,1762.019645
59413.564260,-2146.597232,-11769.274478,919.314598
59413.564569,-2146.597232,-11843.295072,-1455.581446
59413.564879,-3034.844362,-11843.295072,-2528.115143
59413.565189,-3552.988522,-9770.718434,-2834.553343
59413.565499,-2368.659014,-8364.327145,0.000000
59413.565809,2294.638420,-11251.130318,-383.047749
59413.566118,-74.020594,-11843.295072,-76.609550
59413.566428,-3849.070898,-10881.027347,0.000000
59413.566738,-1332.370696,-9474.636058,1455.581446
59413.567048,-370.102971,-8512.368333,2911.162892
59413.567357,1628.453072,-5995.668130,4136.915689
59413.567667,4663.297435,-4441.235652,5669.106685
59413.567977,4515.256246,-5329.482782,4903.011187
59413.568287,814.226536,-7772.162391,1608.800546
59413.568597,-2368.659014,-10140.821405,1225.752797
59413.568906,-74.020594,-13027.624579,-76.609550
59413.569216,-370.102971,-13027.624579,-76.609550
59413.569526,-2368.659014,-10732.986159,-1225.752797
59413.569836,-814.226536,-9770.718434,-995.924147
59413.570146,740.205942,-9104.533087,-536.266849
59413.570455,-518.144159,-8956.491898,-919.314598
59413.570765,-3627.009116,-10288.862594,-1838.629195
59413.571075,-3997.112087,-9918.759623,-766.095498
59413.571385,-666.185348,-9474.636058,842.705048
59413.571695,0.000000,-7179.997637,2451.505594
59413.572004,4367.215058,-8290.306550,4826.401637
59413.572314,4145.153275,-6735.874072,6128.763984
59413.572624,3552.988522,-4219.173869,2834.553343
59413.572934,666.185348,-9474.636058,2604.724693
59413.573244,-1110.308913,-10066.800811,1149.143247
59413.573553,-1110.308913,-11103.089130,153.219100
59413.573863,-814.226536,-10288.862594,-2145.067394
59413.574173,-2072.576638,-10140.821405,-1302.362347
59413.574483,-74.020594,-9474.636058,-1302.362347
59413.574792,0.000000,-7179.997637,0.000000
59413.575102,-1480.411884,-11621.233289,0.000000
59413.575412,-4145.153275,-10140.821405,0.000000
59413.575722,-2886.803174,-10362.883188,-842.705048
59413.576032,-1036.288319,-9474.636058,1225.752797
59413.576341,888.247130,-8068.244768,2987.772442
59413.576651,2664.741391,-5995.668130,3600.648841
59413.576961,3552.988522,-4811.338623,3370.820191
59413.577271,1480.411884,-6587.832884,2604.724693
59413.577581,-74.020594,-10066.800811,2374.896044
59413.577890,-4145.153275,-7179.997637,0.000000
59413.578200,0.000000,-8364.327145,0.000000
59413.578510,-4145.153275,-9548.656652,-2145.067394
59413.578820,-1258.350101,-8956.491898,-1915.238745
59413.579130,-444.123565,-8734.430116,-1532.190996
59413.579439,296.082377,-9918.759623,-919.314598
59413.579749,-1480.411884,-10881.027347,-689.485948
59413.580059,-2368.659014,-10140.821405,-383.047749
59413.580369,-1776.494261,-9548.656652,306.438199
59413.580679,592.164754,-8956.491898,4826.401637
59413.580988,1702.473667,-5921.647536,2221.676944
59413.581298,1184.329507,-4811.338623,3064.381992
59413.581608,0.000000,-3034.844362,2451.505594
59413.581918,518.144159,-7994.224174,2068.457845
59413.582227,-1406.391290,-9622.677246,1225.752797
59413.582537,-888.247130,-9918.759623,612.876398
59413.582847,-962.267725,-10288.862594,76.609550
59413.583157,-1332.370696,-10658.965565,-76.609550
59413.583467,-444.123565,-9696.697840,-1225.752797
59413.583776,-1184.329507,-8660.409521,0.000000
59413.584086,-74.020594,-12731.542202,-76.609550
59413.584396,-3923.091493,-10658.965565,-2374.896044
59413.584706,-4515.256246,-9622.677246,-2911.162892
59413.585016,-370.102971,-10362.883188,1302.362347
59413.585325,814.226536,-8216.285956,2987.772442
59413.585635,3108.864956,-6365.771101,3907.087040
59413.585945,2960.823768,-4737.318029,4596.572988
59413.586255,1406.391290,-6809.894666,3294.210641
59413.586565,-2220.617826,-7772.162391,1302.362347
59413.586874,-1480.411884,-9844.739029,2451.505594
59413.587184,-74.020594,-11843.295072,-76.609550
59413.587494,-2960.823768,-8364.327145,-2145.067394
59413.587804,-1258.350101,-9474.636058,-2221.676944
59413.588114,-814.226536,-10288.862594,-1302.362347
59413.588423,-1554.432478,-9844.739029,-1532.190996
59413.588733,-3330.926739,-10584.944971,-2374.896044
59413.589043,-4145.153275,-11769.274478,-2068.457845
59413.589353,-2442.679609,-12361.439231,1072.533697
59413.589662,370.102971,-9178.553681,1762.019645
59413.589972,962.267725,-4959.379811,1149.143247
59413.590282,3552.988522,-6587.832884,6741.640382
59413.590592,4663.297435,-5921.647536,4826.401637
59413.590902,2294.638420,-6809.894666,1455.581446
59413.591211,0.000000,-9696.697840,2834.553343
59413.591521,-962.267725,-9770.718434,1302.362347
59413.591831,-1258.350101,-10362.883188,-153.219100
59413.592141,-1776.494261,-10881.027347,-689.485948
59413.592451,-74.020594,-11251.130318,-383.047749
59413.592760,-1258.350101,-8734.430116,-2528.115143
59413.593070,-2368.659014,-7772.162391,-4903.011187
59413.593380,-1776.494261,-13101.645173,306.438199
59413.593690,-1850.514855,-11843.295072,-1608.800546
59413.594000,-74.020594,-11843.295072,-76.609550
59413.594309,0.000000,-8660.409521,1455.581446
59413.594619,1776.494261,-7624.121203,3677.258390
59413.594929,3997.112087,-4885.359217,4060.306139
59413.595239,3108.864956,-5403.503377,4290.134789
59413.595549,1776.494261,-7920.203579,4290.134789
59413.595858,1110.308913,-9178.553681,2374.896044
59413.596168,-1480.411884,-9178.553681,-689.485948
59413.596478,-3552.988522,-9548.656652,0.000000
59413.596788,-74.020594,-11251.130318,-76.609550
59413.597097,1776.494261,-9474.636058,-76.609550
59413.597407,0.000000,-7179.997637,-2451.505594
59413.597717,-1850.514855,-10140.821405,-2451.505594
59413.598027,-2960.823768,-11473.192101,-1532.190996
59413.598337,-2368.659014,-11843.295072,-842.705048
59413.598646,-1776.494261,-9844.739029,612.876398
59413.598956,0.000000,-9770.718434,2221.676944
59413.599266,2886.803174,-6513.812290,1762.019645
59413.599576,2368.659014,-6143.709319,5515.887586
59413.599886,2886.803174,-6217.729913,3600.648841
59413.600195,1184.329507,-8068.244768,4290.134789
59413.600505,962.267725,-8882.471304,2757.943793
59413.600815,0.000000,-7179.997637,1072.533697
59413.601125,-1480.411884,-9178.553681,0.000000
59413.601435,-1850.514855,-8808.450710,-1455.581446
59413.601744,-2072.576638,-5995.668130,-3064.381992
59413.602054,-1184.329507,-8956.491898,-2145.067394
59413.602364,-1850.514855,-11843.295072,-1915.238745
59413.602674,-6513.812290,-10732.986159,-3370.820191
59413.602984,-1554.432478,-13471.748144,-76.609550
59413.603293,-1184.329507,-11325.150913,1149.143247
59413.603603,222.061783,-8734.430116,1762.019645
59413.603913,1480.411884,-6883.915261,3370.820191
59413.604223,1850.514855,-6439.791695,3447.429741
59413.604532,1110.308913,-6883.915261,3217.601092
59413.604842,0.000000,-6069.688724,2757.943793
59413.605152,0.000000,-7179.997637,2298.286494
59413.605462,74.020594,-7402.059420,0.000000
59413.605772,-74.020594,-11251.130318,1762.019645
59413.606081,-666.185348,-8142.265362,-1915.238745
59413.606391,1184.329507,-9474.636058,919.314598
59413.606701,-1258.350101,-9844.739029,-2221.676944
59413.607011,-4737.318029,-11251.130318,-2834.553343
59413.607321,-6439.791695,-13323.706956,-2528.115143
59413.607630,-3256.906145,-13175.665768,-306.438199
59413.607940,0.000000,-9992.780217,2911.162892
59413.608250,1850.514855,-7846.182985,4519.963438
59413.608560,4071.132681,-8290.306550,6665.030833
59413.608870,0.000000,-3627.009116,2451.505594
59413.609179,1406.391290,-8290.306550,4749.792088
59413.609489,-2368.659014,-4811.338623,842.705048
59413.609799,1036.288319,-7105.977043,2374.896044
59413.610109,-370.102971,-8364.327145,459.657299
59413.610419,-296.082377,-8660.409521,0.000000
59413.610728,518.144159,-9548.656652,0.000000
59413.611038,0.000000,-9178.553681,-383.047749
59413.611348,-2294.638420,-10066.800811,-2681.334243
59413.611658,-4737.318029,-13101.645173,-3064.381992
59413.611968,-1258.350101,-15396.283594,-1302.362347
59413.612277,-3552.988522,-10807.006753,-2221.676944
59413.612587,-962.267725,-7402.059420,0.000000
59413.612897,3478.967927,-7994.224174,3600.648841
59413.613207,3701.029710,-4959.379811,3370.820191
59413.613516,2220.617826,-7031.956449,3600.648841
59413.613826,518.144159,-8216.285956,3217.601092
59413.614136,1110.308913,-9178.553681,3294.210641
59413.614446,814.226536,-8660.409521,1991.848295
59413.614756,-2220.617826,-8364.327145,0.000000
59413.615065,-1258.350101,-7994.224174,-1608.800546
59413.615375,0.000000,-8364.327145,0.000000
59413.615685,-74.020594,-9474.636058,-1915.238745
59413.615995,-2664.741391,-11547.212695,-1838.629195
59413.616305,-3923.091493,-13101.645173,-1991.848295
59413.616614,-3182.885551,-11695.253884,-2068.457845
59413.616924,-1628.453072,-11029.068536,-76.609550
59413.617234,2294.638420,-10510.924376,3600.648841
59413.617544,2664.741391,-6291.750507,2911.162892
59413.617854,2368.659014,-4811.338623,0.000000
59413.618163,2590.720797,-8882.471304,4519.963438
59413.618473,814.226536,-8290.306550,2374.896044
59413.618783,2886.803174,-9474.636058,2374.896044
59413.619093,0.000000,-8364.327145,1532.190996
59413.619403,-1924.535449,-9104.533087,306.438199
59413.619712,-1036.288319,-8882.471304,-536.266849
59413.620022,962.267725,-8586.388927,0.000000
59413.620332,1110.308913,-10732.986159,1302.362347
59413.620642,-2442.679609,-11843.295072,-1915.238745
59413.620951,-5329.482782,-9696.697840,-4366.744339
59413.621261,-4737.318029,-10732.986159,0.000000
59413.621571,-74.020594,-11251.130318,842.705048
59413.621881,3478.967927,-9474.636058,3600.648841
59413.622191,2516.700203,-5403.503377,2528.115143
59413.622500,3034.844362,-6661.853478,3370.820191
59413.622810,1628.453072,-8734.430116,3600.648841
59413.623120,1036.288319,-8882.471304,3217.601092
59413.623430,1184.329507,-8364.327145,3370.820191
59413.623740,-518.144159,-9326.594869,1149.143247
59413.624049,-2664.741391,-7254.018232,-2451.505594
59413.624359,-74.020594,-13027.624579,2374.896044
59413.624669,1110.308913,-7698.141797,-689.485948
59413.624979,-888.247130,-11547.212695,1608.800546
59413.625289,-3478.967927,-10584.944971,-1915.238745
59413.625598,-3404.947333,-10658.965565,-1532.190996
59413.625908,-1924.535449,-10288.862594,229.828649
59413.626218,-888.247130,-8438.347739,1072.533697
59413.626528,0.000000,-6587.832884,2451.505594
59413.626838,3775.050304,-7105.977043,3600.648841
59413.627147,2294.638420,-8290.306550,2374.896044
59413.627457,0.000000,-8364.327145,2451.505594
59413.627767,-74.020594,-10658.965565,2374.896044
59413.628077,-1184.329507,-8660.409521,2757.943793
59413.628386,-1554.432478,-9770.718434,229.828649
59413.628696,-1110.308913,-8808.450710,306.438199
59413.629006,1184.329507,-8068.244768,919.314598
59413.629316,592.164754,-8586.388927,459.657299
59413.629626,-3256.906145,-9548.656652,-2451.505594
59413.629935,-2960.823768,-11029.068536,-612.876398
59413.630245,-74.020594,-13027.624579,2374.896044
59413.630555,-1258.350101,-7254.018232,-995.924147
59413.630865,296.082377,-8660.409521,2451.505594
59413.631175,592.164754,-7179.997637,3064.381992
59413.631484,2294.638420,-8290.306550,2528.115143
59413.631794,-296.082377,-9474.636058,1838.629195
59413.632104,-1924.535449,-10066.800811,1149.143247
59413.632414,-1258.350101,-9400.615463,1225.752797
59413.632724,-1554.432478,-7402.059420,-1149.143247
59413.633033,-2368.659014,-8364.327145,612.876398
59413.633343,2294.638420,-11843.295072,2374.896044
59413.633653,0.000000,-5995.668130,0.000000
59413.633963,296.082377,-9992.780217,919.314598
59413.634273,-3701.029710,-9696.697840,-2145.067394
59413.634583,-1998.556043,-11399.171507,-689.485948
59413.634893,-814.226536,-10288.862594,-383.047749
59413.635203,-296.082377,-8956.491898,919.314598
59413.635513,962.267725,-7846.182985,1838.629195
59413.635822,3182.885551,-7105.977043,2374.896044
59413.636132,444.123565,-7328.038826,1455.581446
59413.636442,-74.020594,-12879.583391,4213.525239
59413.636752,-1850.514855,-8882.471304,0.000000
59413.637062,-1776.494261,-7179.997637,0.000000
59413.637371,-1480.411884,-7476.080014,0.000000
59413.637681,-222.061783,-8438.347739,1072.533697
59413.637991,1998.556043,-7179.997637,459.657299
59413.638301,1702.473667,-7772.162391,229.828649
59413.638610,-2368.659014,-8660.409521,-1838.629195
59413.638920,-4441.235652,-11177.109724,-842.705048
59413.639230,-4737.318029,-9548.656652,-2451.505594
59413.639540,-74.020594,-11843.295072,-76.609550
59413.639850,-3256.906145,-5995.668130,0.000000
59413.640159,2516.700203,-8808.450710,3064.381992
59413.640469,2664.741391,-6809.894666,1991.848295
59413.640779,1628.453072,-9474.636058,2451.505594
59413.641089,-1554.432478,-10362.883188,1608.800546
59413.641399,-1332.370696,-9400.615463,1455.581446
59413.641708,-740.205942,-8586.388927,1532.190996
59413.642018,-74.020594,-9474.636058,2068.457845
59413.642328,-1554.432478,-7105.977043,-383.047749
59413.642638,2368.659014,-9252.574275,3064.381992
59413.642947,-74.020594,-8290.306550,-689.485948
59413.643257,-4737.318029,-9548.656652,-1838.629195
59413.643567,-2442.679609,-11399.171507,-2451.505594
59413.643877,-1184.329507,-9844.739029,0.000000
59413.644187,74.020594,-8512.368333,919.314598
59413.644496,888.247130,-7920.203579,1991.848295
59413.644806,2072.576638,-7698.141797,3600.648841
59413.645116,3478.967927,-9474.636058,4213.525239
59413.645426,-74.020594,-10658.965565,1915.238745
59413.645736,-4145.153275,-8364.327145,1225.752797
59413.646045,-74.020594,-9474.636058,2374.896044
59413.646355,-2368.659014,-7179.997637,0.000000
59413.646665,-74.020594,-8290.306550,-76.609550
59413.646975,222.061783,-7179.997637,995.924147
59413.647284,1998.556043,-7698.141797,1149.143247
59413.647594,-444.123565,-9326.594869,153.219100
59413.647904,-3182.885551,-10881.027347,-76.609550
59413.648214,-2368.659014,-11325.150913,919.314598
59413.648524,-74.020594,-9474.636058,-76.609550
59413.648833,-2368.659014,-5995.668130,0.000000
59413.649143,3478.967927,-9474.636058,2374.896044
59413.649453,1184.329507,-7179.997637,1225.752797
59413.649763,2886.803174,-10658.965565,2374.896044
59413.650073,-1184.329507,-10807.006753,1072.533697
59413.650382,-1850.514855,-11177.109724,1302.362347
59413.650692,-814.226536,-9030.512492,1149.143247
59413.651002,-592.164754,-8438.347739,1225.752797
59413.651312,0.000000,-6883.915261,2451.505594
59413.651622,3478.967927,-7994.224174,3370.820191
59413.651931,0.000000,-4811.338623,0.000000
59413.652241,-444.123565,-11547.212695,1762.019645
59413.652551,-3701.029710,-9622.677246,-1915.238745
59413.652861,-1480.411884,-9770.718434,-76.609550
59413.653170,-888.247130,-8290.306550,-459.657299
59413.653480,222.061783,-7994.224174,459.657299
59413.653790,1776.494261,-8438.347739,1455.581446
59413.654100,1850.514855,-9548.656652,612.876398
59413.654410,-2368.659014,-10140.821405,1225.752797
59413.654719,-1776.494261,-12361.439231,2987.772442
59413.655029,-666.185348,-10658.965565,-76.609550
59413.655339,-2368.659014,-7179.997637,0.000000
59413.655649,1406.391290,-8660.409521,2987.772442
59413.655959,1776.494261,-8290.306550,4519.963438
59413.656268,3182.885551,-5773.606348,2068.457845
59413.656578,444.123565,-7698.141797,689.485948
59413.656888,-2886.803174,-9548.656652,-612.876398
59413.657198,-3627.009116,-9548.656652,-3064.381992
59413.657507,-3997.112087,-8364.327145,-3370.820191
59413.657817,-1628.453072,-9548.656652,0.000000
59413.658127,-74.020594,-9474.636058,-76.609550
59413.658437,0.000000,-9548.656652,1532.190996
59413.658747,2146.597232,-11843.295072,2374.896044
59413.659056,-2368.659014,-12213.398043,2145.067394
59413.659366,-2146.597232,-11251.130318,1149.143247
59413.659676,-1924.535449,-8734.430116,995.924147
59413.659986,-1258.350101,-7846.182985,1149.143247
59413.660296,-592.164754,-5255.462188,689.485948
59413.660605,962.267725,-4441.235652,0.000000
59413.660915,1332.370696,-5403.503377,0.000000
59413.661225,2294.638420,-9474.636058,2374.896044
59413.661535,-4441.235652,-8956.491898,-1838.629195
59413.661844,-1628.453072,-10436.903782,1149.143247
59413.662154,-1480.411884,-9548.656652,0.000000
59413.662464,-74.020594,-9400.615463,229.828649
59413.662774,0.000000,-9992.780217,612.876398
59413.663084,962.267725,-9992.780217,459.657299
59413.663393,-740.205942,-11251.130318,-76.609550
59413.663703,-1554.432478,-11251.130318,-1302.362347
59413.664013,-3552.988522,-7846.182985,-1302.362347
59413.664323,-2368.659014,-7772.162391,1838.629195
59413.664633,-74.020594,-7994.224174,2374.896044
59413.664942,0.000000,-4811.338623,2451.505594
59413.665252,3552.988522,-3627.009116,2451.505594
59413.665562,2442.679609,-6809.894666,1608.800546
59413.665872,-1258.350101,-9474.636058,-306.438199
59413.666181,-3182.885551,-10955.047942,-995.924147
59413.666491,-1036.288319,-11843.295072,-76.609550
59413.666801,-74.020594,-10658.965565,-76.609550
59413.667111,-1702.473667,-8364.327145,-3677.258390
59413.667421,3478.967927,-12435.459826,2987.772442
59413.667730,666.185348,-9178.553681,0.000000
59413.668040,0.000000,-10732.986159,1225.752797
59413.668350,-1776.494261,-9548.656652,306.438199
59413.668660,-296.082377,-8956.491898,1838.629195
59413.668970,222.061783,-7031.956449,1608.800546
59413.669279,518.144159,-6809.894666,2145.067394
59413.669589,2886.803174,-7698.141797,4060.306139
59413.669899,4663.297435,-7105.977043,4213.525239
59413.670209,-74.020594,-8290.306550,-76.609550
59413.670519,-4737.318029,-9548.656652,0.000000
59413.670828,-1258.350101,-13027.624579,-689.485948
59413.671138,-1998.556043,-9548.656652,-2451.505594
59413.671448,-1258.350101,-9548.656652,-842.705048
59413.671758,0.000000,-9252.574275,306.438199
59413.672067,2368.659014,-9030.512492,1915.238745
59413.672377,2072.576638,-9326.594869,2221.676944
59413.672687,-74.020594,-11473.192101,3524.039291
59413.672997,-1406.391290,-11843.295072,3600.648841
59413.673307,-74.020594,-9474.636058,-76.609550
59413.673616,-3552.988522,-5403.503377,0.000000
59413.673926,-74.020594,-9474.636058,2374.896044
59413.674236,296.082377,-4811.338623,0.000000
59413.674546,2294.638420,-7105.977043,1762.019645
59413.674856,-2072.576638,-9178.553681,229.828649
59413.675165,-4737.318029,-10732.986159,-766.095498
59413.675475,-2442.679609,-11251.130318,-612.876398
59413.675785,0.000000,-9548.656652,1532.190996
59413.676095,148.041188,-10732.986159,3064.381992
59413.676404,2886.803174,-9474.636058,2374.896044
59413.676714,0.000000,-6587.832884,153.219100
59413.677024,2738.761985,-10066.800811,2987.772442
59413.677334,-2442.679609,-9918.759623,-76.609550
59413.677644,-1258.350101,-11251.130318,-76.609550
59413.677953,-2146.597232,-9030.512492,153.219100
59413.678263,-518.144159,-8512.368333,995.924147
59413.678573,518.144159,-7994.224174,1762.019645
59413.678883,0.000000,-5995.668130,612.876398
59413.679193,0.000000,-7476.080014,1225.752797
59413.679502,-74.020594,-13027.624579,2987.772442
59413.679812,-4515.256246,-8216.285956,-1608.800546
59413.680122,-1776.494261,-9548.656652,1225.752797
59413.680432,-74.020594,-7994.224174,-76.609550
59413.680741,2294.638420,-8882.471304,2757.943793
59413.681051,1702.473667,-7550.100608,1302.362347
59413.681361,2220.617826,-8290.306550,1149.143247
59413.681671,-814.226536,-10362.883188,689.485948
59413.681981,-4441.235652,-9548.656652,0.000000
59413.682290,-4145.153275,-9548.656652,0.000000
59413.682600,-2368.659014,-10732.986159,1225.752797
59413.682910,-74.020594,-11251.130318,-76.609550
59413.683220,0.000000,-7772.162391,612.876398
59413.683530,2294.638420,-9474.636058,2374.896044
59413.683839,-888.247130,-9474.636058,1838.629195
59413.684149,-1554.432478,-9918.759623,612.876398
59413.684459,1184.329507,-8512.368333,2221.676944
59413.684769,2590.720797,-7179.997637,2451.505594
59413.685079,0.000000,-5403.503377,383.047749
59413.685388,-2220.617826,-4811.338623,0.000000
59413.685698,1184.329507,-5995.668130,1225.752797
59413.686008,4071.132681,-11843.295072,2374.896044
59413.686318,-3775.050304,-10362.883188,-1608.800546
59413.686627,-3256.906145,-13915.871710,-76.609550
59413.686937,-2368.659014,-11917.315666,0.000000
59413.687247,-1036.288319,-10881.027347,-842.705048
59413.687557,-1998.556043,-9178.553681,-383.047749
59413.687867,296.082377,-7105.977043,612.876398
59413.688176,1998.556043,-5921.647536,-76.609550
59413.688486,-1554.432478,-6217.729913,-383.047749
59413.688796,-3552.988522,-5995.668130,0.000000
59413.689106,4071.132681,-9474.636058,4213.525239
59413.689416,1480.411884,-5995.668130,1225.752797
59413.689725,3256.906145,-9474.636058,3677.258390
59413.690035,0.000000,-7179.997637,612.876398
59413.690345,1332.370696,-9474.636058,995.924147
59413.690655,-1184.329507,-11547.212695,229.828649
59413.690964,-3627.009116,-12879.583391,-1149.143247
59413.691274,-2442.679609,-13619.789333,-689.485948
59413.691584,-1850.514855,-11251.130318,-689.485948
59413.691894,-3552.988522,-7179.997637,-1838.629195
59413.692204,1184.329507,-8364.327145,3064.381992
59413.692513,2590.720797,-5329.482782,1149.143247
59413.692823,0.000000,-5403.503377,2451.505594
59413.693133,-3256.906145,-7179.997637,0.000000
59413.693443,-1332.370696,-8956.491898,1149.143247
59413.693753,592.164754,-8734.430116,1225.752797
59413.694062,740.205942,-8364.327145,1225.752797
59413.694372,1702.473667,-11251.130318,3600.648841
59413.694682,3478.967927,-9474.636058,3600.648841
59413.694992,0.000000,-8364.327145,-1302.362347
59413.695301,-1184.329507,-12509.480420,1838.629195
59413.695611,-1850.514855,-13027.624579,-76.609550
59413.695921,-4737.318029,-9548.656652,0.000000
59413.696231,-2886.803174,-8068.244768,-995.924147
59413.696541,-1628.453072,-8660.409521,1072.533697
59413.696850,1406.391290,-6069.688724,2068.457845
59413.697160,2664.741391,-5477.523971,3140.991542
59413.697470,2294.638420,-8290.306550,4136.915689
59413.697780,-74.020594,-10658.965565,2604.724693
59413.698090,-74.020594,-9474.636058,-76.609550
59413.698399,0.000000,-9548.656652,1225.752797
59413.698709,-74.020594,-9474.636058,1149.143247
59413.699019,-2368.659014,-7179.997637,0.000000
59413.699329,2294.638420,-8290.306550,1149.143247
59413.699639,1554.432478,-9548.656652,1072.533697
59413.699948,-148.041188,-11473.192101,612.876398
59413.700258,-1332.370696,-11621.233289,-76.609550
59413.700568,0.000000,-11621.233289,1532.190996
59413.700878,592.164754,-10732.986159,612.876398
59413.701187,-74.020594,-10658.965565,-76.609550
59413.701497,0.000000,-5403.503377,0.000000
59413.701807,1480.411884,-8068.244768,3600.648841
59413.702117,-1554.432478,-7105.977043,-76.609550
59413.702427,-1258.350101,-9474.636058,842.705048
59413.702736,-1036.288319,-8956.491898,1532.190996
59413.703046,222.061783,-8882.471304,1685.410096
59413.703356,518.144159,-8438.347739,1455.581446
59413.703666,0.000000,-6291.750507,2451.505594
59413.703976,1776.494261,-7179.997637,0.000000
59413.704285,2886.803174,-11843.295072,2374.896044
59413.704595,-2516.700203,-9918.759623,-1915.238745
59413.704905,-2960.823768,-11917.315666,0.000000
59413.705215,-74.020594,-11251.130318,-689.485948
59413.705524,-370.102971,-11695.253884,-76.609550
59413.705834,-1776.494261,-9104.533087,-153.219100
59413.706144,0.000000,-7550.100608,76.609550
59413.706454,-1184.329507,-8142.265362,536.266849
59413.706764,-4441.235652,-6587.832884,0.000000
59413.707073,-3256.906145,-7179.997637,0.000000
59413.707383,0.000000,-8364.327145,3064.381992
59413.707693,1702.473667,-7105.977043,2374.896044
59413.708003,592.164754,-7476.080014,3907.087040
59413.708313,3478.967927,-7698.141797,2374.896044
59413.708622,2812.782580,-8808.450710,2298.286494
59413.708932,-814.226536,-10658.965565,229.828649
59413.709242,-2960.823768,-11695.253884,-919.314598
59413.709552,-2220.617826,-12657.521608,-1608.800546
59413.709861,-3404.947333,-9844.739029,-2681.334243
59413.710171,-3552.988522,-9104.533087,-1302.362347
59413.710481,-2368.659014,-7476.080014,0.000000
59413.710791,1702.473667,-9474.636058,1762.019645
59413.711101,-2294.638420,-7179.997637,0.000000
59413.711410,-74.020594,-11843.295072,4213.525239
59413.711720,592.164754,-7846.182985,3064.381992
59413.712030,1258.350101,-7105.977043,2987.772442
59413.712340,1776.494261,-6365.771101,3140.991542
59413.712650,2664.741391,-5995.668130,3524.039291
59413.712959,3478.967927,-5625.565159,2068.457845
59413.713269,962.267725,-8290.306550,1762.019645
59413.713579,-4737.318029,-9548.656652,0.000000
59413.713889,-3552.988522,-13249.686362,-1225.752797
59413.714199,-2738.761985,-14211.954086,-2528.115143
59413.714508,-2516.700203,-13693.809927,-383.047749
59413.714818,-2960.823768,-10140.821405,-1532.190996
59413.715128,-444.123565,-9474.636058,0.000000
59413.715438,148.041188,-7624.121203,612.876398
59413.715747,296.082377,-8808.450710,1991.848295
59413.716057,2294.638420,-9474.636058,3600.648841
59413.716367,3478.967927,-9474.636058,4826.401637
59413.716677,0.000000,-3627.009116,1838.629195
59413.716987,3997.112087,-7105.977043,4443.353888
59413.717296,3775.050304,-4811.338623,536.266849
59413.717606,3552.988522,-6291.750507,3064.381992
59413.717916,-2072.576638,-8956.491898,-1149.143247
59413.718226,-5329.482782,-11621.233289,-2911.162892
59413.718536,-4589.276840,-14434.015869,-2757.943793
59413.718845,-3627.009116,-13841.851115,-2604.724693
59413.719155,-666.185348,-15396.283594,-76.609550
59413.719465,-74.020594,-13027.624579,-76.609550
59413.719775,-1554.432478,-5477.523971,-1302.362347
59413.720084,0.000000,-7772.162391,2145.067394
59413.720394,-148.041188,-5995.668130,0.000000
59413.720704,1184.329507,-5107.421000,4903.011187
59413.721014,2590.720797,-4515.256246,3524.039291
59413.721324,2220.617826,-5403.503377,3677.258390
59413.721633,1258.350101,-5773.606348,2374.896044
59413.721943,2442.679609,-7772.162391,1991.848295
59413.722253,3182.885551,-10658.965565,1685.410096
59413.722563,-1258.350101,-14730.098246,766.095498
59413.722873,-3034.844362,-15396.283594,-2528.115143
59413.723182,-4811.338623,-14063.912898,-3600.648841
59413.723492,-4737.318029,-11917.315666,0.000000
59413.723802,-3552.988522,-9548.656652,-2451.505594
59413.724112,-222.061783,-7698.141797,-76.609550
59413.724421,444.123565,-6217.729913,1072.533697
59413.724731,-148.041188,-6735.874072,1762.019645
59413.725041,-74.020594,-7846.182985,2681.334243
59413.725351,1776.494261,-7179.997637,3677.258390
59413.725661,1776.494261,-6587.832884,4903.011187
59413.725970,3478.967927,-7105.977043,3600.648841
59413.726280,0.000000,-5995.668130,1532.190996
59413.726590,4663.297435,-10510.924376,4826.401637
59413.726900,-666.185348,-8142.265362,-1838.629195
59413.727210,-2442.679609,-13323.706956,-1302.362347
59413.727519,-3997.112087,-14137.933492,-2145.067394
59413.727829,-3923.091493,-13175.665768,-2451.505594
59413.728139,-2516.700203,-13027.624579,-842.705048
59413.728449,0.000000,-5995.668130,612.876398
59413.728758,0.000000,-4811.338623,2451.505594
59413.729068,3478.967927,-7105.977043,2987.772442
59413.729378,-4219.173869,-6735.874072,0.000000
59413.729688,-74.020594,-11251.130318,3907.087040
59413.729998,-74.020594,-7698.141797,-76.609550
59413.730307,-370.102971,-8882.471304,2068.457845
59413.730617,-444.123565,-6883.915261,1149.143247
59413.730927,1184.329507,-7550.100608,2068.457845
59413.731237,3330.926739,-7550.100608,1838.629195
59413.731547,0.000000,-9548.656652,0.000000
59413.731856,-7105.977043,-9548.656652,0.000000
59413.732166,-74.020594,-14508.036463,1149.143247
59413.732476,-74.020594,-10955.047942,-995.924147
59413.732786,-592.164754,-11325.150913,2451.505594
59413.733096,2294.638420,-9474.636058,-76.609550
59413.733405,2812.782580,-7105.977043,1762.019645
59413.733715,74.020594,-7920.203579,0.000000
59413.734025,-2516.700203,-9326.594869,76.609550
59413.734335,-2146.597232,-9992.780217,766.095498
59413.734644,-1776.494261,-7772.162391,0.000000
59413.734954,-2146.597232,-5995.668130,0.000000
59413.735264,0.000000,-7179.997637,2451.505594
59413.735574,4071.132681,-7698.141797,3294.210641
59413.735884,2368.659014,-7179.997637,3677.258390
59413.736193,2294.638420,-11843.295072,2374.896044
59413.736503,-2368.659014,-11621.233289,306.438199
59413.736813,-1036.288319,-11325.150913,-766.095498
59413.737123,-740.205942,-10436.903782,-383.047749
59413.737433,-1332.370696,-9548.656652,-766.095498
59413.737742,-370.102971,-8290.306550,-1302.362347
59413.738052,-74.020594,-7698.141797,-2528.115143
59413.738362,-3552.988522,-8364.327145,0.000000
59413.738672,-74.020594,-11547.212695,1149.143247
59413.738981,-3552.988522,-7179.997637,0.000000
59413.739291,0.000000,-7476.080014,3064.381992
59413.739601,1924.535449,-7179.997637,3677.258390
59413.739911,4071.132681,-5921.647536,3294.210641
59413.740221,4293.194464,-5403.503377,3294.210641
59413.740530,1702.473667,-7550.100608,2068.457845
59413.740840,-1258.350101,-10362.883188,-76.609550
59413.741150,-1850.514855,-11843.295072,-76.609550
59413.741460,-4145.153275,-9548.656652,-3064.381992
59413.741770,-2072.576638,-11029.068536,-612.876398
59413.742079,-666.185348,-10658.965565,-76.609550
59413.742389,0.000000,-9548.656652,306.438199
59413.742699,-2960.823768,-8956.491898,0.000000
59413.743009,-2812.782580,-11251.130318,229.828649
59413.743319,-1406.391290,-10066.800811,1608.800546
59413.743628,444.123565,-7920.203579,2757.943793
59413.743938,2886.803174,-7698.141797,4826.401637
59413.744248,4663.297435,-8290.306550,6052.154434
59413.744558,2886.803174,-2812.782580,2987.772442
59413.744867,4737.318029,-5699.585753,4290.134789
59413.745177,1702.473667,-9474.636058,2374.896044
59413.745487,-4737.318029,-10140.821405,-1838.629195
59413.745797,-4737.318029,-11029.068536,-2911.162892
59413.746107,-3182.885551,-12731.542202,-1991.848295
59413.746416,-2146.597232,-10955.047942,-2221.676944
59413.746726,-1480.411884,-10140.821405,-1608.800546
59413.747036,2294.638420,-10658.965565,-76.609550
59413.747346,-74.020594,-13027.624579,2987.772442
59413.747656,-1554.432478,-9474.636058,-76.609550
59413.747965,0.000000,-7772.162391,2451.505594
59413.748275,2294.638420,-9474.636058,6052.154434
59413.748585,0.000000,-2442.679609,3064.381992
59413.748895,2294.638420,-3997.112087,3983.696590
59413.749204,4441.235652,-4737.318029,4443.353888
59413.749514,3182.885551,-7624.121203,3217.601092
59413.749824,-1480.411884,-11103.089130,383.047749
59413.750134,-3404.947333,-13397.727550,-1838.629195
59413.750444,-2368.659014,-14285.974681,0.000000
59413.750753,-1258.350101,-14211.954086,-1302.362347
59413.751063,-2146.597232,-9918.759623,-2681.334243
59413.751373,-2368.659014,-9548.656652,0.000000
59413.751683,-2146.597232,-7550.100608,-2451.505594
59413.751993,-1850.514855,-10658.965565,-229.828649
59413.752302,-2220.617826,-9992.780217,306.438199
59413.752612,-666.185348,-7920.203579,2145.067394
59413.752922,74.020594,-6661.853478,3140.991542
59413.753232,2368.659014,-4811.338623,3677.258390
59413.753542,4737.318029,-4811.338623,6128.763984
59413.753851,5847.626942,-6513.812290,4213.525239
59413.754161,0.000000,-7179.997637,919.314598
59413.754471,-2368.659014,-11917.315666,1838.629195
59413.754781,-3627.009116,-11695.253884,-3140.991542
59413.755090,-1554.432478,-13323.706956,-995.924147
59413.755400,-2442.679609,-10955.047942,-2068.457845
59413.755710,-1702.473667,-9622.677246,-1915.238745
59413.756020,0.000000,-8364.327145,-919.314598
59413.756330,-3552.988522,-7476.080014,-2145.067394
59413.756639,-4737.318029,-8364.327145,0.000000
59413.756949,-444.123565,-10881.027347,2145.067394
59413.757259,-74.020594,-7994.224174,1762.019645
59413.757569,0.000000,-6587.832884,4903.011187
59413.757879,3478.967927,-5921.647536,2374.896044
59413.758188,5551.544565,-6513.812290,4826.401637
59413.758498,4071.132681,-6809.894666,3294.210641
59413.758808,222.061783,-9622.677246,1302.362347
59413.759118,-3034.844362,-12731.542202,-229.828649
59413.759427,-4737.318029,-10881.027347,-3370.820191
59413.759737,-4441.235652,-9548.656652,-3677.258390
59413.760047,-2368.659014,-9548.656652,-1838.629195
59413.760357,1998.556043,-9474.636058,-76.609550
59413.760667,-1258.350101,-6291.750507,-2451.505594
59413.760976,-74.020594,-10658.965565,-76.609550
59413.761286,-2294.638420,-11547.212695,1225.752797
59413.761596,-1406.391290,-9696.697840,1072.533697
59413.761906,-962.267725,-8364.327145,1608.800546
59413.762216,592.164754,-6291.750507,2757.943793
59413.762525,1998.556043,-4663.297435,2987.772442
59413.762835,3478.967927,-3256.906145,2528.115143
59413.763145,1184.329507,-5995.668130,2604.724693
59413.763455,-74.020594,-11695.253884,2374.896044
59413.763765,-4737.318029,-9548.656652,0.000000
59413.764074,-74.020594,-13915.871710,-76.609550
59413.764384,-1776.494261,-10436.903782,-1225.752797
59413.764694,-1036.288319,-9474.636058,-1455.581446
59413.765004,-370.102971,-8660.409521,-1302.362347
59413.765313,-888.247130,-10214.842000,-919.314598
59413.765623,-74.020594,-11251.130318,-76.609550
59413.765933,-74.020594,-11843.295072,-76.609550
59413.766243,-3256.906145,-7920.203579,0.000000
59413.766553,-592.164754,-8068.244768,4290.134789
59413.766862,4663.297435,-7105.977043,3600.648841
59413.767172,4441.235652,-6661.853478,7277.907231
59413.767482,4145.153275,-4811.338623,4290.134789
59413.767792,2294.638420,-7402.059420,2604.724693
59413.768102,-2146.597232,-10362.883188,842.705048
59413.768411,-2368.659014,-10584.944971,-766.095498
59413.768721,-74.020594,-11843.295072,-1072.533697
59413.769031,-74.020594,-12435.459826,-1302.362347
59413.769341,-2368.659014,-8068.244768,-3600.648841
59413.769650,-1702.473667,-10140.821405,0.000000
59413.769960,-74.020594,-11843.295072,-1302.362347
59413.770270,-4737.318029,-11917.315666,0.000000
59413.770580,-4441.235652,-10732.986159,0.000000
59413.770890,-2072.576638,-9178.553681,1378.971896
59413.771199,74.020594,-7031.956449,2604.724693
59413.771509,3256.906145,-5181.441594,4596.572988
59413.771819,7624.121203,-5773.606348,6358.592633
59413.772129,7624.121203,-7105.977043,6052.154434
59413.772439,-370.102971,-7031.956449,689.485948
59413.772748,-3256.906145,-10140.821405,612.876398
59413.773058,-74.020594,-13027.624579,-76.609550
59413.773368,-4737.318029,-9844.739029,-1838.629195
59413.773678,-2590.720797,-10214.842000,-3217.601092
59413.773987,-2294.638420,-10881.027347,-2374.896044
59413.774297,-1702.473667,-11251.130318,-2068.457845
59413.774607,-3034.844362,-11843.295072,-1991.848295
59413.774917,-3108.864956,-13397.727550,306.438199
59413.775227,-74.020594,-11399.171507,3064.381992
59413.775536,-74.020594,-8142.265362,2374.896044
59413.775846,0.000000,-4811.338623,2451.505594
59413.776156,6957.935855,-6513.812290,7890.783629
59413.776466,4737.318029,-666.185348,4903.011187
59413.776776,4663.297435,-4441.235652,4213.525239
59413.777085,-888.247130,-8290.306550,1915.238745
59413.777395,-3182.885551,-11177.109724,-306.438199
59413.777705,-3108.864956,-12065.356855,-1915.238745
59413.778015,-4145.153275,-11917.315666,-2145.067394
59413.778325,-4737.318029,-11325.150913,-1838.629195
59413.778634,-666.185348,-12287.418637,-2068.457845
59413.778944,-1850.514855,-11843.295072,-2528.115143
59413.779254,-4737.318029,-10732.986159,0.000000
59413.779564,-4145.153275,-10732.986159,0.000000
59413.779873,-74.020594,-8586.388927,2221.676944
59413.780183,1258.350101,-5995.668130,2987.772442
59413.780493,3182.885551,-5403.503377,5056.230287
59413.780803,5255.462188,-4441.235652,6128.763984
59413.781113,4737.318029,-2442.679609,5209.449386
59413.781422,592.164754,-4811.338623,3677.258390
59413.781732,-74.020594,-10955.047942,2987.772442
59413.782042,-3034.844362,-11251.130318,-1302.362347
59413.782352,-5921.647536,-9548.656652,-3064.381992
59413.782662,-1850.514855,-11547.212695,-2911.162892
59413.782971,-1554.432478,-11177.109724,-1915.238745
59413.783281,-1850.514855,-10658.965565,-2987.772442
59413.783591,-2738.761985,-12435.459826,-1762.019645
59413.783901,-3627.009116,-11917.315666,-1302.362347
59413.784210,-4145.153275,-9844.739029,229.828649
59413.784520,-2072.576638,-4811.338623,766.095498
59413.784830,1776.494261,-5995.668130,4903.011187
59413.785140,5847.626942,-5921.647536,6052.154434
59413.785450,3552.988522,-2442.679609,4903.011187
59413.785759,7031.956449,-5921.647536,4213.525239
59413.786069,1332.370696,-8956.491898,2604.724693
59413.786379,-1554.432478,-11547.212695,383.047749
59413.786689,-2442.679609,-11769.274478,-1685.410096
59413.786999,-2812.782580,-12805.562797,-2604.724693
59413.787308,-2442.679609,-11547.212695,-2528.115143
59413.787618,-2442.679609,-10214.842000,-3907.087040
59413.787928,-2368.659014,-9548.656652,-2451.505594
59413.788238,-444.123565,-13693.809927,1915.238745
59413.788548,-2442.679609,-10658.965565,-1302.362347
59413.788857,-74.020594,-9474.636058,2374.896044
59413.789167,-592.164754,-7179.997637,2757.943793
59413.789477,1406.391290,-5477.523971,3907.087040
59413.789787,3997.112087,-4219.173869,5362.668486
59413.790096,5033.400406,-3775.050304,4903.011187
59413.790406,3478.967927,-7105.977043,3907.087040
59413.790716,-1258.350101,-9474.636058,-76.609550
59413.791026,-4441.235652,-10140.821405,-1532.190996
59413.791336,-74.020594,-13545.768739,1532.190996
59413.791645,-1258.350101,-11843.295072,-2528.115143
59413.791955,-74.020594,-11843.295072,-383.047749
59413.792265,-1184.329507,-9992.780217,-1838.629195
59413.792575,-74.020594,-10436.903782,-995.924147
59413.792885,-2442.679609,-11621.233289,-766.095498
59413.793194,-2590.720797,-11843.295072,383.047749
59413.793504,-74.020594,-9474.636058,2374.896044
59413.793814,-74.020594,-8882.471304,3600.648841
59413.794124,296.082377,-4811.338623,2911.162892
59413.794433,6439.791695,-7698.141797,8503.660028
59413.794743,4663.297435,-4737.318029,2987.772442
59413.795053,-888.247130,-8290.306550,3677.258390
59413.795363,-3701.029710,-9770.718434,-766.095498
59413.795673,-2812.782580,-11325.150913,-995.924147
59413.795982,-2294.638420,-11769.274478,-1532.190996
59413.796292,-2368.659014,-11843.295072,-1685.410096
59413.796602,-1036.288319,-11029.068536,-1225.752797
59413.796912,2294.638420,-11547.212695,-76.609550
59413.797222,-74.020594,-10066.800811,-1302.362347
59413.797531,-3552.988522,-9548.656652,0.000000
59413.797841,-74.020594,-11843.295072,1762.019645
59413.798151,0.000000,-8956.491898,3217.601092
59413.798461,1110.308913,-7698.141797,3600.648841
59413.798771,2146.597232,-5551.544565,4519.963438
59413.799080,3256.906145,-4737.318029,4826.401637
59413.799390,2738.761985,-5921.647536,4213.525239
59413.799700,-888.247130,-8364.327145,612.876398
59413.800010,-370.102971,-12731.542202,2374.896044
59413.800319,-1258.350101,-10658.965565,-383.047749
59413.800629,-5921.647536,-8364.327145,-3677.258390
59413.800939,-1480.411884,-12213.398043,-153.219100
59413.801249,-1776.494261,-8364.327145,-1838.629195
59413.801559,1110.308913,-8290.306550,-689.485948
59413.801868,-888.247130,-10436.903782,-459.657299
59413.802178,-2368.659014,-11399.171507,-612.876398
59413.802488,-1480.411884,-11251.130318,689.485948
59413.802798,-1184.329507,-7772.162391,612.876398
59413.803108,592.164754,-7476.080014,4443.353888
59413.803417,3478.967927,-6513.812290,4673.182538
59413.803727,2368.659014,-4811.338623,4903.011187
59413.804037,4071.132681,-8290.306550,4213.525239
59413.804347,-3404.947333,-7179.997637,0.000000
59413.804656,-962.267725,-10362.883188,536.266849
59413.804966,-1110.308913,-10510.924376,-689.485948
59413.805276,-1924.535449,-10436.903782,-1225.752797
59413.805586,-1184.329507,-9548.656652,-1991.848295
59413.805896,0.000000,-6883.915261,-2374.896044
59413.806205,0.000000,-8364.327145,-3064.381992
59413.806515,-1554.432478,-12435.459826,-76.609550
59413.806825,-4219.173869,-10214.842000,-2987.772442
59413.807135,-2368.659014,-11917.315666,1225.752797
59413.807445,-888.247130,-8364.327145,1838.629195
59413.807754,1850.514855,-7846.182985,3830.477490
59413.808064,3330.926739,-5477.523971,4826.401637
59413.808374,3775.050304,-5773.606348,5056.230287
59413.808684,1554.432478,-6883.915261,3524.039291
59413.808994,-1258.350101,-7994.224174,1762.019645
59413.809303,-2368.659014,-7179.997637,0.000000
59413.809613,-888.247130,-10436.903782,1225.752797
59413.809923,-74.020594,-10658.965565,-689.485948
59413.810233,-2960.823768,-7772.162391,-2451.505594
59413.810542,-74.020594,-8438.347739,-3677.258390
59413.810852,-1776.494261,-10584.944971,-2145.067394
59413.811162,-3256.906145,-12065.356855,-2068.457845
59413.811472,-3108.864956,-12065.356855,-612.876398
59413.811782,-1332.370696,-10288.862594,1149.143247
59413.812091,814.226536,-9474.636058,3600.648841
59413.812401,1702.473667,-5033.400406,3600.648841
59413.812711,4737.318029,-4811.338623,5515.887586
59413.813021,6439.791695,-8290.306550,6052.154434
59413.813331,-2072.576638,-5995.668130,1225.752797
59413.813640,-74.020594,-9474.636058,766.095498
59413.813950,-1184.329507,-9548.656652,766.095498
59413.814260,-2146.597232,-11103.089130,-689.485948
59413.814570,-2812.782580,-9844.739029,-1915.238745
59413.814879,-2664.741391,-9992.780217,-1302.362347
59413.815189,-74.020594,-10658.965565,-383.047749
59413.815499,-666.185348,-9474.636058,-1915.238745
59413.815809,-4293.194464,-9770.718434,-2528.115143
59413.816119,-3552.988522,-10732.986159,0.000000
59413.816428,-74.020594,-10658.965565,2374.896044
59413.816738,2294.638420,-7698.141797,3600.648841
59413.817048,1850.514855,-5995.668130,4903.011187
59413.817358,2812.782580,-4737.318029,4443.353888
59413.817668,740.205942,-7105.977043,3217.601092
59413.817977,-296.082377,-9104.533087,2757.943793
59413.818287,1702.473667,-11251.130318,3294.210641
59413.818597,-666.185348,-9474.636058,-76.609550
59413.818907,-3552.988522,-9548.656652,-4903.011187
59413.819217,-74.020594,-12435.459826,-76.609550
59413.819526,-1258.350101,-8290.306550,-2528.115143
59413.819836,-666.185348,-9474.636058,-2528.115143
59413.820146,-2960.823768,-10140.821405,-2451.505594
59413.820456,-1628.453072,-11621.233289,-612.876398
59413.820765,-814.226536,-10140.821405,919.314598
59413.821075,-296.082377,-8734.430116,2451.505594
59413.821385,2294.638420,-8364.327145,5286.058936
59413.821695,4663.297435,-7105.977043,4519.963438
59413.822005,1332.370696,-5403.503377,2451.505594
59413.822314,2294.638420,-11251.130318,4519.963438
59413.822624,-2886.803174,-7920.203579,0.000000
59413.822934,0.000000,-10732.986159,1762.019645
59413.823244,-1480.411884,-10066.800811,-1225.752797
59413.823554,-2664.741391,-9918.759623,-1685.410096
59413.823863,0.000000,-8660.409521,-766.095498
59413.824173,1776.494261,-7772.162391,-2145.067394
59413.824483,592.164754,-9548.656652,612.876398
59413.824793,-74.020594,-13027.624579,-76.609550
59413.825102,-2886.803174,-10214.842000,-2528.115143
59413.825412,-74.020594,-12435.459826,2221.676944
59413.825722,-666.185348,-8660.409521,536.266849
59413.826032,1184.329507,-9474.636058,5975.544884
59413.826342,2886.803174,-6809.894666,3983.696590
59413.826651,1850.514855,-6661.853478,3524.039291
59413.826961,-370.102971,-8512.368333,2374.896044
59413.827271,-148.041188,-8956.491898,612.876398
59413.827581,0.000000,-6587.832884,0.000000
59413.827891,592.164754,-9474.636058,1225.752797
59413.828200,-666.185348,-9474.636058,-1302.362347
59413.828510,0.000000,-7179.997637,0.000000
59413.828820,2886.803174,-10362.883188,-76.609550
59413.829130,-2220.617826,-11177.109724,153.219100
59413.829440,-3034.844362,-12139.377449,-1608.800546
59413.829749,-2368.659014,-11843.295072,-1149.143247
59413.830059,-740.205942,-11325.150913,689.485948
59413.830369,-296.082377,-8364.327145,842.705048
59413.830679,0.000000,-5403.503377,0.000000
59413.830988,2368.659014,-6143.709319,4290.134789
59413.831298,3256.906145,-9474.636058,4826.401637
59413.831608,0.000000,-7179.997637,3064.381992
59413.831918,2294.638420,-8290.306550,4213.525239
59413.832228,0.000000,-7179.997637,2451.505594
59413.832537,-1258.350101,-8734.430116,153.219100
59413.832847,-1036.288319,-8290.306550,-536.266849
59413.833157,222.061783,-8216.285956,-1225.752797
59413.833467,-814.226536,-8882.471304,-1302.362347
59413.833777,-4219.173869,-10732.986159,-5286.058936
59413.834086,-5921.647536,-11917.315666,-4290.134789
59413.834396,-2960.823768,-14285.974681,919.314598
59413.834706,-1850.514855,-10362.883188,-383.047749
59413.835016,592.164754,-8364.327145,4290.134789
59413.835325,2368.659014,-5995.668130,4903.011187
59413.835635,3627.009116,-5329.482782,4903.011187
59413.835945,1110.308913,-7920.203579,4213.525239
59413.836255,1110.308913,-8216.285956,4136.915689
59413.836565,1850.514855,-8290.306550,3294.210641
59413.836874,-74.020594,-7550.100608,-76.609550
59413.837184,-4441.235652,-7476.080014,-2298.286494
59413.837494,-74.020594,-11843.295072,-76.609550
59413.837804,-962.267725,-8438.347739,-2528.115143
59413.838114,-2368.659014,-10140.821405,-1838.629195
59413.838423,-5921.647536,-9844.739029,-4443.353888
59413.838733,-4071.132681,-12509.480420,-2145.067394
59413.839043,-1924.535449,-11473.192101,-459.657299
59413.839353,-666.185348,-9474.636058,1378.971896
59413.839662,2294.638420,-8290.306550,4213.525239
59413.839972,4663.297435,-5921.647536,4519.963438
59413.840282,2738.761985,-6809.894666,3830.477490
59413.840592,-370.102971,-5995.668130,76.609550
59413.840902,1184.329507,-9844.739029,4290.134789
59413.841211,1110.308913,-8290.306550,536.266849
59413.841521,-2368.659014,-7772.162391,0.000000
59413.841831,-74.020594,-10658.965565,-76.609550
59413.842141,814.226536,-9474.636058,-842.705048
59413.842450,444.123565,-9474.636058,-1608.800546
59413.842760,-2368.659014,-11473.192101,-2374.896044
59413.843070,-4441.235652,-11103.089130,-3753.867940
59413.843380,-4737.318029,-10140.821405,-2451.505594
59413.843689,-1480.411884,-10140.821405,1838.629195
59413.843999,2294.638420,-7105.977043,1762.019645
59413.844309,1776.494261,-4811.338623,3064.381992
59413.844619,1998.556043,-3627.009116,2451.505594
59413.844929,444.123565,-7624.121203,3064.381992
59413.845238,-592.164754,-9030.512492,2068.457845
59413.845548,0.000000,-8734.430116,1378.971896
59413.845858,0.000000,-8438.347739,612.876398
59413.846168,-1554.432478,-9474.636058,-383.047749
59413.846477,-1702.473667,-7772.162391,-1532.190996
59413.846787,1776.494261,-9548.656652,1378.971896
59413.847097,2294.638420,-11251.130318,-689.485948
59413.847407,-4737.318029,-9548.656652,-2911.162892
59413.847716,-3034.844362,-10658.965565,-3370.820191
59413.848026,-2220.617826,-10140.821405,-612.876398
59413.848336,-1258.350101,-9474.636058,995.924147
59413.848646,1184.329507,-7994.224174,2451.505594
59413.848956,3108.864956,-6661.853478,4826.401637
59413.849265,3478.967927,-8290.306550,4213.525239
59413.849575,-370.102971,-8142.265362,2374.896044
59413.849885,0.000000,-8956.491898,4903.011187
59413.850195,-74.020594,-6661.853478,229.828649
59413.850504,-2368.659014,-8364.327145,612.876398
59413.850814,-1258.350101,-10658.965565,-1302.362347
59413.851124,-592.164754,-8586.388927,-536.266849
59413.851434,1850.514855,-9104.533087,-383.047749
59413.851743,-814.226536,-10362.883188,-995.924147
59413.852053,-3330.926739,-11325.150913,-153.219100
59413.852363,-1258.350101,-12435.459826,-76.609550
59413.852673,-74.020594,-9474.636058,-76.609550
59413.852983,-1184.329507,-7179.997637,0.000000
59413.853292,3478.967927,-9474.636058,3600.648841
59413.853602,0.000000,-5995.668130,1225.752797
59413.853912,2886.803174,-9474.636058,2374.896044
59413.854222,-962.267725,-9178.553681,2528.115143
59413.854531,-592.164754,-9104.533087,2221.676944
59413.854841,222.061783,-7772.162391,1378.971896
59413.855151,-1258.350101,-8290.306550,1225.752797
59413.855461,-74.020594,-8956.491898,1532.190996
59413.855770,2294.638420,-9474.636058,-76.609550
59413.856080,0.000000,-7550.100608,-2528.115143
59413.856390,-4145.153275,-9548.656652,0.000000
59413.856700,-3034.844362,-11251.130318,-1608.800546
59413.857010,-962.267725,-10658.965565,-76.609550
59413.857319,-962.267725,-8882.471304,0.000000
59413.857629,444.123565,-8660.409521,1685.410096
59413.857939,1850.514855,-8216.285956,2911.162892
59413.858249,2368.659014,-8068.244768,2451.505594
59413.858558,592.164754,-9548.656652,3370.820191
59413.858868,-666.185348,-11251.130318,3140.991542
59413.859178,-370.102971,-9474.636058,-76.609550
59413.859488,0.000000,-8956.491898,1838.629195
59413.859797,-1850.514855,-8290.306550,-689.485948
59413.860107,0.000000,-9474.636058,2068.457845
59413.860417,2220.617826,-8512.368333,229.828649
59413.860727,518.144159,-9326.594869,0.000000
59413.861036,-2220.617826,-9770.718434,-1072.533697
59413.861346,-3108.864956,-9844.739029,-2451.505594
59413.861656,-2960.823768,-7772.162391,0.000000
59413.861966,148.041188,-9992.780217,2145.067394
59413.862276,1406.391290,-6365.771101,383.047749
59413.862585,2368.659014,-8364.327145,4903.011187
59413.862895,3478.967927,-9474.636058,3600.648841
59413.863205,-1998.556043,-11029.068536,3064.381992
59413.863515,-2146.597232,-10066.800811,1762.019645
59413.863824,-888.247130,-8586.388927,995.924147
59413.864134,-1776.494261,-7698.141797,306.438199
59413.864444,-2294.638420,-7179.997637,-1378.971896
59413.864754,0.000000,-6587.832884,0.000000
59413.865063,1184.329507,-7772.162391,1225.752797
59413.865373,-74.020594,-10658.965565,-76.609550
59413.865683,-5921.647536,-9548.656652,-2451.505594
59413.865993,-1406.391290,-11621.233289,1149.143247
59413.866303,-1036.288319,-8956.491898,1838.629195
59413.866612,518.144159,-8808.450710,2145.067394
59413.866922,1998.556043,-8068.244768,2451.505594
59413.867232,2516.700203,-8660.409521,2528.115143
59413.867542,444.123565,-9326.594869,1608.800546
59413.867851,-3256.906145,-10140.821405,-1302.362347
59413.868161,-3552.988522,-8364.327145,0.000000
59413.868471,-74.020594,-11843.295072,3600.648841
59413.868781,-3034.844362,-6587.832884,-1762.019645
59413.869090,-74.020594,-10066.800811,2374.896044
59413.869400,-592.164754,-7179.997637,0.000000
59413.869710,-1110.308913,-9474.636058,-76.609550
59413.870020,-4811.338623,-11177.109724,-1302.362347
59413.870330,-6143.709319,-10807.006753,-1149.143247
59413.870639,-4515.256246,-10658.965565,-76.609550
59413.870949,-4811.338623,-8290.306550,-689.485948
59413.871259,-5921.647536,-7179.997637,612.876398
59413.871569,-74.020594,-9474.636058,4826.401637
59413.871878,0.000000,-4219.173869,1685.410096
59413.872188,-2960.823768,-8364.327145,4290.134789
59413.872498,-8882.471304,-7772.162391,0.000000
59413.872808,-6809.894666,-9474.636058,-306.438199
59413.873117,-5181.441594,-9770.718434,-689.485948
59413.873427,-8660.409521,-9622.677246,-1915.238745
59413.873737,-10881.027347,-11251.130318,-1302.362347
59413.874047,-5403.503377,-11251.130318,-1302.362347
59413.874357,-1702.473667,-6513.812290,0.000000
59413.874666,0.000000,-7179.997637,3677.258390
59413.874976,-3627.009116,-10658.965565,2374.896044
59413.875286,-7994.224174,-8364.327145,0.000000
59413.875596,-4219.173869,-7550.100608,229.828649
59413.875905,-3404.947333,-8364.327145,2298.286494
59413.876215,-6735.874072,-8586.388927,1991.848295
59413.876525,-8512.368333,-8216.285956,306.438199
59413.876835,-5699.585753,-11103.089130,1455.581446
59413.877144,-74.020594,-9474.636058,4826.401637
59413.877454,518.144159,-6661.853478,4060.306139
59413.877764,-4145.153275,-3627.009116,2451.505594
59413.878074,-5181.441594,-9474.636058,-76.609550
59413.878384,-9992.780217,-11029.068536,-4903.011187
59413.878693,-8660.409521,-12287.418637,-2681.334243
59413.879003,-5773.606348,-10436.903782,-919.314598
59413.879313,-5329.482782,-9030.512492,-995.924147
59413.879623,-5181.441594,-8512.368333,-306.438199
59413.879932,-2960.823768,-10436.903782,3370.820191
59413.880242,-74.020594,-10658.965565,6052.154434
59413.880552,1110.308913,-5921.647536,4826.401637
59413.880862,0.000000,-2442.679609,2451.505594
59413.881171,7031.956449,-5921.647536,4826.401637
59413.881481,2442.679609,-4811.338623,1225.752797
59413.881791,-74.020594,-11843.295072,2068.457845
59413.882101,-6735.874072,-13323.706956,-3294.210641
59413.882411,-7846.182985,-15840.407159,-3907.087040
59413.882720,-6291.750507,-12805.562797,-3524.039291
59413.883030,-4737.318029,-9548.656652,-1838.629195
59413.883340,-3701.029710,-9696.697840,1225.752797
59413.883650,-1554.432478,-9474.636058,-76.609550
59413.883959,-1850.514855,-9770.718434,-76.609550
59413.884269,-1776.494261,-9548.656652,3677.258390
59413.884579,-74.020594,-7105.977043,3600.648841
59413.884889,3478.967927,-4737.318029,4826.401637
59413.885198,4663.297435,-1554.432478,4673.182538
59413.885508,5625.565159,-2590.720797,5056.230287
59413.885818,3627.009116,-4219.173869,2604.724693
59413.886128,-1776.494261,-7772.162391,-2451.505594
59413.886438,-5921.647536,-14285.974681,-3677.258390
59413.886747,-10362.883188,-20799.786970,-4903.011187
59413.887057,-10732.986159,-21317.931130,-4979.620737
59413.887367,-13249.686362,-15470.304188,-6435.202183
59413.887677,-7698.141797,-11843.295072,-1302.362347
59413.887986,-666.185348,-7550.100608,2374.896044
59413.888296,814.226536,-3997.112087,4826.401637
59413.888606,4219.173869,-666.185348,7048.078582
59413.888916,6217.729913,-666.185348,8197.221829
59413.889225,3552.988522,-666.185348,4903.011187
59413.889535,0.000000,-2442.679609,3064.381992
59413.889845,-2812.782580,-8586.388927,1225.752797
59413.890155,-7179.997637,-13027.624579,-3753.867940
59413.890465,-14211.954086,-15766.386565,-6128.763984
59413.890774,-12657.521608,-21317.931130,-4979.620737
59413.891084,-11917.315666,-20133.601622,-4366.744339
59413.891394,-10584.944971,-12879.583391,-4673.182538
59413.891704,-8734.430116,-9622.677246,-383.047749
59413.892013,-2146.597232,-4145.153275,3140.991542
59413.892323,0.000000,-74.020594,4903.011187
59413.892633,2368.659014,2294.638420,7354.516781
59413.892943,5773.606348,-370.102971,8580.269578
59413.893252,4663.297435,-2368.659014,5439.278036
59413.893562,1184.329507,-5699.585753,3983.696590
59413.893872,-1258.350101,-9474.636058,-76.609550
59413.894182,-4811.338623,-13915.871710,-2221.676944
59413.894492,-11029.068536,-15396.283594,-6741.640382
59413.894801,-12361.439231,-19689.478057,-6741.640382
59413.895111,-11399.171507,-19319.375086,-6818.249932
59413.895421,-11251.130318,-19171.333898,-4290.134789
59413.895731,-7105.977043,-13101.645173,1225.752797
59413.896040,0.000000,-8068.244768,3677.258390
59413.896350,5847.626942,-4737.318029,7277.907231
59413.896660,3552.988522,-74.020594,8580.269578
59413.896970,7031.956449,0.000000,9729.412825
59413.897279,4737.318029,-518.144159,8580.269578
59413.897589,2368.659014,-2368.659014,5669.106685
59413.897899,-1702.473667,-8068.244768,3370.820191
59413.898209,-4145.153275,-11177.109724,0.000000
59413.898519,-8512.368333,-14285.974681,-4749.792088
59413.898828,-11843.295072,-14285.974681,-4903.011187
59413.899138,-8290.306550,-17987.004391,-4903.011187
59413.899448,-4811.338623,-20725.766376,-76.609550
59413.899758,-3034.844362,-14211.954086,-76.609550
59413.900067,1184.329507,-11621.233289,5439.278036
59413.900377,5921.647536,-5995.668130,7354.516781
59413.900687,9252.574275,-2368.659014,9422.974625
59413.900997,8364.327145,-1702.473667,10955.165621
59413.901306,9104.533087,-814.226536,10112.460574
59413.901616,5847.626942,-3552.988522,7124.688131
59413.901926,0.000000,-5995.668130,3677.258390
59413.902236,-1480.411884,-11325.150913,2451.505594
59413.902546,-2442.679609,-15396.283594,-76.609550
59413.902855,-7105.977043,-14952.160028,0.000000
59413.903165,-3034.844362,-18949.272115,-76.609550
59413.903475,-2368.659014,-15174.221811,2451.505594
59413.903785,-1406.391290,-13027.624579,3524.039291
59413.904094,1036.288319,-7772.162391,4366.744339
59413.904404,3404.947333,-6883.915261,7660.954980
59413.904714,4811.338623,-2738.761985,8197.221829
59413.905024,3552.988522,-74.020594,9806.022374
59413.905333,5477.523971,-1850.514855,11031.775171
59413.905643,6439.791695,-2368.659014,8503.660028
59413.905953,1184.329507,-4811.338623,6741.640382
59413.906263,1702.473667,-10658.965565,7890.783629
59413.906573,-1480.411884,-12509.480420,5822.325785
59413.906882,-3108.864956,-16506.592507,4213.525239
