#time,accel_x,accel_y,accel_z
163491.958778,-592.164754,-8882.471304,-689.485948
163491.959097,-2368.659014,-7772.162391,0.000000
163491.959417,-148.041188,-9326.594869,-1302.362347
163491.959736,-518.144159,-9548.656652,-919.314598
163491.960056,-370.102971,-9474.636058,-689.485948
163491.960376,0.000000,-9696.697840,-689.485948
163491.960695,1258.350101,-10436.903782,-76.609550
163491.961015,-962.267725,-8586.388927,-1685.410096
163491.961334,0.000000,-8956.491898,0.000000
163491.961654,0.000000,-9548.656652,0.000000
163491.961973,1702.473667,-9474.636058,1149.143247
163491.962293,0.000000,-7179.997637,0.000000
163491.962612,518.144159,-9326.594869,229.828649
163491.962932,148.041188,-9030.512492,0.000000
163491.963251,74.020594,-8956.491898,0.000000
163491.963571,-74.020594,-8290.306550,-689.485948
163491.963891,-74.020594,-8882.471304,-76.609550
163491.964210,-666.185348,-8734.430116,-229.828649
163491.964530,-1554.432478,-7179.997637,-1608.800546
163491.964849,-2368.659014,-8364.327145,0.000000
163491.965169,444.123565,-10436.903782,2298.286494
163491.965488,-2368.659014,-7476.080014,0.000000
163491.965808,-444.123565,-9326.594869,-76.609550
163491.966127,-370.102971,-9326.594869,-612.876398
163491.966447,-592.164754,-8882.471304,-766.095498
163491.966767,-74.020594,-9474.636058,-1302.362347
163491.967086,-148.041188,-9770.718434,-612.876398
163491.967406,-74.020594,-9474.636058,-1302.362347
163491.967725,-1628.453072,-8364.327145,-1225.752797
163491.968045,0.000000,-9548.656652,0.000000
163491.968364,0.000000,-9548.656652,1532.190996
163491.968684,-74.020594,-9178.553681,-689.485948
163491.969003,0.000000,-9400.615463,-306.438199
163491.969323,74.020594,-9178.553681,-383.047749
163491.969642,148.041188,-9104.533087,0.000000
163491.969962,1998.556043,-10362.883188,-76.609550
163491.970282,0.000000,-9548.656652,1225.752797
163491.970601,1110.308913,-10066.800811,-76.609550
163491.970921,-74.020594,-9474.636058,-76.609550
163491.971240,0.000000,-7772.162391,612.876398
163491.971560,-1924.535449,-7772.162391,0.000000
163491.971879,-74.020594,-9474.636058,-76.609550
163491.972199,-740.205942,-9030.512492,-153.219100
163491.972518,-888.247130,-9252.574275,-229.828649
163491.972838,-74.020594,-10658.965565,-76.609550
163491.973157,-370.102971,-9326.594869,-766.095498
163491.973477,-1554.432478,-8512.368333,-1072.533697
163491.973797,-2368.659014,-7179.997637,0.000000
163491.974116,296.082377,-10140.821405,-76.609550
163491.974436,-1554.432478,-8290.306550,-3524.039291
163491.974755,-370.102971,-10214.842000,-689.485948
163491.975075,-1036.288319,-9548.656652,-995.924147
163491.975394,-74.020594,-9622.677246,-995.924147
163491.975714,148.041188,-9696.697840,-383.047749
163491.976033,0.000000,-10732.986159,995.924147
163491.976353,0.000000,-9030.512492,-689.485948
163491.976673,148.041188,-9326.594869,-536.266849
163491.976992,296.082377,-9252.574275,-689.485948
163491.977312,-1628.453072,-7920.203579,-1225.752797
163491.977631,-666.185348,-8512.368333,0.000000
163491.977951,1702.473667,-9474.636058,-76.609550
163491.978270,222.061783,-9178.553681,0.000000
163491.978590,-1258.350101,-7476.080014,-1225.752797
163491.978909,-74.020594,-11251.130318,-76.609550
163491.979229,-1036.288319,-9548.656652,612.876398
163491.979548,-666.185348,-9326.594869,0.000000
163491.979868,-740.205942,-8956.491898,0.000000
163491.980188,-888.247130,-8882.471304,0.000000
163491.980507,-962.267725,-8364.327145,-1225.752797
163491.980827,-888.247130,-9104.533087,0.000000
163491.981146,-296.082377,-9474.636058,0.000000
163491.981466,1702.473667,-10658.965565,-76.609550
163491.981785,-370.102971,-8364.327145,-1302.362347
163491.982105,3182.885551,-11843.295072,2374.896044
163491.982424,592.164754,-8956.491898,-766.095498
163491.982744,1036.288319,-9548.656652,-459.657299
163491.983063,1406.391290,-9992.780217,-842.705048
163491.983383,1924.535449,-9622.677246,0.000000
163491.983703,592.164754,-8364.327145,0.000000
163491.984022,2812.782580,-8364.327145,-2298.286494
163491.984342,3849.070898,-10140.821405,1225.752797
163491.984661,4663.297435,-9178.553681,-383.047749
163491.984981,4737.318029,-7994.224174,-229.828649
163491.985300,7031.956449,-10658.965565,2987.772442
163491.985620,5625.565159,-8512.368333,766.095498
163491.985939,5847.626942,-9030.512492,536.266849
163491.986259,5625.565159,-9178.553681,76.609550
163491.986579,2368.659014,-7179.997637,0.000000
163491.986898,3775.050304,-10436.903782,306.438199
163491.987218,4663.297435,-9474.636058,-1915.238745
163491.987537,3849.070898,-8660.409521,-1991.848295
163491.987857,6217.729913,-9548.656652,612.876398
163491.988176,9400.615463,-9474.636058,-76.609550
163491.988496,8290.306550,-9474.636058,1302.362347
163491.988815,6439.791695,-9622.677246,153.219100
163491.989135,4663.297435,-10881.027347,-766.095498
163491.989454,2516.700203,-11991.336260,-842.705048
163491.989774,1554.432478,-12139.377449,-536.266849
163491.990094,1480.411884,-12213.398043,-76.609550
163491.990413,2886.803174,-11103.089130,1149.143247
163491.990733,1184.329507,-5995.668130,0.000000
163491.991052,3701.029710,-5995.668130,0.000000
163491.991372,5847.626942,-5921.647536,-76.609550
163491.991691,4145.153275,-5625.565159,-2145.067394
163491.992011,4663.297435,-7105.977043,-2298.286494
163491.992330,5329.482782,-9844.739029,-1915.238745
163491.992650,5181.441594,-13101.645173,153.219100
163491.992969,3552.988522,-14285.974681,153.219100
163491.993289,3404.947333,-15914.427753,1838.629195
163491.993609,3552.988522,-14730.098246,4290.134789
163491.993928,4663.297435,-11103.089130,3294.210641
163491.994248,2590.720797,-4737.318029,0.000000
163491.994567,3478.967927,-4737.318029,-76.609550
163491.994887,1184.329507,-4663.297435,-919.314598
163491.995206,1776.494261,-6587.832884,-689.485948
163491.995526,1184.329507,-8438.347739,-76.609550
163491.995845,-1776.494261,-9548.656652,612.876398
163491.996165,-4441.235652,-9474.636058,-689.485948
163491.996485,-4737.318029,-8660.409521,0.000000
163491.996804,0.000000,-9104.533087,0.000000
163491.997124,2368.659014,-8364.327145,1225.752797
163491.997443,2294.638420,-8290.306550,-995.924147
163491.997763,2368.659014,-11251.130318,2068.457845
163491.998082,1628.453072,-9992.780217,766.095498
163491.998402,888.247130,-8512.368333,-1915.238745
163491.998721,-1776.494261,-7402.059420,-4749.792088
163491.999041,-4145.153275,-8660.409521,-6281.983084
163491.999360,-74.020594,-12731.542202,-3753.867940
163491.999680,1850.514855,-13175.665768,-76.609550
163492.000000,370.102971,-10732.986159,1225.752797
163492.000319,2072.576638,-9844.739029,2451.505594
163492.000639,1702.473667,-5921.647536,-995.924147
163492.000958,3849.070898,-7476.080014,459.657299
163492.001278,6957.935855,-8068.244768,3447.429741
163492.001597,7920.203579,-7772.162391,6052.154434
163492.001917,8216.285956,-8290.306550,5439.278036
163492.002236,1776.494261,-7328.038826,-1685.410096
163492.002556,-2812.782580,-10140.821405,-5822.325785
163492.002875,-2442.679609,-14211.954086,-5286.058936
163492.003195,-370.102971,-15322.262999,-4443.353888
163492.003515,-2220.617826,-11917.315666,-4290.134789
163492.003834,2294.638420,-12139.377449,-689.485948
163492.004154,4515.256246,-9474.636058,1991.848295
163492.004473,9474.636058,-7105.977043,5592.497135
163492.004793,11621.233289,-4219.173869,7431.126331
163492.005112,11547.212695,-4145.153275,7890.783629
163492.005432,6809.894666,-2442.679609,0.000000
163492.005751,2960.823768,-7179.997637,0.000000
163492.006071,2886.803174,-12879.583391,-383.047749
163492.006391,1110.308913,-14878.139434,-1532.190996
163492.006710,-666.185348,-15396.283594,-6205.373534
163492.007030,-3256.906145,-14508.036463,-7967.393179
163492.007349,-1184.329507,-13767.830521,-6358.592633
163492.007669,1480.411884,-11695.253884,-2221.676944
163492.007988,6439.791695,-9770.718434,2298.286494
163492.008308,6883.915261,-6883.915261,3294.210641
163492.008627,11177.109724,-5329.482782,4826.401637
163492.008947,8364.327145,-4219.173869,5439.278036
163492.009266,3552.988522,-3034.844362,4903.011187
163492.009586,7550.100608,-9474.636058,6665.030833
163492.009906,4737.318029,-7772.162391,2911.162892
163492.010225,2590.720797,-9474.636058,-1378.971896
163492.010545,-962.267725,-11843.295072,-4136.915689
163492.010864,-2072.576638,-13767.830521,-5132.839837
163492.011184,-3923.091493,-11917.315666,-7967.393179
163492.011503,-1258.350101,-13619.789333,-4979.620737
163492.011823,-1184.329507,-11473.192101,-2451.505594
163492.012142,962.267725,-8586.388927,-153.219100
163492.012462,4367.215058,-6587.832884,2374.896044
163492.012781,7920.203579,-7105.977043,4826.401637
163492.013101,5921.647536,-4811.338623,4903.011187
163492.013421,6513.812290,-5921.647536,4213.525239
163492.013740,3478.967927,-6513.812290,1991.848295
163492.014060,0.000000,-8956.491898,-1225.752797
163492.014379,-3256.906145,-10140.821405,-5515.887586
163492.014699,-2886.803174,-12139.377449,-4903.011187
163492.015018,-2738.761985,-13249.686362,-4979.620737
163492.015338,-1110.308913,-13027.624579,-3370.820191
163492.015657,3478.967927,-12953.603985,-76.609550
163492.015977,4663.297435,-10214.842000,2374.896044
163492.016297,5329.482782,-5995.668130,2451.505594
163492.016616,6365.771101,-5995.668130,1225.752797
163492.016936,5921.647536,-7179.997637,4903.011187
163492.017255,2368.659014,-5403.503377,2451.505594
163492.017575,1998.556043,-7328.038826,0.000000
163492.017894,222.061783,-9474.636058,-1302.362347
163492.018214,-1406.391290,-9844.739029,-4290.134789
163492.018533,-1554.432478,-10881.027347,-5132.839837
163492.018853,-148.041188,-12065.356855,-3140.991542
163492.019172,2294.638420,-11843.295072,-1149.143247
163492.019492,2516.700203,-9622.677246,-689.485948
163492.019812,1776.494261,-7772.162391,0.000000
163492.020131,3997.112087,-9992.780217,3064.381992
163492.020451,3552.988522,-7476.080014,3064.381992
163492.020770,6291.750507,-8142.265362,4826.401637
163492.021090,4959.379811,-7179.997637,3677.258390
163492.021409,3404.947333,-6217.729913,995.924147
163492.021729,518.144159,-4885.359217,-3753.867940
163492.022048,-74.020594,-9474.636058,-4979.620737
163492.022368,-74.020594,-14211.954086,-3753.867940
163492.022688,-74.020594,-11251.130318,-5745.716235
163492.023007,-1184.329507,-13693.809927,-3447.429741
163492.023327,888.247130,-13545.768739,-612.876398
163492.023646,0.000000,-10732.986159,0.000000
163492.023966,2886.803174,-11695.253884,3830.477490
163492.024285,4737.318029,-8142.265362,4673.182538
163492.024605,3775.050304,-6217.729913,4903.011187
163492.024924,1702.473667,-4145.153275,2987.772442
163492.025244,-1554.432478,-3627.009116,0.000000
163492.025563,740.205942,-8216.285956,536.266849
163492.025883,518.144159,-9474.636058,-76.609550
163492.026203,-2442.679609,-9104.533087,-3370.820191
163492.026522,-3552.988522,-11917.315666,-1225.752797
163492.026842,-5921.647536,-11621.233289,-4903.011187
163492.027161,-5847.626942,-14359.995275,-2528.115143
163492.027480,-3404.947333,-12213.398043,-383.047749
163492.027800,-2738.761985,-10066.800811,153.219100
163492.028119,-4811.338623,-7402.059420,0.000000
163492.028439,-6365.771101,-5107.421000,-1685.410096
163492.028758,-5699.585753,-4737.318029,-383.047749
163492.029078,-2960.823768,-4811.338623,919.314598
163492.029397,1628.453072,-5995.668130,2911.162892
163492.029717,814.226536,-8216.285956,1762.019645
163492.030036,-74.020594,-10066.800811,-76.609550
163492.030355,-2664.741391,-11103.089130,0.000000
163492.030675,-2738.761985,-12583.501014,-1072.533697
163492.030994,-5921.647536,-11325.150913,-2451.505594
163492.031314,-10658.965565,-9548.656652,-5515.887586
163492.031633,-6513.812290,-11325.150913,-6741.640382
163492.031953,-4441.235652,-9548.656652,-2145.067394
163492.032272,2294.638420,-9474.636058,2604.724693
163492.032592,4663.297435,-4737.318029,2374.896044
163492.032911,4515.256246,-6809.894666,4519.963438
163492.033230,4145.153275,-7179.997637,3907.087040
163492.033550,2442.679609,-8068.244768,4290.134789
163492.033869,2516.700203,-10140.821405,4519.963438
163492.034189,0.000000,-7179.997637,306.438199
163492.034508,-5403.503377,-8734.430116,-2528.115143
163492.034828,-7105.977043,-9548.656652,-6588.421283
163492.035147,-5921.647536,-10732.986159,-6128.763984
163492.035467,-4737.318029,-9548.656652,-4290.134789
163492.035786,2886.803174,-9474.636058,-3140.991542
163492.036106,1184.329507,-8956.491898,-1455.581446
163492.036425,2812.782580,-10214.842000,0.000000
163492.036744,3849.070898,-10140.821405,2221.676944
163492.037064,4737.318029,-11029.068536,6052.154434
163492.037383,3775.050304,-8660.409521,3370.820191
163492.037703,1702.473667,-8882.471304,-76.609550
163492.038022,-1480.411884,-8068.244768,-2221.676944
163492.038342,-2368.659014,-6291.750507,-4290.134789
163492.038661,1480.411884,-9844.739029,-2451.505594
163492.038981,5847.626942,-9474.636058,-1608.800546
163492.039300,1480.411884,-8956.491898,-2068.457845
163492.039619,740.205942,-10584.944971,-1915.238745
163492.039939,518.144159,-11473.192101,-1072.533697
163492.040258,2220.617826,-13101.645173,4826.401637
163492.040578,3256.906145,-11029.068536,3677.258390
163492.040897,1406.391290,-8882.471304,2145.067394
163492.041217,-74.020594,-8882.471304,1149.143247
163492.041536,-666.185348,-7105.977043,-1532.190996
163492.041856,-1036.288319,-5107.421000,-2068.457845
163492.042175,4663.297435,-7105.977043,-689.485948
163492.042494,666.185348,-8068.244768,-459.657299
163492.042814,222.061783,-9252.574275,-612.876398
163492.043133,-1258.350101,-10066.800811,-766.095498
163492.043453,-1184.329507,-13101.645173,2757.943793
163492.043772,-1406.391290,-10436.903782,0.000000
163492.044092,-4737.318029,-10140.821405,-1532.190996
163492.044411,-5033.400406,-11029.068536,-2221.676944
163492.044731,-2442.679609,-10362.883188,-1915.238745
163492.045050,-74.020594,-10658.965565,-76.609550
163492.045369,1184.329507,-7698.141797,0.000000
163492.045689,1776.494261,-6143.709319,-76.609550
163492.046008,444.123565,-7624.121203,-153.219100
163492.046328,0.000000,-9548.656652,1225.752797
163492.046647,74.020594,-11843.295072,2451.505594
163492.046967,2886.803174,-12435.459826,2987.772442
163492.047286,-2146.597232,-9474.636058,229.828649
163492.047606,-4811.338623,-7846.182985,-2528.115143
163492.047925,-3627.009116,-10658.965565,-1915.238745
163492.048245,-2368.659014,-9548.656652,0.000000
163492.048564,0.000000,-8364.327145,0.000000
163492.048883,-666.185348,-7105.977043,-76.609550
163492.049203,-1480.411884,-8956.491898,-306.438199
163492.049522,0.000000,-7476.080014,0.000000
163492.049842,1258.350101,-10955.047942,3600.648841
163492.050161,2220.617826,-10436.903782,4060.306139
163492.050481,-1998.556043,-8290.306550,-229.828649
163492.050800,-5107.421000,-8956.491898,-1302.362347
163492.051120,-2442.679609,-11251.130318,-1915.238745
163492.051439,-740.205942,-11843.295072,-76.609550
163492.051758,-74.020594,-9474.636058,-1915.238745
163492.052078,-1258.350101,-6883.915261,-2374.896044
163492.052397,-1776.494261,-8660.409521,-1838.629195
163492.052717,-666.185348,-7846.182985,-2987.772442
163492.053036,2442.679609,-11843.295072,3064.381992
163492.053356,4219.173869,-10732.986159,3600.648841
163492.053675,888.247130,-8882.471304,1225.752797
163492.053995,-1850.514855,-10066.800811,-689.485948
163492.054314,-3330.926739,-9178.553681,-3140.991542
163492.054633,-444.123565,-9696.697840,-919.314598
163492.054953,2590.720797,-9770.718434,153.219100
163492.055272,4515.256246,-8882.471304,-76.609550
163492.055592,0.000000,-6587.832884,0.000000
163492.055911,1702.473667,-8586.388927,-612.876398
163492.056231,3330.926739,-11251.130318,1685.410096
163492.056550,3552.988522,-11621.233289,3064.381992
163492.056870,0.000000,-10510.924376,536.266849
163492.057189,-3034.844362,-10362.883188,-689.485948
163492.057508,-2664.741391,-9844.739029,-1455.581446
163492.057828,-1480.411884,-7476.080014,-2528.115143
163492.058147,1184.329507,-8364.327145,919.314598
163492.058467,1480.411884,-5329.482782,-383.047749
163492.058786,0.000000,-4811.338623,0.000000
163492.059106,1110.308913,-9030.512492,-689.485948
163492.059425,1332.370696,-10584.944971,536.266849
163492.059745,1850.514855,-11325.150913,1915.238745
163492.060064,-1036.288319,-8956.491898,-1302.362347
163492.060383,-3627.009116,-11251.130318,-4290.134789
163492.060703,-3849.070898,-11917.315666,-2528.115143
163492.061022,-4219.173869,-9548.656652,-3600.648841
163492.061342,0.000000,-9474.636058,-995.924147
163492.061661,2960.823768,-7772.162391,2451.505594
163492.061981,3478.967927,-7105.977043,842.705048
163492.062300,2590.720797,-7698.141797,842.705048
163492.062620,2886.803174,-8586.388927,2451.505594
163492.062939,4071.132681,-10881.027347,3294.210641
163492.063259,1184.329507,-9548.656652,3064.381992
163492.063578,-4737.318029,-8956.491898,0.000000
163492.063897,-1258.350101,-13027.624579,-2528.115143
163492.064217,-3034.844362,-10362.883188,-3140.991542
163492.064536,-2960.823768,-10066.800811,-1915.238745
163492.064856,-4145.153275,-6439.791695,-3677.258390
163492.065175,-1258.350101,-9474.636058,-1608.800546
163492.065495,-740.205942,-9030.512492,-612.876398
163492.065814,592.164754,-9400.615463,1149.143247
163492.066134,1850.514855,-9770.718434,4060.306139
163492.066453,2368.659014,-7772.162391,3064.381992
163492.066772,-888.247130,-9178.553681,-76.609550
163492.067092,-5403.503377,-8438.347739,-2451.505594
163492.067411,-4145.153275,-10140.821405,-2374.896044
163492.067731,-74.020594,-13471.748144,2068.457845
163492.068050,0.000000,-9474.636058,-1302.362347
163492.068370,-962.267725,-8882.471304,-2145.067394
163492.068689,0.000000,-9474.636058,-1225.752797
163492.069009,1110.308913,-9770.718434,0.000000
163492.069328,2072.576638,-10288.862594,1838.629195
163492.069647,1332.370696,-9252.574275,1532.190996
163492.069967,-4145.153275,-9548.656652,612.876398
163492.070286,-2442.679609,-11695.253884,-1915.238745
163492.070606,-1850.514855,-9474.636058,-1302.362347
163492.070925,-3034.844362,-7846.182985,-2145.067394
163492.071245,-2294.638420,-5995.668130,-3677.258390
163492.071564,-962.267725,-8142.265362,-2221.676944
163492.071884,0.000000,-9030.512492,-842.705048
163492.072203,1406.391290,-9474.636058,1302.362347
163492.072522,3923.091493,-10881.027347,3600.648841
163492.072842,3849.070898,-10955.047942,4673.182538
163492.073161,-666.185348,-7550.100608,76.609550
163492.073481,-3849.070898,-9548.656652,-2911.162892
163492.073800,-3552.988522,-11621.233289,-1532.190996
163492.074120,-3034.844362,-12435.459826,-1225.752797
163492.074439,-3552.988522,-7179.997637,-3983.696590
163492.074759,-1924.535449,-7624.121203,-1915.238745
163492.075078,370.102971,-7550.100608,-842.705048
163492.075398,1924.535449,-7772.162391,0.000000
163492.075717,4663.297435,-11843.295072,4213.525239
163492.076036,4663.297435,-11251.130318,3294.210641
163492.076356,-74.020594,-11251.130318,2068.457845
163492.076675,-3034.844362,-11843.295072,-1915.238745
163492.076995,-3182.885551,-9844.739029,-2834.553343
163492.077314,-4737.318029,-9548.656652,0.000000
163492.077634,-814.226536,-8882.471304,-1838.629195
163492.077953,-962.267725,-7624.121203,-2145.067394
163492.078273,1406.391290,-8364.327145,-995.924147
163492.078592,3701.029710,-7772.162391,919.314598
163492.078911,7031.956449,-11547.212695,4519.963438
163492.079231,5921.647536,-9548.656652,4903.011187
163492.079550,4515.256246,-9474.636058,3294.210641
163492.079870,-1258.350101,-10362.883188,536.266849
163492.080189,-2442.679609,-10658.965565,-2528.115143
163492.080509,-7105.977043,-9548.656652,-1838.629195
163492.080828,-2886.803174,-9918.759623,-1685.410096
163492.081148,-2072.576638,-7031.956449,-2145.067394
163492.081467,-296.082377,-7772.162391,-689.485948
163492.081786,2590.720797,-7624.121203,0.000000
163492.082106,3775.050304,-8586.388927,1378.971896
163492.082425,1480.411884,-8364.327145,2145.067394
163492.082745,-370.102971,-9252.574275,0.000000
163492.083064,-1850.514855,-13027.624579,-76.609550
163492.083384,-3627.009116,-13619.789333,-1302.362347
163492.083703,-2812.782580,-12731.542202,306.438199
163492.084023,-962.267725,-10362.883188,-76.609550
163492.084342,-592.164754,-7476.080014,-1455.581446
163492.084661,814.226536,-7698.141797,-1991.848295
163492.084981,0.000000,-7179.997637,-2451.505594
163492.085300,1554.432478,-9178.553681,919.314598
163492.085620,4885.359217,-11103.089130,2145.067394
163492.085939,1776.494261,-10436.903782,3064.381992
163492.086259,-370.102971,-10658.965565,842.705048
163492.086578,-1258.350101,-10658.965565,-689.485948
163492.086898,-1850.514855,-9474.636058,-1915.238745
163492.087217,-1480.411884,-9326.594869,-1072.533697
163492.087537,-1406.391290,-7994.224174,-1608.800546
163492.087856,-296.082377,-8142.265362,-612.876398
163492.088175,592.164754,-7772.162391,306.438199
163492.088495,740.205942,-8364.327145,0.000000
163492.088814,1184.329507,-8364.327145,2451.505594
163492.089134,1110.308913,-9474.636058,1072.533697
163492.089453,-2442.679609,-11843.295072,-76.609550
163492.089773,-3849.070898,-13619.789333,-76.609550
163492.090092,-5551.544565,-11103.089130,-1685.410096
163492.090412,-1702.473667,-10066.800811,-995.924147
163492.090731,-592.164754,-7402.059420,-1072.533697
163492.091050,0.000000,-7179.997637,0.000000
163492.091370,2294.638420,-6957.935855,0.000000
163492.091689,2886.803174,-8882.471304,-76.609550
163492.092009,1702.473667,-9844.739029,842.705048
163492.092328,0.000000,-8364.327145,0.000000
163492.092648,-74.020594,-13027.624579,2987.772442
163492.092967,-3552.988522,-10732.986159,-1532.190996
163492.093287,-3182.885551,-10436.903782,-2528.115143
163492.093606,-1776.494261,-9696.697840,-995.924147
163492.093925,-1036.288319,-8142.265362,-1455.581446
163492.094245,-74.020594,-6513.812290,-2834.553343
163492.094564,2368.659014,-8438.347739,76.609550
163492.094884,2960.823768,-8364.327145,1685.410096
163492.095203,5033.400406,-8660.409521,3753.867940
163492.095523,4663.297435,-8364.327145,4366.744339
163492.095842,1554.432478,-10436.903782,3830.477490
163492.096162,-1850.514855,-12509.480420,1685.410096
163492.096481,-4219.173869,-10362.883188,-2528.115143
163492.096800,-4145.153275,-11325.150913,-2298.286494
163492.097120,-1332.370696,-10881.027347,-1838.629195
163492.097439,-2738.761985,-7402.059420,-3753.867940
163492.097759,-296.082377,-8956.491898,-1762.019645
163492.098078,1332.370696,-8068.244768,-842.705048
163492.098398,2664.741391,-9844.739029,1302.362347
163492.098717,3182.885551,-9178.553681,2681.334243
163492.099037,-74.020594,-8734.430116,-76.609550
163492.099356,-2368.659014,-10732.986159,612.876398
163492.099676,1998.556043,-11547.212695,2374.896044
163492.099995,1110.308913,-10658.965565,1762.019645
163492.100314,-3552.988522,-7772.162391,-2451.505594
163492.100634,-2442.679609,-7698.141797,-2987.772442
163492.100953,-1258.350101,-9252.574275,-2451.505594
163492.101273,74.020594,-9400.615463,-1838.629195
163492.101592,2220.617826,-11695.253884,919.314598
163492.101912,4515.256246,-9474.636058,1762.019645
163492.102231,666.185348,-8364.327145,766.095498
163492.102551,-2368.659014,-8734.430116,-1302.362347
163492.102870,-4737.318029,-7994.224174,-2451.505594
163492.103189,-2960.823768,-9548.656652,306.438199
163492.103509,-2368.659014,-5995.668130,0.000000
163492.103828,-370.102971,-7105.977043,383.047749
163492.104148,0.000000,-7698.141797,-536.266849
163492.104467,-222.061783,-7994.224174,153.219100
163492.104787,1554.432478,-8882.471304,1149.143247
163492.105106,2738.761985,-7846.182985,-76.609550
163492.105426,-1554.432478,-11843.295072,-76.609550
163492.105745,-4663.297435,-9548.656652,-4290.134789
163492.106064,-5477.523971,-11029.068536,-3064.381992
163492.106384,-3256.906145,-12509.480420,1225.752797
163492.106703,-4145.153275,-8364.327145,-2451.505594
163492.107023,-2072.576638,-7994.224174,-1838.629195
163492.107342,-296.082377,-7105.977043,-1378.971896
163492.107662,1184.329507,-6883.915261,0.000000
163492.107981,4663.297435,-9474.636058,2987.772442
163492.108301,6439.791695,-8512.368333,4443.353888
163492.108620,2886.803174,-9474.636058,1762.019645
163492.108939,-1850.514855,-9918.759623,-612.876398
163492.109259,-4737.318029,-9548.656652,-3064.381992
163492.109578,-3552.988522,-12213.398043,612.876398
163492.109898,-2368.659014,-9696.697840,-1991.848295
163492.110217,-2442.679609,-9400.615463,-1225.752797
163492.110537,-592.164754,-8290.306550,-1225.752797
163492.110856,740.205942,-7698.141797,-76.609550
163492.111176,3775.050304,-8660.409521,1532.190996
163492.111495,4737.318029,-7772.162391,3830.477490
163492.111815,2590.720797,-7698.141797,3064.381992
163492.112134,-74.020594,-7698.141797,-1302.362347
163492.112453,-4145.153275,-10140.821405,-2298.286494
163492.112773,-4441.235652,-12509.480420,0.000000
163492.113092,-2294.638420,-11769.274478,-1455.581446
163492.113412,-2960.823768,-9696.697840,-2221.676944
163492.113731,-2368.659014,-9252.574275,-2681.334243
163492.114051,-2368.659014,-6291.750507,-3983.696590
163492.114370,74.020594,-7476.080014,0.000000
163492.114690,4737.318029,-4811.338623,306.438199
163492.115009,2368.659014,-7179.997637,2451.505594
163492.115328,1628.453072,-9178.553681,842.705048
163492.115648,-74.020594,-11843.295072,-76.609550
163492.115967,-2368.659014,-11325.150913,0.000000
163492.116287,518.144159,-11029.068536,-383.047749
163492.116606,-1702.473667,-9770.718434,-1225.752797
163492.116926,-2590.720797,-9770.718434,-2298.286494
163492.117245,-1924.535449,-7624.121203,-3753.867940
163492.117565,2294.638420,-11843.295072,2374.896044
163492.117884,5847.626942,-8290.306550,2681.334243
163492.118203,2368.659014,-6143.709319,2145.067394
163492.118523,0.000000,-5995.668130,0.000000
163492.118842,1110.308913,-10658.965565,-76.609550
163492.119162,-2960.823768,-10732.986159,0.000000
163492.119481,-1184.329507,-11547.212695,306.438199
163492.119801,-2812.782580,-9548.656652,-1915.238745
163492.120120,-4145.153275,-9770.718434,-1838.629195
163492.120440,-1850.514855,-8734.430116,-2451.505594
163492.120759,1110.308913,-11251.130318,1149.143247
163492.121078,4663.297435,-8586.388927,3600.648841
163492.121398,2886.803174,-6513.812290,-76.609550
163492.121717,-2738.761985,-7179.997637,-1302.362347
163492.122037,-666.185348,-11251.130318,-995.924147
163492.122356,-3404.947333,-11399.171507,-1225.752797
163492.122676,-1480.411884,-11843.295072,229.828649
163492.122995,-2812.782580,-9178.553681,-1685.410096
163492.123315,-4737.318029,-8364.327145,-2451.505594
163492.123634,-2368.659014,-7772.162391,-2451.505594
163492.123953,1998.556043,-10288.862594,306.438199
163492.124273,5477.523971,-10066.800811,4366.744339
163492.124592,4663.297435,-8142.265362,1455.581446
163492.124912,-74.020594,-7698.141797,1149.143247
163492.125231,-74.020594,-9474.636058,-76.609550
163492.125551,-1406.391290,-10584.944971,383.047749
163492.125870,0.000000,-10732.986159,1149.143247
163492.126190,-1850.514855,-9252.574275,0.000000
163492.126509,-4737.318029,-7179.997637,0.000000
163492.126829,-888.247130,-7179.997637,-3524.039291
163492.127148,0.000000,-8956.491898,612.876398
163492.127468,4663.297435,-9474.636058,2374.896044
163492.127788,2294.638420,-9326.594869,1762.019645
163492.128107,-2220.617826,-10066.800811,-76.609550
163492.128427,-3627.009116,-9474.636058,-2451.505594
163492.128746,-3034.844362,-11695.253884,-1149.143247
163492.129066,-74.020594,-12287.418637,1378.971896
163492.129385,-2368.659014,-9548.656652,-2451.505594
163492.129705,-2368.659014,-8660.409521,-919.314598
163492.130024,-74.020594,-9474.636058,-689.485948
163492.130344,740.205942,-8512.368333,-229.828649
163492.130664,4737.318029,-7476.080014,2451.505594
163492.130983,5699.585753,-8438.347739,2298.286494
163492.131303,-2368.659014,-6291.750507,-1838.629195
163492.131622,-1406.391290,-9622.677246,-1838.629195
163492.131942,-1184.329507,-10881.027347,-2068.457845
163492.132261,0.000000,-11991.336260,-383.047749
163492.132581,-74.020594,-11251.130318,-1608.800546
163492.132900,-2664.741391,-10732.986159,-1225.752797
163492.133220,-518.144159,-9030.512492,-689.485948
163492.133539,1850.514855,-7772.162391,0.000000
163492.133859,3701.029710,-7402.059420,2987.772442
163492.134179,2368.659014,-6587.832884,2757.943793
163492.134498,0.000000,-7179.997637,612.876398
163492.134818,-74.020594,-10658.965565,-383.047749
163492.135137,-1554.432478,-10658.965565,-536.266849
163492.135457,0.000000,-11769.274478,0.000000
163492.135776,2294.638420,-10658.965565,-76.609550
163492.136096,-2664.741391,-10140.821405,-1455.581446
163492.136415,-2960.823768,-9030.512492,-1915.238745
163492.136735,-1850.514855,-8512.368333,-2221.676944
163492.137055,1184.329507,-9844.739029,0.000000
163492.137374,0.000000,-5995.668130,0.000000
163492.137694,-4145.153275,-6587.832884,-1685.410096
163492.138013,-2664.741391,-9252.574275,-1838.629195
163492.138333,-666.185348,-10658.965565,-459.657299
163492.138652,-1554.432478,-8660.409521,0.000000
163492.138972,-74.020594,-9474.636058,-76.609550
163492.139291,-2368.659014,-10584.944971,-306.438199
163492.139611,-1184.329507,-9474.636058,-1072.533697
163492.139930,-370.102971,-9844.739029,-306.438199
163492.140250,2886.803174,-11251.130318,3294.210641
163492.140570,2664.741391,-7179.997637,0.000000
163492.140889,0.000000,-5995.668130,0.000000
163492.141209,-2368.659014,-7772.162391,0.000000
163492.141528,-74.020594,-9474.636058,-76.609550
163492.141848,0.000000,-8512.368333,0.000000
163492.142167,1406.391290,-9474.636058,1838.629195
163492.142487,-2294.638420,-9400.615463,459.657299
163492.142806,-2738.761985,-8216.285956,0.000000
163492.143126,-1332.370696,-9474.636058,-76.609550
163492.143446,1998.556043,-9474.636058,3600.648841
163492.143765,1924.535449,-8290.306550,-76.609550
163492.144085,-3701.029710,-7179.997637,0.000000
163492.144404,0.000000,-8364.327145,0.000000
163492.144724,-2368.659014,-7772.162391,-2451.505594
163492.145043,-4071.132681,-10732.986159,-3370.820191
163492.145363,-1924.535449,-11251.130318,-2298.286494
163492.145682,-3478.967927,-12287.418637,-1685.410096
163492.146002,-1776.494261,-10436.903782,-1915.238745
163492.146321,1998.556043,-11843.295072,-689.485948
163492.146641,3701.029710,-10140.821405,4596.572988
163492.146961,7031.956449,-7105.977043,2374.896044
163492.147280,2812.782580,-5255.462188,1225.752797
163492.147600,1184.329507,-7179.997637,919.314598
163492.147919,-2072.576638,-5995.668130,0.000000
163492.148239,-666.185348,-10732.986159,-995.924147
163492.148558,888.247130,-10732.986159,-459.657299
163492.148878,-1850.514855,-11103.089130,-919.314598
163492.149197,-2960.823768,-10658.965565,-612.876398
163492.149517,-1036.288319,-9770.718434,-2068.457845
163492.149837,0.000000,-9548.656652,0.000000
163492.150156,1184.329507,-6809.894666,-1455.581446
163492.150476,-2368.659014,-4811.338623,0.000000
163492.150795,-1184.329507,-6735.874072,-383.047749
163492.151115,-1776.494261,-7179.997637,0.000000
163492.151434,74.020594,-9770.718434,-153.219100
163492.151754,370.102971,-9918.759623,76.609550
163492.152073,-1924.535449,-9622.677246,-766.095498
163492.152393,-2442.679609,-10066.800811,-2528.115143
163492.152712,-666.185348,-10066.800811,-1608.800546
163492.153032,-444.123565,-11843.295072,1762.019645
163492.153352,1998.556043,-8586.388927,-76.609550
163492.153671,-1036.288319,-6587.832884,-1532.190996
163492.153991,-74.020594,-10066.800811,-76.609550
163492.154310,-3404.947333,-7179.997637,-2451.505594
163492.154630,-666.185348,-9474.636058,-689.485948
163492.154949,1184.329507,-10140.821405,766.095498
163492.155269,666.185348,-8586.388927,0.000000
163492.155588,-74.020594,-8882.471304,-76.609550
163492.155908,2294.638420,-12435.459826,2374.896044
163492.156228,-666.185348,-10066.800811,0.000000
163492.156547,296.082377,-8956.491898,919.314598
163492.156867,-2960.823768,-5107.421000,0.000000
163492.157186,-296.082377,-10066.800811,1991.848295
163492.157506,-1258.350101,-7772.162391,-1225.752797
163492.157825,370.102971,-9770.718434,919.314598
163492.158145,1406.391290,-9326.594869,2221.676944
163492.158464,0.000000,-9030.512492,0.000000
163492.158784,-1554.432478,-10214.842000,-1838.629195
163492.159103,-2146.597232,-10881.027347,-76.609550
163492.159423,-1258.350101,-10807.006753,1149.143247
163492.159743,518.144159,-7698.141797,-995.924147
163492.160062,0.000000,-7698.141797,-383.047749
163492.160382,-1776.494261,-8364.327145,919.314598
163492.160701,-1850.514855,-7476.080014,-2451.505594
163492.161021,-444.123565,-9548.656652,-1302.362347
163492.161340,1554.432478,-9844.739029,0.000000
163492.161660,0.000000,-7179.997637,-2451.505594
163492.161979,-2220.617826,-9770.718434,0.000000
163492.162299,0.000000,-10140.821405,-2451.505594
163492.162619,2294.638420,-13915.871710,2987.772442
163492.162938,2590.720797,-10066.800811,1149.143247
163492.163258,2294.638420,-8290.306550,-76.609550
163492.163577,-1776.494261,-8364.327145,0.000000
163492.163897,-518.144159,-7105.977043,-1915.238745
163492.164216,592.164754,-8364.327145,-459.657299
163492.164536,2368.659014,-9178.553681,919.314598
163492.164855,0.000000,-7179.997637,0.000000
163492.165175,-1850.514855,-10510.924376,-689.485948
163492.165494,-3552.988522,-9548.656652,-2451.505594
163492.165814,-444.123565,-11769.274478,1072.533697
163492.166134,2812.782580,-11843.295072,3370.820191
163492.166453,0.000000,-7179.997637,1225.752797
163492.166773,-1850.514855,-7105.977043,-995.924147
163492.167092,-1184.329507,-6735.874072,-2528.115143
163492.167412,-2294.638420,-8290.306550,-2451.505594
163492.167731,-2368.659014,-7476.080014,-2987.772442
163492.168051,-888.247130,-8512.368333,-1225.752797
163492.168370,-1480.411884,-11621.233289,536.266849
163492.168690,-74.020594,-10658.965565,-76.609550
163492.169010,-1628.453072,-8956.491898,-1762.019645
163492.169329,0.000000,-8364.327145,1225.752797
163492.169649,814.226536,-7179.997637,-995.924147
163492.169968,-1480.411884,-7772.162391,-842.705048
163492.170288,-1702.473667,-8438.347739,-2451.505594
163492.170607,-1110.308913,-9178.553681,-1685.410096
163492.170927,2294.638420,-11251.130318,-76.609550
163492.171246,1184.329507,-9104.533087,0.000000
163492.171566,-814.226536,-10658.965565,229.828649
163492.171885,-888.247130,-10140.821405,0.000000
163492.172205,-814.226536,-10214.842000,1762.019645
163492.172525,0.000000,-9548.656652,3064.381992
163492.172844,0.000000,-7179.997637,306.438199
163492.173164,592.164754,-8364.327145,2374.896044
163492.173483,518.144159,-6513.812290,-76.609550
163492.173803,-814.226536,-5995.668130,-1762.019645
163492.174122,2886.803174,-11251.130318,-76.609550
163492.174442,0.000000,-9178.553681,-536.266849
163492.174761,-1258.350101,-10955.047942,-689.485948
163492.175081,-1332.370696,-11621.233289,-689.485948
163492.175401,-1776.494261,-11621.233289,0.000000
163492.175720,0.000000,-11991.336260,2451.505594
163492.176040,-1184.329507,-7179.997637,0.000000
163492.176359,-2960.823768,-7179.997637,-3677.258390
163492.176679,-4737.318029,-7179.997637,-3370.820191
163492.176998,-1850.514855,-8586.388927,-4366.744339
163492.177318,-74.020594,-10066.800811,-383.047749
163492.177637,1924.535449,-8364.327145,0.000000
163492.177957,2072.576638,-9474.636058,1072.533697
163492.178276,2368.659014,-9548.656652,842.705048
163492.178596,1776.494261,-11695.253884,2221.676944
163492.178916,962.267725,-11991.336260,1455.581446
163492.179235,1110.308913,-11843.295072,-76.609550
163492.179555,-1998.556043,-8882.471304,-1455.581446
163492.179874,-2294.638420,-7179.997637,-2757.943793
163492.180194,-1258.350101,-7698.141797,-4979.620737
163492.180513,592.164754,-11473.192101,766.095498
163492.180833,5181.441594,-7920.203579,1532.190996
163492.181152,2294.638420,-7179.997637,1608.800546
163492.181472,1110.308913,-10658.965565,2068.457845
163492.181792,592.164754,-10881.027347,2451.505594
163492.182111,592.164754,-11029.068536,3983.696590
163492.182431,814.226536,-9474.636058,-76.609550
163492.182750,-5921.647536,-7179.997637,-2451.505594
163492.183070,-8290.306550,-5995.668130,-7354.516781
163492.183389,-5403.503377,-9474.636058,-5592.497135
163492.183709,-1332.370696,-10066.800811,-3064.381992
163492.184028,370.102971,-8290.306550,-1608.800546
163492.184348,0.000000,-9030.512492,-1532.190996
163492.184667,1998.556043,-10658.965565,612.876398
163492.184987,222.061783,-9548.656652,0.000000
163492.185307,296.082377,-11325.150913,2451.505594
163492.185626,1998.556043,-11843.295072,2528.115143
163492.185946,1036.288319,-9474.636058,2068.457845
163492.186265,-2368.659014,-5995.668130,0.000000
163492.186585,-370.102971,-7994.224174,-1302.362347
163492.186904,0.000000,-9030.512492,383.047749
163492.187224,962.267725,-7624.121203,-383.047749
163492.187543,666.185348,-7698.141797,-766.095498
163492.187863,-962.267725,-10066.800811,-995.924147
163492.188183,-3108.864956,-10288.862594,-1838.629195
163492.188502,-2072.576638,-11917.315666,0.000000
163492.188822,1184.329507,-11029.068536,2451.505594
163492.189141,-1554.432478,-9326.594869,-76.609550
163492.189461,-6513.812290,-4811.338623,-3064.381992
163492.189780,-1998.556043,-7624.121203,-1302.362347
163492.190100,-370.102971,-7624.121203,153.219100
163492.190419,1702.473667,-7179.997637,536.266849
163492.190739,1998.556043,-8290.306550,-76.609550
163492.191058,2294.638420,-10658.965565,-76.609550
163492.191378,-74.020594,-11843.295072,-76.609550
163492.191698,-1924.535449,-11473.192101,229.828649
163492.192017,148.041188,-11029.068536,153.219100
163492.192337,-1184.329507,-9548.656652,1225.752797
163492.192656,-3256.906145,-7476.080014,-2911.162892
163492.192976,-1998.556043,-7994.224174,-2757.943793
163492.193295,-1554.432478,-9178.553681,-766.095498
163492.193615,2590.720797,-7624.121203,0.000000
163492.193934,5847.626942,-8290.306550,-76.609550
163492.194254,2072.576638,-8364.327145,1532.190996
163492.194574,2886.803174,-10658.965565,1455.581446
163492.194893,1036.288319,-10881.027347,1378.971896
163492.195213,1332.370696,-9548.656652,919.314598
163492.195532,0.000000,-9548.656652,2451.505594
163492.195852,-5329.482782,-9548.656652,-2451.505594
163492.196171,-3997.112087,-8734.430116,-3983.696590
163492.196491,-2442.679609,-9474.636058,-2068.457845
163492.196810,1850.514855,-7846.182985,-1532.190996
163492.197130,3330.926739,-7105.977043,-1608.800546
163492.197449,0.000000,-7179.997637,383.047749
163492.197769,1406.391290,-8660.409521,306.438199
163492.198089,2886.803174,-11843.295072,2374.896044
163492.198408,3478.967927,-11843.295072,2374.896044
163492.198728,-2368.659014,-9548.656652,0.000000
163492.199047,-5699.585753,-10362.883188,-2451.505594
163492.199367,-4737.318029,-10066.800811,-4749.792088
163492.199686,-3627.009116,-11177.109724,-2374.896044
163492.200006,518.144159,-7698.141797,-3447.429741
163492.200325,1998.556043,-5921.647536,-2068.457845
163492.200645,0.000000,-5995.668130,-3064.381992
163492.200965,592.164754,-7476.080014,0.000000
163492.201284,3182.885551,-11695.253884,2987.772442
163492.201604,5551.544565,-12731.542202,6358.592633
163492.201923,-2368.659014,-9622.677246,612.876398
163492.202243,-4811.338623,-10584.944971,-1455.581446
163492.202562,-5773.606348,-8808.450710,-4213.525239
163492.202882,-3034.844362,-10214.842000,-1532.190996
163492.203201,74.020594,-7624.121203,-1915.238745
163492.203521,2590.720797,-7105.977043,-76.609550
163492.203840,74.020594,-6661.853478,-995.924147
163492.204160,-1776.494261,-7772.162391,0.000000
163492.204480,-2960.823768,-9548.656652,766.095498
163492.204799,592.164754,-9548.656652,3064.381992
163492.205119,-74.020594,-10140.821405,1149.143247
163492.205438,-5033.400406,-9992.780217,-383.047749
163492.205758,-5329.482782,-9030.512492,-1838.629195
163492.206077,-3034.844362,-7994.224174,-2528.115143
163492.206397,-592.164754,-7920.203579,-842.705048
163492.206716,592.164754,-5995.668130,-1225.752797
163492.207036,-1110.308913,-7994.224174,-2451.505594
163492.207356,-74.020594,-10955.047942,-383.047749
163492.207675,-1480.411884,-9696.697840,0.000000
163492.207995,3182.885551,-11399.171507,2374.896044
163492.208314,1036.288319,-9844.739029,919.314598
163492.208634,-2960.823768,-9770.718434,-459.657299
163492.208953,-3997.112087,-8216.285956,-1838.629195
163492.209273,-74.020594,-10955.047942,-76.609550
163492.209592,1332.370696,-9104.533087,0.000000
163492.209912,4293.194464,-7698.141797,153.219100
163492.210231,1776.494261,-7624.121203,229.828649
163492.210551,1776.494261,-8364.327145,0.000000
163492.210871,0.000000,-7772.162391,0.000000
163492.211190,1554.432478,-10140.821405,766.095498
163492.211510,2368.659014,-10140.821405,2451.505594
163492.211829,-1406.391290,-9474.636058,1225.752797
163492.212149,-3478.967927,-8882.471304,-2221.676944
163492.212468,-1480.411884,-10955.047942,-1302.362347
163492.212788,0.000000,-9104.533087,-1302.362347
163492.213107,2072.576638,-6735.874072,-1378.971896
163492.213427,444.123565,-7402.059420,-1302.362347
163492.213747,0.000000,-8068.244768,-1302.362347
163492.214066,814.226536,-10658.965565,-689.485948
163492.214386,1776.494261,-11547.212695,1302.362347
163492.214705,2368.659014,-9548.656652,0.000000
163492.215025,-666.185348,-11843.295072,1149.143247
163492.215344,-3034.844362,-9474.636058,-2528.115143
163492.215664,-3182.885551,-9844.739029,-2757.943793
163492.215983,-1998.556043,-10066.800811,-1455.581446
163492.216303,1184.329507,-7994.224174,-1532.190996
163492.216622,518.144159,-6957.935855,-1072.533697
163492.216942,592.164754,-7179.997637,-919.314598
163492.217262,666.185348,-9548.656652,0.000000
163492.217581,4367.215058,-13027.624579,4826.401637
163492.217901,4663.297435,-10658.965565,2987.772442
163492.218220,-1998.556043,-9918.759623,612.876398
163492.218540,-2442.679609,-10658.965565,-1302.362347
163492.218859,-3552.988522,-9548.656652,-1608.800546
163492.219179,-1184.329507,-9696.697840,229.828649
163492.219498,1258.350101,-6587.832884,0.000000
163492.219818,1480.411884,-7402.059420,612.876398
163492.220138,-1628.453072,-8364.327145,1532.190996
163492.220457,-2072.576638,-7179.997637,0.000000
163492.220777,1184.329507,-11473.192101,4290.134789
163492.221096,2294.638420,-10658.965565,4826.401637
163492.221416,-5625.565159,-8364.327145,0.000000
163492.221735,-5403.503377,-10658.965565,-1915.238745
163492.222055,-6809.894666,-9252.574275,-3983.696590
163492.222374,-4219.173869,-11399.171507,-2528.115143
163492.222694,-1332.370696,-9104.533087,-2451.505594
163492.223013,0.000000,-7179.997637,-1225.752797
163492.223333,0.000000,-6439.791695,-1532.190996
163492.223653,2368.659014,-8660.409521,612.876398
163492.223972,4959.379811,-11843.295072,4826.401637
163492.224292,4663.297435,-8290.306550,1991.848295
163492.224611,-1110.308913,-9548.656652,0.000000
163492.224931,-2442.679609,-11547.212695,-842.705048
163492.225250,-3552.988522,-10140.821405,-2451.505594
163492.225570,-2072.576638,-11325.150913,-919.314598
163492.225889,962.267725,-8660.409521,-76.609550
163492.226209,1110.308913,-8586.388927,-76.609550
163492.226529,1702.473667,-6217.729913,-459.657299
163492.226848,1332.370696,-7105.977043,-76.609550
163492.227168,0.000000,-9548.656652,2451.505594
163492.227487,4737.318029,-10288.862594,3677.258390
163492.227807,-1258.350101,-8364.327145,-1225.752797
163492.228126,-4663.297435,-10362.883188,-1685.410096
163492.228446,-5921.647536,-9178.553681,-3677.258390
163492.228766,-3923.091493,-10658.965565,-2911.162892
163492.229086,1110.308913,-11547.212695,-689.485948
163492.229405,1628.453072,-9326.594869,-76.609550
163492.229725,1406.391290,-6809.894666,-76.609550
163492.230045,4071.132681,-9474.636058,-76.609550
163492.230365,2738.761985,-10362.883188,995.924147
163492.230684,2960.823768,-8364.327145,1225.752797
163492.231004,296.082377,-9548.656652,1378.971896
163492.231324,-3997.112087,-11917.315666,-153.219100
163492.231644,-4515.256246,-10881.027347,-3370.820191
163492.231963,-3404.947333,-10732.986159,-1991.848295
163492.232283,1110.308913,-9474.636058,-1302.362347
163492.232603,2294.638420,-8290.306550,-612.876398
163492.232922,2886.803174,-8882.471304,-76.609550
163492.233242,2294.638420,-6809.894666,-689.485948
163492.233562,1480.411884,-8734.430116,1149.143247
163492.233882,3552.988522,-10732.986159,4903.011187
163492.234201,370.102971,-9548.656652,1225.752797
163492.234521,-3108.864956,-10658.965565,612.876398
163492.234841,-4737.318029,-10214.842000,-1225.752797
163492.235161,-3997.112087,-10955.047942,-1225.752797
163492.235480,-74.020594,-11251.130318,-76.609550
163492.235800,-2368.659014,-7476.080014,0.000000
163492.236120,-1110.308913,-7105.977043,-612.876398
163492.236440,1702.473667,-9474.636058,-76.609550
163492.236759,1702.473667,-9474.636058,1762.019645
163492.237079,2368.659014,-10140.821405,4903.011187
163492.237399,1406.391290,-8882.471304,1915.238745
163492.237718,-3330.926739,-10881.027347,-306.438199
163492.238038,-5699.585753,-11177.109724,-2757.943793
163492.238358,-6513.812290,-9548.656652,-3677.258390
163492.238678,-3478.967927,-8660.409521,-2298.286494
163492.238997,-1776.494261,-7846.182985,-1225.752797
163492.239317,-1480.411884,-7179.997637,0.000000
163492.239637,3478.967927,-8290.306550,-383.047749
163492.239957,4071.132681,-9474.636058,3600.648841
163492.240276,3552.988522,-9104.533087,4290.134789
163492.240596,3330.926739,-9474.636058,2528.115143
163492.240916,-1480.411884,-10807.006753,1149.143247
163492.241236,-3404.947333,-10214.842000,-1532.190996
163492.241555,-4885.359217,-9548.656652,-3677.258390
163492.241875,-1850.514855,-9992.780217,0.000000
163492.242195,-370.102971,-7105.977043,-2528.115143
163492.242514,-1776.494261,-5995.668130,0.000000
163492.242834,1184.329507,-5995.668130,-2451.505594
163492.243154,296.082377,-7179.997637,0.000000
163492.243474,3182.885551,-9252.574275,2298.286494
163492.243793,2590.720797,-8808.450710,1685.410096
163492.244113,-1406.391290,-11029.068536,76.609550
163492.244433,-3775.050304,-10140.821405,-3907.087040
163492.244753,-4071.132681,-13027.624579,-3064.381992
163492.245072,-3552.988522,-10140.821405,0.000000
163492.245392,888.247130,-10066.800811,-689.485948
163492.245712,1110.308913,-9474.636058,-76.609550
163492.246032,592.164754,-3627.009116,-2451.505594
163492.246351,2294.638420,-7105.977043,-1378.971896
163492.246671,3256.906145,-10140.821405,1455.581446
163492.246991,2442.679609,-10214.842000,1149.143247
163492.247310,-1850.514855,-11029.068536,-536.266849
163492.247630,-2442.679609,-13915.871710,-1302.362347
163492.247950,-3552.988522,-12435.459826,-2145.067394
163492.248270,-1258.350101,-11547.212695,-76.609550
163492.248589,2294.638420,-9474.636058,-76.609550
163492.248909,-74.020594,-7328.038826,-995.924147
163492.249229,3478.967927,-6513.812290,-2528.115143
163492.249549,3478.967927,-8734.430116,536.266849
163492.249868,3404.947333,-8882.471304,2757.943793
163492.250188,4367.215058,-8882.471304,2757.943793
163492.250508,962.267725,-10066.800811,1991.848295
163492.250828,-3552.988522,-9548.656652,0.000000
163492.251147,-4959.379811,-10658.965565,-1991.848295
163492.251467,-4737.318029,-11029.068536,-1302.362347
163492.251787,-2294.638420,-9252.574275,-1378.971896
163492.252106,-2294.638420,-6809.894666,-1455.581446
163492.252426,-592.164754,-4811.338623,-1838.629195
163492.252746,2072.576638,-8586.388927,536.266849
163492.253066,3182.885551,-9770.718434,2374.896044
163492.253385,4663.297435,-9474.636058,1762.019645
163492.253705,-148.041188,-10955.047942,2374.896044
163492.254025,-5329.482782,-10140.821405,-1838.629195
163492.254345,-5107.421000,-11843.295072,-2681.334243
163492.254664,-3849.070898,-11251.130318,-612.876398
163492.254984,-962.267725,-9474.636058,-689.485948
163492.255304,-962.267725,-7476.080014,-1838.629195
163492.255624,1406.391290,-6735.874072,-383.047749
163492.255943,4071.132681,-8290.306550,1225.752797
163492.256263,6439.791695,-9474.636058,3600.648841
163492.256583,4663.297435,-8216.285956,2451.505594
163492.256902,2960.823768,-11103.089130,3907.087040
163492.257222,-2812.782580,-10436.903782,-459.657299
163492.257542,-4145.153275,-11103.089130,-1762.019645
163492.257862,-4515.256246,-12139.377449,-842.705048
163492.258181,-1628.453072,-10881.027347,0.000000
163492.258501,-3552.988522,-7179.997637,-3677.258390
163492.258821,-1628.453072,-6513.812290,-3140.991542
163492.259141,0.000000,-5995.668130,-1838.629195
163492.259460,2368.659014,-8956.491898,1608.800546
163492.259780,3478.967927,-9178.553681,2374.896044
163492.260100,1776.494261,-10658.965565,3294.210641
163492.260419,-2664.741391,-10140.821405,-689.485948
163492.260739,-3552.988522,-11473.192101,-1991.848295
163492.261059,-2812.782580,-12509.480420,0.000000
163492.261379,-2368.659014,-7179.997637,-1838.629195
163492.261698,-2146.597232,-9178.553681,-689.485948
163492.262018,1110.308913,-7698.141797,-2528.115143
163492.262338,370.102971,-7698.141797,-2834.553343
163492.262658,1998.556043,-9474.636058,-1302.362347
163492.262977,4071.132681,-9474.636058,-76.609550
163492.263297,1776.494261,-10436.903782,919.314598
163492.263617,-444.123565,-10288.862594,-689.485948
163492.263937,-1998.556043,-10732.986159,-1532.190996
163492.264256,-2072.576638,-11325.150913,229.828649
163492.264576,296.082377,-9104.533087,229.828649
163492.264896,-74.020594,-9474.636058,-76.609550
163492.265215,-962.267725,-7476.080014,-76.609550
163492.265535,-74.020594,-5921.647536,-2528.115143
163492.265855,1184.329507,-8438.347739,1378.971896
163492.266175,7031.956449,-9474.636058,4213.525239
163492.266494,2812.782580,-8364.327145,2374.896044
163492.266814,-1850.514855,-9474.636058,-306.438199
163492.267134,-4219.173869,-11177.109724,-2987.772442
163492.267454,-3849.070898,-13693.809927,0.000000
163492.267773,-1628.453072,-11325.150913,306.438199
163492.268093,-814.226536,-9400.615463,-3677.258390
163492.268413,-3256.906145,-7179.997637,-1532.190996
163492.268733,1110.308913,-8290.306550,-383.047749
163492.269052,814.226536,-7179.997637,-995.924147
163492.269372,6439.791695,-9474.636058,2987.772442
163492.269692,3182.885551,-7550.100608,1838.629195
163492.270011,-666.185348,-9474.636058,383.047749
163492.270331,-3108.864956,-10584.944971,-1915.238745
163492.270651,-4145.153275,-11917.315666,0.000000
163492.270971,-2960.823768,-10584.944971,-1915.238745
163492.271290,-3552.988522,-10732.986159,-2145.067394
163492.271610,-2220.617826,-8956.491898,-1302.362347
163492.271930,-74.020594,-9474.636058,-76.609550
163492.272250,1998.556043,-6365.771101,-919.314598
163492.272569,6291.750507,-8290.306550,4060.306139
163492.272889,4885.359217,-6809.894666,3064.381992
163492.273209,666.185348,-8290.306550,1838.629195
163492.273529,-2072.576638,-10214.842000,-766.095498
163492.273848,-4737.318029,-12509.480420,-1225.752797
163492.274168,-1258.350101,-11843.295072,-842.705048
163492.274488,-2960.823768,-9696.697840,-1838.629195
163492.274807,-5921.647536,-7772.162391,-3064.381992
163492.275127,-2368.659014,-7772.162391,-2451.505594
163492.275447,-1258.350101,-7031.956449,-1455.581446
163492.275767,4071.132681,-7698.141797,3064.381992
163492.276086,3404.947333,-6957.935855,1991.848295
163492.276406,-1110.308913,-7920.203579,153.219100
163492.276726,-2442.679609,-9474.636058,-76.609550
163492.277046,-3627.009116,-12139.377449,-1991.848295
163492.277365,-2072.576638,-12435.459826,-76.609550
163492.277685,-74.020594,-11843.295072,-2528.115143
163492.278005,-5477.523971,-9548.656652,-3064.381992
163492.278325,-4737.318029,-7179.997637,-3677.258390
163492.278644,-74.020594,-9178.553681,-1608.800546
163492.278964,4071.132681,-8956.491898,1915.238745
163492.279284,5107.421000,-6587.832884,1838.629195
163492.279603,518.144159,-7920.203579,1608.800546
163492.279923,1702.473667,-11547.212695,2374.896044
163492.280243,-370.102971,-10436.903782,0.000000
163492.280563,2294.638420,-13027.624579,2068.457845
163492.280882,-1258.350101,-8734.430116,-1225.752797
163492.281202,-4737.318029,-8512.368333,-3753.867940
163492.281522,-2738.761985,-9178.553681,-3140.991542
163492.281842,-1776.494261,-9548.656652,-2068.457845
163492.282161,1332.370696,-9548.656652,995.924147
163492.282481,3627.009116,-7476.080014,842.705048
163492.282801,1702.473667,-9326.594869,2911.162892
163492.283121,-3552.988522,-7994.224174,-689.485948
163492.283440,-3034.844362,-10066.800811,-2221.676944
163492.283760,-2368.659014,-11917.315666,0.000000
163492.284080,1184.329507,-10732.986159,612.876398
163492.284399,-74.020594,-11843.295072,-76.609550
163492.284719,-74.020594,-9770.718434,-229.828649
163492.285039,222.061783,-8586.388927,-1072.533697
163492.285359,3849.070898,-9030.512492,1149.143247
163492.285678,4293.194464,-7624.121203,153.219100
163492.285998,0.000000,-5995.668130,0.000000
163492.286318,-1776.494261,-9030.512492,-1838.629195
163492.286638,-592.164754,-11695.253884,0.000000
163492.286957,2072.576638,-12435.459826,1455.581446
163492.287277,1702.473667,-10066.800811,1149.143247
163492.287597,-1184.329507,-9548.656652,2221.676944
163492.287917,-740.205942,-7846.182985,-1378.971896
163492.288236,1036.288319,-7994.224174,0.000000
163492.288556,2738.761985,-7994.224174,2298.286494
163492.288876,4515.256246,-7179.997637,612.876398
163492.289195,-74.020594,-7698.141797,-76.609550
163492.289515,-1628.453072,-8660.409521,-306.438199
163492.289835,-1776.494261,-10066.800811,-1072.533697
163492.290155,-370.102971,-11843.295072,383.047749
163492.290474,2072.576638,-10288.862594,1762.019645
163492.290794,-1554.432478,-9474.636058,-76.609550
163492.291114,-2960.823768,-8956.491898,-612.876398
163492.291434,-74.020594,-9326.594869,-76.609550
163492.291753,2294.638420,-8882.471304,842.705048
163492.292073,2368.659014,-5403.503377,0.000000
163492.292393,-74.020594,-7698.141797,-76.609550
163492.292713,-3034.844362,-8364.327145,-2068.457845
163492.293032,-3849.070898,-10140.821405,-3447.429741
163492.293352,-3404.947333,-11843.295072,-1838.629195
163492.293672,-814.226536,-11843.295072,-76.609550
163492.293991,-3034.844362,-11843.295072,-1302.362347
163492.294311,-3997.112087,-8364.327145,-4290.134789
163492.294631,-3256.906145,-8364.327145,-1838.629195
163492.294951,2220.617826,-9178.553681,2374.896044
163492.295270,2812.782580,-5107.421000,0.000000
163492.295590,2886.803174,-7624.121203,1455.581446
163492.295910,0.000000,-7476.080014,612.876398
163492.296230,-1406.391290,-8956.491898,-1302.362347
163492.296549,-962.267725,-11843.295072,-76.609550
163492.296869,1110.308913,-11843.295072,-76.609550
163492.297189,-2442.679609,-13027.624579,-76.609550
163492.297509,-3627.009116,-9474.636058,-1915.238745
163492.297828,-3552.988522,-9548.656652,-1838.629195
163492.298148,0.000000,-8956.491898,1225.752797
163492.298468,1184.329507,-4811.338623,0.000000
163492.298787,666.185348,-6439.791695,1072.533697
163492.299107,-2072.576638,-7179.997637,-1915.238745
163492.299427,-3108.864956,-9178.553681,-2145.067394
163492.299747,-666.185348,-11843.295072,-76.609550
163492.300066,-2072.576638,-10140.821405,-1072.533697
163492.300386,-962.267725,-12435.459826,-383.047749
163492.300706,-4219.173869,-9696.697840,-2681.334243
163492.301026,-4737.318029,-7476.080014,-2451.505594
163492.301345,0.000000,-8364.327145,1225.752797
163492.301665,3256.906145,-7476.080014,383.047749
163492.301985,1702.473667,-7698.141797,459.657299
163492.302305,-1110.308913,-8216.285956,-153.219100
163492.302624,-74.020594,-8882.471304,-1072.533697
163492.302944,1406.391290,-11251.130318,536.266849
163492.303264,1184.329507,-10140.821405,1378.971896
163492.303583,148.041188,-10214.842000,1532.190996
163492.303903,-74.020594,-10658.965565,1149.143247
163492.304223,-74.020594,-9474.636058,-76.609550
163492.304543,0.000000,-9548.656652,1532.190996
163492.304862,3330.926739,-7698.141797,1225.752797
163492.305182,1628.453072,-6809.894666,1072.533697
163492.305502,-888.247130,-8364.327145,-76.609550
163492.305822,-1258.350101,-8586.388927,-2681.334243
163492.306141,-370.102971,-10066.800811,-995.924147
163492.306461,0.000000,-9770.718434,-689.485948
163492.306781,-2368.659014,-9548.656652,0.000000
163492.307101,-2368.659014,-10732.986159,-689.485948
163492.307420,-148.041188,-10658.965565,-76.609550
163492.307740,-2368.659014,-9548.656652,0.000000
163492.308060,2664.741391,-9104.533087,229.828649
163492.308379,1998.556043,-7772.162391,-383.047749
163492.308699,-592.164754,-8364.327145,-1149.143247
163492.309019,-1258.350101,-6661.853478,-3753.867940
163492.309339,-74.020594,-11621.233289,-76.609550
163492.309658,3478.967927,-11547.212695,-76.609550
163492.309978,1184.329507,-9548.656652,0.000000
163492.310298,-3552.988522,-9548.656652,0.000000
163492.310618,-74.020594,-11843.295072,1762.019645
163492.310937,-888.247130,-9548.656652,-689.485948
163492.311257,1628.453072,-8956.491898,536.266849
163492.311577,1332.370696,-7179.997637,-229.828649
163492.311897,-1332.370696,-7179.997637,0.000000
163492.312216,-370.102971,-8290.306550,-2298.286494
163492.312536,296.082377,-9474.636058,919.314598
163492.312856,1110.308913,-10362.883188,1991.848295
163492.313175,2294.638420,-10362.883188,-76.609550
163492.313495,-4811.338623,-9178.553681,-1915.238745
163492.313815,-3478.967927,-11695.253884,-383.047749
163492.314135,-3330.926739,-10732.986159,-1378.971896
163492.314454,-74.020594,-10584.944971,1149.143247
163492.314774,0.000000,-8290.306550,0.000000
163492.315094,-5921.647536,-6587.832884,-2451.505594
163492.315414,-4737.318029,-6365.771101,-2834.553343
163492.315733,-2072.576638,-8364.327145,-2451.505594
163492.316053,2664.741391,-10881.027347,1991.848295
163492.316373,2294.638420,-9178.553681,-76.609550
163492.316693,-74.020594,-9474.636058,-76.609550
163492.317012,-1184.329507,-10436.903782,-153.219100
163492.317332,-1998.556043,-10732.986159,-842.705048
163492.317652,-888.247130,-10584.944971,0.000000
163492.317971,-148.041188,-8660.409521,-383.047749
163492.318291,-4737.318029,-5995.668130,-2451.505594
163492.318611,-1554.432478,-7994.224174,-2528.115143
163492.318931,-2368.659014,-8364.327145,-1685.410096
163492.319250,2072.576638,-9770.718434,2221.676944
163492.319570,4663.297435,-10955.047942,2374.896044
163492.319890,592.164754,-11917.315666,3064.381992
163492.320210,444.123565,-9474.636058,459.657299
163492.320529,370.102971,-10066.800811,1302.362347
163492.320849,1924.535449,-11029.068536,1915.238745
163492.321169,296.082377,-7772.162391,0.000000
163492.321489,-1184.329507,-7772.162391,0.000000
163492.321808,-2072.576638,-7772.162391,-1225.752797
163492.322128,-74.020594,-9474.636058,-995.924147
163492.322448,2294.638420,-10658.965565,-76.609550
163492.322767,0.000000,-7179.997637,0.000000
163492.323087,-1480.411884,-8956.491898,-1762.019645
163492.323407,-1036.288319,-10584.944971,-1378.971896
163492.323727,-1702.473667,-11029.068536,-1455.581446
163492.324046,-666.185348,-11399.171507,1302.362347
163492.324366,3478.967927,-9474.636058,-76.609550
163492.324686,296.082377,-7772.162391,306.438199
163492.325006,0.000000,-7031.956449,-1072.533697
163492.325325,444.123565,-7624.121203,-1838.629195
163492.325645,1850.514855,-10214.842000,1378.971896
163492.325965,2368.659014,-9548.656652,0.000000
163492.326285,0.000000,-9548.656652,0.000000
163492.326604,-148.041188,-12731.542202,536.266849
163492.326924,-74.020594,-11547.212695,-383.047749
163492.327244,592.164754,-10732.986159,689.485948
163492.327563,5847.626942,-10658.965565,2374.896044
163492.327883,-592.164754,-6439.791695,1225.752797
163492.328202,-2294.638420,-5477.523971,-1762.019645
163492.328522,-2590.720797,-7105.977043,-2987.772442
163492.328841,-2368.659014,-9104.533087,-2298.286494
163492.329161,-74.020594,-9474.636058,-689.485948
163492.329481,-3775.050304,-9548.656652,-1225.752797
163492.329800,-2886.803174,-11695.253884,-383.047749
163492.330120,-5181.441594,-9548.656652,-2451.505594
163492.330439,-3627.009116,-10214.842000,-1302.362347
163492.330759,-74.020594,-10140.821405,1302.362347
163492.331078,-74.020594,-9178.553681,-76.609550
163492.331398,-1998.556043,-7550.100608,-1915.238745
163492.331718,-1406.391290,-8290.306550,-2451.505594
163492.332037,-74.020594,-9474.636058,-76.609550
163492.332357,814.226536,-8956.491898,-383.047749
163492.332676,0.000000,-10510.924376,-689.485948
163492.332996,-2368.659014,-9548.656652,0.000000
163492.333316,-1036.288319,-10807.006753,1455.581446
163492.333635,-3552.988522,-9548.656652,1225.752797
163492.333955,1628.453072,-8882.471304,2221.676944
163492.334274,-148.041188,-7179.997637,76.609550
163492.334594,-1776.494261,-6957.935855,-1991.848295
163492.334913,-2738.761985,-7698.141797,-3753.867940
163492.335233,-74.020594,-9474.636058,-76.609550
163492.335553,3478.967927,-11103.089130,2068.457845
163492.335872,2294.638420,-9326.594869,-76.609550
163492.336192,-1184.329507,-9548.656652,0.000000
163492.336511,296.082377,-11769.274478,1991.848295
163492.336831,-3256.906145,-10140.821405,0.000000
163492.337150,444.123565,-10066.800811,1762.019645
163492.337470,-666.185348,-9030.512492,0.000000
163492.337790,-888.247130,-8216.285956,153.219100
163492.338109,1702.473667,-8290.306550,-995.924147
163492.338429,1628.453072,-8364.327145,2145.067394
163492.338748,4515.256246,-8290.306550,1149.143247
163492.339068,1480.411884,-7105.977043,-76.609550
163492.339387,-74.020594,-8882.471304,-2528.115143
163492.339707,-2368.659014,-11029.068536,0.000000
163492.340027,-3627.009116,-12213.398043,-1838.629195
163492.340346,0.000000,-11843.295072,-229.828649
163492.340666,-444.123565,-9474.636058,-1072.533697
163492.340985,-962.267725,-9326.594869,-1149.143247
163492.341305,518.144159,-7476.080014,-3217.601092
163492.341624,592.164754,-8364.327145,0.000000
163492.341944,4663.297435,-8660.409521,3064.381992
163492.342264,7031.956449,-8290.306550,2374.896044
163492.342583,2220.617826,-8068.244768,1685.410096
163492.342903,1184.329507,-9548.656652,1838.629195
163492.343222,-444.123565,-11029.068536,229.828649
163492.343542,-814.226536,-11473.192101,766.095498
163492.343862,-1554.432478,-10214.842000,-1302.362347
163492.344181,-5773.606348,-8512.368333,-4749.792088
163492.344501,-5551.544565,-6291.750507,-5132.839837
163492.344820,-2960.823768,-7772.162391,-3907.087040
163492.345140,0.000000,-7772.162391,0.000000
163492.345459,2220.617826,-8364.327145,383.047749
163492.345779,-74.020594,-11843.295072,3294.210641
163492.346099,-1776.494261,-8956.491898,0.000000
163492.346418,-1702.473667,-11473.192101,919.314598
163492.346738,74.020594,-10732.986159,1225.752797
163492.347057,0.000000,-9178.553681,76.609550
163492.347377,-3330.926739,-5995.668130,-1915.238745
163492.347696,-1258.350101,-10362.883188,-1915.238745
163492.348016,-1258.350101,-10955.047942,-2834.553343
163492.348336,-370.102971,-8512.368333,-995.924147
163492.348655,1110.308913,-7105.977043,-2528.115143
163492.348975,-74.020594,-10362.883188,-76.609550
163492.349294,-74.020594,-10510.924376,-76.609550
163492.349614,-592.164754,-11029.068536,1762.019645
163492.349933,296.082377,-10140.821405,2681.334243
163492.350253,-814.226536,-8290.306550,3294.210641
163492.350573,-3330.926739,-7994.224174,689.485948
163492.350892,-1554.432478,-7105.977043,-1302.362347
163492.351212,-3552.988522,-8068.244768,-1915.238745
163492.351531,-74.020594,-7846.182985,-689.485948
163492.351851,1184.329507,-7179.997637,-1838.629195
163492.352170,3478.967927,-9474.636058,-76.609550
163492.352490,-1332.370696,-8956.491898,-766.095498
163492.352810,-2590.720797,-12213.398043,-1378.971896
163492.353129,-2220.617826,-12879.583391,383.047749
163492.353449,-1184.329507,-10732.986159,1378.971896
163492.353768,-4145.153275,-9844.739029,-766.095498
163492.354088,-2294.638420,-8660.409521,-2451.505594
163492.354407,-148.041188,-9844.739029,-76.609550
163492.354727,3478.967927,-8290.306550,1149.143247
163492.355047,4071.132681,-4293.194464,-1378.971896
163492.355366,4367.215058,-9178.553681,1455.581446
163492.355686,1998.556043,-9326.594869,-229.828649
163492.356005,814.226536,-11399.171507,-459.657299
163492.356325,1258.350101,-13175.665768,612.876398
163492.356645,1184.329507,-12509.480420,1072.533697
163492.356964,-1628.453072,-10732.986159,-3677.258390
163492.357284,-2368.659014,-8660.409521,-2145.067394
163492.357603,-592.164754,-8290.306550,-1991.848295
163492.357923,3182.885551,-9844.739029,1838.629195
163492.358242,7031.956449,-8290.306550,2374.896044
163492.358562,3701.029710,-6735.874072,1685.410096
163492.358882,3182.885551,-7254.018232,1991.848295
163492.359201,2146.597232,-9474.636058,1072.533697
163492.359521,1184.329507,-10732.986159,2757.943793
163492.359840,518.144159,-10436.903782,-76.609550
163492.360160,-2738.761985,-11843.295072,-1302.362347
163492.360479,-6587.832884,-9252.574275,-4979.620737
163492.360799,-4811.338623,-10066.800811,-6205.373534
163492.361119,-74.020594,-11843.295072,-76.609550
163492.361438,2368.659014,-7476.080014,0.000000
163492.361758,3627.009116,-7105.977043,1225.752797
163492.362077,2072.576638,-7476.080014,536.266849
163492.362397,2368.659014,-9400.615463,1378.971896
163492.362716,2590.720797,-9548.656652,919.314598
163492.363036,3256.906145,-11843.295072,2757.943793
163492.363356,-2442.679609,-11177.109724,459.657299
163492.363675,-6069.688724,-9104.533087,-2451.505594
163492.363995,-7328.038826,-9400.615463,-4366.744339
163492.364314,-3478.967927,-11251.130318,-153.219100
163492.364634,0.000000,-8364.327145,-153.219100
163492.364953,-74.020594,-7994.224174,-383.047749
163492.365273,-1702.473667,-6735.874072,-1225.752797
163492.365593,-444.123565,-8956.491898,612.876398
163492.365912,-1998.556043,-9770.718434,306.438199
163492.366232,222.061783,-11325.150913,1991.848295
163492.366551,-3775.050304,-10436.903782,383.047749
163492.366871,-5255.462188,-8512.368333,-689.485948
163492.367191,-2442.679609,-10066.800811,-229.828649
163492.367510,-74.020594,-8808.450710,1455.581446
163492.367830,2960.823768,-7328.038826,2068.457845
163492.368149,2590.720797,-7698.141797,3294.210641
163492.368469,2294.638420,-9326.594869,-76.609550
163492.368788,-3552.988522,-7179.997637,0.000000
163492.369108,-1258.350101,-11251.130318,383.047749
163492.369428,-296.082377,-12361.439231,229.828649
163492.369747,-4219.173869,-11473.192101,-919.314598
163492.370067,-6143.709319,-9474.636058,-2374.896044
163492.370386,-4885.359217,-8586.388927,-2528.115143
163492.370706,-1998.556043,-9474.636058,-689.485948
163492.371025,2590.720797,-5995.668130,-1685.410096
163492.371345,2368.659014,-5403.503377,1225.752797
163492.371665,2368.659014,-6735.874072,842.705048
163492.371984,0.000000,-7179.997637,0.000000
163492.372304,1702.473667,-12731.542202,0.000000
163492.372623,2738.761985,-12805.562797,1455.581446
163492.372943,-518.144159,-12657.521608,0.000000
163492.373262,-3701.029710,-9992.780217,-2221.676944
163492.373582,-1258.350101,-10288.862594,-3753.867940
163492.373902,370.102971,-9474.636058,-689.485948
163492.374221,3034.844362,-4959.379811,0.000000
163492.374541,3552.988522,-5995.668130,919.314598
163492.374860,4071.132681,-7994.224174,1838.629195
163492.375180,0.000000,-7179.997637,0.000000
163492.375499,1850.514855,-10658.965565,1991.848295
163492.375819,3552.988522,-11621.233289,3064.381992
163492.376139,1406.391290,-10732.986159,1608.800546
163492.376458,-2442.679609,-9474.636058,-1608.800546
163492.376778,-5403.503377,-9104.533087,-4136.915689
163492.377097,-4811.338623,-10658.965565,-4979.620737
163492.377417,-740.205942,-8586.388927,-2834.553343
163492.377737,2294.638420,-7698.141797,-1915.238745
163492.378056,1776.494261,-7772.162391,2451.505594
163492.378376,148.041188,-7179.997637,0.000000
163492.378695,2516.700203,-9844.739029,2374.896044
163492.379015,4293.194464,-11177.109724,2987.772442
163492.379334,1628.453072,-10140.821405,1455.581446
163492.379654,-2886.803174,-10288.862594,306.438199
163492.379974,-4071.132681,-9770.718434,-1915.238745
163492.380293,-4219.173869,-9696.697840,-2834.553343
163492.380613,-3552.988522,-5995.668130,-3064.381992
163492.380932,0.000000,-7772.162391,-842.705048
163492.381252,2294.638420,-10658.965565,2374.896044
163492.381571,0.000000,-7772.162391,0.000000
163492.381891,1480.411884,-10140.821405,2068.457845
163492.382211,2516.700203,-10288.862594,3294.210641
163492.382530,0.000000,-9548.656652,3677.258390
163492.382850,-3552.988522,-9548.656652,2451.505594
163492.383169,-5033.400406,-8882.471304,-536.266849
163492.383489,-3182.885551,-11695.253884,-689.485948
163492.383808,-3034.844362,-8882.471304,-1915.238745
163492.384128,-1554.432478,-5699.585753,-1915.238745
163492.384448,2294.638420,-8290.306550,-76.609550
163492.384767,296.082377,-7772.162391,-1149.143247
163492.385087,-148.041188,-10140.821405,-229.828649
163492.385406,444.123565,-11621.233289,842.705048
163492.385726,-370.102971,-11251.130318,-76.609550
163492.386045,-4219.173869,-12435.459826,-1915.238745
163492.386365,-4811.338623,-13619.789333,-1302.362347
163492.386685,-4737.318029,-8956.491898,-3140.991542
163492.387004,0.000000,-7772.162391,919.314598
163492.387324,1480.411884,-4811.338623,1225.752797
163492.387643,2294.638420,-5551.544565,766.095498
163492.387963,1998.556043,-5921.647536,459.657299
163492.388283,2072.576638,-8734.430116,383.047749
163492.388602,2368.659014,-12139.377449,1378.971896
163492.388922,2886.803174,-13915.871710,2145.067394
163492.389241,-4737.318029,-10732.986159,0.000000
163492.389561,-3701.029710,-10658.965565,-2068.457845
163492.389880,-2442.679609,-11917.315666,-1225.752797
163492.390200,1702.473667,-10066.800811,-76.609550
163492.390520,2368.659014,-4811.338623,612.876398
163492.390839,2442.679609,-6069.688724,229.828649
163492.391159,1998.556043,-6809.894666,-689.485948
163492.391478,2294.638420,-9474.636058,-306.438199
163492.391798,2812.782580,-10436.903782,306.438199
163492.392117,2590.720797,-11251.130318,-76.609550
163492.392437,-2294.638420,-11917.315666,-1072.533697
163492.392757,-4737.318029,-9548.656652,-2145.067394
163492.393076,-1258.350101,-11251.130318,-2681.334243
163492.393396,-74.020594,-10658.965565,-76.609550
163492.393715,0.000000,-7179.997637,-2451.505594
163492.394035,370.102971,-7994.224174,-766.095498
163492.394354,592.164754,-6809.894666,-1915.238745
163492.394674,2368.659014,-7994.224174,-306.438199
163492.394994,4071.132681,-9474.636058,229.828649
163492.395313,3923.091493,-10362.883188,3294.210641
163492.395633,-74.020594,-10362.883188,-76.609550
163492.395952,-3552.988522,-9252.574275,-1608.800546
163492.396272,-4145.153275,-10732.986159,-4596.572988
163492.396591,-4737.318029,-9548.656652,-1838.629195
163492.396911,-74.020594,-8142.265362,-842.705048
163492.397231,0.000000,-7179.997637,919.314598
163492.397550,2072.576638,-6883.915261,229.828649
163492.397870,3256.906145,-7105.977043,1149.143247
163492.398189,4737.318029,-10436.903782,3370.820191
163492.398509,1776.494261,-8364.327145,3064.381992
163492.398829,-666.185348,-10955.047942,1762.019645
163492.399148,-4811.338623,-13027.624579,-76.609550
163492.399468,-7328.038826,-10140.821405,-5669.106685
163492.399787,-4811.338623,-10658.965565,-2834.553343
163492.400107,-3701.029710,-8216.285956,-2604.724693
163492.400426,-3627.009116,-7698.141797,-1225.752797
163492.400746,-2294.638420,-6513.812290,-1762.019645
163492.401066,1776.494261,-9400.615463,2374.896044
163492.401385,2960.823768,-9326.594869,2145.067394
163492.401705,3478.967927,-9992.780217,2374.896044
163492.402024,-1258.350101,-9548.656652,0.000000
163492.402344,-5625.565159,-10140.821405,0.000000
163492.402663,-2442.679609,-13027.624579,-2528.115143
163492.402983,-3552.988522,-12065.356855,-919.314598
163492.403303,-296.082377,-9696.697840,-689.485948
163492.403622,296.082377,-8364.327145,1072.533697
163492.403942,1406.391290,-6883.915261,1762.019645
163492.404261,1184.329507,-4811.338623,0.000000
163492.404581,4441.235652,-8586.388927,2374.896044
163492.404900,3849.070898,-8956.491898,2374.896044
163492.405220,518.144159,-10140.821405,842.705048
163492.405540,-2442.679609,-11251.130318,-689.485948
163492.405859,-5033.400406,-9696.697840,-3294.210641
163492.406179,-3775.050304,-12879.583391,-689.485948
163492.406498,-962.267725,-8290.306550,-1302.362347
163492.406818,-370.102971,-6365.771101,-1608.800546
163492.407137,1184.329507,-6587.832884,-306.438199
163492.407457,0.000000,-5995.668130,-2911.162892
163492.407777,2738.761985,-9844.739029,229.828649
163492.408096,3775.050304,-10066.800811,612.876398
163492.408416,1406.391290,-11103.089130,612.876398
163492.408735,-1850.514855,-11029.068536,-1149.143247
163492.409055,-3034.844362,-11251.130318,-3600.648841
163492.409375,-2442.679609,-12435.459826,-1072.533697
163492.409694,-74.020594,-9178.553681,-1915.238745
163492.410014,148.041188,-7476.080014,-1072.533697
163492.410333,296.082377,-7179.997637,459.657299
163492.410653,1628.453072,-6439.791695,-1302.362347
163492.410972,2738.761985,-9326.594869,1378.971896
163492.411292,3775.050304,-9474.636058,2221.676944
163492.411612,1850.514855,-9992.780217,0.000000
163492.411931,-2738.761985,-9548.656652,-2451.505594
163492.412251,-4737.318029,-10362.883188,-2834.553343
163492.412570,-4737.318029,-10140.821405,-2298.286494
163492.412890,740.205942,-10658.965565,-76.609550
163492.413209,1554.432478,-9474.636058,-76.609550
163492.413529,0.000000,-6735.874072,1225.752797
163492.413849,1110.308913,-5921.647536,-229.828649
163492.414168,2886.803174,-9030.512492,1378.971896
163492.414488,3404.947333,-9770.718434,1915.238745
163492.414807,0.000000,-8364.327145,153.219100
163492.415127,-2442.679609,-11843.295072,1149.143247
163492.415446,-4515.256246,-10362.883188,-3447.429741
163492.415766,-5921.647536,-11917.315666,-2451.505594
163492.416086,-4737.318029,-9548.656652,0.000000
163492.416405,-666.185348,-9474.636058,-76.609550
163492.416725,-1776.494261,-7179.997637,0.000000
163492.417044,1036.288319,-6069.688724,-1302.362347
163492.417364,1628.453072,-9104.533087,919.314598
163492.417683,3256.906145,-9252.574275,1915.238745
163492.418003,2294.638420,-9252.574275,1455.581446
163492.418323,-74.020594,-12139.377449,1455.581446
163492.418642,-3034.844362,-10362.883188,-1608.800546
163492.418962,-6513.812290,-10140.821405,-3064.381992
163492.419281,-2368.659014,-10881.027347,0.000000
163492.419601,2294.638420,-11843.295072,-76.609550
163492.419921,0.000000,-6587.832884,153.219100
163492.420240,1036.288319,-5995.668130,-1608.800546
163492.420560,1332.370696,-8512.368333,229.828649
163492.420879,3849.070898,-7476.080014,2451.505594
163492.421199,2368.659014,-7179.997637,2451.505594
163492.421518,-1036.288319,-9548.656652,0.000000
163492.421838,-1480.411884,-11843.295072,-383.047749
163492.422158,-4737.318029,-10658.965565,-2911.162892
163492.422477,-1998.556043,-9474.636058,-2221.676944
163492.422797,-74.020594,-10510.924376,-76.609550
163492.423116,-1850.514855,-8364.327145,-766.095498
163492.423436,444.123565,-6587.832884,-2221.676944
163492.423755,518.144159,-8068.244768,-1072.533697
163492.424075,592.164754,-8364.327145,306.438199
163492.424395,1776.494261,-8290.306550,-76.609550
163492.424714,-2072.576638,-9548.656652,0.000000
163492.425034,-2590.720797,-10732.986159,-1991.848295
163492.425353,-3034.844362,-13619.789333,-842.705048
163492.425673,-666.185348,-11251.130318,-1302.362347
163492.425992,1332.370696,-9030.512492,-689.485948
163492.426312,0.000000,-7994.224174,-153.219100
163492.426632,592.164754,-6883.915261,-1608.800546
163492.426951,1776.494261,-8142.265362,536.266849
163492.427271,2368.659014,-8660.409521,1608.800546
163492.427590,4663.297435,-9474.636058,1149.143247
163492.427910,222.061783,-10214.842000,1762.019645
163492.428229,-2442.679609,-9178.553681,-3600.648841
163492.428549,-4145.153275,-10732.986159,-2451.505594
163492.428869,-1258.350101,-11843.295072,-995.924147
163492.429188,-592.164754,-7698.141797,-306.438199
163492.429508,-962.267725,-7624.121203,-306.438199
163492.429828,-1184.329507,-7105.977043,-919.314598
163492.430147,962.267725,-9252.574275,1762.019645
163492.430467,1776.494261,-9326.594869,3600.648841
163492.430786,296.082377,-5995.668130,0.000000
163492.431106,-1184.329507,-9104.533087,766.095498
163492.431426,-2516.700203,-10362.883188,-689.485948
163492.431745,-5921.647536,-9548.656652,-2451.505594
163492.432065,-3552.988522,-12805.562797,-536.266849
163492.432385,-1184.329507,-9548.656652,-2987.772442
163492.432704,-1850.514855,-9252.574275,-766.095498
163492.433024,-1406.391290,-7328.038826,-1225.752797
163492.433344,4071.132681,-9474.636058,-76.609550
163492.433663,4663.297435,-8586.388927,3983.696590
163492.433983,8216.285956,-9474.636058,4213.525239
163492.434303,1850.514855,-7402.059420,1225.752797
163492.434622,-2072.576638,-8364.327145,-2451.505594
163492.434942,-3627.009116,-10658.965565,-4290.134789
163492.435262,-3627.009116,-13323.706956,-536.266849
163492.435581,-1924.535449,-10584.944971,-842.705048
163492.435901,-2738.761985,-10066.800811,-306.438199
163492.436221,-2146.597232,-9178.553681,-689.485948
163492.436540,-2368.659014,-6143.709319,-766.095498
163492.436860,370.102971,-6809.894666,229.828649
163492.437179,2960.823768,-7476.080014,1838.629195
163492.437499,2516.700203,-10436.903782,4596.572988
163492.437819,-74.020594,-8290.306550,-689.485948
163492.438138,-1258.350101,-11547.212695,-383.047749
163492.438458,-2368.659014,-12361.439231,-1072.533697
163492.438778,-814.226536,-10732.986159,-1455.581446
163492.439097,-2368.659014,-9918.759623,-1532.190996
163492.439417,-4737.318029,-7179.997637,-2451.505594
163492.439737,-1480.411884,-9104.533087,-1225.752797
163492.440056,3182.885551,-9474.636058,2145.067394
163492.440376,7031.956449,-8290.306550,3600.648841
163492.440696,2072.576638,-5699.585753,306.438199
163492.441015,-74.020594,-9474.636058,1149.143247
163492.441335,-2738.761985,-8956.491898,-3064.381992
163492.441655,-2960.823768,-12287.418637,-995.924147
163492.441974,-1554.432478,-10955.047942,-1532.190996
163492.442294,-2664.741391,-11325.150913,-2451.505594
163492.442614,-4811.338623,-7698.141797,-3753.867940
163492.442933,-1480.411884,-7994.224174,-1991.848295
163492.443253,1998.556043,-9326.594869,1225.752797
163492.443573,6143.709319,-7179.997637,2068.457845
163492.443892,5255.462188,-8882.471304,3294.210641
163492.444212,-1184.329507,-8068.244768,306.438199
163492.444531,-1184.329507,-9992.780217,-459.657299
163492.444851,-814.226536,-12731.542202,-76.609550
163492.445171,-222.061783,-9030.512492,-2145.067394
163492.445490,-3552.988522,-8364.327145,0.000000
163492.445810,-3627.009116,-8290.306550,-1302.362347
163492.446130,-3034.844362,-7994.224174,-1991.848295
163492.446449,-296.082377,-8956.491898,-459.657299
163492.446769,3182.885551,-7994.224174,766.095498
163492.447089,3256.906145,-8142.265362,1762.019645
163492.447408,-888.247130,-8068.244768,153.219100
163492.447728,-2960.823768,-8512.368333,-3753.867940
163492.448048,-3552.988522,-12509.480420,0.000000
163492.448367,-74.020594,-12139.377449,-76.609550
163492.448687,-2368.659014,-8364.327145,0.000000
163492.449007,-1850.514855,-9770.718434,-459.657299
163492.449326,-1332.370696,-8290.306550,-842.705048
163492.449646,2368.659014,-8586.388927,1378.971896
163492.449966,5699.585753,-7402.059420,2221.676944
163492.450285,4367.215058,-7994.224174,-76.609550
163492.450605,-962.267725,-9474.636058,-76.609550
163492.450925,-3330.926739,-8734.430116,-2528.115143
163492.451244,-2368.659014,-11177.109724,-1149.143247
163492.451564,1924.535449,-12509.480420,2757.943793
163492.451883,-2368.659014,-8364.327145,612.876398
163492.452203,-1406.391290,-8660.409521,919.314598
163492.452523,-1924.535449,-7179.997637,-1302.362347
163492.452842,-666.185348,-9030.512492,-383.047749
163492.453162,4071.132681,-9178.553681,1762.019645
163492.453482,3775.050304,-7772.162391,1991.848295
163492.453801,-74.020594,-9474.636058,1149.143247
163492.454121,-2812.782580,-9178.553681,-3140.991542
163492.454441,-3627.009116,-10881.027347,-3907.087040
163492.454760,-2368.659014,-13101.645173,0.000000
163492.455080,-2368.659014,-10214.842000,-2451.505594
163492.455400,-3256.906145,-11177.109724,-1685.410096
163492.455719,-1998.556043,-8660.409521,-1915.238745
163492.456039,0.000000,-9104.533087,-383.047749
163492.456359,4367.215058,-7179.997637,612.876398
163492.456678,3108.864956,-5995.668130,1225.752797
163492.456998,592.164754,-7476.080014,612.876398
163492.457318,-74.020594,-9474.636058,-383.047749
163492.457637,-1258.350101,-11251.130318,-1608.800546
163492.457957,0.000000,-11917.315666,1225.752797
163492.458277,370.102971,-10066.800811,-229.828649
163492.458596,-2590.720797,-10140.821405,-689.485948
163492.458916,-2368.659014,-8512.368333,-1838.629195
163492.459235,-2294.638420,-6587.832884,-2451.505594
163492.459555,814.226536,-7179.997637,76.609550
163492.459875,2368.659014,-7105.977043,-76.609550
163492.460194,-1924.535449,-7179.997637,0.000000
163492.460514,-1184.329507,-8956.491898,-76.609550
163492.460834,-74.020594,-13027.624579,2374.896044
163492.461153,0.000000,-10732.986159,612.876398
163492.461473,888.247130,-9548.656652,0.000000
163492.461793,-2146.597232,-10140.821405,-383.047749
163492.462112,-3330.926739,-8956.491898,-2221.676944
163492.462432,-3034.844362,-8438.347739,-3140.991542
163492.462752,1998.556043,-11251.130318,1149.143247
163492.463071,2886.803174,-9474.636058,-689.485948
163492.463391,-814.226536,-8068.244768,306.438199
163492.463711,-3552.988522,-5995.668130,-2451.505594
163492.464030,1110.308913,-11843.295072,-76.609550
163492.464350,0.000000,-9548.656652,0.000000
163492.464670,666.185348,-9474.636058,-842.705048
163492.464989,-1406.391290,-11103.089130,306.438199
163492.465309,-2220.617826,-9474.636058,-1225.752797
163492.465629,-2146.597232,-10955.047942,-612.876398
163492.465948,-1776.494261,-11177.109724,1302.362347
163492.466268,-222.061783,-8290.306550,766.095498
163492.466587,-370.102971,-9474.636058,1762.019645
163492.466907,-3627.009116,-5921.647536,-689.485948
163492.467227,-2812.782580,-10362.883188,2374.896044
163492.467546,-2664.741391,-9326.594869,2221.676944
163492.467866,-740.205942,-8660.409521,2604.724693
163492.468186,-2812.782580,-9770.718434,3370.820191
163492.468505,-7105.977043,-6587.832884,612.876398
163492.468825,-7476.080014,-7328.038826,-1225.752797
163492.469145,-5329.482782,-8956.491898,0.000000
163492.469464,-1628.453072,-10436.903782,689.485948
163492.469784,-3034.844362,-11103.089130,0.000000
163492.470104,-5403.503377,-9474.636058,-1302.362347
163492.470423,-9474.636058,-9770.718434,-4443.353888
163492.470743,-10807.006753,-11473.192101,-4979.620737
163492.471063,-7402.059420,-11917.315666,-3294.210641
163492.471382,-6143.709319,-11177.109724,-229.828649
163492.471702,-6809.894666,-9548.656652,1225.752797
163492.472022,-4219.173869,-6809.894666,1149.143247
163492.472341,-6809.894666,-5995.668130,612.876398
163492.472661,-2960.823768,-7179.997637,1378.971896
163492.472981,-2146.597232,-7772.162391,2604.724693
163492.473300,-2960.823768,-9770.718434,3600.648841
163492.473620,-3923.091493,-7328.038826,-1149.143247
163492.473939,-5477.523971,-9844.739029,-2221.676944
163492.474259,-6069.688724,-9770.718434,-3983.696590
163492.474579,-9178.553681,-9548.656652,-7967.393179
163492.474898,-7105.977043,-11917.315666,-3064.381992
163492.475218,-4589.276840,-12361.439231,-229.828649
163492.475538,-1406.391290,-11843.295072,2911.162892
163492.475857,2294.638420,-11843.295072,6052.154434
163492.476177,1184.329507,-5403.503377,4290.134789
163492.476497,-2368.659014,-2738.761985,1532.190996
163492.476816,-3182.885551,-4737.318029,689.485948
163492.477136,-4367.215058,-6513.812290,-1072.533697
163492.477456,-5181.441594,-9104.533087,-1608.800546
163492.477775,-3034.844362,-11547.212695,-1915.238745
163492.478095,-5255.462188,-11621.233289,-2757.943793
163492.478415,-5477.523971,-11251.130318,-4290.134789
163492.478734,-5773.606348,-10510.924376,-5439.278036
163492.479054,-5403.503377,-11547.212695,-3753.867940
163492.479374,-2960.823768,-11029.068536,0.000000
163492.479693,-3552.988522,-7772.162391,0.000000
163492.480013,888.247130,-9548.656652,4903.011187
163492.480333,3478.967927,-8438.347739,4903.011187
163492.480652,4515.256246,-7179.997637,3677.258390
163492.480972,6439.791695,-6513.812290,4519.963438
163492.481291,666.185348,-6143.709319,1225.752797
163492.481611,-2294.638420,-8512.368333,-2145.067394
163492.481931,-3330.926739,-11177.109724,-3064.381992
163492.482250,-4145.153275,-13101.645173,-3064.381992
163492.482570,-4515.256246,-13323.706956,-3064.381992
163492.482890,-6143.709319,-11473.192101,-3447.429741
163492.483209,-4441.235652,-10807.006753,-1302.362347
163492.483529,-1480.411884,-7476.080014,1838.629195
163492.483849,74.020594,-3330.926739,612.876398
163492.484168,-74.020594,-4737.318029,3447.429741
163492.484488,-1554.432478,-5033.400406,1225.752797
163492.484808,-1702.473667,-8068.244768,459.657299
163492.485127,-2886.803174,-10214.842000,919.314598
163492.485447,-4811.338623,-12879.583391,1149.143247
163492.485767,-6883.915261,-12139.377449,-2604.724693
163492.486086,-7105.977043,-11399.171507,-5745.716235
163492.486406,-5921.647536,-11029.068536,-3524.039291
163492.486726,-2960.823768,-10732.986159,76.609550
163492.487045,-2442.679609,-5699.585753,-1838.629195
163492.487365,-3034.844362,-6143.709319,-1302.362347
163492.487685,-4441.235652,-6735.874072,-2451.505594
163492.488004,-3701.029710,-9400.615463,-1149.143247
163492.488324,-2960.823768,-11843.295072,2987.772442
163492.488643,-2442.679609,-13027.624579,6052.154434
163492.488963,-4811.338623,-10658.965565,2374.896044
163492.489283,-4811.338623,-7105.977043,-1762.019645
163492.489602,-4441.235652,-7772.162391,-1072.533697
163492.489922,-2368.659014,-9548.656652,612.876398
163492.490242,-1850.514855,-8882.471304,536.266849
163492.490561,-4441.235652,-10066.800811,995.924147
163492.490881,-6513.812290,-8586.388927,-1762.019645
163492.491201,-7031.956449,-7402.059420,-4290.134789
163492.491520,-3627.009116,-9178.553681,-3830.477490
163492.491840,-6513.812290,-8364.327145,-4903.011187
163492.492160,-5625.565159,-11029.068536,-1532.190996
163492.492479,-3775.050304,-13471.748144,0.000000
163492.492799,-3404.947333,-12805.562797,3983.696590
163492.493119,-7105.977043,-7179.997637,612.876398
163492.493438,-3923.091493,-7105.977043,1072.533697
163492.493758,-2442.679609,-5033.400406,0.000000
163492.494078,-1554.432478,-5255.462188,383.047749
163492.494397,-1850.514855,-6217.729913,306.438199
163492.494717,-2294.638420,-8142.265362,-995.924147
163492.495036,-6513.812290,-10140.821405,-3677.258390
163492.495356,-5921.647536,-13101.645173,-4903.011187
163492.495676,-7105.977043,-12213.398043,-3370.820191
163492.495995,-4959.379811,-12435.459826,-689.485948
163492.496315,-6513.812290,-7179.997637,0.000000
163492.496635,-740.205942,-7402.059420,-689.485948
163492.496954,1924.535449,-6513.812290,1149.143247
163492.497274,2442.679609,-6587.832884,2298.286494
163492.497594,1998.556043,-7994.224174,2374.896044
163492.497913,-74.020594,-10658.965565,2221.676944
163492.498233,-2442.679609,-12435.459826,2374.896044
163492.498553,-4737.318029,-10140.821405,1302.362347
163492.498872,-2960.823768,-11177.109724,2911.162892
163492.499192,-814.226536,-9548.656652,4749.792088
163492.499512,-4145.153275,-5403.503377,0.000000
163492.499831,-3701.029710,-6069.688724,-2834.553343
163492.500151,-6291.750507,-6513.812290,-5975.544884
163492.500471,-6883.915261,-8734.430116,-5209.449386
163492.500790,-4811.338623,-9474.636058,-4979.620737
163492.501110,-4145.153275,-10436.903782,-2145.067394
163492.501430,-518.144159,-13027.624579,-76.609550
163492.501749,518.144159,-10510.924376,1762.019645
163492.502069,1702.473667,-9178.553681,2374.896044
163492.502388,2664.741391,-10584.944971,6128.763984
163492.502708,518.144159,-9030.512492,2528.115143
163492.503028,-1628.453072,-9252.574275,536.266849
163492.503347,-4145.153275,-9548.656652,-1302.362347
163492.503667,-5477.523971,-9252.574275,-3370.820191
163492.503987,-6735.874072,-10510.924376,-4290.134789
163492.504306,-8290.306550,-9548.656652,-3677.258390
163492.504626,-5921.647536,-9844.739029,-4903.011187
163492.504946,-2368.659014,-9844.739029,1149.143247
163492.505265,-74.020594,-9474.636058,3294.210641
163492.505585,1184.329507,-8660.409521,5669.106685
163492.505905,1110.308913,-7698.141797,4903.011187
163492.506224,444.123565,-7772.162391,4673.182538
163492.506544,-1184.329507,-8660.409521,3294.210641
163492.506864,-4441.235652,-7179.997637,0.000000
163492.507183,-3849.070898,-8808.450710,-1072.533697
163492.507503,-3256.906145,-9548.656652,-2451.505594
163492.507823,-2368.659014,-10140.821405,0.000000
163492.508142,518.144159,-11843.295072,995.924147
163492.508462,3478.967927,-11843.295072,3600.648841
163492.508782,2368.659014,-9548.656652,3064.381992
163492.509101,2960.823768,-8660.409521,2987.772442
163492.509421,2516.700203,-7698.141797,3983.696590
163492.509740,2886.803174,-7624.121203,4903.011187
163492.510060,1776.494261,-5995.668130,4903.011187
163492.510380,2294.638420,-10066.800811,6052.154434
163492.510699,-1332.370696,-9104.533087,4136.915689
163492.511019,-1776.494261,-10436.903782,3983.696590
163492.511339,-2368.659014,-10732.986159,4979.620737
163492.511658,-4145.153275,-9548.656652,3064.381992
163492.511978,-2442.679609,-10732.986159,2681.334243
163492.512298,-444.123565,-10140.821405,4366.744339
163492.512617,2146.597232,-9844.739029,7507.735880
163492.512937,2886.803174,-6957.935855,6971.469032
163492.513257,4589.276840,-5699.585753,8273.831378
163492.513576,4145.153275,-5107.421000,7660.954980
163492.513896,3182.885551,-5847.626942,6052.154434
163492.514216,1110.308913,-6809.894666,3447.429741
163492.514535,-3552.988522,-8364.327145,3064.381992
163492.514855,-1554.432478,-13027.624579,3294.210641
163492.515175,-2368.659014,-15692.365970,5669.106685
163492.515494,-2738.761985,-15322.262999,6665.030833
163492.515814,-2368.659014,-12879.583391,8886.707777
163492.516134,-222.061783,-10658.965565,10955.165621
163492.516453,-1184.329507,-2738.761985,7354.516781
163492.516773,0.000000,-1258.350101,5669.106685
163492.517092,888.247130,-2738.761985,4673.182538
163492.517412,888.247130,-5995.668130,4903.011187
163492.517732,0.000000,-7179.997637,4903.011187
163492.518051,-1850.514855,-10140.821405,2528.115143
163492.518371,-3552.988522,-12805.562797,3983.696590
163492.518691,-3627.009116,-13027.624579,2757.943793
163492.519010,-4515.256246,-10658.965565,1762.019645
163492.519330,-74.020594,-11843.295072,3600.648841
163492.519650,740.205942,-10288.862594,4060.306139
163492.519969,2664.741391,-10732.986159,5975.544884
163492.520289,1850.514855,-9326.594869,7124.688131
163492.520609,-1628.453072,-8068.244768,4979.620737
163492.520928,-2812.782580,-7179.997637,4136.915689
163492.521248,-2442.679609,-5921.647536,1149.143247
163492.521568,-1184.329507,-5329.482782,1455.581446
163492.521887,1184.329507,-7772.162391,3983.696590
163492.522207,3478.967927,-9474.636058,2987.772442
163492.522527,296.082377,-11251.130318,1685.410096
163492.522846,-3701.029710,-12287.418637,-1685.410096
163492.523166,-5699.585753,-13471.748144,-1762.019645
163492.523486,-5329.482782,-12287.418637,-1532.190996
163492.523805,-3256.906145,-10436.903782,459.657299
163492.524125,-888.247130,-8364.327145,766.095498
163492.524444,2664.741391,-9992.780217,3064.381992
163492.524764,3478.967927,-8882.471304,2374.896044
163492.525084,1702.473667,-6809.894666,1762.019645
163492.525403,2886.803174,-6513.812290,-1302.362347
163492.525723,1628.453072,-8290.306550,-1225.752797
163492.526043,3330.926739,-10658.965565,0.000000
163492.526362,3923.091493,-10362.883188,2834.553343
163492.526682,3923.091493,-10658.965565,2987.772442
163492.527002,-2368.659014,-10140.821405,-1225.752797
163492.527321,-4737.318029,-12805.562797,-3983.696590
163492.527641,-4811.338623,-15100.201217,-2528.115143
163492.527961,-3034.844362,-11547.212695,2374.896044
163492.528280,-2072.576638,-6291.750507,0.000000
163492.528595,3478.967927,-6513.812290,2374.896044
163492.528915,3849.070898,-4885.359217,2145.067394
163492.529234,4737.318029,-4885.359217,3217.601092
163492.529554,3034.844362,-6513.812290,1532.190996
163492.529874,592.164754,-9548.656652,1225.752797
163492.530194,-1258.350101,-11399.171507,-1608.800546
163492.530513,-3552.988522,-11399.171507,-1072.533697
163492.530833,-3404.947333,-12509.480420,-2451.505594
163492.531153,-2590.720797,-12435.459826,-995.924147
163492.531472,-3552.988522,-8364.327145,0.000000
163492.531792,-2368.659014,-7179.997637,2451.505594
163492.532112,-2146.597232,-8734.430116,1762.019645
163492.532431,-2368.659014,-8438.347739,612.876398
163492.532751,962.267725,-7994.224174,2987.772442
163492.533071,3775.050304,-7994.224174,5132.839837
163492.533391,2664.741391,-6957.935855,3294.210641
163492.533710,0.000000,-7772.162391,0.000000
163492.534030,-592.164754,-11325.150913,1685.410096
163492.534350,-1776.494261,-13101.645173,306.438199
163492.534669,-3330.926739,-13841.851115,-1149.143247
163492.534989,-2368.659014,-13471.748144,2221.676944
163492.535309,-1628.453072,-10362.883188,2604.724693
163492.535629,0.000000,-8734.430116,3140.991542
163492.535948,2294.638420,-9474.636058,6052.154434
163492.536268,2294.638420,-7105.977043,7890.783629
163492.536588,1998.556043,-8290.306550,7890.783629
163492.536907,962.267725,-5107.421000,4673.182538
163492.537227,1480.411884,-7476.080014,6128.763984
163492.537547,0.000000,-7179.997637,7354.516781
163492.537866,-1258.350101,-9474.636058,3217.601092
163492.538186,-3552.988522,-12139.377449,1378.971896
163492.538506,-5329.482782,-13693.809927,536.266849
163492.538826,-5033.400406,-11917.315666,1915.238745
163492.539145,-2442.679609,-12435.459826,4366.744339
163492.539465,-4737.318029,-7179.997637,2451.505594
163492.539785,-2072.576638,-7179.997637,3983.696590
163492.540104,518.144159,-5921.647536,6052.154434
163492.540424,2886.803174,-4737.318029,4826.401637
163492.540744,1184.329507,-4811.338623,6128.763984
163492.541063,4959.379811,-7994.224174,6665.030833
163492.541383,4293.194464,-8660.409521,5898.935335
163492.541703,1258.350101,-11547.212695,5439.278036
163492.542023,-296.082377,-12509.480420,4519.963438
163492.542342,-1036.288319,-13101.645173,3600.648841
163492.542662,-2960.823768,-11917.315666,3064.381992
163492.542982,-2220.617826,-10732.986159,1225.752797
163492.543301,-3552.988522,-9548.656652,3677.258390
163492.543621,-74.020594,-8882.471304,4826.401637
163492.543941,-2368.659014,-2738.761985,1838.629195
163492.544260,1110.308913,-5255.462188,2911.162892
163492.544580,1406.391290,-6661.853478,3064.381992
163492.544900,1110.308913,-9030.512492,3370.820191
163492.545220,1702.473667,-10658.965565,3600.648841
163492.545539,-74.020594,-12435.459826,4366.744339
163492.545859,-1850.514855,-13619.789333,4826.401637
163492.546179,-3034.844362,-9992.780217,1991.848295
163492.546498,-4293.194464,-8956.491898,2145.067394
163492.546818,-3849.070898,-7772.162391,4290.134789
163492.547138,-3256.906145,-3923.091493,-689.485948
163492.547457,148.041188,-6883.915261,-76.609550
163492.547777,1332.370696,-5773.606348,-2451.505594
163492.548097,0.000000,-8660.409521,-2681.334243
163492.548417,-74.020594,-10658.965565,-1302.362347
163492.548736,-74.020594,-14211.954086,-76.609550
163492.549056,-962.267725,-14359.995275,0.000000
163492.549376,-1628.453072,-11325.150913,0.000000
163492.549695,-4145.153275,-7772.162391,-612.876398
163492.550015,-4737.318029,-5995.668130,0.000000
163492.550335,-74.020594,-5329.482782,-2451.505594
163492.550654,1184.329507,-5625.565159,-1838.629195
163492.550974,3256.906145,-5551.544565,-3217.601092
163492.551294,3478.967927,-7698.141797,-4979.620737
163492.551614,666.185348,-12139.377449,-1225.752797
163492.551933,0.000000,-9548.656652,-3370.820191
163492.552253,-740.205942,-13693.809927,-2451.505594
163492.552573,1702.473667,-13323.706956,-3140.991542
163492.552892,-2738.761985,-7772.162391,-8580.269578
163492.553212,-2738.761985,-13027.624579,-4213.525239
163492.553532,-888.247130,-8586.388927,-4979.620737
163492.553852,518.144159,-9622.677246,-4366.744339
163492.554171,740.205942,-6883.915261,-5286.058936
163492.554491,1184.329507,-7105.977043,-5209.449386
163492.554811,-592.164754,-8660.409521,-5056.230287
163492.555130,2294.638420,-9696.697840,-3983.696590
163492.555450,1998.556043,-13693.809927,-1149.143247
163492.555770,-444.123565,-10436.903782,-4290.134789
163492.556089,-4737.318029,-8512.368333,-7354.516781
163492.556409,-4811.338623,-9474.636058,-7431.126331
163492.556729,-4145.153275,-7179.997637,-8580.269578
163492.557049,-1332.370696,-9548.656652,-8197.221829
163492.557368,1702.473667,-7105.977043,-4979.620737
163492.557688,3256.906145,-7994.224174,-4596.572988
163492.558008,1258.350101,-9844.739029,-2834.553343
163492.558327,2220.617826,-9548.656652,-2681.334243
163492.558647,2220.617826,-12879.583391,1072.533697
163492.558967,962.267725,-11399.171507,1149.143247
163492.559286,0.000000,-10140.821405,-919.314598
163492.559606,-2442.679609,-10658.965565,-842.705048
163492.559926,-3256.906145,-6513.812290,-3140.991542
163492.560246,-2960.823768,-5995.668130,-3677.258390
163492.560565,3182.885551,-5921.647536,-1608.800546
163492.560885,1184.329507,-4811.338623,-4060.306139
163492.561205,0.000000,-9474.636058,-459.657299
163492.561524,740.205942,-11325.150913,229.828649
163492.561844,148.041188,-13989.892304,3600.648841
163492.562164,0.000000,-11325.150913,4903.011187
163492.562483,-2738.761985,-9548.656652,842.705048
163492.562803,-4145.153275,-10436.903782,2757.943793
163492.563123,-666.185348,-7105.977043,-76.609550
163492.563443,-814.226536,-7624.121203,0.000000
163492.563762,4663.297435,-9474.636058,3600.648841
163492.564082,1702.473667,-6587.832884,0.000000
163492.564402,-296.082377,-10362.883188,1225.752797
163492.564721,-370.102971,-10288.862594,919.314598
163492.565041,592.164754,-12805.562797,4903.011187
163492.565361,592.164754,-11917.315666,6128.763984
163492.565680,0.000000,-9548.656652,3064.381992
163492.566000,-962.267725,-12361.439231,5362.668486
163492.566320,-1258.350101,-7698.141797,4826.401637
163492.566640,-2442.679609,-6883.915261,1149.143247
163492.566959,-74.020594,-9474.636058,3907.087040
163492.567279,1184.329507,-4811.338623,1225.752797
163492.567599,518.144159,-7698.141797,3140.991542
163492.567918,962.267725,-8586.388927,3983.696590
163492.568238,0.000000,-9548.656652,3830.477490
163492.568558,-222.061783,-11029.068536,4826.401637
163492.568877,0.000000,-10140.821405,2451.505594
163492.569197,-3775.050304,-12731.542202,2451.505594
163492.569517,-3627.009116,-11843.295072,3600.648841
163492.569837,-3034.844362,-6513.812290,-842.705048
163492.570156,-814.226536,-7698.141797,2451.505594
163492.570476,1258.350101,-4293.194464,-153.219100
163492.570796,222.061783,-7994.224174,1149.143247
163492.571115,148.041188,-9696.697840,2374.896044
163492.571435,296.082377,-9474.636058,2374.896044
163492.571755,-148.041188,-11621.233289,3064.381992
163492.572075,0.000000,-9548.656652,0.000000
163492.572394,-3552.988522,-10732.986159,919.314598
163492.572714,-3256.906145,-10510.924376,1225.752797
163492.573034,-3330.926739,-6587.832884,-3524.039291
163492.573353,-814.226536,-9548.656652,459.657299
163492.573673,444.123565,-5329.482782,-1991.848295
163492.573993,-814.226536,-7624.121203,-1608.800546
163492.574312,1110.308913,-9474.636058,1149.143247
163492.574632,4071.132681,-9474.636058,2068.457845
163492.574952,4663.297435,-13619.789333,6052.154434
163492.575272,3478.967927,-9474.636058,1762.019645
163492.575591,-1184.329507,-11769.274478,1072.533697
163492.575911,-5921.647536,-10732.986159,0.000000
163492.576231,-3627.009116,-7698.141797,-3753.867940
163492.576550,-2368.659014,-9918.759623,-1302.362347
163492.576870,888.247130,-4885.359217,-3600.648841
163492.577190,592.164754,-6291.750507,-3140.991542
163492.577509,2294.638420,-10066.800811,1455.581446
163492.577829,0.000000,-5107.421000,-2451.505594
163492.578149,2960.823768,-13619.789333,1915.238745
163492.578469,2886.803174,-11843.295072,-76.609550
163492.578788,-74.020594,-11843.295072,-1302.362347
163492.579108,-5921.647536,-10140.821405,612.876398
163492.579428,-2442.679609,-8290.306550,-3140.991542
163492.579747,-1332.370696,-8660.409521,-2911.162892
163492.580067,814.226536,-4737.318029,-5592.497135
163492.580387,962.267725,-5033.400406,-5745.716235
163492.580706,592.164754,-8882.471304,-3140.991542
163492.581026,1184.329507,-8660.409521,-2451.505594
163492.581346,2072.576638,-14285.974681,-2451.505594
163492.581666,2368.659014,-13841.851115,306.438199
163492.581985,-74.020594,-13915.871710,-536.266849
163492.582305,-8290.306550,-11029.068536,-2145.067394
163492.582625,-1998.556043,-8586.388927,-3140.991542
163492.582944,-296.082377,-8438.347739,-1608.800546
163492.583264,518.144159,-6143.709319,-3370.820191
163492.583584,-370.102971,-4737.318029,-6205.373534
163492.583903,-74.020594,-8734.430116,-2604.724693
163492.584223,2294.638420,-8882.471304,-1915.238745
163492.584543,814.226536,-11547.212695,-1302.362347
163492.584863,0.000000,-10732.986159,0.000000
163492.585182,-3552.988522,-11917.315666,-76.609550
163492.585502,-5921.647536,-10807.006753,-1838.629195
163492.585822,-3478.967927,-8512.368333,-3370.820191
163492.586141,-1702.473667,-9992.780217,-1608.800546
163492.586461,296.082377,-5625.565159,-2068.457845
163492.586781,2294.638420,-4145.153275,-2528.115143
163492.587100,1998.556043,-9474.636058,-76.609550
163492.587420,3478.967927,-6513.812290,-1915.238745
163492.587740,2368.659014,-10732.986159,1838.629195
163492.588060,592.164754,-9548.656652,1225.752797
163492.588379,-3256.906145,-9548.656652,-3064.381992
163492.588699,-4219.173869,-13619.789333,-76.609550
163492.589019,-4071.132681,-9918.759623,-2145.067394
163492.589338,-2072.576638,-11251.130318,0.000000
163492.589658,1702.473667,-7698.141797,-1302.362347
163492.589978,962.267725,-4811.338623,-383.047749
163492.590298,148.041188,-5403.503377,1225.752797
163492.590617,4737.318029,-5403.503377,0.000000
163492.590937,3552.988522,-9548.656652,4903.011187
163492.591257,2886.803174,-9252.574275,1915.238745
163492.591576,-74.020594,-11843.295072,536.266849
163492.591896,-5699.585753,-13397.727550,0.000000
163492.592216,-5551.544565,-12435.459826,-1455.581446
163492.592535,-4293.194464,-11769.274478,0.000000
163492.592855,-2368.659014,-8364.327145,1838.629195
163492.593175,-1628.453072,-5625.565159,-919.314598
163492.593495,-444.123565,-7328.038826,612.876398
163492.593814,1850.514855,-7179.997637,1455.581446
163492.594134,3478.967927,-8734.430116,3677.258390
163492.594454,1998.556043,-7846.182985,2528.115143
163492.594773,1702.473667,-9474.636058,1762.019645
163492.595093,-4737.318029,-11325.150913,1302.362347
163492.595413,-4293.194464,-11843.295072,0.000000
163492.595732,-3923.091493,-12583.501014,-76.609550
163492.596052,-2664.741391,-11029.068536,1302.362347
163492.596372,-2368.659014,-6735.874072,-2068.457845
163492.596692,-1702.473667,-7105.977043,0.000000
163492.597011,1628.453072,-6365.771101,995.924147
163492.597331,4071.132681,-7179.997637,3830.477490
163492.597651,4737.318029,-8364.327145,4903.011187
163492.597970,3478.967927,-9474.636058,3294.210641
163492.598290,-2886.803174,-10955.047942,1762.019645
163492.598610,-4737.318029,-10732.986159,1225.752797
163492.598929,-1258.350101,-13027.624579,2374.896044
163492.599249,-2368.659014,-9696.697840,1838.629195
163492.599569,-1332.370696,-5995.668130,-1455.581446
163492.599889,-1406.391290,-6957.935855,-689.485948
163492.600208,1258.350101,-6217.729913,-383.047749
163492.600528,1480.411884,-6069.688724,0.000000
163492.600848,1776.494261,-9178.553681,1149.143247
163492.601167,0.000000,-9548.656652,0.000000
163492.601487,-666.185348,-15396.283594,995.924147
163492.601807,-3330.926739,-12509.480420,0.000000
163492.602126,-1258.350101,-11843.295072,-76.609550
163492.602446,-3108.864956,-9252.574275,153.219100
163492.602766,-1110.308913,-4737.318029,-2987.772442
163492.603086,0.000000,-6513.812290,-2451.505594
163492.603405,2664.741391,-7179.997637,0.000000
163492.603725,3552.988522,-7179.997637,0.000000
163492.604045,2368.659014,-10140.821405,1225.752797
163492.604364,1184.329507,-9400.615463,-612.876398
163492.604684,-2294.638420,-12361.439231,-229.828649
163492.605004,-3627.009116,-10066.800811,-4060.306139
163492.605323,-74.020594,-12435.459826,-1302.362347
163492.605643,-740.205942,-11325.150913,76.609550
163492.605963,-370.102971,-6957.935855,-1608.800546
163492.606283,-2220.617826,-7476.080014,-2757.943793
163492.606602,-2368.659014,-6291.750507,-3370.820191
163492.606922,3478.967927,-7105.977043,-1915.238745
163492.607242,2072.576638,-8068.244768,383.047749
163492.607561,2960.823768,-9104.533087,612.876398
163492.607881,-74.020594,-11843.295072,-689.485948
163492.608201,-3627.009116,-9474.636058,-1302.362347
163492.608521,-3849.070898,-9622.677246,-2987.772442
163492.608840,-3849.070898,-10732.986159,-3753.867940
163492.609160,-2072.576638,-7254.018232,-4979.620737
163492.609480,-1850.514855,-8734.430116,-3753.867940
163492.609799,592.164754,-9622.677246,-689.485948
163492.610119,3923.091493,-8068.244768,-1302.362347
163492.610439,4071.132681,-12435.459826,2374.896044
163492.610758,3478.967927,-9474.636058,-1302.362347
163492.611078,0.000000,-10140.821405,0.000000
163492.611398,-1258.350101,-11547.212695,-995.924147
163492.611718,-1184.329507,-11251.130318,-459.657299
163492.612037,-1258.350101,-11103.089130,-306.438199
163492.612357,-592.164754,-7105.977043,-2757.943793
163492.612677,-74.020594,-9474.636058,-1915.238745
163492.612996,1628.453072,-9400.615463,-1072.533697
163492.613316,2368.659014,-6587.832884,0.000000
163492.613636,5699.585753,-11621.233289,3217.601092
163492.613955,3478.967927,-10362.883188,1991.848295
163492.614275,-3552.988522,-9548.656652,0.000000
163492.614595,-3034.844362,-11769.274478,-76.609550
163492.614915,-2368.659014,-9844.739029,-229.828649
163492.615234,-2294.638420,-11177.109724,689.485948
163492.615554,-1332.370696,-7179.997637,-1302.362347
163492.615874,-1480.411884,-8364.327145,459.657299
163492.616193,-3552.988522,-5403.503377,0.000000
163492.616513,888.247130,-7179.997637,-1072.533697
163492.616833,2738.761985,-9770.718434,1225.752797
163492.617152,3478.967927,-10362.883188,2374.896044
163492.617472,-3552.988522,-7772.162391,0.000000
163492.617792,-2442.679609,-12731.542202,1685.410096
163492.618112,-2442.679609,-11029.068536,-306.438199
163492.618431,-3330.926739,-11843.295072,1225.752797
163492.618751,-2072.576638,-7698.141797,-689.485948
163492.619071,-2368.659014,-7402.059420,-689.485948
163492.619390,-2146.597232,-7179.997637,0.000000
163492.619710,1480.411884,-4885.359217,-689.485948
163492.620030,2960.823768,-7772.162391,3064.381992
163492.620349,6587.832884,-9252.574275,4290.134789
163492.620669,0.000000,-7772.162391,612.876398
163492.620989,-1258.350101,-11991.336260,2911.162892
163492.621309,-2368.659014,-10362.883188,306.438199
163492.621628,-3108.864956,-12509.480420,76.609550
163492.621948,-74.020594,-10658.965565,-76.609550
163492.622268,-1258.350101,-8882.471304,-383.047749
163492.622587,-1258.350101,-8882.471304,-76.609550
163492.622907,74.020594,-5699.585753,0.000000
163492.623227,2368.659014,-8364.327145,3294.210641
163492.623546,2368.659014,-7179.997637,3064.381992
163492.623866,0.000000,-6587.832884,0.000000
163492.624186,-1924.535449,-11917.315666,1608.800546
163492.624506,-2146.597232,-11103.089130,0.000000
163492.624825,-3108.864956,-13323.706956,383.047749
163492.625145,-1258.350101,-11251.130318,-76.609550
163492.625465,-2960.823768,-9252.574275,-306.438199
163492.625784,-1258.350101,-8882.471304,-689.485948
163492.626104,0.000000,-5181.441594,-1915.238745
163492.626424,1258.350101,-7179.997637,0.000000
163492.626744,2590.720797,-7179.997637,153.219100
163492.627063,3182.885551,-8734.430116,1838.629195
163492.627383,-592.164754,-11029.068536,2145.067394
163492.627703,-888.247130,-9178.553681,-612.876398
163492.628022,-74.020594,-14211.954086,-76.609550
163492.628342,-370.102971,-10584.944971,-612.876398
163492.628662,-1924.535449,-7772.162391,-2987.772442
163492.628982,-2072.576638,-9548.656652,-1532.190996
163492.629301,0.000000,-6291.750507,-2145.067394
163492.629621,1850.514855,-7550.100608,-1302.362347
163492.629941,4071.132681,-8586.388927,1149.143247
163492.630260,2220.617826,-6883.915261,-766.095498
163492.630580,-296.082377,-11177.109724,1149.143247
163492.630900,-1258.350101,-10140.821405,0.000000
163492.631220,-2368.659014,-11917.315666,2451.505594
163492.631539,-3627.009116,-9400.615463,-1072.533697
163492.631859,-3775.050304,-7254.018232,-4596.572988
163492.632179,-3923.091493,-9474.636058,-4903.011187
163492.632498,-74.020594,-7772.162391,-4290.134789
163492.632818,2146.597232,-8660.409521,-3140.991542
163492.633138,1184.329507,-8364.327145,612.876398
163492.633458,3182.885551,-8290.306550,-1378.971896
163492.633777,-1332.370696,-10658.965565,-689.485948
163492.634097,-74.020594,-13619.789333,-1302.362347
163492.634417,0.000000,-11917.315666,-1225.752797
163492.634736,-370.102971,-11843.295072,229.828649
163492.635056,-1036.288319,-8734.430116,-1149.143247
163492.635376,-2442.679609,-9992.780217,-1532.190996
163492.635696,148.041188,-7105.977043,-2528.115143
163492.636015,2368.659014,-5995.668130,-2145.067394
163492.636335,4663.297435,-8882.471304,1149.143247
163492.636655,2886.803174,-8290.306550,-76.609550
163492.636975,-370.102971,-11547.212695,-1302.362347
163492.637294,-74.020594,-13619.789333,-76.609550
163492.637614,-3552.988522,-11325.150913,-2451.505594
163492.637934,-2886.803174,-12139.377449,-383.047749
163492.638253,-2072.576638,-8956.491898,-2528.115143
163492.638573,-2072.576638,-9992.780217,-766.095498
163492.638893,0.000000,-7179.997637,306.438199
163492.639213,2664.741391,-6735.874072,1378.971896
163492.639532,4441.235652,-8512.368333,4673.182538
163492.639852,4367.215058,-7031.956449,-76.609550
163492.640172,-1258.350101,-9030.512492,-1915.238745
163492.640491,-444.123565,-13027.624579,-76.609550
163492.640811,-2368.659014,-12435.459826,-1838.629195
163492.641131,-2590.720797,-14063.912898,383.047749
163492.641451,-2516.700203,-9696.697840,-2221.676944
163492.641770,-4737.318029,-9548.656652,-1838.629195
163492.642090,-3552.988522,-5995.668130,-2451.505594
163492.642410,592.164754,-5107.421000,-1685.410096
163492.642730,3552.988522,-8364.327145,3677.258390
163492.643049,5107.421000,-6809.894666,2451.505594
163492.643369,2294.638420,-9474.636058,-76.609550
163492.643689,1036.288319,-11473.192101,1149.143247
163492.644008,-1628.453072,-10214.842000,-612.876398
163492.644328,-1702.473667,-11917.315666,919.314598
163492.644648,-1332.370696,-9918.759623,-1378.971896
163492.644968,-4145.153275,-10732.986159,-1838.629195
163492.645287,-1258.350101,-10066.800811,-153.219100
163492.645607,-888.247130,-7402.059420,0.000000
163492.645927,1184.329507,-6587.832884,76.609550
163492.646246,592.164754,-4811.338623,0.000000
163492.646566,1702.473667,-8290.306550,-689.485948
163492.646886,-1480.411884,-8660.409521,1302.362347
163492.647206,-1110.308913,-9918.759623,1072.533697
163492.647525,-1258.350101,-12435.459826,2374.896044
163492.647845,-2220.617826,-8956.491898,-689.485948
163492.648165,-4885.359217,-9844.739029,-1072.533697
163492.648485,-1554.432478,-10658.965565,-612.876398
163492.648804,1702.473667,-11251.130318,-76.609550
163492.649124,3478.967927,-11251.130318,1762.019645
163492.649444,2368.659014,-7179.997637,0.000000
163492.649763,-592.164754,-6143.709319,0.000000
163492.650083,-1184.329507,-8734.430116,229.828649
163492.650403,370.102971,-8586.388927,-612.876398
163492.650723,1036.288319,-11769.274478,1991.848295
163492.651042,2294.638420,-11843.295072,3600.648841
163492.651362,-74.020594,-11843.295072,2374.896044
163492.651682,-370.102971,-11251.130318,2374.896044
163492.652001,-74.020594,-7105.977043,-1915.238745
163492.652321,518.144159,-8734.430116,0.000000
163492.652641,0.000000,-7179.997637,0.000000
163492.652961,1110.308913,-8882.471304,-995.924147
163492.653280,-1924.535449,-12065.356855,1225.752797
163492.653600,-1702.473667,-9992.780217,0.000000
163492.653920,-2590.720797,-10658.965565,0.000000
163492.654239,-74.020594,-10362.883188,-383.047749
163492.654559,-4737.318029,-7179.997637,-3677.258390
163492.654879,-2368.659014,-11029.068536,612.876398
163492.655199,1702.473667,-9474.636058,2145.067394
163492.655518,3478.967927,-12435.459826,2374.896044
163492.655838,0.000000,-5995.668130,0.000000
163492.656158,-666.185348,-6809.894666,-2145.067394
163492.656478,-2516.700203,-8956.491898,-1762.019645
163492.656797,-148.041188,-7031.956449,-3753.867940
163492.657117,222.061783,-11177.109724,-1302.362347
163492.657437,888.247130,-10732.986159,-995.924147
163492.657756,-2590.720797,-10732.986159,-3064.381992
163492.658076,-4367.215058,-11917.315666,-3064.381992
163492.658396,-1184.329507,-9400.615463,-919.314598
163492.658716,3478.967927,-10955.047942,2528.115143
163492.659035,1480.411884,-5107.421000,1225.752797
163492.659355,3997.112087,-4589.276840,766.095498
163492.659675,1258.350101,-7772.162391,1455.581446
163492.659994,1110.308913,-6883.915261,-689.485948
163492.660314,-74.020594,-10658.965565,-1302.362347
163492.660634,-666.185348,-10658.965565,-1149.143247
163492.660954,-3627.009116,-11547.212695,-3753.867940
163492.661273,-5699.585753,-11917.315666,-2451.505594
163492.661593,-2368.659014,-9252.574275,-1838.629195
163492.661913,1184.329507,-10436.903782,3677.258390
163492.662233,1184.329507,-5995.668130,919.314598
163492.662552,888.247130,-5995.668130,-1302.362347
163492.662872,-2146.597232,-8734.430116,-536.266849
163492.663192,-740.205942,-7328.038826,-1608.800546
163492.663511,2294.638420,-10362.883188,-76.609550
163492.663831,2294.638420,-12879.583391,2987.772442
163492.664151,-74.020594,-9474.636058,-1915.238745
163492.664471,-4663.297435,-11325.150913,-1532.190996
163492.664790,-2738.761985,-8586.388927,-2528.115143
163492.665110,-3552.988522,-9548.656652,-2451.505594
163492.665430,1332.370696,-9474.636058,689.485948
163492.665749,0.000000,-7031.956449,-1225.752797
163492.666069,-1776.494261,-9474.636058,-306.438199
163492.666389,2294.638420,-8290.306550,-1302.362347
163492.666709,1406.391290,-9178.553681,1149.143247
163492.667028,74.020594,-8364.327145,1225.752797
163492.667348,0.000000,-7772.162391,-2451.505594
163492.667668,-2368.659014,-11917.315666,1455.581446
163492.667988,-222.061783,-9548.656652,-2221.676944
163492.668307,1998.556043,-11251.130318,1762.019645
163492.668627,296.082377,-9030.512492,1225.752797
163492.668947,-296.082377,-6809.894666,-1532.190996
163492.669266,-3034.844362,-8808.450710,-1532.190996
163492.669586,-1776.494261,-7772.162391,0.000000
163492.669906,-592.164754,-9622.677246,-919.314598
163492.670226,518.144159,-9770.718434,995.924147
163492.670545,0.000000,-8586.388927,-919.314598
163492.670865,-1924.535449,-11325.150913,0.000000
163492.671185,-2442.679609,-8364.327145,-2221.676944
163492.671504,-74.020594,-9770.718434,-536.266849
163492.671824,0.000000,-9548.656652,1532.190996
163492.672144,1998.556043,-7624.121203,-229.828649
163492.672464,-962.267725,-9474.636058,-76.609550
163492.672783,0.000000,-8068.244768,0.000000
163492.673103,666.185348,-8586.388927,-1838.629195
163492.673423,888.247130,-10510.924376,306.438199
163492.673742,296.082377,-9178.553681,-1838.629195
163492.674062,-2368.659014,-11547.212695,-995.924147
163492.674382,-2072.576638,-10140.821405,-919.314598
163492.674702,1110.308913,-10658.965565,-76.609550
163492.675021,148.041188,-8882.471304,1149.143247
163492.675341,0.000000,-4811.338623,0.000000
163492.675661,2294.638420,-9474.636058,-76.609550
163492.675981,0.000000,-7772.162391,76.609550
163492.676300,888.247130,-9326.594869,-383.047749
163492.676620,296.082377,-11473.192101,1608.800546
163492.676940,-296.082377,-8956.491898,-995.924147
163492.677259,-4145.153275,-10140.821405,0.000000
163492.677579,-2442.679609,-10066.800811,-153.219100
163492.677899,-74.020594,-10658.965565,-76.609550
163492.678219,-962.267725,-8734.430116,0.000000
163492.678538,740.205942,-6143.709319,-1608.800546
163492.678858,-74.020594,-11843.295072,-76.609550
163492.679178,-2664.741391,-7624.121203,-612.876398
163492.679497,-222.061783,-7105.977043,-2374.896044
163492.679817,0.000000,-10214.842000,0.000000
163492.680137,1184.329507,-7179.997637,0.000000
163492.680457,-3552.988522,-9548.656652,0.000000
163492.680776,0.000000,-13101.645173,2451.505594
163492.681096,1702.473667,-12731.542202,842.705048
163492.681416,-666.185348,-12361.439231,2068.457845
163492.681736,-74.020594,-5699.585753,-2528.115143
163492.682055,-74.020594,-8290.306550,-995.924147
163492.682375,-962.267725,-6365.771101,-1532.190996
163492.682695,2220.617826,-5921.647536,-1915.238745
163492.683014,2368.659014,-10510.924376,536.266849
163492.683334,0.000000,-7772.162391,-2145.067394
163492.683654,-1258.350101,-11251.130318,-1915.238745
163492.683974,-3256.906145,-12509.480420,0.000000
163492.684293,0.000000,-10140.821405,0.000000
163492.684613,1184.329507,-13175.665768,3830.477490
163492.684933,1998.556043,-6513.812290,-1302.362347
163492.685252,-1110.308913,-7624.121203,-766.095498
163492.685572,-1776.494261,-7994.224174,-76.609550
163492.685892,-592.164754,-6513.812290,-3370.820191
163492.686212,-1776.494261,-10288.862594,-1302.362347
163492.686531,0.000000,-8438.347739,-1685.410096
163492.686851,-370.102971,-11177.109724,-1762.019645
163492.687171,-518.144159,-12435.459826,-76.609550
163492.687491,0.000000,-9548.656652,-1762.019645
163492.687810,666.185348,-12213.398043,612.876398
163492.688130,-74.020594,-7105.977043,-1302.362347
163492.688450,-2220.617826,-8216.285956,-1762.019645
163492.688769,-3330.926739,-7402.059420,-1685.410096
163492.689089,74.020594,-6439.791695,-3217.601092
163492.689409,3108.864956,-10955.047942,2374.896044
163492.689729,2960.823768,-8660.409521,689.485948
163492.690048,0.000000,-10140.821405,306.438199
163492.690368,-222.061783,-13027.624579,1149.143247
163492.690688,222.061783,-10584.944971,1149.143247
163492.691007,0.000000,-10732.986159,306.438199
163492.691327,2294.638420,-8290.306550,1608.800546
163492.691647,-296.082377,-7624.121203,0.000000
163492.691967,-1184.329507,-8956.491898,229.828649
163492.692286,148.041188,-6143.709319,-2221.676944
163492.692606,296.082377,-9696.697840,612.876398
163492.692926,-1776.494261,-7179.997637,-2757.943793
163492.693245,-2368.659014,-9548.656652,-2374.896044
163492.693565,-2072.576638,-13101.645173,1225.752797
163492.693885,2294.638420,-12731.542202,2374.896044
163492.694205,-2368.659014,-9548.656652,0.000000
163492.694524,-222.061783,-9178.553681,919.314598
163492.694844,-2664.741391,-7550.100608,-2298.286494
163492.695164,-3256.906145,-8660.409521,-1302.362347
163492.695484,222.061783,-7105.977043,-2528.115143
163492.695803,740.205942,-8956.491898,-1302.362347
163492.696123,1702.473667,-8290.306550,-995.924147
163492.696443,0.000000,-7179.997637,-3677.258390
163492.696762,-1036.288319,-13101.645173,1149.143247
163492.697082,2590.720797,-11769.274478,1532.190996
163492.697402,0.000000,-10732.986159,612.876398
163492.697722,1406.391290,-10658.965565,2834.553343
163492.698041,-666.185348,-8586.388927,306.438199
163492.698361,-2442.679609,-8808.450710,0.000000
163492.698681,-74.020594,-5921.647536,-1302.362347
163492.699000,814.226536,-8290.306550,-689.485948
163492.699320,1406.391290,-9474.636058,-76.609550
163492.699640,0.000000,-5699.585753,-2145.067394
163492.699960,-1480.411884,-10732.986159,1838.629195
163492.700279,0.000000,-10732.986159,1838.629195
163492.700599,-2072.576638,-12065.356855,919.314598
163492.700919,-1332.370696,-11769.274478,1455.581446
163492.701239,-2516.700203,-7624.121203,-1149.143247
163492.701558,-4367.215058,-7846.182985,-689.485948
163492.701878,-74.020594,-5921.647536,-1302.362347
163492.702198,592.164754,-7772.162391,-612.876398
163492.702517,2294.638420,-8586.388927,-995.924147
163492.702837,592.164754,-7179.997637,-1072.533697
163492.703157,-4145.153275,-9844.739029,0.000000
163492.703477,-2442.679609,-8068.244768,-4366.744339
163492.703796,370.102971,-13027.624579,-459.657299
163492.704116,814.226536,-12805.562797,1378.971896
163492.704436,592.164754,-9770.718434,153.219100
163492.704755,-74.020594,-13619.789333,2374.896044
163492.705075,-814.226536,-6513.812290,-1991.848295
163492.705395,-2294.638420,-6587.832884,-3447.429741
163492.705715,-592.164754,-5995.668130,-4060.306139
163492.706034,0.000000,-5107.421000,-3370.820191
163492.706354,1406.391290,-9770.718434,-1302.362347
