#time,accel_x,accel_y,accel_z
163269.808961,-592.164754,-9252.574275,0.000000
163269.809279,-74.020594,-9474.636058,-1302.362347
163269.809598,-2368.659014,-9548.656652,0.000000
163269.809917,-2738.761985,-7846.182985,-2451.505594
163269.810235,-74.020594,-9474.636058,-689.485948
163269.810554,-1258.350101,-9252.574275,-153.219100
163269.810873,-1036.288319,-9252.574275,-766.095498
163269.811191,-1110.308913,-9474.636058,-536.266849
163269.811510,-74.020594,-11769.274478,1762.019645
163269.811829,-296.082377,-9030.512492,0.000000
163269.812147,2294.638420,-11843.295072,-76.609550
163269.812466,-1480.411884,-8660.409521,-1225.752797
163269.812785,814.226536,-10510.924376,2068.457845
163269.813103,1110.308913,-8882.471304,-2221.676944
163269.813422,296.082377,-9548.656652,0.000000
163269.813741,296.082377,-9844.739029,0.000000
163269.814059,296.082377,-9696.697840,-306.438199
163269.814378,518.144159,-10658.965565,-76.609550
163269.814696,0.000000,-8364.327145,842.705048
163269.815015,814.226536,-8882.471304,-76.609550
163269.815334,-1184.329507,-8660.409521,0.000000
163269.815652,0.000000,-8364.327145,1225.752797
163269.815971,1110.308913,-9178.553681,-383.047749
163269.816290,-74.020594,-10362.883188,-76.609550
163269.816608,-1036.288319,-8438.347739,-306.438199
163269.816927,-962.267725,-9030.512492,0.000000
163269.817246,-1406.391290,-9252.574275,-689.485948
163269.817564,-1776.494261,-9548.656652,1838.629195
163269.817883,-1110.308913,-9696.697840,-612.876398
163269.818202,-666.185348,-9178.553681,-76.609550
163269.818520,-370.102971,-8290.306550,-1915.238745
163269.818839,0.000000,-9104.533087,0.000000
163269.819158,-74.020594,-10658.965565,-76.609550
163269.819476,0.000000,-9104.533087,-306.438199
163269.819795,0.000000,-9696.697840,-612.876398
163269.820114,0.000000,-9622.677246,-612.876398
163269.820432,-296.082377,-9548.656652,-76.609550
163269.820751,0.000000,-8364.327145,0.000000
163269.821069,518.144159,-9326.594869,-383.047749
163269.821388,666.185348,-9400.615463,-76.609550
163269.821707,296.082377,-9326.594869,-76.609550
163269.822025,-1036.288319,-7179.997637,0.000000
163269.822344,1110.308913,-8956.491898,0.000000
163269.822663,2294.638420,-10658.965565,1149.143247
163269.822981,74.020594,-8290.306550,-689.485948
163269.823300,0.000000,-7179.997637,0.000000
163269.823619,1702.473667,-11843.295072,-76.609550
163269.823937,74.020594,-8956.491898,-842.705048
163269.824256,-1998.556043,-9400.615463,0.000000
163269.824575,-370.102971,-9844.739029,-76.609550
163269.824893,-1184.329507,-8660.409521,-76.609550
163269.825212,-2368.659014,-9104.533087,0.000000
163269.825531,-2072.576638,-9548.656652,-1225.752797
163269.825849,-2072.576638,-9400.615463,0.000000
163269.826168,-74.020594,-11029.068536,2374.896044
163269.826486,-666.185348,-8660.409521,-1302.362347
163269.826805,-74.020594,-9474.636058,-76.609550
163269.827124,0.000000,-8882.471304,0.000000
163269.827442,592.164754,-8882.471304,-76.609550
163269.827761,-74.020594,-10658.965565,-689.485948
163269.828080,-888.247130,-9252.574275,-689.485948
163269.828398,-222.061783,-9548.656652,-536.266849
163269.828717,-666.185348,-7772.162391,-2221.676944
163269.829036,0.000000,-9548.656652,0.000000
163269.829354,296.082377,-9548.656652,1225.752797
163269.829673,2294.638420,-9474.636058,-76.609550
163269.829992,3182.885551,-9474.636058,-76.609550
163269.830310,592.164754,-9548.656652,306.438199
163269.830629,962.267725,-9474.636058,-76.609550
163269.830948,-74.020594,-8364.327145,536.266849
163269.831266,370.102971,-9474.636058,1149.143247
163269.831585,-74.020594,-8882.471304,-76.609550
163269.831903,-74.020594,-8290.306550,-1302.362347
163269.832222,-2368.659014,-7179.997637,0.000000
163269.832541,0.000000,-9548.656652,0.000000
163269.832859,592.164754,-9474.636058,-459.657299
163269.833178,-518.144159,-7920.203579,-2451.505594
163269.833497,1110.308913,-9252.574275,-76.609550
163269.833815,518.144159,-9696.697840,-1302.362347
163269.834134,444.123565,-9474.636058,-1225.752797
163269.834453,1184.329507,-9178.553681,-1225.752797
163269.834771,2368.659014,-11029.068536,689.485948
163269.835090,2812.782580,-9326.594869,766.095498
163269.835409,5847.626942,-11547.212695,-76.609550
163269.835727,4663.297435,-8882.471304,-689.485948
163269.836046,3997.112087,-8956.491898,0.000000
163269.836365,4663.297435,-8364.327145,0.000000
163269.836683,5847.626942,-9178.553681,383.047749
163269.837002,6217.729913,-9400.615463,689.485948
163269.837320,6069.688724,-9548.656652,383.047749
163269.837639,6735.874072,-8586.388927,-76.609550
163269.837958,7031.956449,-9474.636058,-3064.381992
163269.838276,6587.832884,-10510.924376,842.705048
163269.838595,5847.626942,-8882.471304,-1302.362347
163269.838914,6365.771101,-6587.832884,-2221.676944
163269.839232,8438.347739,-9844.739029,2221.676944
163269.839551,5921.647536,-8364.327145,0.000000
163269.839870,6439.791695,-9992.780217,0.000000
163269.840188,4663.297435,-10658.965565,-383.047749
163269.840507,2886.803174,-12361.439231,-459.657299
163269.840826,1702.473667,-12731.542202,-536.266849
163269.841144,0.000000,-11325.150913,0.000000
163269.841463,3182.885551,-10066.800811,1149.143247
163269.841782,2960.823768,-7105.977043,-76.609550
163269.842100,1480.411884,-4219.173869,0.000000
163269.842419,4663.297435,-7105.977043,-76.609550
163269.842738,1184.329507,-4959.379811,-2451.505594
163269.843056,814.226536,-7994.224174,-3677.258390
163269.843375,0.000000,-10510.924376,-3983.696590
163269.843693,-1628.453072,-13471.748144,-2145.067394
163269.844012,-2664.741391,-15248.242405,-2145.067394
163269.844331,-2368.659014,-16432.571912,1072.533697
163269.844649,-962.267725,-16284.530724,4826.401637
163269.844968,222.061783,-9104.533087,4136.915689
163269.845287,888.247130,-4811.338623,3677.258390
163269.845605,3478.967927,-3552.988522,3294.210641
163269.845924,-962.267725,-1480.411884,689.485948
163269.846243,-2294.638420,-2812.782580,-1915.238745
163269.846561,-3775.050304,-6143.709319,-3294.210641
163269.846880,-4515.256246,-10807.006753,-2528.115143
163269.847199,-8290.306550,-13693.809927,-3677.258390
163269.847517,-10362.883188,-15470.304188,-3064.381992
163269.847836,-7772.162391,-17172.777854,-76.609550
163269.848155,-5107.421000,-14211.954086,4213.525239
163269.848473,-4145.153275,-8364.327145,4903.011187
163269.848792,-74.020594,-4737.318029,5439.278036
163269.849110,-1554.432478,-2146.597232,3907.087040
163269.849429,-2146.597232,-1628.453072,1072.533697
163269.849748,-3627.009116,-4367.215058,-1685.410096
163269.850066,-3034.844362,-9474.636058,-3140.991542
163269.850385,-7328.038826,-10140.821405,-5515.887586
163269.850704,-7105.977043,-13841.851115,-4903.011187
163269.851022,-6661.853478,-16950.716072,-3677.258390
163269.851341,-4441.235652,-16876.695478,-689.485948
163269.851660,-4145.153275,-12509.480420,1838.629195
163269.851978,-74.020594,-8142.265362,1991.848295
163269.852297,2516.700203,-5699.585753,2834.553343
163269.852616,4145.153275,-3701.029710,2604.724693
163269.852934,4441.235652,-3627.009116,919.314598
163269.853253,3775.050304,-5995.668130,0.000000
163269.853572,0.000000,-8364.327145,-2451.505594
163269.853890,-74.020594,-11769.274478,-4596.572988
163269.854209,-1776.494261,-14878.139434,-1072.533697
163269.854527,-74.020594,-16580.613101,-76.609550
163269.854846,2516.700203,-14211.954086,3064.381992
163269.855165,2812.782580,-9252.574275,1762.019645
163269.855483,3552.988522,-7105.977043,1685.410096
163269.855802,3775.050304,-4737.318029,1149.143247
163269.856121,2368.659014,-2442.679609,0.000000
163269.856439,2368.659014,-3923.091493,-1762.019645
163269.856758,1184.329507,-5995.668130,-4903.011187
163269.857077,0.000000,-10140.821405,-3064.381992
163269.857395,1110.308913,-14211.954086,-2528.115143
163269.857714,1110.308913,-15396.283594,-689.485948
163269.858033,1998.556043,-15396.283594,2298.286494
163269.858351,2294.638420,-10658.965565,2528.115143
163269.858670,3256.906145,-8364.327145,2068.457845
163269.858989,3552.988522,-5329.482782,1225.752797
163269.859307,4145.153275,-4811.338623,1225.752797
163269.859626,4219.173869,-3627.009116,-3677.258390
163269.859945,5551.544565,-7698.141797,-1302.362347
163269.860263,518.144159,-9252.574275,-4596.572988
163269.860582,-2294.638420,-12509.480420,-6128.763984
163269.860900,-1258.350101,-16580.613101,-1302.362347
163269.861219,-2960.823768,-16654.633695,-153.219100
163269.861538,-1036.288319,-14137.933492,3140.991542
163269.861856,814.226536,-9548.656652,4213.525239
163269.862175,3478.967927,-7402.059420,6665.030833
163269.862494,148.041188,-3256.906145,2987.772442
163269.862812,2294.638420,-2368.659014,-76.609550
163269.863131,-1184.329507,-1850.514855,-2451.505594
163269.863450,-4145.153275,-4811.338623,-4596.572988
163269.863768,-3627.009116,-10658.965565,-3140.991542
163269.864087,-4811.338623,-15100.201217,-3753.867940
163269.864406,-6883.915261,-16876.695478,-2757.943793
163269.864724,-5033.400406,-16506.592507,0.000000
163269.865043,-3182.885551,-13027.624579,1532.190996
163269.865362,-2960.823768,-7772.162391,3064.381992
163269.865680,-888.247130,-5995.668130,1838.629195
163269.865999,-74.020594,-3849.070898,1225.752797
163269.866317,2294.638420,-5921.647536,-76.609550
163269.866636,-888.247130,-4811.338623,-2298.286494
163269.866955,-444.123565,-9474.636058,-76.609550
163269.867273,-4441.235652,-10214.842000,-2604.724693
163269.867592,-4737.318029,-13915.871710,-1685.410096
163269.867911,-4515.256246,-15322.262999,0.000000
163269.868229,-2516.700203,-13841.851115,3447.429741
163269.868548,-3552.988522,-7179.997637,612.876398
163269.868867,222.061783,-7698.141797,2068.457845
163269.869185,296.082377,-5921.647536,766.095498
163269.869504,592.164754,-4589.276840,-842.705048
163269.869823,518.144159,-4737.318029,-2221.676944
163269.870141,-592.164754,-6883.915261,-2834.553343
163269.870460,-74.020594,-11843.295072,-1378.971896
163269.870779,-962.267725,-12879.583391,-689.485948
163269.871097,-3552.988522,-11917.315666,0.000000
163269.871416,1998.556043,-15692.365970,4826.401637
163269.871734,0.000000,-10732.986159,3140.991542
163269.872053,1406.391290,-7846.182985,2298.286494
163269.872372,1850.514855,-5329.482782,842.705048
163269.872690,2072.576638,-4515.256246,-995.924147
163269.873009,1406.391290,-5181.441594,-3064.381992
163269.873328,0.000000,-6883.915261,-4290.134789
163269.873646,-74.020594,-10362.883188,-2528.115143
163269.873965,-666.185348,-14211.954086,-4366.744339
163269.874284,-3775.050304,-14878.139434,-3140.991542
163269.874602,-74.020594,-17764.942608,2374.896044
163269.874921,1776.494261,-12213.398043,4290.134789
163269.875240,4589.276840,-8364.327145,5439.278036
163269.875558,4959.379811,-5181.441594,4596.572988
163269.875877,4367.215058,-3108.864956,2987.772442
163269.876196,3701.029710,-3034.844362,919.314598
163269.876514,2590.720797,-5107.421000,-3677.258390
163269.876833,2294.638420,-10658.965565,-2681.334243
163269.877151,-370.102971,-13027.624579,-4979.620737
163269.877470,-2590.720797,-14804.118840,-4903.011187
163269.877789,-2442.679609,-16580.613101,-1915.238745
163269.878108,-1184.329507,-14952.160028,1838.629195
163269.878426,1036.288319,-11843.295072,3677.258390
163269.878745,2294.638420,-7920.203579,3983.696590
163269.879064,3478.967927,-6513.812290,4826.401637
163269.879382,4145.153275,-3627.009116,612.876398
163269.879701,2368.659014,-3627.009116,459.657299
163269.880020,1110.308913,-5921.647536,-2528.115143
163269.880338,-2442.679609,-9474.636058,-3753.867940
163269.880657,-7105.977043,-10732.986159,-4903.011187
163269.880976,-6809.894666,-15322.262999,-4060.306139
163269.881294,-5921.647536,-17838.963202,0.000000
163269.881613,-3330.926739,-14952.160028,1532.190996
163269.881932,-1184.329507,-10807.006753,2374.896044
163269.882250,-74.020594,-7105.977043,3600.648841
163269.882569,592.164754,-3627.009116,1532.190996
163269.882888,1776.494261,-3627.009116,1762.019645
163269.883207,1332.370696,-3849.070898,-689.485948
163269.883525,-666.185348,-5033.400406,-3753.867940
163269.883844,-1332.370696,-11325.150913,-306.438199
163269.884163,-4737.318029,-11917.315666,-2451.505594
163269.884481,-4293.194464,-15100.201217,-612.876398
163269.884800,-3034.844362,-14804.118840,1532.190996
163269.885119,-1258.350101,-12287.418637,2911.162892
163269.885437,814.226536,-8290.306550,2757.943793
163269.885756,1924.535449,-6957.935855,3064.381992
163269.886075,1702.473667,-4145.153275,1762.019645
163269.886393,2294.638420,-2960.823768,-1608.800546
163269.886712,0.000000,-4811.338623,-2451.505594
163269.887031,-74.020594,-9474.636058,-2528.115143
163269.887350,-3997.112087,-11917.315666,-2604.724693
163269.887668,-4441.235652,-14211.954086,-1455.581446
163269.887987,-3330.926739,-14582.057057,1072.533697
163269.888306,-74.020594,-13101.645173,5209.449386
163269.888624,1924.535449,-9548.656652,5209.449386
163269.888943,1924.535449,-6587.832884,2604.724693
163269.889262,3182.885551,-5921.647536,1455.581446
163269.889580,1702.473667,-4737.318029,-2604.724693
163269.889899,-1776.494261,-4811.338623,-6741.640382
163269.890218,-74.020594,-9474.636058,-5286.058936
163269.890536,-2516.700203,-11991.336260,-4290.134789
163269.890855,-1924.535449,-15174.221811,-3140.991542
163269.891174,-518.144159,-15988.448347,306.438199
163269.891492,2886.803174,-15988.448347,5439.278036
163269.891811,3849.070898,-10362.883188,3064.381992
163269.892130,4737.318029,-8364.327145,5286.058936
163269.892449,4663.297435,-5921.647536,3294.210641
163269.892767,4367.215058,-4737.318029,1762.019645
163269.893086,2368.659014,-2442.679609,0.000000
163269.893405,2146.597232,-5995.668130,-3140.991542
163269.893723,-962.267725,-10658.965565,-4366.744339
163269.894042,-3552.988522,-13693.809927,-4366.744339
163269.894361,-4737.318029,-16284.530724,-2451.505594
163269.894679,-1850.514855,-17764.942608,689.485948
163269.894998,-2368.659014,-12805.562797,3064.381992
163269.895317,296.082377,-8956.491898,3677.258390
163269.895635,3108.864956,-7105.977043,5515.887586
163269.895954,2294.638420,-2368.659014,1149.143247
163269.896273,2960.823768,-3478.967927,2068.457845
163269.896591,666.185348,-3404.947333,-3064.381992
163269.896910,-1258.350101,-7698.141797,-4213.525239
163269.897229,-2590.720797,-11695.253884,-4826.401637
163269.897548,-4737.318029,-14582.057057,-4903.011187
163269.897866,-4737.318029,-16062.468941,-2145.067394
163269.898185,-3256.906145,-15914.427753,1149.143247
163269.898504,0.000000,-12805.562797,4136.915689
163269.898822,2294.638420,-8882.471304,3600.648841
163269.899141,2294.638420,-3330.926739,1762.019645
163269.899460,4663.297435,-4589.276840,2374.896044
163269.899778,2294.638420,-3108.864956,76.609550
163269.900097,1628.453072,-5255.462188,-1302.362347
163269.900416,-296.082377,-8438.347739,-1838.629195
163269.900734,-2368.659014,-11325.150913,0.000000
163269.901053,-4145.153275,-13841.851115,-919.314598
163269.901372,-4737.318029,-14285.974681,2451.505594
163269.901691,-74.020594,-14211.954086,3600.648841
163269.902009,-74.020594,-10658.965565,4213.525239
163269.902328,-2664.741391,-3627.009116,0.000000
163269.902647,-74.020594,-5329.482782,1072.533697
163269.902965,-592.164754,-4293.194464,-1838.629195
163269.903284,-888.247130,-5995.668130,-3447.429741
163269.903603,-1776.494261,-8068.244768,-3370.820191
163269.903921,-444.123565,-12435.459826,-1838.629195
163269.904240,-4737.318029,-11917.315666,-2451.505594
163269.904559,-2072.576638,-15544.324782,1762.019645
163269.904877,-74.020594,-13323.706956,4443.353888
163269.905196,2294.638420,-11843.295072,2528.115143
163269.905515,1110.308913,-5921.647536,306.438199
163269.905833,1628.453072,-5847.626942,689.485948
163269.906152,2146.597232,-5107.421000,-842.705048
163269.906471,1628.453072,-5625.565159,-2757.943793
163269.906790,1998.556043,-9474.636058,-2834.553343
163269.907108,-1332.370696,-10807.006753,-4060.306139
163269.907427,-4441.235652,-12657.521608,-4366.744339
163269.907746,-3775.050304,-13397.727550,-3447.429741
163269.908064,-2368.659014,-13693.809927,2451.505594
163269.908383,592.164754,-9548.656652,1991.848295
163269.908702,4367.215058,-7105.977043,4826.401637
163269.909020,2664.741391,-3627.009116,3217.601092
163269.909339,2812.782580,-2886.803174,1378.971896
163269.909658,2220.617826,-3330.926739,-1455.581446
163269.909976,2072.576638,-7105.977043,-536.266849
163269.910295,-2146.597232,-9400.615463,-4903.011187
163269.910614,-3923.091493,-13619.789333,-4596.572988
163269.910933,-5107.421000,-15914.427753,-4213.525239
163269.911251,-3627.009116,-16580.613101,0.000000
163269.911570,-2368.659014,-13101.645173,1225.752797
163269.911889,1110.308913,-9474.636058,1149.143247
163269.912207,296.082377,-4811.338623,1838.629195
163269.912526,2368.659014,-1850.514855,0.000000
163269.912845,3552.988522,-1258.350101,0.000000
163269.913163,5847.626942,-5921.647536,-689.485948
163269.913482,1406.391290,-6587.832884,-2911.162892
163269.913801,-1036.288319,-10288.862594,-3294.210641
163269.914119,-3478.967927,-13915.871710,-3370.820191
163269.914438,-3997.112087,-17024.736666,-1838.629195
163269.914757,-1554.432478,-17320.819043,1762.019645
163269.915075,-888.247130,-11991.336260,2451.505594
163269.915394,1332.370696,-7476.080014,1838.629195
163269.915713,1776.494261,-5403.503377,3677.258390
163269.916032,1184.329507,-74.020594,0.000000
163269.916350,2294.638420,-3552.988522,-76.609550
163269.916669,666.185348,-4811.338623,-1915.238745
163269.916988,-592.164754,-8364.327145,-3447.429741
163269.917306,-2738.761985,-11399.171507,-2528.115143
163269.917625,-3404.947333,-14211.954086,-1915.238745
163269.917944,-3034.844362,-16284.530724,1149.143247
163269.918262,-2368.659014,-12509.480420,0.000000
163269.918581,-2960.823768,-10436.903782,2451.505594
163269.918900,-888.247130,-7772.162391,1838.629195
163269.919218,0.000000,-3923.091493,306.438199
163269.919537,1702.473667,-4071.132681,-689.485948
163269.919856,1258.350101,-4959.379811,-1608.800546
163269.920175,-74.020594,-7624.121203,-2987.772442
163269.920493,-2220.617826,-10140.821405,-4903.011187
163269.920812,-4515.256246,-12213.398043,-4290.134789
163269.921131,-4441.235652,-14285.974681,-2451.505594
163269.921449,-3552.988522,-14582.057057,2451.505594
163269.921768,-74.020594,-11843.295072,4060.306139
163269.922087,1110.308913,-8290.306550,3600.648841
163269.922405,1776.494261,-6291.750507,3524.039291
163269.922724,1924.535449,-3997.112087,76.609550
163269.923043,1332.370696,-4219.173869,-1608.800546
163269.923361,296.082377,-6291.750507,-3140.991542
163269.923680,-3552.988522,-7179.997637,-4903.011187
163269.923999,-4441.235652,-11843.295072,-3140.991542
163269.924317,-3182.885551,-13397.727550,-2221.676944
163269.924636,-2072.576638,-14878.139434,2451.505594
163269.924955,0.000000,-11325.150913,2451.505594
163269.925274,2294.638420,-9474.636058,2374.896044
163269.925592,2294.638420,-6809.894666,2987.772442
163269.925911,1480.411884,-3552.988522,612.876398
163269.926230,2146.597232,-2960.823768,-766.095498
163269.926548,1924.535449,-5107.421000,-2604.724693
163269.926867,0.000000,-7179.997637,-3830.477490
163269.927186,-2886.803174,-10436.903782,-4519.963438
163269.927504,-5255.462188,-13249.686362,-3524.039291
163269.927823,-5921.647536,-15470.304188,0.000000
163269.928142,-1628.453072,-15618.345376,2451.505594
163269.928460,-1184.329507,-9548.656652,0.000000
163269.928779,2812.782580,-7994.224174,3830.477490
163269.929098,2812.782580,-4885.359217,2374.896044
163269.929417,2664.741391,-3034.844362,459.657299
163269.929735,1850.514855,-3552.988522,-1608.800546
163269.930054,1702.473667,-5773.606348,-2528.115143
163269.930373,-370.102971,-8956.491898,-4060.306139
163269.930691,-666.185348,-11843.295072,-4366.744339
163269.931010,-2960.823768,-14878.139434,-1685.410096
163269.931329,-888.247130,-17246.798449,3064.381992
163269.931647,-2368.659014,-12509.480420,2451.505594
163269.931966,1332.370696,-9696.697840,2987.772442
163269.932285,1998.556043,-6217.729913,2681.334243
163269.932603,2738.761985,-4071.132681,1991.848295
163269.932922,2294.638420,-1480.411884,-1915.238745
163269.933241,1998.556043,-3997.112087,-1302.362347
163269.933559,-666.185348,-5921.647536,-5286.058936
163269.933878,-4441.235652,-11325.150913,-3677.258390
163269.934197,-4737.318029,-14285.974681,-4903.011187
163269.934516,-3627.009116,-18357.107362,-76.609550
163269.934834,-3552.988522,-14285.974681,1838.629195
163269.935153,-740.205942,-11325.150913,2604.724693
163269.935472,0.000000,-7550.100608,2374.896044
163269.935790,592.164754,-4885.359217,1685.410096
163269.936109,0.000000,-1850.514855,-1225.752797
163269.936428,2886.803174,-4737.318029,-1302.362347
163269.936746,-962.267725,-5551.544565,-3907.087040
163269.937065,-2368.659014,-8364.327145,-5669.106685
163269.937384,-4737.318029,-11917.315666,-3983.696590
163269.937702,-1258.350101,-15396.283594,-2528.115143
163269.938021,-2368.659014,-16062.468941,919.314598
163269.938340,-518.144159,-13767.830521,2757.943793
163269.938658,888.247130,-9252.574275,3140.991542
163269.938977,2294.638420,-7698.141797,3600.648841
163269.939296,1850.514855,-4441.235652,2374.896044
163269.939615,3478.967927,-3256.906145,-76.609550
163269.939933,1332.370696,-3034.844362,-2451.505594
163269.940252,1184.329507,-7179.997637,-919.314598
163269.940571,-2368.659014,-10732.986159,-1838.629195
163269.940889,-4219.173869,-12065.356855,-2987.772442
163269.941208,-4737.318029,-14952.160028,229.828649
163269.941527,-3330.926739,-14211.954086,1685.410096
163269.941845,-814.226536,-11103.089130,3064.381992
163269.942164,2294.638420,-8882.471304,2987.772442
163269.942483,1110.308913,-5329.482782,1608.800546
163269.942801,518.144159,-4737.318029,-76.609550
163269.943120,-666.185348,-3108.864956,-4290.134789
163269.943439,0.000000,-7179.997637,-3677.258390
163269.943758,-1184.329507,-10732.986159,-2145.067394
163269.944076,-3552.988522,-12065.356855,-4290.134789
163269.944395,-2220.617826,-15766.386565,-1149.143247
163269.944714,-888.247130,-15470.304188,1149.143247
163269.945032,1110.308913,-12213.398043,2987.772442
163269.945351,2294.638420,-7698.141797,1762.019645
163269.945670,4663.297435,-7328.038826,3907.087040
163269.945988,4663.297435,-5329.482782,1149.143247
163269.946307,1850.514855,-3997.112087,-1149.143247
163269.946626,1184.329507,-5107.421000,-1225.752797
163269.946944,0.000000,-7772.162391,-3064.381992
163269.947263,-2442.679609,-11843.295072,-4060.306139
163269.947582,-4219.173869,-14211.954086,-2681.334243
163269.947900,-3552.988522,-15766.386565,536.266849
163269.948219,-2812.782580,-12213.398043,1838.629195
163269.948538,0.000000,-8660.409521,4136.915689
163269.948857,1184.329507,-5995.668130,4290.134789
163269.949175,3182.885551,-4145.153275,4366.744339
163269.949494,2294.638420,-2072.576638,-689.485948
163269.949813,0.000000,-3034.844362,0.000000
163269.950131,-1554.432478,-5329.482782,-4903.011187
163269.950450,-3034.844362,-11029.068536,-4596.572988
163269.950769,-4145.153275,-14285.974681,-4826.401637
163269.951087,-4219.173869,-16506.592507,-2604.724693
163269.951406,-666.185348,-16580.613101,-76.609550
163269.951725,0.000000,-13619.789333,2145.067394
163269.952043,518.144159,-9400.615463,2604.724693
163269.952362,1924.535449,-5625.565159,1762.019645
163269.952681,2960.823768,-3256.906145,1685.410096
163269.953000,4145.153275,-4737.318029,1762.019645
163269.953318,2368.659014,-4811.338623,0.000000
163269.953637,2294.638420,-8290.306550,-1915.238745
163269.953956,-1924.535449,-9844.739029,-3294.210641
163269.954274,-3256.906145,-13989.892304,-1225.752797
163269.954593,-4663.297435,-14508.036463,0.000000
163269.954912,-1554.432478,-14656.077652,2681.334243
163269.955230,222.061783,-10658.965565,3370.820191
163269.955549,1036.288319,-7328.038826,3370.820191
163269.955868,2294.638420,-4737.318029,1149.143247
163269.956186,814.226536,-2368.659014,-1225.752797
163269.956505,1332.370696,-5329.482782,-1225.752797
163269.956824,-74.020594,-6809.894666,-3140.991542
163269.957142,-1258.350101,-10658.965565,-4366.744339
163269.957461,-2664.741391,-13101.645173,-919.314598
163269.957780,-4737.318029,-13397.727550,-1225.752797
163269.958099,-1924.535449,-14582.057057,1762.019645
163269.958417,-148.041188,-12139.377449,2757.943793
163269.958736,740.205942,-9104.533087,2681.334243
163269.959055,1110.308913,-4959.379811,0.000000
163269.959373,1184.329507,-4219.173869,0.000000
163269.959692,2294.638420,-4737.318029,-766.095498
163269.960011,2294.638420,-8290.306550,-2834.553343
163269.960329,-2664.741391,-9104.533087,-4903.011187
163269.960648,-1258.350101,-14211.954086,-1915.238745
163269.960967,-4441.235652,-14952.160028,-2298.286494
163269.961285,-2738.761985,-15618.345376,1302.362347
163269.961604,-592.164754,-12879.583391,3677.258390
163269.961923,1332.370696,-8068.244768,5822.325785
163269.962242,2368.659014,-4811.338623,3677.258390
163269.962560,3775.050304,-3997.112087,2451.505594
163269.962879,2664.741391,-3775.050304,612.876398
163269.963198,2294.638420,-5625.565159,-1302.362347
163269.963516,-592.164754,-6883.915261,-5669.106685
163269.963835,-1258.350101,-11843.295072,-4979.620737
163269.964154,-4293.194464,-14285.974681,-4596.572988
163269.964472,-3997.112087,-15988.448347,-1455.581446
163269.964791,-2294.638420,-15766.386565,1455.581446
163269.965110,1998.556043,-14211.954086,4826.401637
163269.965428,2220.617826,-8068.244768,1991.848295
163269.965747,0.000000,-3034.844362,1532.190996
163269.966066,1480.411884,-2442.679609,0.000000
163269.966384,2960.823768,-4219.173869,612.876398
163269.966703,0.000000,-3627.009116,-3677.258390
163269.967022,-222.061783,-8290.306550,-3447.429741
163269.967341,-2516.700203,-12361.439231,-2757.943793
163269.967659,-3923.091493,-15988.448347,-2221.676944
163269.967978,-3478.967927,-16506.592507,459.657299
163269.968297,-370.102971,-14730.098246,2221.676944
163269.968615,0.000000,-8956.491898,3064.381992
163269.968934,2664.741391,-6291.750507,2987.772442
163269.969253,3552.988522,-4811.338623,3677.258390
163269.969571,4367.215058,-3997.112087,1149.143247
163269.969890,1184.329507,-4811.338623,0.000000
163269.970209,592.164754,-7179.997637,-3140.991542
163269.970527,-1036.288319,-10436.903782,-3524.039291
163269.970846,-2220.617826,-13175.665768,-2221.676944
163269.971165,-2516.700203,-15026.180623,0.000000
163269.971483,-2368.659014,-13693.809927,0.000000
163269.971802,0.000000,-11917.315666,3524.039291
163269.972121,0.000000,-5995.668130,1225.752797
163269.972440,444.123565,-5699.585753,1532.190996
163269.972758,1406.391290,-4737.318029,-76.609550
163269.973077,2294.638420,-6365.771101,-76.609550
163269.973396,74.020594,-5551.544565,-2451.505594
163269.973714,-1924.535449,-9400.615463,-3447.429741
163269.974033,-3849.070898,-13027.624579,-3064.381992
163269.974352,-6513.812290,-14285.974681,-1225.752797
163269.974670,-5329.482782,-14878.139434,306.438199
163269.974989,-4145.153275,-11325.150913,1225.752797
163269.975308,0.000000,-9696.697840,2757.943793
163269.975626,1110.308913,-6809.894666,2374.896044
163269.975945,1110.308913,-2220.617826,-995.924147
163269.976264,3478.967927,-4737.318029,-76.609550
163269.976583,1406.391290,-5033.400406,-2298.286494
163269.976901,0.000000,-7772.162391,-3600.648841
163269.977220,-1702.473667,-10732.986159,-3600.648841
163269.977539,-1776.494261,-14582.057057,-1838.629195
163269.977857,-4737.318029,-14878.139434,0.000000
163269.978176,-592.164754,-14656.077652,2757.943793
163269.978495,1998.556043,-12287.418637,5056.230287
163269.978813,2886.803174,-8882.471304,4060.306139
163269.979132,0.000000,-1554.432478,0.000000
163269.979451,1998.556043,-3552.988522,229.828649
163269.979770,1850.514855,-3404.947333,-766.095498
163269.980088,814.226536,-5921.647536,-2068.457845
163269.980407,-1184.329507,-8364.327145,-3140.991542
163269.980726,-3552.988522,-11621.233289,-2834.553343
163269.981045,-5625.565159,-13397.727550,-2145.067394
163269.981364,-2664.741391,-14285.974681,0.000000
163269.981682,0.000000,-13101.645173,2757.943793
163269.982001,148.041188,-9844.739029,4366.744339
163269.982320,1776.494261,-7179.997637,3983.696590
163269.982639,2294.638420,-5625.565159,-76.609550
163269.982958,814.226536,-4367.215058,-2604.724693
163269.983276,0.000000,-6365.771101,-3753.867940
163269.983595,-3552.988522,-7179.997637,-4903.011187
163269.983914,-2960.823768,-10732.986159,-3677.258390
163269.984233,-1258.350101,-14285.974681,-2451.505594
163269.984552,-74.020594,-17024.736666,2911.162892
163269.984871,1406.391290,-13915.871710,3600.648841
163269.985189,2294.638420,-9474.636058,2987.772442
163269.985508,4071.132681,-8290.306550,3830.477490
163269.985827,2294.638420,-4737.318029,1915.238745
163269.986146,2220.617826,-4737.318029,153.219100
163269.986465,1110.308913,-5107.421000,-1225.752797
163269.986783,0.000000,-7179.997637,-2145.067394
163269.987102,-2738.761985,-10584.944971,-6128.763984
163269.987421,-4737.318029,-13989.892304,-2451.505594
163269.987740,-4219.173869,-15988.448347,-689.485948
163269.988059,-3034.844362,-16580.613101,2374.896044
163269.988377,-74.020594,-11843.295072,3600.648841
163269.988696,0.000000,-7179.997637,2911.162892
163269.989015,1110.308913,-4515.256246,2374.896044
163269.989334,1628.453072,-3108.864956,689.485948
163269.989653,2294.638420,-5181.441594,-76.609550
163269.989972,-2072.576638,-6069.688724,-3140.991542
163269.990290,-1850.514855,-8586.388927,-5592.497135
163269.990609,-4145.153275,-13101.645173,-4749.792088
163269.990928,-3552.988522,-16062.468941,-2451.505594
163269.991247,-666.185348,-18357.107362,-383.047749
163269.991566,962.267725,-15692.365970,2987.772442
163269.991884,962.267725,-10288.862594,3140.991542
163269.992203,2294.638420,-6587.832884,2681.334243
163269.992522,3108.864956,-3849.070898,1838.629195
163269.992841,2368.659014,-1554.432478,1838.629195
163269.993160,3478.967927,-3849.070898,-383.047749
163269.993478,2590.720797,-6513.812290,-76.609550
163269.993797,-74.020594,-10658.965565,-2528.115143
163269.994116,-3552.988522,-12213.398043,-2451.505594
163269.994435,-1850.514855,-15988.448347,-76.609550
163269.994754,-3701.029710,-15174.221811,1532.190996
163269.995073,-592.164754,-12509.480420,2681.334243
163269.995391,814.226536,-8660.409521,2987.772442
163269.995710,1332.370696,-5995.668130,2374.896044
163269.996029,0.000000,-2442.679609,0.000000
163269.996348,518.144159,-3330.926739,-2528.115143
163269.996667,-222.061783,-5329.482782,-3600.648841
163269.996985,-1406.391290,-8956.491898,-4366.744339
163269.997304,-3182.885551,-10066.800811,-3064.381992
163269.997623,-2442.679609,-13101.645173,-2451.505594
163269.997942,-666.185348,-15692.365970,536.266849
163269.998261,-814.226536,-13471.748144,1455.581446
163269.998579,0.000000,-9548.656652,1838.629195
163269.998898,3182.885551,-9178.553681,3600.648841
163269.999217,2368.659014,-5403.503377,2145.067394
163269.999536,2442.679609,-4367.215058,-536.266849
163269.999855,2516.700203,-4885.359217,-1685.410096
163270.000174,592.164754,-7550.100608,-2374.896044
163270.000492,-2072.576638,-10140.821405,-3064.381992
163270.000811,-4145.153275,-13471.748144,-3064.381992
163270.001130,-4737.318029,-15470.304188,-1225.752797
163270.001449,-5921.647536,-13101.645173,0.000000
163270.001768,-1184.329507,-11325.150913,3677.258390
163270.002086,2294.638420,-8290.306550,2987.772442
163270.002405,2072.576638,-4219.173869,2451.505594
163270.002724,2072.576638,-3034.844362,995.924147
163270.003043,1406.391290,-3849.070898,-689.485948
163270.003362,-148.041188,-6291.750507,-2528.115143
163270.003680,-1332.370696,-10584.944971,-2604.724693
163270.003999,-3182.885551,-13027.624579,-2528.115143
163270.004318,-2738.761985,-15988.448347,-3753.867940
163270.004637,-3923.091493,-15618.345376,-1455.581446
163270.004956,-2220.617826,-13693.809927,1225.752797
163270.005274,-1850.514855,-9548.656652,612.876398
163270.005593,1184.329507,-7105.977043,1915.238745
163270.005912,1924.535449,-4219.173869,919.314598
163270.006231,2516.700203,-2812.782580,-306.438199
163270.006550,3478.967927,-4737.318029,-76.609550
163270.006869,3478.967927,-7994.224174,-1302.362347
163270.007187,-74.020594,-11251.130318,-1608.800546
163270.007506,-4071.132681,-11917.315666,-3064.381992
163270.007825,-3849.070898,-14285.974681,-1838.629195
163270.008144,-1036.288319,-15174.221811,4290.134789
163270.008463,0.000000,-9844.739029,3064.381992
163270.008781,2072.576638,-7846.182985,3140.991542
163270.009100,2072.576638,-5329.482782,2145.067394
163270.009419,1850.514855,-3997.112087,0.000000
163270.009738,1110.308913,-4145.153275,-2528.115143
163270.010057,1110.308913,-7624.121203,-2528.115143
163270.010375,-666.185348,-9474.636058,-3753.867940
163270.010694,-2442.679609,-11843.295072,-2528.115143
163270.011013,-2738.761985,-13027.624579,-1991.848295
163270.011332,-74.020594,-17172.777854,3600.648841
163270.011651,0.000000,-11991.336260,2757.943793
163270.011970,1480.411884,-9696.697840,2911.162892
163270.012288,1258.350101,-5921.647536,2145.067394
163270.012607,1110.308913,-4885.359217,1378.971896
163270.012926,1776.494261,-4811.338623,-1608.800546
163270.013245,1406.391290,-6661.853478,-2681.334243
163270.013564,-1258.350101,-9474.636058,-3140.991542
163270.013882,-4737.318029,-10436.903782,-6435.202183
163270.014201,-5329.482782,-14878.139434,-4903.011187
163270.014520,-2442.679609,-16580.613101,-1302.362347
163270.014839,-2664.741391,-14137.933492,2145.067394
163270.015158,592.164754,-10732.986159,3753.867940
163270.015476,2738.761985,-6661.853478,3907.087040
163270.015795,4441.235652,-5625.565159,5439.278036
163270.016114,3997.112087,-3108.864956,2987.772442
163270.016433,2812.782580,-4811.338623,919.314598
163270.016752,2294.638420,-7698.141797,-2068.457845
163270.017071,-2812.782580,-9548.656652,-4749.792088
163270.017389,-5921.647536,-11917.315666,-4903.011187
163270.017708,-3330.926739,-15840.407159,-2528.115143
163270.018027,-2516.700203,-16580.613101,766.095498
163270.018346,-814.226536,-13471.748144,2681.334243
163270.018665,1036.288319,-9104.533087,3294.210641
163270.018983,3478.967927,-7105.977043,2987.772442
163270.019302,0.000000,-1850.514855,612.876398
163270.019621,2368.659014,-3256.906145,995.924147
163270.019940,2294.638420,-4737.318029,-383.047749
163270.020259,2294.638420,-9178.553681,-1915.238745
163270.020577,-3552.988522,-10732.986159,-1838.629195
163270.020896,-4219.173869,-13989.892304,-2834.553343
163270.021215,-4145.153275,-16210.510130,-995.924147
163270.021534,-2146.597232,-14730.098246,1225.752797
163270.021853,222.061783,-11917.315666,1838.629195
163270.022172,1332.370696,-7624.121203,1225.752797
163270.022490,740.205942,-5107.421000,1225.752797
163270.022809,2368.659014,-4219.173869,0.000000
163270.023128,3478.967927,-5921.647536,-383.047749
163270.023447,-74.020594,-5921.647536,-3753.867940
163270.023766,592.164754,-11769.274478,-1302.362347
163270.024084,-1554.432478,-12213.398043,-2451.505594
163270.024403,-1406.391290,-14359.995275,153.219100
163270.024722,-370.102971,-14434.015869,2987.772442
163270.025041,0.000000,-10732.986159,3677.258390
163270.025360,888.247130,-7772.162391,3677.258390
163270.025678,1776.494261,-5551.544565,0.000000
163270.025997,2368.659014,-6439.791695,2298.286494
163270.026316,1702.473667,-4737.318029,-1915.238745
163270.026635,-74.020594,-4737.318029,-3753.867940
163270.026954,-666.185348,-9474.636058,-4060.306139
163270.027273,-4589.276840,-11843.295072,-4596.572988
163270.027591,-5477.523971,-14508.036463,-3370.820191
163270.027910,-4219.173869,-14878.139434,-383.047749
163270.028229,-2368.659014,-13693.809927,3447.429741
163270.028548,222.061783,-9548.656652,1225.752797
163270.028867,1776.494261,-7179.997637,4290.134789
163270.029185,3182.885551,-4737.318029,2374.896044
163270.029504,1184.329507,-1258.350101,-2681.334243
163270.029823,3182.885551,-5773.606348,-2528.115143
163270.030142,-1036.288319,-7624.121203,-4749.792088
163270.030461,-2516.700203,-11177.109724,-4979.620737
163270.030779,-3182.885551,-14211.954086,-4290.134789
163270.031098,-1850.514855,-18357.107362,-76.609550
163270.031417,-2960.823768,-15840.407159,1762.019645
163270.031736,1110.308913,-11843.295072,2834.553343
163270.032055,1480.411884,-7920.203579,3140.991542
163270.032374,2368.659014,-3627.009116,3677.258390
163270.032692,4663.297435,-3552.988522,2068.457845
163270.033011,4663.297435,-3849.070898,2374.896044
163270.033330,2368.659014,-4219.173869,-766.095498
163270.033649,222.061783,-7772.162391,-2374.896044
163270.033968,-2664.741391,-11473.192101,-2681.334243
163270.034286,-5921.647536,-13101.645173,-1225.752797
163270.034605,-4811.338623,-16432.571912,-612.876398
163270.034924,-2146.597232,-15100.201217,2451.505594
163270.035243,1998.556043,-12435.459826,3600.648841
163270.035562,518.144159,-6069.688724,1762.019645
163270.035880,2886.803174,-5921.647536,-76.609550
163270.036199,888.247130,-3108.864956,-612.876398
163270.036518,592.164754,-4589.276840,-2298.286494
163270.036837,0.000000,-6513.812290,-3370.820191
163270.037156,-1628.453072,-10881.027347,-2528.115143
163270.037474,-4737.318029,-11917.315666,-2451.505594
163270.037793,-2146.597232,-15988.448347,-383.047749
163270.038112,-814.226536,-14804.118840,1838.629195
163270.038431,1184.329507,-11991.336260,3447.429741
163270.038750,2294.638420,-7402.059420,2834.553343
163270.039069,4663.297435,-7105.977043,3600.648841
163270.039387,3478.967927,-4737.318029,1149.143247
163270.039706,1554.432478,-4441.235652,-689.485948
163270.040025,-1480.411884,-4811.338623,-3983.696590
163270.040344,-74.020594,-11251.130318,-1302.362347
163270.040663,-4737.318029,-12213.398043,-2451.505594
163270.040981,-4737.318029,-14582.057057,-2068.457845
163270.041300,-3997.112087,-15322.262999,1072.533697
163270.041619,-1480.411884,-13175.665768,2987.772442
163270.041938,296.082377,-8068.244768,3677.258390
163270.042257,740.205942,-5033.400406,3064.381992
163270.042575,1702.473667,-3478.967927,2374.896044
163270.042894,2294.638420,-3552.988522,-1302.362347
163270.043213,0.000000,-4219.173869,-3370.820191
163270.043532,-74.020594,-8290.306550,-4366.744339
163270.043851,-3404.947333,-11325.150913,-4903.011187
163270.044170,-3923.091493,-15026.180623,-4443.353888
163270.044488,-3701.029710,-17172.777854,-2145.067394
163270.044807,-1850.514855,-15766.386565,1455.581446
163270.045126,962.267725,-13545.768739,3600.648841
163270.045445,1554.432478,-8290.306550,4136.915689
163270.045764,2738.761985,-5329.482782,0.000000
163270.046082,3775.050304,-2960.823768,1149.143247
163270.046401,2960.823768,-666.185348,-1838.629195
163270.046720,1184.329507,-3034.844362,-1838.629195
163270.047039,1406.391290,-9178.553681,-1915.238745
163270.047358,-1776.494261,-11325.150913,-1915.238745
163270.047676,-3701.029710,-14656.077652,-1915.238745
163270.047995,-3034.844362,-14656.077652,229.828649
163270.048314,-1258.350101,-13619.789333,2374.896044
163270.048633,2294.638420,-10658.965565,3600.648841
163270.048952,962.267725,-6143.709319,1991.848295
163270.049271,888.247130,-2738.761985,536.266849
163270.049589,2294.638420,-4737.318029,1149.143247
163270.049908,0.000000,-3034.844362,-2451.505594
163270.050227,-666.185348,-6809.894666,-4060.306139
163270.050546,-1628.453072,-10214.842000,-3217.601092
163270.050865,-2368.659014,-12805.562797,-2145.067394
163270.051183,-3034.844362,-14211.954086,-76.609550
163270.051502,-74.020594,-15396.283594,2987.772442
163270.051821,1110.308913,-11843.295072,2834.553343
163270.052140,1702.473667,-9474.636058,3907.087040
163270.052459,1110.308913,-4737.318029,383.047749
163270.052777,4663.297435,-7105.977043,-76.609550
163270.053096,1480.411884,-5699.585753,-1991.848295
163270.053415,222.061783,-7105.977043,-3064.381992
163270.053734,-2146.597232,-9844.739029,-4519.963438
163270.054053,-3775.050304,-12953.603985,-2834.553343
163270.054372,-3182.885551,-15692.365970,-1302.362347
163270.054690,-1850.514855,-15840.407159,1991.848295
163270.055009,-222.061783,-12435.459826,4213.525239
163270.055328,0.000000,-7179.997637,3370.820191
163270.055647,2368.659014,-5107.421000,3064.381992
163270.055966,2294.638420,-2072.576638,995.924147
163270.056284,1406.391290,-3775.050304,0.000000
163270.056603,296.082377,-5033.400406,-2528.115143
163270.056922,-1998.556043,-8808.450710,-4826.401637
163270.057241,-3034.844362,-14211.954086,-3753.867940
163270.057560,-2738.761985,-16580.613101,-3753.867940
163270.057878,-2442.679609,-18949.272115,-76.609550
163270.058197,-370.102971,-15988.448347,1762.019645
163270.058516,-74.020594,-11251.130318,3600.648841
163270.058835,0.000000,-5995.668130,3677.258390
163270.059154,370.102971,-2738.761985,995.924147
163270.059473,2220.617826,-2516.700203,842.705048
163270.059791,2368.659014,-3034.844362,-1072.533697
163270.060110,1628.453072,-5625.565159,-2298.286494
163270.060429,-74.020594,-9474.636058,-2528.115143
163270.060748,-2664.741391,-13545.768739,-1838.629195
163270.061067,-3034.844362,-16580.613101,-2528.115143
163270.061385,-4071.132681,-15248.242405,0.000000
163270.061704,-2442.679609,-11547.212695,76.609550
163270.062023,2960.823768,-11843.295072,6511.811733
163270.062342,1776.494261,-5773.606348,3064.381992
163270.062661,2664.741391,-3552.988522,1532.190996
163270.062979,1924.535449,-2368.659014,-153.219100
163270.063298,1184.329507,-4959.379811,-2451.505594
163270.063617,1554.432478,-7698.141797,-2528.115143
163270.063936,-74.020594,-11325.150913,-1991.848295
163270.064255,-1258.350101,-13471.748144,-689.485948
163270.064573,-666.185348,-15396.283594,-76.609550
163270.064892,-1776.494261,-11917.315666,306.438199
163270.065211,3478.967927,-13027.624579,3294.210641
163270.065530,592.164754,-7550.100608,1991.848295
163270.065849,1184.329507,-5699.585753,919.314598
163270.066168,1110.308913,-4737.318029,-536.266849
163270.066486,2072.576638,-5995.668130,-76.609550
163270.066805,0.000000,-7550.100608,-2451.505594
163270.067124,-1850.514855,-10288.862594,-3370.820191
163270.067443,-2442.679609,-14211.954086,-3140.991542
163270.067762,-5699.585753,-14359.995275,-3064.381992
163270.068080,-4737.318029,-12213.398043,0.000000
163270.068399,-74.020594,-12435.459826,3140.991542
163270.068718,1332.370696,-8290.306550,3983.696590
163270.069037,2664.741391,-5921.647536,2681.334243
163270.069356,2294.638420,-3478.967927,1225.752797
163270.069674,4071.132681,-5921.647536,-76.609550
163270.069993,888.247130,-5921.647536,-2451.505594
163270.070312,-74.020594,-10658.965565,-3140.991542
163270.070631,-2442.679609,-12435.459826,-4979.620737
163270.070950,-3404.947333,-14804.118840,-3140.991542
163270.071269,-2146.597232,-14656.077652,-1838.629195
163270.071587,-74.020594,-15026.180623,2834.553343
163270.071906,666.185348,-10140.821405,3600.648841
163270.072225,1776.494261,-6587.832884,3217.601092
163270.072544,2294.638420,-4737.318029,2374.896044
163270.072863,1776.494261,-1554.432478,612.876398
163270.073181,148.041188,-1554.432478,-1225.752797
163270.073500,592.164754,-6957.935855,-1838.629195
163270.073819,-1850.514855,-13027.624579,-1302.362347
163270.074138,-6587.832884,-11917.315666,-5975.544884
163270.074457,-4811.338623,-15988.448347,-1915.238745
163270.074775,-4071.132681,-15470.304188,229.828649
163270.075094,-1332.370696,-13249.686362,1991.848295
163270.075413,518.144159,-9030.512492,2451.505594
163270.075732,3182.885551,-7550.100608,4826.401637
163270.076051,1924.535449,-3701.029710,536.266849
163270.076370,814.226536,-2738.761985,-1915.238745
163270.076688,-2368.659014,-3034.844362,-4290.134789
163270.077007,592.164754,-9400.615463,-2145.067394
163270.077326,-1554.432478,-9770.718434,-4596.572988
163270.077645,-370.102971,-15100.201217,-995.924147
163270.077964,-962.267725,-15544.324782,1302.362347
163270.078282,0.000000,-13249.686362,2757.943793
163270.078601,1258.350101,-10510.924376,3370.820191
163270.078920,4367.215058,-9474.636058,4213.525239
163270.079239,1924.535449,-5033.400406,1302.362347
163270.079557,2146.597232,-4367.215058,306.438199
163270.079876,1184.329507,-4367.215058,-1991.848295
163270.080195,1406.391290,-8364.327145,-1838.629195
163270.080514,-3256.906145,-8364.327145,-4290.134789
163270.080833,-7105.977043,-11917.315666,-2451.505594
163270.081151,-3775.050304,-16284.530724,-76.609550
163270.081470,-2442.679609,-16580.613101,3600.648841
163270.081789,-2812.782580,-9548.656652,1225.752797
163270.082108,-74.020594,-6365.771101,1762.019645
163270.082426,666.185348,-5255.462188,1455.581446
163270.082745,1702.473667,-4737.318029,-1149.143247
163270.083064,0.000000,-4811.338623,-1838.629195
163270.083383,1110.308913,-7698.141797,-1302.362347
163270.083701,-2960.823768,-8956.491898,-5822.325785
163270.084020,-3923.091493,-12879.583391,-5056.230287
163270.084339,-4145.153275,-14285.974681,-5209.449386
163270.084658,-3552.988522,-15766.386565,0.000000
163270.084977,0.000000,-13693.809927,4290.134789
163270.085295,1184.329507,-9548.656652,3294.210641
163270.085614,2812.782580,-6069.688724,3447.429741
163270.085933,2664.741391,-3404.947333,1915.238745
163270.086252,3478.967927,-2738.761985,995.924147
163270.086570,2368.659014,-2590.720797,-1838.629195
163270.086889,1702.473667,-6291.750507,-2145.067394
163270.087208,-1776.494261,-10140.821405,-1685.410096
163270.087527,-1850.514855,-14211.954086,-1302.362347
163270.087845,-3627.009116,-15396.283594,-766.095498
163270.088164,-370.102971,-17172.777854,4826.401637
163270.088483,-592.164754,-11917.315666,2757.943793
163270.088802,740.205942,-8364.327145,2911.162892
163270.089121,814.226536,-5181.441594,1302.362347
163270.089439,1184.329507,-3330.926739,612.876398
163270.089758,0.000000,-3034.844362,-1225.752797
163270.090077,888.247130,-5995.668130,-1838.629195
163270.090396,-74.020594,-10066.800811,-3140.991542
163270.090714,-2590.720797,-11473.192101,-3140.991542
163270.091033,-4367.215058,-13101.645173,-2987.772442
163270.091352,-74.020594,-16284.530724,1149.143247
163270.091671,148.041188,-13545.768739,2221.676944
163270.091989,1776.494261,-10214.842000,3370.820191
163270.092308,2442.679609,-7105.977043,2451.505594
163270.092627,4441.235652,-6291.750507,2757.943793
163270.092946,592.164754,-2442.679609,-1838.629195
163270.093265,1480.411884,-5995.668130,-919.314598
163270.093583,814.226536,-8734.430116,-2528.115143
163270.093902,-1258.350101,-11251.130318,-4366.744339
163270.094221,-5921.647536,-11325.150913,-3677.258390
163270.094540,-3034.844362,-14804.118840,-153.219100
163270.094858,-1628.453072,-13693.809927,2987.772442
163270.095177,518.144159,-9844.739029,4826.401637
163270.095496,1998.556043,-6735.874072,4213.525239
163270.095815,2886.803174,-4441.235652,2068.457845
163270.096133,0.000000,-1850.514855,0.000000
163270.096452,222.061783,-3627.009116,-3677.258390
163270.096771,-1184.329507,-7772.162391,-2604.724693
163270.097090,-2738.761985,-11843.295072,-4366.744339
163270.097409,-6513.812290,-14285.974681,-4290.134789
163270.097727,-5329.482782,-15470.304188,-4060.306139
163270.098046,-3404.947333,-16062.468941,-383.047749
163270.098365,-1258.350101,-14137.933492,1685.410096
163270.098684,-1776.494261,-8364.327145,612.876398
163270.099002,0.000000,-3627.009116,0.000000
163270.099321,2442.679609,-3256.906145,536.266849
163270.099640,1776.494261,-1258.350101,0.000000
163270.099959,2664.741391,-5255.462188,0.000000
163270.100277,3182.885551,-8290.306550,-1302.362347
163270.100596,-444.123565,-11843.295072,-1991.848295
163270.100915,-3108.864956,-14434.015869,-2451.505594
163270.101234,-3997.112087,-16654.633695,-383.047749
163270.101553,-2368.659014,-14730.098246,1149.143247
163270.101871,0.000000,-10732.986159,2451.505594
163270.102190,370.102971,-7105.977043,2068.457845
163270.102509,1110.308913,-3997.112087,842.705048
163270.102828,1184.329507,-2442.679609,612.876398
163270.103146,1776.494261,-3034.844362,0.000000
163270.103465,-74.020594,-4145.153275,-4366.744339
163270.103784,-814.226536,-9474.636058,-2834.553343
163270.104103,-2220.617826,-11991.336260,-2145.067394
163270.104421,-2294.638420,-14508.036463,-153.219100
163270.104740,-1258.350101,-15470.304188,2068.457845
163270.105059,0.000000,-12213.398043,2528.115143
163270.105378,814.226536,-8882.471304,1455.581446
163270.105697,0.000000,-5107.421000,612.876398
163270.106015,0.000000,-3627.009116,0.000000
163270.106334,2294.638420,-6513.812290,-76.609550
163270.106653,-2368.659014,-3627.009116,-5975.544884
163270.106972,-1184.329507,-9030.512492,-4290.134789
163270.107290,-3701.029710,-11843.295072,-4290.134789
163270.107609,-4441.235652,-14285.974681,-2374.896044
163270.107928,-2442.679609,-15100.201217,-76.609550
163270.108247,518.144159,-12731.542202,3600.648841
163270.108565,1332.370696,-8068.244768,4826.401637
163270.108884,4071.132681,-5921.647536,3600.648841
163270.109203,1480.411884,-3034.844362,1225.752797
163270.109522,3108.864956,-5847.626942,2987.772442
163270.109841,0.000000,-4811.338623,-2451.505594
163270.110159,-888.247130,-8216.285956,-4443.353888
163270.110478,-3330.926739,-11843.295072,-5132.839837
163270.110797,-4219.173869,-14211.954086,-4673.182538
163270.111116,-4515.256246,-13989.892304,-4519.963438
163270.111434,-1998.556043,-15248.242405,2221.676944
163270.111753,-2368.659014,-9548.656652,1838.629195
163270.112072,592.164754,-7772.162391,4290.134789
163270.112391,2294.638420,-4737.318029,3370.820191
163270.112709,1776.494261,-2442.679609,3064.381992
163270.113028,2812.782580,-1924.535449,153.219100
163270.113347,2072.576638,-4737.318029,-1378.971896
163270.113666,-518.144159,-8364.327145,-3294.210641
163270.113985,-3775.050304,-12213.398043,-4903.011187
163270.114303,-4811.338623,-15988.448347,-3753.867940
163270.114622,-3627.009116,-18949.272115,-76.609550
163270.114941,-1850.514855,-15396.283594,536.266849
163270.115260,0.000000,-10955.047942,2374.896044
163270.115578,592.164754,-7179.997637,3677.258390
163270.115897,0.000000,-2442.679609,612.876398
163270.116216,3404.947333,-2368.659014,229.828649
163270.116535,2960.823768,-3923.091493,-842.705048
163270.116853,1554.432478,-6069.688724,-1915.238745
163270.117172,-666.185348,-7846.182985,-4060.306139
163270.117491,-1554.432478,-13101.645173,-1762.019645
163270.117810,-2960.823768,-15470.304188,0.000000
163270.118129,-2368.659014,-14285.974681,1532.190996
163270.118447,370.102971,-13323.706956,3830.477490
163270.118766,0.000000,-7476.080014,2451.505594
163270.119085,444.123565,-5847.626942,383.047749
163270.119404,1258.350101,-4441.235652,0.000000
163270.119722,1258.350101,-3256.906145,-919.314598
163270.120041,296.082377,-5773.606348,-2451.505594
163270.120360,-74.020594,-9474.636058,-4979.620737
163270.120679,-3849.070898,-11621.233289,-3677.258390
163270.120997,-4737.318029,-13471.748144,-1608.800546
163270.121316,-3627.009116,-14730.098246,689.485948
163270.121635,-666.185348,-14211.954086,4213.525239
163270.121954,888.247130,-10436.903782,4826.401637
163270.122273,0.000000,-5403.503377,2451.505594
163270.122591,1332.370696,-4811.338623,919.314598
163270.122910,2664.741391,-6439.791695,-76.609550
163270.123229,0.000000,-3923.091493,-4903.011187
163270.123548,-1850.514855,-6957.935855,-5822.325785
163270.123866,-2442.679609,-11695.253884,-4979.620737
163270.124185,-2664.741391,-14434.015869,-3447.429741
163270.124504,-2368.659014,-16062.468941,-842.705048
163270.124823,-666.185348,-15174.221811,2757.943793
163270.125141,1110.308913,-11547.212695,3600.648841
163270.125460,2738.761985,-9030.512492,4060.306139
163270.125779,3330.926739,-6883.915261,4749.792088
163270.126098,4071.132681,-4367.215058,2374.896044
163270.126417,2664.741391,-2738.761985,919.314598
163270.126735,1332.370696,-4811.338623,-2451.505594
163270.127054,-296.082377,-9030.512492,-3140.991542
163270.127373,-3478.967927,-12509.480420,-3600.648841
163270.127692,-5033.400406,-14952.160028,-3064.381992
163270.128010,-5329.482782,-15100.201217,-2451.505594
163270.128329,-2368.659014,-14359.995275,1838.629195
163270.128648,0.000000,-9844.739029,3677.258390
163270.128967,2590.720797,-7105.977043,2987.772442
163270.129285,2294.638420,-3997.112087,1685.410096
163270.129604,3330.926739,-4737.318029,2298.286494
163270.129923,888.247130,-3849.070898,-2145.067394
163270.130242,814.226536,-6735.874072,-3447.429741
163270.130561,-814.226536,-10066.800811,-3140.991542
163270.130879,-1776.494261,-12509.480420,0.000000
163270.131198,-2368.659014,-14285.974681,0.000000
163270.131517,-2368.659014,-13101.645173,0.000000
163270.131836,888.247130,-11917.315666,3677.258390
163270.132154,2590.720797,-9104.533087,3677.258390
163270.132473,2294.638420,-4885.359217,0.000000
163270.132792,4663.297435,-4737.318029,1762.019645
163270.133111,2072.576638,-4293.194464,-995.924147
163270.133429,1258.350101,-6365.771101,-1685.410096
163270.133748,-1332.370696,-9030.512492,-3753.867940
163270.134067,-4145.153275,-11917.315666,-2451.505594
163270.134386,-4811.338623,-13175.665768,-2221.676944
163270.134705,-4145.153275,-14285.974681,1532.190996
163270.135023,-1036.288319,-11325.150913,1225.752797
163270.135342,592.164754,-8956.491898,5515.887586
163270.135661,0.000000,-4811.338623,1225.752797
163270.135980,1110.308913,-4145.153275,842.705048
163270.136298,148.041188,-4071.132681,-1838.629195
163270.136617,-666.185348,-5699.585753,-3524.039291
163270.136936,-2146.597232,-8882.471304,-5209.449386
163270.137255,-4145.153275,-12065.356855,-5439.278036
163270.137573,-5921.647536,-14582.057057,-5515.887586
163270.137892,-4367.215058,-15470.304188,-4290.134789
163270.138211,-2368.659014,-15470.304188,1838.629195
163270.138530,1110.308913,-12435.459826,4519.963438
163270.138849,592.164754,-7179.997637,4903.011187
163270.139167,2886.803174,-3404.947333,2757.943793
163270.139486,3997.112087,-2146.597232,1685.410096
163270.139805,3552.988522,-3108.864956,306.438199
163270.140124,0.000000,-4811.338623,-3370.820191
163270.140442,-2368.659014,-7476.080014,-4596.572988
163270.140761,-3552.988522,-11621.233289,-5286.058936
163270.141080,-6513.812290,-14582.057057,-2451.505594
163270.141399,-3849.070898,-16950.716072,919.314598
163270.141717,-74.020594,-15988.448347,3600.648841
163270.142036,1332.370696,-10732.986159,4290.134789
163270.142355,1258.350101,-5921.647536,2451.505594
163270.142674,1554.432478,-3108.864956,1608.800546
163270.142993,1332.370696,-1850.514855,-383.047749
163270.143311,0.000000,-2442.679609,-3677.258390
163270.143630,-1184.329507,-6809.894666,-2834.553343
163270.143949,-2738.761985,-9548.656652,-3983.696590
163270.144268,-2220.617826,-14211.954086,-1378.971896
163270.144586,-1258.350101,-16358.551318,1532.190996
163270.144905,-74.020594,-13915.871710,842.705048
163270.145224,666.185348,-12509.480420,2528.115143
163270.145543,1036.288319,-8216.285956,1149.143247
163270.145861,1184.329507,-5995.668130,153.219100
163270.146180,1850.514855,-5403.503377,-689.485948
163270.146499,0.000000,-4515.256246,-2451.505594
163270.146818,-74.020594,-7402.059420,-3140.991542
163270.147137,-2072.576638,-9548.656652,-3677.258390
163270.147455,-2368.659014,-11325.150913,-1838.629195
163270.147774,-962.267725,-15396.283594,1685.410096
163270.148093,-3552.988522,-11325.150913,1225.752797
163270.148412,1332.370696,-11547.212695,5209.449386
163270.148730,2368.659014,-7624.121203,4903.011187
163270.149049,2220.617826,-5181.441594,3217.601092
163270.149368,1998.556043,-3552.988522,-76.609550
163270.149687,1554.432478,-4441.235652,-1302.362347
163270.150005,-1332.370696,-5107.421000,-4519.963438
163270.150324,-4737.318029,-7179.997637,-6128.763984
163270.150643,-4145.153275,-13989.892304,-4290.134789
163270.150962,-3404.947333,-16358.551318,-1302.362347
163270.151281,-5921.647536,-14878.139434,0.000000
163270.151599,-1850.514855,-14137.933492,2451.505594
163270.151918,0.000000,-10066.800811,3064.381992
163270.152237,1628.453072,-6069.688724,3447.429741
163270.152556,2590.720797,-2146.597232,0.000000
163270.152874,3182.885551,-2664.741391,1455.581446
163270.153193,0.000000,-1554.432478,-2451.505594
163270.153512,1036.288319,-7179.997637,-2145.067394
163270.153831,-1258.350101,-10955.047942,-3983.696590
163270.154149,-4737.318029,-14285.974681,-3370.820191
163270.154468,-5107.421000,-16876.695478,-2987.772442
163270.154787,-3182.885551,-16654.633695,459.657299
163270.155106,0.000000,-12805.562797,2528.115143
163270.155425,2664.741391,-8660.409521,3370.820191
163270.155743,4663.297435,-5921.647536,4443.353888
163270.156062,4589.276840,-4071.132681,2681.334243
163270.156381,2886.803174,-2146.597232,-76.609550
163270.156700,1184.329507,-2146.597232,-3447.429741
163270.157018,296.082377,-8364.327145,-1838.629195
163270.157337,-3552.988522,-10140.821405,-3370.820191
163270.157656,-2368.659014,-13471.748144,-1378.971896
163270.157975,-2590.720797,-15840.407159,306.438199
163270.158293,-1184.329507,-14582.057057,1455.581446
163270.158612,1110.308913,-9178.553681,536.266849
163270.158931,0.000000,-7179.997637,1838.629195
163270.159250,592.164754,-5403.503377,766.095498
163270.159569,2368.659014,-5403.503377,689.485948
163270.159887,2294.638420,-5921.647536,-1915.238745
163270.160206,-2368.659014,-5995.668130,-3677.258390
163270.160525,-3330.926739,-9992.780217,-4443.353888
163270.160844,-3997.112087,-12879.583391,-2987.772442
163270.161162,-3256.906145,-14434.015869,-383.047749
163270.161481,-1702.473667,-14582.057057,2374.896044
163270.161800,2294.638420,-11843.295072,3600.648841
163270.162119,1776.494261,-7179.997637,3983.696590
163270.162437,2294.638420,-4737.318029,2528.115143
163270.162756,2368.659014,-4219.173869,0.000000
163270.163075,2294.638420,-6217.729913,-76.609550
163270.163394,0.000000,-7920.203579,-2528.115143
163270.163712,-4737.318029,-9548.656652,-4903.011187
163270.164031,-2442.679609,-14211.954086,-4060.306139
163270.164350,-4071.132681,-15100.201217,-2834.553343
163270.164669,-4145.153275,-14285.974681,0.000000
163270.164988,-666.185348,-12139.377449,2681.334243
163270.165306,1554.432478,-9252.574275,4366.744339
163270.165625,2442.679609,-5181.441594,3677.258390
163270.165944,2886.803174,-3330.926739,2374.896044
163270.166263,3775.050304,-2072.576638,1762.019645
163270.166581,2886.803174,-3849.070898,-995.924147
163270.166900,0.000000,-7476.080014,-3064.381992
163270.167219,-2738.761985,-11843.295072,-4979.620737
163270.167538,-7105.977043,-13397.727550,-6128.763984
163270.167856,-6513.812290,-17246.798449,-1225.752797
163270.168175,-4589.276840,-16358.551318,-919.314598
163270.168494,-888.247130,-12731.542202,2145.067394
163270.168813,592.164754,-7920.203579,2757.943793
163270.169132,1480.411884,-4959.379811,1455.581446
163270.169450,1628.453072,-1554.432478,0.000000
163270.169769,2072.576638,-2146.597232,-919.314598
163270.170088,0.000000,-2442.679609,-2451.505594
163270.170407,2294.638420,-9474.636058,-1915.238745
163270.170725,-518.144159,-11843.295072,-2068.457845
163270.171044,-518.144159,-16580.613101,2374.896044
163270.171363,-1776.494261,-15618.345376,1149.143247
163270.171682,74.020594,-14211.954086,2451.505594
163270.172000,1110.308913,-10881.027347,2374.896044
163270.172319,592.164754,-6587.832884,1838.629195
163270.172638,0.000000,-3627.009116,612.876398
163270.172957,0.000000,-2442.679609,-2451.505594
163270.173276,592.164754,-5699.585753,-1225.752797
163270.173594,-74.020594,-8586.388927,-689.485948
163270.173913,-3330.926739,-8882.471304,-4060.306139
163270.174232,-1554.432478,-13619.789333,-383.047749
163270.174551,-3478.967927,-13249.686362,1072.533697
163270.174869,-1258.350101,-12879.583391,3447.429741
163270.175188,666.185348,-9622.677246,3983.696590
163270.175507,592.164754,-6291.750507,3983.696590
163270.175826,222.061783,-4219.173869,0.000000
163270.176144,0.000000,-4811.338623,-1225.752797
163270.176463,-222.061783,-6809.894666,-2451.505594
163270.176782,-370.102971,-8290.306550,-6205.373534
163270.177101,-5921.647536,-9548.656652,-7967.393179
163270.177420,-3627.009116,-14211.954086,-4979.620737
163270.177738,-3478.967927,-16136.489536,-2298.286494
163270.178057,-1628.453072,-14804.118840,1838.629195
163270.178376,814.226536,-11843.295072,3524.039291
163270.178695,2960.823768,-7772.162391,4826.401637
163270.179013,2664.741391,-3627.009116,3370.820191
163270.179332,3552.988522,-2368.659014,2374.896044
163270.179651,2368.659014,-1554.432478,0.000000
163270.179970,3478.967927,-5329.482782,-229.828649
163270.180288,0.000000,-8364.327145,-2451.505594
163270.180607,-3330.926739,-12139.377449,-4443.353888
163270.180926,-4737.318029,-15544.324782,-4443.353888
163270.181245,-4737.318029,-17024.736666,-1685.410096
163270.181564,-4737.318029,-13693.809927,0.000000
163270.181882,-2442.679609,-9548.656652,1608.800546
163270.182201,1036.288319,-6217.729913,2068.457845
163270.182520,0.000000,-2442.679609,1225.752797
163270.182839,2812.782580,-2368.659014,766.095498
163270.183157,4367.215058,-3552.988522,-76.609550
163270.183476,2294.638420,-5625.565159,-1915.238745
163270.183795,0.000000,-8364.327145,-2451.505594
163270.184114,-2146.597232,-13249.686362,-3294.210641
163270.184432,-3256.906145,-15692.365970,-1838.629195
163270.184751,-3552.988522,-15470.304188,0.000000
163270.185070,-1776.494261,-13693.809927,229.828649
163270.185389,0.000000,-8364.327145,1225.752797
163270.185707,1850.514855,-6883.915261,1378.971896
163270.186026,3478.967927,-7105.977043,-76.609550
163270.186345,2294.638420,-2442.679609,-2451.505594
163270.186664,2516.700203,-5773.606348,-689.485948
163270.186982,0.000000,-6957.935855,-2298.286494
163270.187301,-1480.411884,-10584.944971,-2528.115143
163270.187620,-2368.659014,-13693.809927,-383.047749
163270.187939,-3256.906145,-13545.768739,1225.752797
163270.188257,-2368.659014,-11917.315666,2604.724693
163270.188576,0.000000,-9548.656652,3983.696590
163270.188895,0.000000,-5995.668130,2451.505594
163270.189214,1184.329507,-6365.771101,3600.648841
163270.189532,0.000000,-2442.679609,0.000000
163270.189851,-296.082377,-5847.626942,-2987.772442
163270.190170,-2442.679609,-8068.244768,-5132.839837
163270.190489,-4219.173869,-11473.192101,-5975.544884
163270.190807,-4811.338623,-12583.501014,-5439.278036
163270.191126,-3627.009116,-15248.242405,-2528.115143
163270.191445,-2960.823768,-14434.015869,306.438199
163270.191764,-2368.659014,-10288.862594,919.314598
163270.192082,148.041188,-8660.409521,3983.696590
163270.192401,4663.297435,-7994.224174,4213.525239
163270.192720,1184.329507,-3627.009116,1225.752797
163270.193039,3108.864956,-3701.029710,459.657299
163270.193357,1850.514855,-5329.482782,-2145.067394
163270.193676,370.102971,-8512.368333,-3294.210641
163270.193995,-3552.988522,-9548.656652,-6128.763984
163270.194314,-3701.029710,-15470.304188,-2451.505594
163270.194632,-5921.647536,-14285.974681,0.000000
163270.194951,-2072.576638,-14582.057057,2604.724693
163270.195270,1702.473667,-11399.171507,4826.401637
163270.195589,1184.329507,-6587.832884,4749.792088
163270.195907,1998.556043,-3552.988522,2374.896044
163270.196226,2368.659014,-1480.411884,536.266849
163270.196545,2516.700203,-2886.803174,-995.924147
163270.196864,1258.350101,-5995.668130,-3064.381992
163270.197182,-74.020594,-10066.800811,-2528.115143
163270.197501,-666.185348,-14211.954086,-689.485948
163270.197820,-2442.679609,-15988.448347,-1302.362347
163270.198139,-1924.535449,-15026.180623,-76.609550
163270.198457,-74.020594,-13027.624579,2681.334243
163270.198776,0.000000,-7772.162391,2451.505594
163270.199095,592.164754,-6661.853478,459.657299
163270.199414,1036.288319,-5255.462188,-1072.533697
163270.199732,1480.411884,-4811.338623,-2374.896044
163270.200051,0.000000,-4885.359217,-5898.935335
163270.200370,-1776.494261,-8956.491898,-3983.696590
163270.200689,-2368.659014,-12287.418637,-2451.505594
163270.201007,-2812.782580,-13693.809927,0.000000
163270.201326,-74.020594,-15396.283594,3294.210641
163270.201645,592.164754,-11325.150913,4903.011187
163270.201964,1776.494261,-7550.100608,4443.353888
163270.202282,2738.761985,-5995.668130,3753.867940
163270.202601,2072.576638,-4219.173869,1608.800546
163270.202920,962.267725,-4663.297435,-1302.362347
163270.203239,-74.020594,-5921.647536,-4979.620737
163270.203557,-3256.906145,-9104.533087,-5209.449386
163270.203876,-4441.235652,-11843.295072,-5515.887586
163270.204195,-4737.318029,-14359.995275,-4596.572988
163270.204514,-3923.091493,-16580.613101,-76.609550
163270.204832,-1332.370696,-15396.283594,2374.896044
163270.205151,0.000000,-10732.986159,5209.449386
163270.205470,2886.803174,-7994.224174,4826.401637
163270.205789,666.185348,-3997.112087,3600.648841
163270.206107,1184.329507,-1258.350101,2451.505594
163270.206426,1184.329507,-2442.679609,0.000000
163270.206745,814.226536,-5921.647536,-2987.772442
163270.207064,-2664.741391,-9992.780217,-5132.839837
163270.207382,-4737.318029,-14285.974681,-5286.058936
163270.207701,-5403.503377,-16580.613101,-5209.449386
163270.208020,-5403.503377,-16654.633695,-2298.286494
163270.208339,-1258.350101,-16580.613101,1455.581446
163270.208657,0.000000,-9474.636058,2987.772442
163270.208976,1184.329507,-4515.256246,2451.505594
163270.209295,5847.626942,-4737.318029,4826.401637
163270.209614,3256.906145,-814.226536,1225.752797
163270.209932,2812.782580,-3256.906145,0.000000
163270.210251,1702.473667,-6809.894666,-1532.190996
163270.210570,148.041188,-10214.842000,-2528.115143
163270.210889,-2220.617826,-13101.645173,-1225.752797
163270.211207,-2960.823768,-15544.324782,-612.876398
163270.211526,-1554.432478,-18357.107362,3294.210641
163270.211845,-74.020594,-11843.295072,1455.581446
163270.212164,518.144159,-7698.141797,1838.629195
163270.212482,3478.967927,-7105.977043,-76.609550
163270.212801,1480.411884,-4219.173869,0.000000
163270.213120,1184.329507,-3627.009116,-1915.238745
163270.213439,-222.061783,-5995.668130,-3370.820191
163270.213757,-1258.350101,-10362.883188,-2528.115143
163270.214076,-2664.741391,-13619.789333,-689.485948
163270.214395,-3552.988522,-14285.974681,612.876398
163270.214714,-666.185348,-14211.954086,2374.896044
163270.215032,0.000000,-11621.233289,4060.306139
163270.215351,592.164754,-7476.080014,3064.381992
163270.215670,1702.473667,-4737.318029,1838.629195
163270.215989,1332.370696,-5329.482782,459.657299
163270.216307,740.205942,-5477.523971,-1685.410096
163270.216626,-888.247130,-6957.935855,-4136.915689
163270.216945,-666.185348,-9474.636058,-5286.058936
163270.217264,-3552.988522,-11917.315666,-4903.011187
163270.217582,-2146.597232,-15914.427753,-2528.115143
163270.217901,-2738.761985,-15396.283594,-383.047749
163270.218220,-370.102971,-13619.789333,2374.896044
163270.218539,1184.329507,-10732.986159,7354.516781
163270.218857,2368.659014,-5107.421000,4290.134789
163270.219176,3701.029710,-3923.091493,3753.867940
163270.219495,3997.112087,-2368.659014,2298.286494
163270.219814,3182.885551,-2886.803174,-383.047749
163270.220132,1998.556043,-6365.771101,-3370.820191
163270.220451,-3552.988522,-9844.739029,-4903.011187
163270.220770,-5403.503377,-14804.118840,-4366.744339
163270.221089,-4811.338623,-17764.942608,-4366.744339
163270.221407,-5699.585753,-17172.777854,-1455.581446
163270.221726,-888.247130,-16580.613101,4213.525239
163270.222045,0.000000,-9326.594869,2834.553343
163270.222364,1628.453072,-5107.421000,2451.505594
163270.222682,2516.700203,-2516.700203,2221.676944
163270.223001,2664.741391,-666.185348,1225.752797
163270.223320,2072.576638,-2442.679609,0.000000
163270.223639,814.226536,-7550.100608,-2451.505594
163270.223957,-74.020594,-13027.624579,-2528.115143
163270.224276,-2442.679609,-14211.954086,-2834.553343
163270.224595,-3849.070898,-14878.139434,-2221.676944
163270.224914,-74.020594,-17172.777854,1762.019645
163270.225232,592.164754,-11991.336260,2374.896044
163270.225551,1776.494261,-8512.368333,2604.724693
163270.225870,2368.659014,-5255.462188,1608.800546
163270.226189,3552.988522,-5107.421000,2145.067394
163270.226507,2368.659014,-3627.009116,-2451.505594
163270.226826,0.000000,-5107.421000,-1838.629195
163270.227145,-370.102971,-9918.759623,-1915.238745
163270.227464,-3256.906145,-10955.047942,-2528.115143
163270.227783,-5921.647536,-11325.150913,0.000000
163270.228101,-2442.679609,-14063.912898,2374.896044
163270.228420,-518.144159,-11843.295072,3983.696590
163270.228739,518.144159,-8142.265362,3677.258390
163270.229058,888.247130,-6143.709319,1991.848295
163270.229376,1036.288319,-5699.585753,306.438199
163270.229695,-2368.659014,-3627.009116,-2451.505594
163270.230014,-1110.308913,-7179.997637,-3600.648841
163270.230333,-2442.679609,-11843.295072,-4979.620737
163270.230651,-3627.009116,-12435.459826,-4979.620737
163270.230970,-4737.318029,-14285.974681,-2451.505594
163270.231289,-2590.720797,-15988.448347,-306.438199
163270.231608,-962.267725,-14211.954086,2451.505594
163270.231926,1702.473667,-10362.883188,4596.572988
163270.232245,1036.288319,-5403.503377,1225.752797
163270.232564,2812.782580,-3108.864956,1838.629195
163270.232883,3701.029710,-2442.679609,1225.752797
163270.233201,3552.988522,-3627.009116,0.000000
163270.233520,3478.967927,-7994.224174,-1302.362347
163270.233839,-666.185348,-10658.965565,-3753.867940
163270.234158,-3552.988522,-14878.139434,-3217.601092
163270.234476,-4959.379811,-16506.592507,-2757.943793
163270.234795,-3701.029710,-16950.716072,229.828649
163270.235114,-888.247130,-12805.562797,2374.896044
163270.235433,0.000000,-7179.997637,3064.381992
163270.235751,1184.329507,-3923.091493,2451.505594
163270.236070,0.000000,-74.020594,0.000000
163270.236389,2368.659014,-1850.514855,612.876398
163270.236708,1998.556043,-4367.215058,-1302.362347
163270.237026,-74.020594,-6809.894666,-4519.963438
163270.237345,-2664.741391,-12213.398043,-3140.991542
163270.237664,-3775.050304,-14508.036463,-2604.724693
163270.237983,-2886.803174,-16580.613101,-306.438199
163270.238301,-1184.329507,-14878.139434,1762.019645
163270.238620,888.247130,-11917.315666,3064.381992
163270.238939,0.000000,-5403.503377,612.876398
163270.239258,1184.329507,-5107.421000,919.314598
163270.239576,2886.803174,-4737.318029,-229.828649
163270.239895,518.144159,-3034.844362,-4596.572988
163270.240214,2294.638420,-7105.977043,-2528.115143
163270.240533,-1332.370696,-9548.656652,-2911.162892
163270.240851,-2146.597232,-12435.459826,-1608.800546
163270.241170,-2812.782580,-14211.954086,689.485948
163270.241489,-148.041188,-14211.954086,5439.278036
163270.241808,1628.453072,-11695.253884,4826.401637
163270.242126,2294.638420,-7698.141797,3600.648841
163270.242445,740.205942,-3627.009116,0.000000
163270.242764,2368.659014,-5699.585753,2528.115143
163270.243083,2294.638420,-4737.318029,-1302.362347
163270.243401,-370.102971,-7698.141797,-3140.991542
163270.243720,-4515.256246,-9918.759623,-6128.763984
163270.244039,-5847.626942,-13175.665768,-5362.668486
163270.244358,-5477.523971,-15692.365970,-3753.867940
163270.244676,-4441.235652,-16062.468941,1838.629195
163270.244995,-1258.350101,-13767.830521,1762.019645
163270.245314,740.205942,-9474.636058,3677.258390
163270.245633,2146.597232,-5699.585753,3140.991542
163270.245951,2664.741391,-2442.679609,612.876398
163270.246270,2294.638420,-666.185348,0.000000
163270.246589,2886.803174,-2664.741391,-2681.334243
163270.246908,0.000000,-6587.832884,-3677.258390
163270.247226,-1332.370696,-12139.377449,-3983.696590
163270.247545,-4367.215058,-15396.283594,-3753.867940
163270.247864,-4145.153275,-18949.272115,-1302.362347
163270.248183,-4145.153275,-16802.674883,306.438199
163270.248501,-74.020594,-12805.562797,2528.115143
163270.248820,1554.432478,-7846.182985,3907.087040
163270.249139,1184.329507,-3182.885551,1991.848295
163270.249458,2664.741391,-1850.514855,1838.629195
163270.249776,3256.906145,-1110.308913,-689.485948
163270.250095,1332.370696,-2442.679609,-3753.867940
163270.250414,592.164754,-8364.327145,-1225.752797
163270.250733,-1258.350101,-9992.780217,-3753.867940
163270.251051,-1258.350101,-15618.345376,-689.485948
163270.251370,-2738.761985,-16062.468941,689.485948
163270.251689,-814.226536,-14359.995275,1915.238745
163270.252008,296.082377,-10362.883188,2451.505594
163270.252326,518.144159,-8734.430116,1149.143247
163270.252645,370.102971,-5699.585753,-612.876398
163270.252964,0.000000,-4145.153275,-2528.115143
163270.253283,-1184.329507,-3627.009116,-4290.134789
163270.253601,-1184.329507,-7179.997637,-3600.648841
163270.253920,-3552.988522,-8364.327145,-4290.134789
163270.254239,-1850.514855,-12879.583391,-842.705048
163270.254558,-2294.638420,-13545.768739,1225.752797
163270.254876,-592.164754,-13323.706956,3140.991542
163270.255195,1776.494261,-9918.759623,3830.477490
163270.255514,3478.967927,-7994.224174,2374.896044
163270.255833,3923.091493,-7698.141797,4213.525239
163270.256151,2886.803174,-5921.647536,-76.609550
163270.256470,0.000000,-5255.462188,-3447.429741
163270.256789,-1258.350101,-9178.553681,-3140.991542
163270.257108,-4737.318029,-9548.656652,-6128.763984
163270.257426,-3997.112087,-13323.706956,-4596.572988
163270.257745,-3330.926739,-14952.160028,-1608.800546
163270.258064,-1924.535449,-14582.057057,2068.457845
163270.258383,-666.185348,-10140.821405,2681.334243
163270.258701,3478.967927,-9474.636058,5898.935335
163270.259020,4071.132681,-4737.318029,3907.087040
163270.259339,2886.803174,-2442.679609,2987.772442
163270.259658,4663.297435,-2368.659014,-76.609550
163270.259976,4071.132681,-7105.977043,-76.609550
163270.260295,-1184.329507,-9548.656652,-3677.258390
163270.260614,-4959.379811,-12879.583391,-5362.668486
163270.260933,-6587.832884,-15248.242405,-5209.449386
163270.261251,-5847.626942,-17616.901420,-2757.943793
163270.261570,-3849.070898,-16210.510130,229.828649
163270.261889,-74.020594,-12139.377449,2374.896044
163270.262208,814.226536,-6143.709319,3600.648841
163270.262526,4663.297435,-4737.318029,2987.772442
163270.262845,3478.967927,-1184.329507,76.609550
163270.263164,4663.297435,-2368.659014,-1302.362347
163270.263483,2516.700203,-5033.400406,-1378.971896
163270.263801,1184.329507,-8586.388927,-2374.896044
163270.264120,-888.247130,-13249.686362,-2528.115143
163270.264439,-2294.638420,-17172.777854,-76.609550
163270.264758,-962.267725,-18949.272115,2374.896044
163270.265076,814.226536,-14730.098246,3600.648841
163270.265395,3478.967927,-11251.130318,2374.896044
163270.265714,814.226536,-5995.668130,1302.362347
163270.266033,1184.329507,-3034.844362,0.000000
163270.266351,1184.329507,-1406.391290,-2221.676944
163270.266670,1480.411884,-4663.297435,-1915.238745
163270.266989,-666.185348,-7179.997637,-2681.334243
163270.267308,-2516.700203,-10066.800811,-2834.553343
163270.267626,-1258.350101,-13619.789333,-1302.362347
163270.267945,-1554.432478,-15396.283594,2145.067394
163270.268264,-74.020594,-15100.201217,4213.525239
163270.268583,-74.020594,-9400.615463,3370.820191
163270.268901,296.082377,-5107.421000,1225.752797
163270.269220,296.082377,-6735.874072,2604.724693
163270.269539,0.000000,-4145.153275,-1838.629195
163270.269858,-370.102971,-5847.626942,-3064.381992
163270.270176,-2590.720797,-8512.368333,-5669.106685
163270.270495,-3849.070898,-11695.253884,-6281.983084
163270.270814,-3627.009116,-14211.954086,-4519.963438
163270.271133,-1850.514855,-17468.860231,-1302.362347
163270.271451,-1258.350101,-15396.283594,1378.971896
163270.271770,814.226536,-11843.295072,3600.648841
163270.272089,1998.556043,-6809.894666,4213.525239
163270.272408,6439.791695,-7105.977043,6665.030833
163270.272727,3849.070898,-2146.597232,2451.505594
163270.273045,3627.009116,-2738.761985,689.485948
163270.273364,1998.556043,-5033.400406,-1532.190996
163270.273683,-888.247130,-8956.491898,-1838.629195
163270.274002,-3330.926739,-13101.645173,-3983.696590
163270.274320,-5699.585753,-16580.613101,-3753.867940
163270.274639,-5329.482782,-18949.272115,-76.609550
163270.274958,-2738.761985,-16580.613101,1149.143247
163270.275277,-2368.659014,-9548.656652,459.657299
163270.275595,1702.473667,-7105.977043,2374.896044
163270.275914,1480.411884,-2886.803174,2068.457845
163270.276233,1924.535449,-1258.350101,383.047749
163270.276552,2812.782580,-2146.597232,-689.485948
163270.276870,2738.761985,-7105.977043,-689.485948
163270.277189,0.000000,-10214.842000,-2298.286494
163270.277508,-2072.576638,-14285.974681,-1532.190996
163270.277827,-1258.350101,-17468.860231,-842.705048
163270.278145,-1406.391290,-16876.695478,-76.609550
163270.278464,0.000000,-12509.480420,612.876398
163270.278783,1998.556043,-10066.800811,2145.067394
163270.279102,2368.659014,-6513.812290,1532.190996
163270.279420,2812.782580,-4219.173869,76.609550
163270.279739,2960.823768,-3701.029710,-306.438199
163270.280058,4071.132681,-7105.977043,-995.924147
163270.280377,888.247130,-7179.997637,-612.876398
163270.280695,-74.020594,-11547.212695,-689.485948
163270.281014,-1850.514855,-12731.542202,-76.609550
163270.281333,-666.185348,-15100.201217,2987.772442
163270.281652,-2812.782580,-10140.821405,1838.629195
163270.281970,814.226536,-9844.739029,3983.696590
163270.282289,222.061783,-6957.935855,2681.334243
163270.282610,0.000000,-5033.400406,689.485948
163270.282928,-74.020594,-4737.318029,-2528.115143
163270.283247,-1554.432478,-5403.503377,-4136.915689
163270.283566,-4145.153275,-7179.997637,-6435.202183
163270.283885,-4145.153275,-11325.150913,-6128.763984
163270.284203,-6513.812290,-10732.986159,-6128.763984
163270.284522,-4737.318029,-14285.974681,-3677.258390
163270.284841,-2960.823768,-13101.645173,612.876398
163270.285160,1776.494261,-12583.501014,4749.792088
163270.285478,2590.720797,-7846.182985,4519.963438
163270.285797,2812.782580,-5107.421000,2757.943793
163270.286116,4663.297435,-4145.153275,-76.609550
163270.286435,2664.741391,-4515.256246,-383.047749
163270.286753,2072.576638,-5847.626942,-2221.676944
163270.287072,0.000000,-9992.780217,-3753.867940
163270.287391,-3034.844362,-13471.748144,-3600.648841
163270.287710,-3775.050304,-16950.716072,-612.876398
163270.288029,-4737.318029,-17246.798449,1378.971896
163270.288347,-1258.350101,-15100.201217,1762.019645
163270.288666,0.000000,-9844.739029,2681.334243
163270.288985,1184.329507,-5403.503377,2757.943793
163270.289304,518.144159,-296.082377,536.266849
163270.289622,2368.659014,-1332.370696,459.657299
163270.289941,2516.700203,-3478.967927,-612.876398
163270.290260,666.185348,-6291.750507,-2681.334243
163270.290579,-666.185348,-11251.130318,-2834.553343
163270.290897,-3034.844362,-13619.789333,-3294.210641
163270.291216,-2960.823768,-17246.798449,-612.876398
163270.291535,-1850.514855,-16580.613101,1225.752797
163270.291854,-296.082377,-13397.727550,2451.505594
163270.292172,296.082377,-9548.656652,2451.505594
163270.292491,0.000000,-4811.338623,-1225.752797
163270.292810,1702.473667,-4367.215058,-612.876398
163270.293129,0.000000,-2442.679609,-3370.820191
163270.293448,1480.411884,-5921.647536,-2528.115143
163270.293766,592.164754,-8660.409521,-3830.477490
163270.294085,-1702.473667,-11177.109724,-2068.457845
163270.294404,-1258.350101,-14804.118840,-76.609550
163270.294723,-74.020594,-15396.283594,2374.896044
163270.295041,1110.308913,-11695.253884,3907.087040
163270.295360,3775.050304,-11103.089130,7277.907231
163270.295679,1776.494261,-5403.503377,3064.381992
163270.295998,1850.514855,-4811.338623,919.314598
163270.296316,888.247130,-4811.338623,-1915.238745
163270.296635,-962.267725,-6587.832884,-3064.381992
163270.296954,-3552.988522,-8364.327145,-5515.887586
163270.297273,-4145.153275,-12435.459826,-5515.887586
163270.297591,-2442.679609,-15988.448347,-3140.991542
163270.297910,-3034.844362,-15174.221811,-995.924147
163270.298229,-1184.329507,-13397.727550,612.876398
163270.298548,4071.132681,-11843.295072,4826.401637
163270.298866,2072.576638,-6291.750507,4903.011187
163270.299185,2886.803174,-3701.029710,3447.429741
163270.299504,2442.679609,-2664.741391,1225.752797
163270.299823,3849.070898,-4663.297435,919.314598
163270.300142,1776.494261,-5995.668130,-3524.039291
163270.300460,-3552.988522,-10140.821405,-4903.011187
163270.300779,-4219.173869,-16136.489536,-4366.744339
163270.301098,-5403.503377,-18949.272115,-2834.553343
163270.301417,-7105.977043,-15470.304188,-2451.505594
163270.301735,-1850.514855,-14211.954086,1072.533697
163270.302054,0.000000,-8438.347739,2757.943793
163270.302373,2960.823768,-4441.235652,3524.039291
163270.302692,4367.215058,-2072.576638,2834.553343
163270.303010,5773.606348,-1554.432478,3140.991542
163270.303329,2590.720797,-2294.638420,-1072.533697
163270.303648,1184.329507,-6513.812290,-1838.629195
163270.303967,-74.020594,-13471.748144,-689.485948
163270.304285,-3034.844362,-15396.283594,-3140.991542
163270.304604,-4737.318029,-16654.633695,-1225.752797
163270.304923,-1554.432478,-16136.489536,1302.362347
163270.305242,0.000000,-12731.542202,2298.286494
163270.305561,592.164754,-8438.347739,1991.848295
163270.305879,592.164754,-4811.338623,0.000000
163270.306198,1480.411884,-2442.679609,-2451.505594
163270.306517,888.247130,-3330.926739,-2374.896044
163270.306836,0.000000,-5403.503377,-1838.629195
163270.307154,814.226536,-10066.800811,-1685.410096
163270.307473,-1850.514855,-11843.295072,-1302.362347
163270.307792,-2368.659014,-15766.386565,1991.848295
163270.308111,-2220.617826,-14359.995275,2068.457845
163270.308429,0.000000,-12509.480420,3370.820191
163270.308748,1184.329507,-8660.409521,3370.820191
163270.309067,0.000000,-4811.338623,1225.752797
163270.309386,0.000000,-4959.379811,0.000000
163270.309704,-2072.576638,-3627.009116,-4903.011187
163270.310023,-1184.329507,-7179.997637,-3294.210641
163270.310342,-1850.514855,-9474.636058,-4979.620737
163270.310661,-2442.679609,-11843.295072,-6205.373534
163270.310979,-1850.514855,-15544.324782,-1915.238745
163270.311298,-1480.411884,-14730.098246,1532.190996
163270.311617,1036.288319,-13397.727550,4673.182538
163270.311936,3108.864956,-9400.615463,5592.497135
163270.312255,2368.659014,-4811.338623,5209.449386
163270.312573,2886.803174,-3552.988522,2068.457845
163270.312892,1184.329507,-1850.514855,0.000000
163270.313211,2368.659014,-5033.400406,-689.485948
163270.313530,-74.020594,-7105.977043,-4366.744339
163270.313848,-5773.606348,-9696.697840,-8273.831378
163270.314167,-6143.709319,-15988.448347,-4979.620737
163270.314486,-6587.832884,-17024.736666,-3294.210641
163270.314805,-4737.318029,-15988.448347,306.438199
163270.315123,-1850.514855,-12139.377449,2374.896044
163270.315442,0.000000,-6587.832884,4213.525239
163270.315761,740.205942,-2738.761985,1838.629195
163270.316080,2368.659014,-666.185348,0.000000
163270.316398,3552.988522,-2738.761985,919.314598
163270.316717,4071.132681,-6513.812290,-76.609550
163270.317036,-2368.659014,-7476.080014,-4903.011187
163270.317355,-2220.617826,-12657.521608,-3753.867940
163270.317673,-3404.947333,-15766.386565,-3907.087040
163270.317992,-2368.659014,-17542.880825,-536.266849
163270.318311,-666.185348,-13841.851115,0.000000
163270.318630,1998.556043,-11029.068536,2528.115143
163270.318949,1924.535449,-5995.668130,153.219100
163270.319267,2368.659014,-4219.173869,2451.505594
163270.319586,4071.132681,-3256.906145,-76.609550
163270.319905,4663.297435,-4737.318029,-76.609550
163270.320224,1184.329507,-5403.503377,-1225.752797
163270.320542,-148.041188,-8734.430116,-1915.238745
163270.320861,-1998.556043,-12065.356855,-766.095498
163270.321180,-3330.926739,-14211.954086,383.047749
163270.321499,-4737.318029,-11917.315666,0.000000
163270.321817,-962.267725,-11843.295072,3294.210641
163270.322136,-2072.576638,-7179.997637,1378.971896
163270.322455,-888.247130,-6587.832884,1225.752797
163270.322774,0.000000,-4219.173869,0.000000
163270.323092,296.082377,-6217.729913,-1302.362347
163270.323411,-2220.617826,-5995.668130,-5286.058936
163270.323730,-2442.679609,-9622.677246,-5669.106685
163270.324049,-3701.029710,-12287.418637,-5286.058936
163270.324368,-3552.988522,-13693.809927,-2451.505594
163270.324686,-74.020594,-16284.530724,1762.019645
163270.325005,2294.638420,-15396.283594,4749.792088
163270.325324,2886.803174,-9474.636058,5132.839837
163270.325643,2590.720797,-3849.070898,2374.896044
163270.325961,4145.153275,-5033.400406,4366.744339
163270.326280,2368.659014,-3627.009116,612.876398
163270.326599,2368.659014,-5033.400406,-1378.971896
163270.326918,296.082377,-7179.997637,-2757.943793
163270.327236,-2220.617826,-11769.274478,-4979.620737
163270.327555,-6513.812290,-13101.645173,-6128.763984
163270.327874,-4811.338623,-16580.613101,-1685.410096
163270.328193,-3775.050304,-15544.324782,1915.238745
163270.328511,-1110.308913,-11473.192101,3677.258390
163270.328830,222.061783,-6957.935855,3983.696590
163270.329149,3478.967927,-4145.153275,3600.648841
163270.329468,2886.803174,-4441.235652,3600.648841
163270.329786,1406.391290,-740.205942,-1915.238745
163270.330105,0.000000,-4811.338623,-2451.505594
163270.330424,-1184.329507,-9474.636058,-3140.991542
163270.330743,-4737.318029,-11917.315666,-3677.258390
163270.331062,-3923.091493,-16136.489536,-3140.991542
163270.331380,-1998.556043,-17320.819043,-459.657299
163270.331699,0.000000,-15692.365970,1915.238745
163270.332018,0.000000,-9548.656652,2528.115143
163270.332337,1998.556043,-6291.750507,1685.410096
163270.332655,4071.132681,-5921.647536,1149.143247
163270.332974,2590.720797,-3330.926739,-689.485948
163270.333293,3478.967927,-4737.318029,-2528.115143
163270.333612,2294.638420,-8290.306550,-1302.362347
163270.333930,0.000000,-9844.739029,-1149.143247
163270.334249,-1850.514855,-12805.562797,-689.485948
163270.334568,-2146.597232,-14285.974681,1302.362347
163270.334887,-1406.391290,-13619.789333,3907.087040
163270.335205,1036.288319,-10140.821405,5056.230287
163270.335524,1702.473667,-7698.141797,4213.525239
163270.335843,0.000000,-5107.421000,1378.971896
163270.336162,-2368.659014,-2442.679609,-2451.505594
163270.336481,-1184.329507,-4811.338623,-2757.943793
163270.336799,-1258.350101,-7698.141797,-6205.373534
163270.337118,-4293.194464,-10658.965565,-5975.544884
163270.337437,-4663.297435,-13027.624579,-4596.572988
163270.337756,-3627.009116,-15026.180623,-1991.848295
163270.338074,-2368.659014,-15322.262999,2298.286494
163270.338393,1036.288319,-13767.830521,6052.154434
163270.338712,2220.617826,-7994.224174,6971.469032
163270.339031,4663.297435,-6513.812290,3600.648841
163270.339349,2738.761985,-3256.906145,1455.581446
163270.339668,2072.576638,-2738.761985,0.000000
163270.339987,444.123565,-3034.844362,-4136.915689
163270.340306,-814.226536,-9474.636058,-4136.915689
163270.340624,-3701.029710,-12879.583391,-5515.887586
163270.340943,-5625.565159,-15692.365970,-4903.011187
163270.341262,-4219.173869,-17764.942608,-2528.115143
163270.341581,-1258.350101,-16580.613101,612.876398
163270.341899,1998.556043,-12879.583391,4826.401637
163270.342218,2294.638420,-6883.915261,4213.525239
163270.342537,3034.844362,-3552.988522,4213.525239
163270.342856,4293.194464,-1850.514855,4290.134789
163270.343175,2368.659014,-666.185348,0.000000
163270.343493,2368.659014,-5255.462188,-1455.581446
163270.343812,0.000000,-8660.409521,-3140.991542
163270.344131,-2664.741391,-13323.706956,-3447.429741
163270.344450,-3330.926739,-16580.613101,-3140.991542
163270.344768,-2442.679609,-18949.272115,-76.609550
163270.345087,-1258.350101,-15248.242405,1149.143247
163270.345406,-222.061783,-11843.295072,2374.896044
163270.345725,-74.020594,-6661.853478,76.609550
163270.346043,296.082377,-4219.173869,1225.752797
163270.346362,1776.494261,-2590.720797,-1149.143247
163270.346681,1998.556043,-4219.173869,-1149.143247
163270.347000,1554.432478,-6735.874072,-1685.410096
163270.347318,-222.061783,-9548.656652,-2451.505594
163270.347637,-2368.659014,-11917.315666,0.000000
163270.347956,-2368.659014,-14952.160028,1685.410096
163270.348275,-592.164754,-15174.221811,3830.477490
163270.348594,2294.638420,-12435.459826,4213.525239
163270.348912,518.144159,-6513.812290,1762.019645
163270.349231,2294.638420,-8290.306550,2068.457845
163270.349550,222.061783,-4663.297435,-1685.410096
163270.349869,-296.082377,-5255.462188,-3140.991542
163270.350187,-1258.350101,-6883.915261,-4749.792088
163270.350506,-2368.659014,-9548.656652,-3524.039291
163270.350825,-3552.988522,-11917.315666,-2451.505594
163270.351144,-4737.318029,-12213.398043,0.000000
163270.351462,-888.247130,-14285.974681,4443.353888
163270.351781,1998.556043,-11843.295072,7277.907231
163270.352100,1110.308913,-5403.503377,1838.629195
163270.352419,3182.885551,-5625.565159,3600.648841
163270.352737,1110.308913,-4145.153275,689.485948
163270.353056,1406.391290,-3849.070898,-1378.971896
163270.353375,370.102971,-6439.791695,-3447.429741
163270.353694,-1184.329507,-9844.739029,-3983.696590
163270.354012,-6513.812290,-11917.315666,-7354.516781
163270.354331,-5625.565159,-15988.448347,-3370.820191
163270.354650,-4219.173869,-17024.736666,-1302.362347
163270.354969,-666.185348,-15396.283594,1149.143247
163270.355288,0.000000,-8364.327145,2451.505594
163270.355606,2886.803174,-6513.812290,3600.648841
163270.355925,3108.864956,-2960.823768,2528.115143
163270.356244,3182.885551,-2294.638420,919.314598
163270.356563,2368.659014,-1406.391290,-2221.676944
163270.356881,1480.411884,-5995.668130,-2834.553343
163270.357200,-1776.494261,-9548.656652,-4290.134789
163270.357519,-2072.576638,-13989.892304,-4903.011187
163270.357838,-2368.659014,-16950.716072,-459.657299
163270.358156,-666.185348,-17764.942608,2374.896044
163270.358475,0.000000,-13101.645173,2451.505594
163270.358794,1850.514855,-9844.739029,3217.601092
163270.359113,1776.494261,-5551.544565,1455.581446
163270.359431,1850.514855,-2960.823768,919.314598
163270.359750,666.185348,-666.185348,-3370.820191
163270.360069,518.144159,-4293.194464,-2451.505594
163270.360388,0.000000,-5995.668130,-4519.963438
163270.360707,-4441.235652,-9548.656652,-2451.505594
163270.361025,-3997.112087,-14063.912898,-689.485948
163270.361344,-1258.350101,-15988.448347,-76.609550
163270.361663,-1480.411884,-13471.748144,3447.429741
163270.361982,222.061783,-9474.636058,3140.991542
163270.362300,222.061783,-6513.812290,1838.629195
163270.362619,0.000000,-5551.544565,0.000000
163270.362938,0.000000,-3627.009116,-2451.505594
163270.363257,-1332.370696,-4441.235652,-5592.497135
163270.363575,-4145.153275,-7772.162391,-6128.763984
163270.363894,-2812.782580,-12805.562797,-4519.963438
163270.364213,-1702.473667,-16210.510130,-1915.238745
163270.364532,-74.020594,-17764.942608,2987.772442
163270.364850,0.000000,-13989.892304,3677.258390
163270.365169,2590.720797,-11103.089130,5898.935335
163270.365488,3849.070898,-6661.853478,5745.716235
163270.365807,3849.070898,-3923.091493,4903.011187
163270.366125,3478.967927,-4441.235652,2145.067394
163270.366444,3478.967927,-4737.318029,-383.047749
163270.366763,0.000000,-5699.585753,-2987.772442
163270.367082,-4737.318029,-8364.327145,-4903.011187
163270.367401,-4811.338623,-15396.283594,-3753.867940
163270.367719,-6809.894666,-16654.633695,-3677.258390
163270.368038,-5995.668130,-16580.613101,-612.876398
163270.368357,-2738.761985,-13545.768739,2221.676944
163270.368676,0.000000,-9326.594869,3830.477490
163270.368994,0.000000,-3034.844362,2451.505594
163270.369313,1554.432478,-2516.700203,2145.067394
163270.369632,2886.803174,-2146.597232,612.876398
163270.369951,4663.297435,-4737.318029,-689.485948
163270.370269,814.226536,-6809.894666,-4060.306139
163270.370588,-444.123565,-13619.789333,-1915.238745
163270.370907,-3849.070898,-14582.057057,-4290.134789
163270.371226,-2738.761985,-17542.880825,-2221.676944
163270.371544,-1258.350101,-17246.798449,383.047749
163270.371863,222.061783,-13323.706956,2911.162892
163270.372182,0.000000,-5995.668130,0.000000
163270.372501,2738.761985,-6069.688724,2145.067394
163270.372819,3182.885551,-4071.132681,383.047749
163270.373138,2960.823768,-2664.741391,-306.438199
163270.373457,3182.885551,-5329.482782,-1302.362347
163270.373776,518.144159,-6883.915261,-2604.724693
163270.374095,-74.020594,-11843.295072,-689.485948
163270.374413,-3404.947333,-12805.562797,76.609550
163270.374732,-4515.256246,-13101.645173,919.314598
163270.375051,740.205942,-14211.954086,5975.544884
163270.375370,0.000000,-7772.162391,3064.381992
163270.375688,-370.102971,-6957.935855,1838.629195
163270.376007,-814.226536,-4737.318029,-689.485948
163270.376326,-962.267725,-4737.318029,-2834.553343
163270.376645,-1998.556043,-6143.709319,-5515.887586
163270.376963,-3108.864956,-8956.491898,-5822.325785
163270.377282,-3775.050304,-12435.459826,-3753.867940
163270.377601,-2442.679609,-14211.954086,-3140.991542
163270.377920,-2146.597232,-14730.098246,689.485948
163270.378238,2294.638420,-15396.283594,4213.525239
163270.378557,2368.659014,-9696.697840,4903.011187
163270.378876,4071.132681,-5995.668130,5439.278036
163270.379195,3108.864956,-4145.153275,2451.505594
163270.379514,3108.864956,-4293.194464,2068.457845
163270.379832,2442.679609,-5255.462188,-306.438199
163270.380151,1110.308913,-7698.141797,-2834.553343
163270.380470,-74.020594,-12435.459826,-4979.620737
163270.380789,-4737.318029,-13249.686362,-5822.325785
163270.381107,-5329.482782,-15470.304188,-4290.134789
163270.381426,-2442.679609,-15988.448347,-76.609550
163270.381745,-1036.288319,-13101.645173,3524.039291
163270.382063,444.123565,-7698.141797,4749.792088
163270.382382,1998.556043,-4219.173869,4060.306139
163270.382701,4071.132681,-3552.988522,4826.401637
163270.383020,3552.988522,-2368.659014,612.876398
163270.383338,4663.297435,-4737.318029,-76.609550
163270.383657,-74.020594,-6809.894666,-3830.477490
163270.383976,-2960.823768,-10658.965565,-4979.620737
163270.384295,-4737.318029,-15174.221811,-3064.381992
163270.384613,-4737.318029,-17542.880825,-2145.067394
163270.384932,-4441.235652,-15766.386565,-1838.629195
163270.385251,-1628.453072,-12805.562797,1225.752797
163270.385569,1036.288319,-8956.491898,1608.800546
163270.385888,222.061783,-4145.153275,-459.657299
163270.386207,1702.473667,-4737.318029,-76.609550
163270.386526,2886.803174,-2664.741391,-995.924147
163270.386844,1332.370696,-4959.379811,-1225.752797
163270.387163,3478.967927,-11251.130318,-76.609550
163270.387482,-74.020594,-11547.212695,-1915.238745
163270.387800,-1776.494261,-13767.830521,1225.752797
163270.388119,-1184.329507,-14656.077652,2757.943793
163270.388438,222.061783,-12287.418637,3983.696590
163270.388757,444.123565,-9030.512492,3907.087040
163270.389075,0.000000,-6513.812290,2374.896044
163270.389394,-370.102971,-5551.544565,-995.924147
163270.389713,-1258.350101,-4737.318029,-2528.115143
163270.390031,-3552.988522,-4219.173869,-6128.763984
163270.390350,-2368.659014,-8216.285956,-4596.572988
163270.390669,-4737.318029,-10140.821405,-6128.763984
163270.390988,-2516.700203,-14063.912898,-1455.581446
163270.391306,-1480.411884,-14878.139434,1762.019645
163270.391625,74.020594,-12361.439231,4366.744339
163270.391944,2590.720797,-9474.636058,4826.401637
163270.392262,4367.215058,-7698.141797,3600.648841
163270.392581,1702.473667,-7105.977043,2374.896044
163270.392900,518.144159,-3404.947333,-1915.238745
163270.393219,1776.494261,-6513.812290,-1915.238745
163270.393537,-74.020594,-9400.615463,-2298.286494
163270.393856,-5625.565159,-10732.986159,-6128.763984
163270.394175,-5477.523971,-14730.098246,-4979.620737
163270.394493,-5107.421000,-16728.654289,-2987.772442
163270.394812,-2664.741391,-16358.551318,842.705048
163270.395131,-666.185348,-9918.759623,2068.457845
163270.395450,3478.967927,-9474.636058,6971.469032
163270.395768,4663.297435,-3552.988522,4519.963438
163270.396087,2590.720797,-666.185348,1608.800546
163270.396406,592.164754,-1258.350101,0.000000
163270.396725,4663.297435,-7105.977043,-76.609550
163270.397043,0.000000,-8364.327145,-3600.648841
163270.397362,-2738.761985,-12435.459826,-3983.696590
163270.397681,-4367.215058,-15396.283594,-3447.429741
163270.397999,-3627.009116,-18061.024985,-76.609550
163270.398318,-1258.350101,-14804.118840,1532.190996
163270.398637,1702.473667,-12731.542202,2681.334243
163270.398956,814.226536,-7105.977043,4213.525239
163270.399274,2294.638420,-4737.318029,-76.609550
163270.399593,740.205942,-666.185348,-2451.505594
163270.399912,4663.297435,-4145.153275,-1608.800546
163270.400230,1184.329507,-5995.668130,-2145.067394
163270.400549,-592.164754,-9252.574275,-2681.334243
163270.400868,-2738.761985,-12509.480420,-2221.676944
163270.401187,-1850.514855,-16580.613101,1762.019645
163270.401505,-1850.514855,-16580.613101,2451.505594
163270.401824,-74.020594,-13027.624579,4213.525239
163270.402143,2294.638420,-9474.636058,3294.210641
163270.402461,74.020594,-5107.421000,383.047749
163270.402780,0.000000,-2442.679609,0.000000
163270.403099,1406.391290,-3849.070898,-2834.553343
163270.403418,74.020594,-5699.585753,-3907.087040
163270.403736,-814.226536,-8512.368333,-4903.011187
163270.404055,-1554.432478,-12287.418637,-3907.087040
163270.404374,-74.020594,-15396.283594,-689.485948
163270.404692,-1554.432478,-15470.304188,3600.648841
163270.405011,2294.638420,-14211.954086,4213.525239
163270.405330,1406.391290,-9104.533087,4290.134789
163270.405649,1480.411884,-4811.338623,2451.505594
163270.405967,666.185348,-1850.514855,0.000000
163270.406286,2294.638420,-3552.988522,383.047749
163270.406605,1924.535449,-4293.194464,-1838.629195
163270.406924,-740.205942,-7624.121203,-3677.258390
163270.407242,-3701.029710,-10658.965565,-4979.620737
163270.407561,-6365.771101,-14878.139434,-5056.230287
163270.407880,-7105.977043,-15470.304188,-3370.820191
163270.408198,-3552.988522,-15766.386565,1225.752797
163270.408517,-74.020594,-13767.830521,5515.887586
163270.408836,222.061783,-7031.956449,2145.067394
163270.409155,2294.638420,-4145.153275,2068.457845
163270.409473,2516.700203,-2738.761985,1072.533697
163270.409792,2368.659014,-2812.782580,-1072.533697
163270.410111,1110.308913,-5403.503377,-2681.334243
163270.410429,1110.308913,-11843.295072,-2528.115143
163270.410748,-2442.679609,-13175.665768,-4290.134789
163270.411067,-3330.926739,-15692.365970,-3064.381992
163270.411386,-4145.153275,-15470.304188,0.000000
163270.411704,0.000000,-14582.057057,2451.505594
163270.412023,1110.308913,-9696.697840,1225.752797
163270.412342,2294.638420,-7105.977043,2987.772442
163270.412660,2294.638420,-4367.215058,1149.143247
163270.412979,2294.638420,-2590.720797,153.219100
163270.413298,1702.473667,-3627.009116,-1072.533697
163270.413617,1776.494261,-8808.450710,-459.657299
163270.413935,-1628.453072,-9622.677246,-2834.553343
163270.414254,-3108.864956,-12953.603985,-1225.752797
163270.414573,-3627.009116,-15026.180623,995.924147
163270.414891,-3552.988522,-13693.809927,2451.505594
163270.415210,-1998.556043,-10732.986159,3983.696590
163270.415529,-74.020594,-6809.894666,1762.019645
163270.415848,0.000000,-4811.338623,919.314598
163270.416166,0.000000,-2442.679609,-2451.505594
163270.416485,-74.020594,-2960.823768,-4060.306139
163270.416804,-370.102971,-7698.141797,-4366.744339
163270.417122,-3108.864956,-10288.862594,-6818.249932
163270.417441,-3627.009116,-13471.748144,-4826.401637
163270.417760,-3404.947333,-15396.283594,-1838.629195
163270.418079,-2368.659014,-15914.427753,2374.896044
163270.418397,1702.473667,-13471.748144,4749.792088
163270.418716,2664.741391,-8364.327145,4826.401637
163270.419035,2886.803174,-3034.844362,3524.039291
163270.419354,3552.988522,-2738.761985,2145.067394
163270.419672,1924.535449,-1258.350101,0.000000
163270.419991,3182.885551,-5329.482782,-995.924147
163270.420310,148.041188,-7550.100608,-3600.648841
163270.420628,-3034.844362,-11843.295072,-4979.620737
163270.420947,-5551.544565,-15100.201217,-3677.258390
163270.421266,-4811.338623,-17172.777854,-1302.362347
163270.421585,-4589.276840,-14582.057057,1455.581446
163270.421903,-74.020594,-11843.295072,2987.772442
163270.422222,0.000000,-5995.668130,3140.991542
163270.422541,1258.350101,-2738.761985,3294.210641
163270.422859,0.000000,-74.020594,612.876398
163270.423178,2294.638420,-2812.782580,-1149.143247
163270.423497,814.226536,-5699.585753,-2757.943793
163270.423816,-1184.329507,-9178.553681,-3983.696590
163270.424134,-4219.173869,-11473.192101,-5362.668486
163270.424453,-3923.091493,-15396.283594,-3753.867940
163270.424772,-3034.844362,-16580.613101,-1915.238745
163270.425090,-2368.659014,-14285.974681,1225.752797
163270.425409,1628.453072,-10881.027347,1532.190996
163270.425728,3478.967927,-9474.636058,3600.648841
163270.426047,1480.411884,-4811.338623,1225.752797
163270.426365,3182.885551,-2812.782580,-1072.533697
163270.426684,2294.638420,-3923.091493,-995.924147
163270.427003,1998.556043,-6809.894666,-1762.019645
163270.427321,-1554.432478,-9104.533087,-2221.676944
163270.427640,-666.185348,-14063.912898,-689.485948
163270.427959,-4145.153275,-13545.768739,383.047749
163270.428278,-1998.556043,-13101.645173,1225.752797
163270.428596,0.000000,-10436.903782,3983.696590
163270.428915,-74.020594,-7105.977043,2374.896044
163270.429234,0.000000,-5551.544565,1225.752797
163270.429553,0.000000,-4367.215058,-1608.800546
163270.429871,-296.082377,-4811.338623,-3140.991542
163270.430190,-1628.453072,-6957.935855,-4366.744339
163270.430509,-2516.700203,-11103.089130,-3753.867940
163270.430827,-3034.844362,-13027.624579,-3753.867940
163270.431146,-2738.761985,-15100.201217,-1302.362347
163270.431465,-2886.803174,-13767.830521,1302.362347
163270.431784,0.000000,-11917.315666,4903.011187
163270.432102,0.000000,-6587.832884,1838.629195
163270.432421,1850.514855,-5403.503377,2451.505594
163270.432740,1998.556043,-4515.256246,1149.143247
163270.433058,2294.638420,-4145.153275,-766.095498
163270.433377,2886.803174,-7105.977043,-1302.362347
163270.433696,-74.020594,-10658.965565,-3140.991542
163270.434015,-3330.926739,-13027.624579,-4979.620737
163270.434333,-6365.771101,-14285.974681,-4903.011187
163270.434652,-4737.318029,-15766.386565,-766.095498
163270.434971,-1776.494261,-14285.974681,3677.258390
163270.435289,0.000000,-9548.656652,3677.258390
163270.435608,2294.638420,-6439.791695,4673.182538
163270.435927,2516.700203,-2738.761985,2681.334243
163270.436246,2516.700203,-2146.597232,536.266849
163270.436564,3478.967927,-2960.823768,-689.485948
163270.436883,1998.556043,-7476.080014,-1149.143247
163270.437202,-74.020594,-10955.047942,-3753.867940
163270.437520,-3775.050304,-13101.645173,-3753.867940
163270.437839,-5255.462188,-15174.221811,-2911.162892
163270.438158,-370.102971,-18949.272115,2374.896044
163270.438477,-1998.556043,-12657.521608,1838.629195
163270.438795,-444.123565,-9696.697840,1915.238745
163270.439114,444.123565,-6069.688724,1149.143247
163270.439433,1406.391290,-3478.967927,-76.609550
163270.439751,3478.967927,-2368.659014,-229.828649
163270.440070,4071.132681,-5921.647536,-1302.362347
163270.440389,1702.473667,-7698.141797,-2528.115143
163270.440708,-1850.514855,-8882.471304,-3677.258390
163270.441026,-3997.112087,-11917.315666,-3370.820191
163270.441345,-74.020594,-17172.777854,-76.609550
163270.441664,-888.247130,-14285.974681,2757.943793
163270.441983,1184.329507,-10584.944971,4136.915689
163270.442301,1258.350101,-6439.791695,2834.553343
163270.442620,2516.700203,-6291.750507,3447.429741
163270.442939,1776.494261,-5033.400406,-383.047749
163270.443257,518.144159,-5329.482782,-2528.115143
163270.443576,-666.185348,-6217.729913,-5592.497135
163270.443895,-3552.988522,-9844.739029,-5822.325785
163270.444214,-4737.318029,-11917.315666,-4290.134789
163270.444532,-1850.514855,-14804.118840,-76.609550
163270.444851,-518.144159,-14211.954086,3983.696590
163270.445170,1776.494261,-10732.986159,4826.401637
163270.445488,1924.535449,-7179.997637,4673.182538
163270.445807,4071.132681,-6513.812290,3600.648841
163270.446126,1554.432478,-3552.988522,2374.896044
163270.446445,3478.967927,-4737.318029,-1302.362347
163270.446763,-1184.329507,-5403.503377,-4290.134789
163270.447082,-3108.864956,-9548.656652,-7124.688131
163270.447401,-7105.977043,-11917.315666,-7354.516781
163270.447719,-5403.503377,-16506.592507,-3524.039291
163270.448038,-4737.318029,-16358.551318,-536.266849
163270.448357,-2294.638420,-13323.706956,2834.553343
163270.448676,222.061783,-8290.306550,3907.087040
163270.448994,2368.659014,-5847.626942,3753.867940
163270.449313,1184.329507,-2442.679609,2451.505594
163270.449632,3256.906145,-2368.659014,1149.143247
163270.449950,2294.638420,-5921.647536,-76.609550
163270.450269,-814.226536,-6291.750507,-5822.325785
163270.450588,-1258.350101,-11251.130318,-5592.497135
163270.450907,-3701.029710,-15174.221811,-3524.039291
163270.451225,-3552.988522,-17468.860231,-1072.533697
163270.451544,-2072.576638,-16284.530724,1225.752797
163270.451863,2294.638420,-15396.283594,4826.401637
163270.452181,518.144159,-8586.388927,2834.553343
163270.452500,518.144159,-4441.235652,1149.143247
163270.452819,0.000000,-74.020594,0.000000
163270.453138,3256.906145,-3478.967927,-153.219100
163270.453456,1702.473667,-3701.029710,-3294.210641
163270.453775,370.102971,-8586.388927,-2374.896044
163270.454094,-3034.844362,-11917.315666,-2451.505594
163270.454413,-4811.338623,-15174.221811,-1685.410096
163270.454731,-3997.112087,-16432.571912,229.828649
163270.455050,-1628.453072,-16210.510130,4213.525239
163270.455369,-592.164754,-9474.636058,2451.505594
163270.455687,74.020594,-7105.977043,1455.581446
163270.456006,888.247130,-4737.318029,-306.438199
163270.456325,0.000000,-3034.844362,-2451.505594
163270.456644,0.000000,-5255.462188,-2757.943793
163270.456962,-1332.370696,-6735.874072,-5745.716235
163270.457281,-2072.576638,-10732.986159,-4290.134789
163270.457600,-74.020594,-15322.262999,-153.219100
163270.457918,-814.226536,-13915.871710,-76.609550
163270.458237,2294.638420,-15100.201217,4826.401637
163270.458556,2516.700203,-10732.986159,5439.278036
163270.458875,2886.803174,-6809.894666,4749.792088
163270.459193,2590.720797,-4663.297435,2681.334243
163270.459512,1184.329507,-4071.132681,1455.581446
163270.459831,2886.803174,-5329.482782,-459.657299
163270.460149,0.000000,-6217.729913,-4213.525239
163270.460468,-4737.318029,-8364.327145,-4903.011187
163270.460787,-3997.112087,-14211.954086,-3830.477490
163270.461106,-7105.977043,-13397.727550,-4903.011187
163270.461424,-2886.803174,-16728.654289,1608.800546
163270.461743,-1258.350101,-12287.418637,3830.477490
163270.462062,666.185348,-8956.491898,3600.648841
163270.462380,1258.350101,-5033.400406,3370.820191
163270.462699,2294.638420,-3256.906145,1762.019645
163270.463018,1628.453072,-2442.679609,-1302.362347
163270.463337,222.061783,-2960.823768,-4290.134789
163270.463655,0.000000,-8364.327145,-4136.915689
163270.463974,-2590.720797,-12435.459826,-3753.867940
163270.464293,-4737.318029,-14285.974681,-4596.572988
163270.464612,-2738.761985,-17690.922014,-1455.581446
163270.464930,-1036.288319,-16136.489536,1455.581446
163270.465249,592.164754,-11843.295072,3677.258390
163270.465568,888.247130,-5995.668130,1762.019645
163270.465886,1702.473667,-3256.906145,2374.896044
163270.466205,4663.297435,-4145.153275,1455.581446
163270.466524,2368.659014,-1998.556043,-1225.752797
163270.466843,2368.659014,-4811.338623,-3524.039291
163270.467161,2294.638420,-11547.212695,-1302.362347
163270.467480,-2368.659014,-13249.686362,-1532.190996
163270.467799,-4441.235652,-14508.036463,-1072.533697
163270.468117,-3701.029710,-15914.427753,1455.581446
163270.468436,-1332.370696,-13175.665768,3064.381992
163270.468755,-2368.659014,-8364.327145,2834.553343
163270.469074,-74.020594,-6513.812290,-76.609550
163270.469392,-370.102971,-3627.009116,-1225.752797
163270.469711,0.000000,-2220.617826,-4366.744339
163270.470030,-2368.659014,-5403.503377,-3677.258390
163270.470348,-74.020594,-8882.471304,-5592.497135
163270.470667,-2960.823768,-11621.233289,-4136.915689
163270.470986,-2664.741391,-14285.974681,-2528.115143
163270.471305,-1628.453072,-16358.551318,536.266849
163270.471623,-222.061783,-14285.974681,3600.648841
163270.471942,2146.597232,-11251.130318,6052.154434
163270.472261,3478.967927,-7105.977043,3294.210641
163270.472579,3478.967927,-7698.141797,3600.648841
163270.472898,2294.638420,-3552.988522,-689.485948
163270.473217,1184.329507,-3849.070898,-1225.752797
163270.473536,0.000000,-5699.585753,-5822.325785
163270.473854,-1036.288319,-11029.068536,-4826.401637
163270.474173,-3627.009116,-13619.789333,-3600.648841
163270.474492,-4219.173869,-15544.324782,-1225.752797
163270.474810,-1850.514855,-16284.530724,3600.648841
163270.475129,2294.638420,-13619.789333,4826.401637
163270.475448,1998.556043,-9474.636058,6665.030833
163270.475767,1702.473667,-3552.988522,2374.896044
163270.476085,1036.288319,-1924.535449,1225.752797
163270.476404,1480.411884,-2738.761985,0.000000
163270.476723,0.000000,-3627.009116,-3677.258390
163270.477042,-148.041188,-9178.553681,-4060.306139
163270.477360,-2960.823768,-12583.501014,-4826.401637
163270.477679,-4219.173869,-16062.468941,-3983.696590
163270.477998,-2442.679609,-17172.777854,-689.485948
163270.478316,-296.082377,-17024.736666,2987.772442
163270.478635,1110.308913,-13027.624579,3294.210641
163270.478954,518.144159,-7105.977043,1149.143247
163270.479273,0.000000,-2442.679609,0.000000
163270.479591,4367.215058,-4737.318029,-76.609550
163270.479910,2072.576638,-2664.741391,-1838.629195
163270.480229,2220.617826,-6365.771101,-2145.067394
163270.480547,74.020594,-9548.656652,-2681.334243
163270.480866,-2072.576638,-12805.562797,-1378.971896
163270.481185,-2442.679609,-15100.201217,536.266849
163270.481504,-370.102971,-16580.613101,2987.772442
163270.481822,-74.020594,-12879.583391,4826.401637
163270.482141,1110.308913,-8290.306550,2681.334243
163270.482460,0.000000,-3627.009116,0.000000
163270.482778,3478.967927,-4737.318029,-76.609550
163270.483097,296.082377,-3404.947333,-1838.629195
163270.483416,-296.082377,-5329.482782,-3524.039291
163270.483734,-1406.391290,-8068.244768,-4290.134789
163270.484053,-1702.473667,-13101.645173,-2068.457845
163270.484372,-2664.741391,-14582.057057,-612.876398
163270.484690,-1258.350101,-15988.448347,2145.067394
163270.485009,-74.020594,-14211.954086,4826.401637
163270.485328,1110.308913,-9474.636058,3907.087040
163270.485646,0.000000,-3627.009116,0.000000
163270.485965,-74.020594,-4737.318029,-76.609550
163270.486283,592.164754,-3627.009116,0.000000
163270.486602,1110.308913,-5181.441594,-2834.553343
163270.486921,-740.205942,-8290.306550,-4596.572988
163270.487239,-1850.514855,-13027.624579,-3140.991542
163270.487558,-4737.318029,-14063.912898,-3217.601092
163270.487877,-1554.432478,-17764.942608,-76.609550
163270.488195,-222.061783,-14804.118840,2987.772442
163270.488514,1406.391290,-11843.295072,4826.401637
163270.488833,1110.308913,-4441.235652,3064.381992
163270.489151,2886.803174,-3997.112087,3524.039291
163270.489470,2590.720797,-2664.741391,1225.752797
163270.489788,2368.659014,-3108.864956,-1072.533697
163270.490107,1110.308913,-5921.647536,-2528.115143
163270.490426,-1628.453072,-9844.739029,-4673.182538
163270.490744,-4737.318029,-11917.315666,-4903.011187
163270.491063,-3701.029710,-16062.468941,-2451.505594
163270.491382,-2072.576638,-17246.798449,2757.943793
163270.491700,-148.041188,-13693.809927,1838.629195
163270.492019,2294.638420,-11251.130318,3600.648841
163270.492337,1480.411884,-5625.565159,2757.943793
163270.492656,1924.535449,-3034.844362,1378.971896
163270.492975,2220.617826,-2590.720797,-995.924147
163270.493293,3034.844362,-6513.812290,-76.609550
163270.493612,666.185348,-7550.100608,-3753.867940
163270.493931,-2368.659014,-10140.821405,-3983.696590
163270.494249,-4959.379811,-12583.501014,-4903.011187
163270.494568,-4737.318029,-16654.633695,-919.314598
163270.494887,-2442.679609,-15396.283594,536.266849
163270.495205,-74.020594,-12213.398043,3907.087040
163270.495524,1184.329507,-7772.162391,3140.991542
163270.495842,1776.494261,-4959.379811,2145.067394
163270.496161,2368.659014,-3330.926739,-383.047749
163270.496480,1776.494261,-4811.338623,612.876398
163270.496798,666.185348,-5551.544565,-3753.867940
163270.497117,-592.164754,-9548.656652,-4366.744339
163270.497436,-2294.638420,-12805.562797,-3447.429741
163270.497754,-4145.153275,-14285.974681,-2451.505594
163270.498073,-4737.318029,-14508.036463,536.266849
163270.498391,-222.061783,-12731.542202,2681.334243
163270.498710,888.247130,-8660.409521,4443.353888
163270.499029,0.000000,-4811.338623,3677.258390
163270.499347,2886.803174,-3552.988522,-76.609550
163270.499666,3404.947333,-4663.297435,536.266849
163270.499985,888.247130,-4885.359217,-2451.505594
163270.500303,-1332.370696,-8068.244768,-4213.525239
163270.500622,-3627.009116,-11399.171507,-4903.011187
163270.500941,-6217.729913,-14285.974681,-3524.039291
163270.501259,-5329.482782,-15544.324782,-1302.362347
163270.501578,-3552.988522,-13989.892304,1225.752797
163270.501896,-2368.659014,-9548.656652,2451.505594
163270.502215,296.082377,-6735.874072,4290.134789
163270.502534,814.226536,-2072.576638,0.000000
163270.502852,2146.597232,-3404.947333,306.438199
163270.503171,1480.411884,-3478.967927,-1991.848295
163270.503490,740.205942,-6735.874072,-3370.820191
163270.503808,-370.102971,-10436.903782,-4366.744339
163270.504127,-1850.514855,-14211.954086,-3140.991542
163270.504445,-2812.782580,-16136.489536,-1915.238745
163270.504764,-3478.967927,-14285.974681,0.000000
163270.505083,0.000000,-13693.809927,3983.696590
163270.505401,2072.576638,-10362.883188,6052.154434
163270.505720,0.000000,-2738.761985,1838.629195
163270.506039,2294.638420,-3552.988522,1302.362347
163270.506357,2590.720797,-2664.741391,-306.438199
163270.506676,2146.597232,-4441.235652,-2145.067394
163270.506995,1110.308913,-5921.647536,-3753.867940
163270.507313,-1258.350101,-10658.965565,-2528.115143
163270.507632,-2442.679609,-14211.954086,-2528.115143
163270.507950,-5477.523971,-15470.304188,-842.705048
163270.508269,-2368.659014,-14285.974681,2068.457845
163270.508588,1110.308913,-13027.624579,5439.278036
163270.508906,0.000000,-6587.832884,2757.943793
163270.509225,-296.082377,-4737.318029,153.219100
163270.509544,592.164754,-3182.885551,-1302.362347
163270.509862,1184.329507,-3997.112087,-2834.553343
163270.510181,-148.041188,-5995.668130,-4213.525239
163270.510499,-74.020594,-11251.130318,-4366.744339
163270.510818,-2738.761985,-11991.336260,-4136.915689
163270.511137,-2664.741391,-14285.974681,-3294.210641
163270.511455,-2368.659014,-15470.304188,3064.381992
163270.511774,4663.297435,-13619.789333,4826.401637
163270.512093,2368.659014,-8068.244768,4903.011187
163270.512411,2812.782580,-5847.626942,2834.553343
163270.512730,2516.700203,-4515.256246,919.314598
163270.513049,2294.638420,-3849.070898,-76.609550
163270.513367,1480.411884,-5625.565159,-1302.362347
163270.513686,-370.102971,-9030.512492,-4673.182538
163270.514004,-4589.276840,-12287.418637,-4979.620737
163270.514323,-6513.812290,-13397.727550,-4290.134789
163270.514642,-4737.318029,-15174.221811,0.000000
163270.514960,-1258.350101,-12731.542202,2068.457845
163270.515279,444.123565,-9844.739029,4519.963438
163270.515598,740.205942,-5995.668130,3600.648841
163270.515916,518.144159,-2664.741391,1762.019645
163270.516235,1998.556043,-4737.318029,-76.609550
163270.516553,2294.638420,-6809.894666,-1915.238745
163270.516872,-74.020594,-9474.636058,-2834.553343
163270.517191,-3627.009116,-10362.883188,-6511.811733
163270.517509,-4737.318029,-14285.974681,-4903.011187
163270.517828,-4737.318029,-16062.468941,-1225.752797
163270.518147,-3256.906145,-15174.221811,153.219100
163270.518465,148.041188,-13323.706956,2681.334243
163270.518784,1258.350101,-8808.450710,3753.867940
163270.519103,2294.638420,-5255.462188,2528.115143
163270.519421,4071.132681,-3552.988522,-76.609550
163270.519740,4663.297435,-4737.318029,1762.019645
163270.520058,4367.215058,-5329.482782,-1302.362347
163270.520377,1184.329507,-7031.956449,-3217.601092
163270.520696,-2960.823768,-9844.739029,-3677.258390
163270.521014,-1924.535449,-16580.613101,1455.581446
163270.521333,-3849.070898,-15322.262999,306.438199
163270.521652,-1480.411884,-14582.057057,2987.772442
163270.521970,296.082377,-10140.821405,3907.087040
163270.522289,0.000000,-6883.915261,2451.505594
163270.522607,1110.308913,-3923.091493,1072.533697
163270.522926,1998.556043,-4145.153275,-689.485948
163270.523245,962.267725,-4737.318029,-2528.115143
163270.523563,-2294.638420,-4959.379811,-6128.763984
163270.523882,-3552.988522,-8364.327145,-6741.640382
163270.524201,-74.020594,-15100.201217,-2528.115143
163270.524519,-2960.823768,-14878.139434,-383.047749
163270.524838,-1184.329507,-14952.160028,2221.676944
163270.525157,1036.288319,-10881.027347,4366.744339
163270.525475,2960.823768,-7772.162391,5822.325785
163270.525794,2664.741391,-5403.503377,2681.334243
163270.526112,3478.967927,-4737.318029,0.000000
163270.526431,4071.132681,-6513.812290,-76.609550
163270.526750,-370.102971,-5921.647536,-5286.058936
163270.527068,-3552.988522,-7179.997637,-7354.516781
163270.527387,-3034.844362,-13619.789333,-4979.620737
163270.527706,-3701.029710,-15544.324782,-2145.067394
163270.528024,-2442.679609,-15840.407159,2451.505594
163270.528343,888.247130,-12879.583391,5439.278036
163270.528661,4515.256246,-10658.965565,7890.783629
163270.528980,3182.885551,-3552.988522,4903.011187
163270.529299,3256.906145,-3923.091493,3677.258390
163270.529617,3330.926739,-3552.988522,-76.609550
163270.529936,0.000000,-3552.988522,-2528.115143
163270.530255,-666.185348,-7031.956449,-6511.811733
163270.530573,-3478.967927,-12213.398043,-5669.106685
163270.530892,-4737.318029,-15396.283594,-4903.011187
163270.531211,-4959.379811,-17616.901420,-2145.067394
163270.531529,-2368.659014,-16580.613101,1149.143247
163270.531848,-1184.329507,-11917.315666,2451.505594
163270.532166,0.000000,-7179.997637,2451.505594
163270.532485,1776.494261,-4959.379811,2298.286494
163270.532804,4145.153275,-4737.318029,2987.772442
163270.533122,2590.720797,-592.164754,-1915.238745
163270.533441,4071.132681,-5625.565159,-1608.800546
163270.533760,148.041188,-8808.450710,-2911.162892
163270.534078,-2590.720797,-12139.377449,-3294.210641
163270.534397,-4367.215058,-15692.365970,-2604.724693
163270.534715,-2368.659014,-18949.272115,2987.772442
163270.535034,-1258.350101,-15544.324782,2911.162892
163270.535353,74.020594,-9474.636058,2987.772442
163270.535671,0.000000,-4811.338623,1225.752797
163270.535990,2664.741391,-4737.318029,2834.553343
163270.536309,3478.967927,-3552.988522,-1302.362347
163270.536627,1554.432478,-3997.112087,-1838.629195
163270.536946,592.164754,-6883.915261,-3907.087040
163270.537265,-962.267725,-11029.068536,-3830.477490
163270.537583,-2516.700203,-13693.809927,-1608.800546
163270.537902,-4145.153275,-15470.304188,2451.505594
163270.538220,-1332.370696,-14285.974681,2681.334243
163270.538539,0.000000,-11103.089130,3983.696590
163270.538858,222.061783,-7476.080014,2757.943793
163270.539176,-2072.576638,-3923.091493,153.219100
163270.539495,74.020594,-3627.009116,0.000000
163270.539814,2294.638420,-4737.318029,-2528.115143
163270.540132,0.000000,-5403.503377,-3983.696590
163270.540451,-4145.153275,-8956.491898,-5515.887586
163270.540769,-3627.009116,-13619.789333,-4979.620737
163270.541088,-3256.906145,-16358.551318,-1608.800546
163270.541407,-3034.844362,-15692.365970,1762.019645
163270.541725,296.082377,-13101.645173,4060.306139
163270.542044,2442.679609,-7402.059420,5286.058936
163270.542363,2738.761985,-4219.173869,5132.839837
163270.542681,2886.803174,-3182.885551,1149.143247
163270.543000,1628.453072,-3404.947333,-1149.143247
163270.543319,518.144159,-3552.988522,-4673.182538
163270.543637,0.000000,-7476.080014,-4903.011187
163270.543956,-1258.350101,-10955.047942,-5745.716235
163270.544274,-2072.576638,-15470.304188,-2528.115143
163270.544593,-2664.741391,-16358.551318,0.000000
163270.544912,-1184.329507,-15322.262999,2528.115143
163270.545230,666.185348,-12213.398043,4213.525239
163270.545549,2294.638420,-8882.471304,5439.278036
163270.545868,2294.638420,-4145.153275,4519.963438
163270.546186,4071.132681,-3552.988522,-76.609550
163270.546505,2294.638420,-2516.700203,-1915.238745
163270.546823,1332.370696,-5107.421000,-1532.190996
163270.547142,-3552.988522,-5995.668130,-6128.763984
163270.547461,-3627.009116,-13767.830521,-4060.306139
163270.547779,-5403.503377,-17024.736666,-3140.991542
163270.548098,-4737.318029,-17024.736666,0.000000
163270.548417,-1258.350101,-12879.583391,1762.019645
163270.548735,1702.473667,-9474.636058,4826.401637
163270.549054,2886.803174,-7105.977043,3294.210641
163270.549373,1110.308913,-3256.906145,-383.047749
163270.549691,740.205942,-1036.288319,-2528.115143
163270.550010,1480.411884,-6365.771101,-459.657299
163270.550328,0.000000,-7179.997637,-4290.134789
163270.550647,-1554.432478,-11695.253884,-3524.039291
