#time,accel_x,accel_y,accel_z
163542.977859,-814.226536,-9474.636058,-76.609550
163542.978178,-666.185348,-9474.636058,-1302.362347
163542.978498,-2960.823768,-7698.141797,-1302.362347
163542.978817,-74.020594,-11843.295072,1149.143247
163542.979137,-1184.329507,-9400.615463,-919.314598
163542.979456,-814.226536,-9474.636058,-612.876398
163542.979776,-518.144159,-9030.512492,-306.438199
163542.980095,-2368.659014,-7179.997637,0.000000
163542.980415,0.000000,-8364.327145,0.000000
163542.980735,0.000000,-8734.430116,0.000000
163542.981054,2294.638420,-9474.636058,-76.609550
163542.981374,-1406.391290,-8512.368333,-919.314598
163542.981693,1702.473667,-10658.965565,-76.609550
163542.982013,148.041188,-9696.697840,-76.609550
163542.982332,370.102971,-8956.491898,-383.047749
163542.982652,370.102971,-8882.471304,0.000000
163542.982971,814.226536,-9474.636058,76.609550
163542.983291,0.000000,-7179.997637,0.000000
163542.983610,518.144159,-9474.636058,-76.609550
163542.983930,-2072.576638,-7328.038826,0.000000
163542.984249,-296.082377,-9474.636058,766.095498
163542.984569,-666.185348,-11843.295072,-76.609550
163542.984888,-2368.659014,-9548.656652,1838.629195
163542.985208,-1258.350101,-9326.594869,-689.485948
163542.985527,-1258.350101,-9844.739029,-536.266849
163542.985847,-1480.411884,-9622.677246,-766.095498
163542.986166,-3034.844362,-7772.162391,-1838.629195
163542.986486,-1184.329507,-9252.574275,-995.924147
163542.986805,-2072.576638,-8956.491898,0.000000
163542.987125,-370.102971,-9918.759623,-76.609550
163542.987444,-2368.659014,-7772.162391,0.000000
163542.987764,-1776.494261,-8364.327145,0.000000
163542.988083,-1110.308913,-7994.224174,-1302.362347
163542.988403,0.000000,-9252.574275,-689.485948
163542.988722,74.020594,-9252.574275,-536.266849
163542.989042,74.020594,-9326.594869,-689.485948
163542.989361,2886.803174,-11843.295072,2374.896044
163542.989681,0.000000,-9178.553681,0.000000
163542.990000,814.226536,-9030.512492,306.438199
163542.990320,296.082377,-9178.553681,0.000000
163542.990640,222.061783,-8734.430116,612.876398
163542.990959,0.000000,-7179.997637,0.000000
163542.991279,1110.308913,-8882.471304,-76.609550
163542.991598,-1184.329507,-8364.327145,0.000000
163542.991918,-444.123565,-9992.780217,612.876398
163542.992237,-814.226536,-8882.471304,-383.047749
163542.992557,-74.020594,-10658.965565,1149.143247
163542.992876,-1332.370696,-9400.615463,-383.047749
163542.993196,-740.205942,-9844.739029,0.000000
163542.993515,-1332.370696,-9474.636058,-229.828649
163542.993835,-2368.659014,-8364.327145,229.828649
163542.994154,-1776.494261,-9252.574275,-306.438199
163542.994474,-666.185348,-8882.471304,-689.485948
163542.994793,-1184.329507,-9252.574275,0.000000
163542.995113,-74.020594,-10658.965565,-383.047749
163542.995432,-74.020594,-9474.636058,-689.485948
163542.995752,0.000000,-10214.842000,0.000000
163542.996071,74.020594,-9474.636058,-459.657299
163542.996391,1110.308913,-9474.636058,-229.828649
163542.996710,296.082377,-9400.615463,-766.095498
163542.997030,0.000000,-8364.327145,0.000000
163542.997349,148.041188,-9178.553681,0.000000
163542.997669,1628.453072,-9548.656652,1838.629195
163542.997988,1998.556043,-9474.636058,-76.609550
163542.998308,148.041188,-8364.327145,0.000000
163542.998627,2294.638420,-10658.965565,-76.609550
163542.998947,0.000000,-8586.388927,383.047749
163542.999266,-222.061783,-9400.615463,153.219100
163542.999586,-518.144159,-9474.636058,76.609550
163542.999905,-592.164754,-9844.739029,1378.971896
163543.000225,-2368.659014,-7772.162391,612.876398
163543.000545,-3552.988522,-7179.997637,0.000000
163543.000864,0.000000,-9844.739029,383.047749
163543.001184,-74.020594,-9474.636058,-76.609550
163543.001503,-370.102971,-7476.080014,-995.924147
163543.001823,2294.638420,-10658.965565,-76.609550
163543.002142,0.000000,-8808.450710,-842.705048
163543.002462,0.000000,-9474.636058,-919.314598
163543.002781,370.102971,-9770.718434,-612.876398
163543.003101,0.000000,-9548.656652,-2145.067394
163543.003420,2294.638420,-10658.965565,-995.924147
163543.003740,148.041188,-9548.656652,-1838.629195
163543.004059,3404.947333,-9992.780217,919.314598
163543.004379,5847.626942,-9474.636058,-76.609550
163543.004698,5847.626942,-8290.306550,-689.485948
163543.005018,4811.338623,-9252.574275,995.924147
163543.005337,5847.626942,-8808.450710,1455.581446
163543.005657,6143.709319,-9104.533087,1149.143247
163543.005976,5847.626942,-8956.491898,1762.019645
163543.006296,5847.626942,-9400.615463,919.314598
163543.006615,6143.709319,-10066.800811,-76.609550
163543.006935,4811.338623,-9474.636058,-689.485948
163543.007254,2960.823768,-8068.244768,-2451.505594
163543.007574,4737.318029,-9548.656652,-2145.067394
163543.007893,8808.450710,-9474.636058,-76.609550
163543.008213,7105.977043,-8586.388927,0.000000
163543.008532,7328.038826,-9400.615463,306.438199
163543.008852,7031.956449,-9844.739029,153.219100
163543.009171,5921.647536,-11029.068536,2757.943793
163543.009491,2368.659014,-11399.171507,0.000000
163543.009810,0.000000,-10732.986159,0.000000
163543.010130,2886.803174,-12435.459826,842.705048
163543.010450,2590.720797,-9474.636058,536.266849
163543.010769,2738.761985,-5995.668130,-1302.362347
163543.011089,4663.297435,-7105.977043,-76.609550
163543.011408,3849.070898,-5403.503377,-1915.238745
163543.011728,4293.194464,-5403.503377,-2604.724693
163543.012047,4589.276840,-7254.018232,-2911.162892
163543.012367,3552.988522,-9548.656652,-2145.067394
163543.012686,4367.215058,-13027.624579,-2528.115143
163543.013006,1184.329507,-14285.974681,-1225.752797
163543.013325,2886.803174,-16580.613101,2145.067394
163543.013645,5847.626942,-15396.283594,3600.648841
163543.013964,4663.297435,-8882.471304,383.047749
163543.014284,4219.173869,-6365.771101,2451.505594
163543.014603,2590.720797,-3552.988522,-766.095498
163543.014923,2368.659014,-4441.235652,-612.876398
163543.015242,3478.967927,-8290.306550,1149.143247
163543.015562,1850.514855,-8586.388927,1838.629195
163543.015881,-148.041188,-9474.636058,-76.609550
163543.016201,-2442.679609,-12435.459826,-76.609550
163543.016520,-1998.556043,-9622.677246,-1302.362347
163543.016840,0.000000,-7179.997637,0.000000
163543.017159,2294.638420,-9474.636058,-76.609550
163543.017479,518.144159,-10510.924376,612.876398
163543.017798,-74.020594,-10288.862594,153.219100
163543.018118,592.164754,-9252.574275,459.657299
163543.018437,444.123565,-9252.574275,-689.485948
163543.018757,-2960.823768,-7550.100608,-4903.011187
163543.019076,-2368.659014,-9548.656652,-4290.134789
163543.019396,1998.556043,-13323.706956,-689.485948
163543.019716,2072.576638,-12065.356855,1225.752797
163543.020035,0.000000,-8364.327145,0.000000
163543.020355,1110.308913,-9474.636058,1378.971896
163543.020674,2072.576638,-7624.121203,0.000000
163543.020994,5477.523971,-8142.265362,1838.629195
163543.021313,7328.038826,-8956.491898,4826.401637
163543.021633,7698.141797,-7179.997637,6128.763984
163543.021952,3923.091493,-4515.256246,0.000000
163543.022272,0.000000,-7772.162391,-4443.353888
163543.022591,-1850.514855,-10658.965565,-5592.497135
163543.022911,-666.185348,-13915.871710,-6511.811733
163543.023230,-74.020594,-16580.613101,-1915.238745
163543.023550,-444.123565,-12805.562797,-2298.286494
163543.023869,814.226536,-11103.089130,-919.314598
163543.024189,5773.606348,-9548.656652,2221.676944
163543.024508,9770.718434,-7179.997637,7660.954980
163543.024828,12731.542202,-3627.009116,9193.145976
163543.025147,9992.780217,-2072.576638,6052.154434
163543.025467,4959.379811,-2960.823768,-76.609550
163543.025786,2368.659014,-7179.997637,-2451.505594
163543.026106,3108.864956,-14211.954086,1762.019645
163543.026425,-2368.659014,-13397.727550,-3677.258390
163543.026745,-3849.070898,-14211.954086,-7277.907231
163543.027064,-3775.050304,-14582.057057,-9652.803275
163543.027384,-592.164754,-14285.974681,-6205.373534
163543.027703,2886.803174,-10510.924376,-4673.182538
163543.028023,5995.668130,-9326.594869,2068.457845
163543.028342,8142.265362,-6587.832884,2911.162892
163543.028662,9770.718434,-5477.523971,4213.525239
163543.028981,9400.615463,-6513.812290,6971.469032
163543.029301,8216.285956,-7031.956449,6665.030833
163543.029621,7105.977043,-7179.997637,6741.640382
163543.029940,7031.956449,-8882.471304,2374.896044
163543.030260,3330.926739,-11843.295072,-1302.362347
163543.030579,-3552.988522,-11325.150913,-7354.516781
163543.030899,-2442.679609,-14804.118840,-6205.373534
163543.031218,-1998.556043,-14730.098246,-5669.106685
163543.031538,-1036.288319,-13101.645173,-4673.182538
163543.031857,0.000000,-11029.068536,-2298.286494
163543.032177,1628.453072,-8438.347739,459.657299
163543.032496,4071.132681,-7698.141797,2834.553343
163543.032816,3849.070898,-4959.379811,2528.115143
163543.033135,2664.741391,-2442.679609,1532.190996
163543.033455,4145.153275,-4811.338623,4290.134789
163543.033774,1702.473667,-4811.338623,0.000000
163543.034094,1702.473667,-9918.759623,-459.657299
163543.034413,-1406.391290,-10362.883188,-2987.772442
163543.034733,-2516.700203,-11177.109724,-5056.230287
163543.035052,-3330.926739,-13323.706956,-4903.011187
163543.035372,-222.061783,-14211.954086,-2528.115143
163543.035691,1110.308913,-13027.624579,-76.609550
163543.036011,6439.791695,-11251.130318,2987.772442
163543.036330,6735.874072,-7105.977043,2374.896044
163543.036650,4737.318029,-5477.523971,2451.505594
163543.036969,3923.091493,-4811.338623,689.485948
163543.037289,4441.235652,-6661.853478,2604.724693
163543.037608,2516.700203,-7994.224174,919.314598
163543.037928,1184.329507,-9326.594869,-1225.752797
163543.038247,-74.020594,-11843.295072,-2528.115143
163543.038567,-74.020594,-11029.068536,-5209.449386
163543.038886,-1184.329507,-11917.315666,-3064.381992
163543.039206,1110.308913,-13027.624579,-1608.800546
163543.039526,3478.967927,-12435.459826,1149.143247
163543.039845,2368.659014,-8364.327145,1225.752797
163543.040165,4663.297435,-8290.306550,3217.601092
163543.040484,5995.668130,-7328.038826,4596.572988
163543.040804,5773.606348,-6661.853478,4596.572988
163543.041123,4885.359217,-5921.647536,2911.162892
163543.041443,3182.885551,-6587.832884,612.876398
163543.041762,-74.020594,-6735.874072,-4366.744339
163543.042082,-2368.659014,-9696.697840,-5822.325785
163543.042401,592.164754,-10732.986159,-4903.011187
163543.042721,-74.020594,-13619.789333,-4979.620737
163543.043040,0.000000,-12509.480420,0.000000
163543.043360,4071.132681,-10955.047942,-1302.362347
163543.043680,3775.050304,-11917.315666,1915.238745
163543.044000,5995.668130,-9918.759623,3524.039291
163543.044319,7550.100608,-7105.977043,4826.401637
163543.044639,7624.121203,-5921.647536,4826.401637
163543.044959,5403.503377,-2738.761985,1149.143247
163543.045279,3478.967927,-7105.977043,-1302.362347
163543.045599,2960.823768,-7772.162391,0.000000
163543.045918,4737.318029,-10436.903782,0.000000
163543.046238,0.000000,-9548.656652,-3983.696590
163543.046558,-444.123565,-12435.459826,-4749.792088
163543.046878,-222.061783,-15174.221811,-2374.896044
163543.047198,1924.535449,-13397.727550,229.828649
163543.047517,7031.956449,-10658.965565,2374.896044
163543.047837,2368.659014,-8290.306550,2374.896044
163543.048157,1184.329507,-6291.750507,612.876398
163543.048477,3552.988522,-6587.832884,0.000000
163543.048797,4737.318029,-7179.997637,2451.505594
163543.049116,3923.091493,-5255.462188,-536.266849
163543.049436,2886.803174,-9474.636058,-76.609550
163543.049756,0.000000,-9548.656652,-2451.505594
163543.050076,2294.638420,-11843.295072,-1072.533697
163543.050396,-296.082377,-12287.418637,-1378.971896
163543.050715,-2368.659014,-10288.862594,-2834.553343
163543.051035,-74.020594,-11843.295072,-2681.334243
163543.051355,2590.720797,-8882.471304,-383.047749
163543.051675,2368.659014,-5995.668130,0.000000
163543.051995,4589.276840,-8068.244768,1532.190996
163543.052314,4663.297435,-8290.306550,1149.143247
163543.052634,5329.482782,-8364.327145,2374.896044
163543.052954,4367.215058,-8216.285956,1762.019645
163543.053274,2072.576638,-8068.244768,842.705048
163543.053594,3849.070898,-10955.047942,2374.896044
163543.053913,4367.215058,-10732.986159,1072.533697
163543.054233,4071.132681,-9474.636058,-1302.362347
163543.054553,2886.803174,-11843.295072,-2528.115143
163543.054873,-1702.473667,-10881.027347,-3677.258390
163543.055193,-3997.112087,-10732.986159,-4290.134789
163543.055512,-1258.350101,-10658.965565,-1915.238745
163543.055832,-3404.947333,-9548.656652,-1072.533697
163543.056152,-2516.700203,-7920.203579,689.485948
163543.056472,74.020594,-5847.626942,3294.210641
163543.056792,5329.482782,-7624.121203,7124.688131
163543.057111,4663.297435,-5995.668130,3064.381992
163543.057431,3108.864956,-9474.636058,4060.306139
163543.057751,-666.185348,-8882.471304,-689.485948
163543.058071,-6587.832884,-11843.295072,-4366.744339
163543.058391,-7772.162391,-13027.624579,-4979.620737
163543.058710,-9326.594869,-13397.727550,-7814.174080
163543.059030,-5921.647536,-13027.624579,-3447.429741
163543.059350,-1480.411884,-10955.047942,-2451.505594
163543.059670,-296.082377,-10436.903782,3983.696590
163543.059990,-962.267725,-8586.388927,2374.896044
163543.060309,1110.308913,-7105.977043,4213.525239
163543.060629,-1184.329507,-5403.503377,919.314598
163543.060949,-3552.988522,-4811.338623,2451.505594
163543.061269,3701.029710,-7994.224174,5515.887586
163543.061589,2960.823768,-5403.503377,5515.887586
163543.061908,1776.494261,-8956.491898,459.657299
163543.062228,-3478.967927,-9918.759623,-2145.067394
163543.062548,-7328.038826,-13101.645173,-5286.058936
163543.062868,-8808.450710,-10732.986159,-7354.516781
163543.063187,-8660.409521,-14952.160028,-7584.345430
163543.063507,-7698.141797,-12435.459826,-3677.258390
163543.063827,-2442.679609,-10881.027347,-689.485948
163543.064147,2886.803174,-6365.771101,4136.915689
163543.064467,6735.874072,-7105.977043,4826.401637
163543.064786,3552.988522,-5403.503377,7048.078582
163543.065106,3478.967927,-7105.977043,3294.210641
163543.065426,1554.432478,-6143.709319,2221.676944
163543.065746,-1480.411884,-9696.697840,0.000000
163543.066066,-3034.844362,-9548.656652,-3064.381992
163543.066385,-1850.514855,-12583.501014,-2911.162892
163543.066705,148.041188,-9696.697840,-4366.744339
163543.067025,-1850.514855,-12065.356855,-5286.058936
163543.067345,-74.020594,-14063.912898,-2528.115143
163543.067665,-74.020594,-12731.542202,-1915.238745
163543.067984,1184.329507,-8956.491898,0.000000
163543.068304,740.205942,-9548.656652,0.000000
163543.068624,3849.070898,-8142.265362,3753.867940
163543.068944,2960.823768,-4811.338623,4903.011187
163543.069264,8216.285956,-5329.482782,5286.058936
163543.069583,5477.523971,-5699.585753,3370.820191
163543.069903,2664.741391,-8512.368333,2068.457845
163543.070223,962.267725,-10362.883188,919.314598
163543.070543,370.102971,-11251.130318,-2834.553343
163543.070863,-5625.565159,-11029.068536,-5515.887586
163543.071182,-6661.853478,-9696.697840,-7737.564530
163543.071502,-5921.647536,-9844.739029,-4903.011187
163543.071822,-888.247130,-9548.656652,-3370.820191
163543.072142,0.000000,-7179.997637,0.000000
163543.072462,3478.967927,-9178.553681,1149.143247
163543.072781,3701.029710,-7031.956449,4596.572988
163543.073101,3256.906145,-6291.750507,2528.115143
163543.073421,1110.308913,-6217.729913,1455.581446
163543.073741,2294.638420,-8290.306550,-76.609550
163543.074061,1258.350101,-9474.636058,2374.896044
163543.074380,0.000000,-8438.347739,-3677.258390
163543.074700,-1776.494261,-11325.150913,-1608.800546
163543.075020,-1036.288319,-13101.645173,-612.876398
163543.075340,-4441.235652,-9548.656652,-3064.381992
163543.075660,-3182.885551,-11621.233289,-4903.011187
163543.075979,-3923.091493,-10066.800811,-2451.505594
163543.076299,-1258.350101,-10362.883188,0.000000
163543.076619,4663.297435,-7105.977043,4213.525239
163543.076939,5033.400406,-6587.832884,4290.134789
163543.077259,3478.967927,-5921.647536,4213.525239
163543.077578,1702.473667,-6883.915261,2451.505594
163543.077898,0.000000,-6291.750507,1838.629195
163543.078218,-4737.318029,-9548.656652,-1225.752797
163543.078538,-7105.977043,-10288.862594,-3907.087040
163543.078858,-6587.832884,-13027.624579,-4443.353888
163543.079177,-2664.741391,-10214.842000,-2987.772442
163543.079497,-2368.659014,-10362.883188,-2604.724693
163543.079817,-74.020594,-9622.677246,229.828649
163543.080137,0.000000,-8364.327145,0.000000
163543.080457,666.185348,-7476.080014,0.000000
163543.080776,-74.020594,-10658.965565,1149.143247
163543.081096,-2294.638420,-8068.244768,536.266849
163543.081416,-2368.659014,-7772.162391,1838.629195
163543.081736,1406.391290,-7105.977043,0.000000
163543.082056,-666.185348,-10510.924376,-842.705048
163543.082375,-1110.308913,-10807.006753,-995.924147
163543.082695,-2590.720797,-11695.253884,-2681.334243
163543.083015,-3034.844362,-9548.656652,-4290.134789
163543.083335,-4367.215058,-10732.986159,-3753.867940
163543.083655,-3256.906145,-9548.656652,-1838.629195
163543.083974,148.041188,-8660.409521,766.095498
163543.084294,5847.626942,-9474.636058,4826.401637
163543.084614,1776.494261,-5995.668130,3677.258390
163543.084934,3478.967927,-7105.977043,2681.334243
163543.085254,2294.638420,-7624.121203,2604.724693
163543.085573,518.144159,-8660.409521,-153.219100
163543.085893,-3923.091493,-8956.491898,-2528.115143
163543.086213,-2442.679609,-12731.542202,-2528.115143
163543.086533,-3034.844362,-10066.800811,-3447.429741
163543.086853,-1184.329507,-10140.821405,-3447.429741
163543.087172,-1258.350101,-8364.327145,-2451.505594
163543.087492,2886.803174,-10658.965565,-689.485948
163543.087812,3182.885551,-10066.800811,2374.896044
163543.088132,1480.411884,-7550.100608,-459.657299
163543.088452,-518.144159,-8734.430116,1225.752797
163543.088771,1184.329507,-9104.533087,383.047749
163543.089091,0.000000,-6143.709319,2451.505594
163543.089411,3182.885551,-8586.388927,536.266849
163543.089731,1184.329507,-7772.162391,383.047749
163543.090051,592.164754,-10732.986159,0.000000
163543.090370,-518.144159,-10732.986159,-1838.629195
163543.090690,-1258.350101,-11843.295072,-4979.620737
163543.091010,-3701.029710,-11103.089130,-2145.067394
163543.091330,-1554.432478,-11621.233289,-2987.772442
163543.091650,814.226536,-8290.306550,612.876398
163543.091969,3552.988522,-9104.533087,2374.896044
163543.092289,3849.070898,-7550.100608,5132.839837
163543.092609,4071.132681,-8290.306550,4519.963438
163543.092929,1998.556043,-5995.668130,1838.629195
163543.093249,0.000000,-8364.327145,995.924147
163543.093568,-2442.679609,-7179.997637,-2145.067394
163543.093888,-1554.432478,-11843.295072,-1302.362347
163543.094208,-888.247130,-9474.636058,-459.657299
163543.094528,-1628.453072,-10066.800811,-2911.162892
163543.094848,-3182.885551,-10066.800811,-1838.629195
163543.095167,-1184.329507,-12509.480420,-76.609550
163543.095487,-2220.617826,-7772.162391,-3677.258390
163543.095807,-2368.659014,-9844.739029,0.000000
163543.096127,-1258.350101,-9178.553681,-76.609550
163543.096447,-1776.494261,-7994.224174,1149.143247
163543.096766,3478.967927,-8290.306550,3600.648841
163543.097086,592.164754,-7328.038826,1455.581446
163543.097406,1110.308913,-7994.224174,229.828649
163543.097726,-1036.288319,-10140.821405,0.000000
163543.098045,-1776.494261,-9548.656652,0.000000
163543.098365,-3330.926739,-10955.047942,-3064.381992
163543.098685,-2442.679609,-13027.624579,-2528.115143
163543.099005,1110.308913,-11103.089130,-76.609550
163543.099325,1998.556043,-6809.894666,-2068.457845
163543.099644,592.164754,-10658.965565,1915.238745
163543.099964,592.164754,-8364.327145,612.876398
163543.100284,1332.370696,-8882.471304,2451.505594
163543.100604,1184.329507,-7698.141797,612.876398
163543.100924,-592.164754,-9252.574275,1532.190996
163543.101243,-2442.679609,-7179.997637,-2834.553343
163543.101563,-74.020594,-9918.759623,1608.800546
163543.101883,592.164754,-8660.409521,-1455.581446
163543.102203,-1406.391290,-9844.739029,-306.438199
163543.102523,-740.205942,-9992.780217,-1915.238745
163543.102842,-74.020594,-11251.130318,1149.143247
163543.103162,0.000000,-10140.821405,0.000000
163543.103482,-1258.350101,-10510.924376,-1302.362347
163543.103802,-2442.679609,-9844.739029,-2221.676944
163543.104122,0.000000,-7772.162391,0.000000
163543.104441,-74.020594,-6661.853478,-3217.601092
163543.104761,1184.329507,-8364.327145,1149.143247
163543.105081,2368.659014,-9696.697840,383.047749
163543.105401,3034.844362,-8734.430116,1762.019645
163543.105721,2294.638420,-10658.965565,-76.609550
163543.106040,-2368.659014,-9844.739029,0.000000
163543.106360,-1554.432478,-12879.583391,-1072.533697
163543.106680,518.144159,-10288.862594,306.438199
163543.107000,2294.638420,-11843.295072,-76.609550
163543.107320,0.000000,-7179.997637,0.000000
163543.107639,3182.885551,-8142.265362,-229.828649
163543.107959,2960.823768,-7179.997637,1762.019645
163543.108279,666.185348,-8142.265362,-76.609550
163543.108599,-1258.350101,-8808.450710,0.000000
163543.108919,-1258.350101,-10955.047942,1149.143247
163543.109238,0.000000,-8956.491898,0.000000
163543.109558,-1480.411884,-9548.656652,0.000000
163543.109878,0.000000,-10436.903782,1532.190996
163543.110198,-74.020594,-10066.800811,-689.485948
163543.110518,0.000000,-5995.668130,0.000000
163543.110837,-2294.638420,-9770.718434,-1685.410096
163543.111157,-3182.885551,-10066.800811,-1838.629195
163543.111477,-2368.659014,-9548.656652,-76.609550
163543.111797,-296.082377,-7994.224174,-689.485948
163543.112117,-74.020594,-9474.636058,-76.609550
163543.112436,518.144159,-9474.636058,-76.609550
163543.112756,0.000000,-8364.327145,919.314598
163543.113076,1776.494261,-9104.533087,536.266849
163543.113396,-592.164754,-9548.656652,1225.752797
163543.113716,-4737.318029,-8364.327145,-4290.134789
163543.114035,-1184.329507,-9992.780217,-383.047749
163543.114355,0.000000,-9548.656652,-1915.238745
163543.114675,-296.082377,-9696.697840,383.047749
163543.114995,2294.638420,-10658.965565,-76.609550
163543.115315,1776.494261,-8364.327145,3064.381992
163543.115634,4071.132681,-9474.636058,-76.609550
163543.115954,-74.020594,-7846.182985,842.705048
163543.116274,-666.185348,-8882.471304,-1378.971896
163543.116594,-2368.659014,-7772.162391,1225.752797
163543.116914,-740.205942,-9326.594869,-2298.286494
163543.117233,-1554.432478,-9622.677246,612.876398
163543.117553,-592.164754,-10584.944971,-919.314598
163543.117873,592.164754,-7994.224174,612.876398
163543.118193,222.061783,-7698.141797,-2911.162892
163543.118513,-4145.153275,-8364.327145,-1685.410096
163543.118832,-2664.741391,-11843.295072,-2451.505594
163543.119152,-74.020594,-11251.130318,-76.609550
163543.119472,-1998.556043,-9252.574275,-2221.676944
163543.119792,0.000000,-7772.162391,1225.752797
163543.120112,814.226536,-9474.636058,-76.609550
163543.120431,3256.906145,-8438.347739,2298.286494
163543.120751,2146.597232,-8142.265362,-919.314598
163543.121071,-1258.350101,-8660.409521,-1915.238745
163543.121391,-1258.350101,-10658.965565,-1915.238745
163543.121711,0.000000,-9474.636058,-1302.362347
163543.122030,0.000000,-7772.162391,-1685.410096
163543.122350,0.000000,-9548.656652,459.657299
163543.122670,3182.885551,-11103.089130,2987.772442
163543.122990,0.000000,-5995.668130,0.000000
163543.123310,-74.020594,-8808.450710,383.047749
163543.123629,-592.164754,-8068.244768,-229.828649
163543.123949,-1924.535449,-8660.409521,-153.219100
163543.124269,-74.020594,-8290.306550,-76.609550
163543.124589,1406.391290,-10584.944971,1838.629195
163543.124909,1702.473667,-9474.636058,536.266849
163543.125228,0.000000,-8364.327145,306.438199
163543.125548,296.082377,-8512.368333,-1225.752797
163543.125868,-1258.350101,-9474.636058,-995.924147
163543.126188,-888.247130,-9474.636058,-1302.362347
163543.126508,-1184.329507,-9474.636058,-76.609550
163543.126827,-1036.288319,-8956.491898,-1991.848295
163543.127147,-3182.885551,-10288.862594,-383.047749
163543.127467,-74.020594,-9474.636058,-995.924147
163543.127787,1110.308913,-9104.533087,1149.143247
163543.128107,222.061783,-8660.409521,-1455.581446
163543.128426,-1998.556043,-8364.327145,-2451.505594
163543.128746,-222.061783,-10732.986159,-689.485948
163543.129066,-1258.350101,-9474.636058,-919.314598
163543.129386,0.000000,-9844.739029,-2145.067394
163543.129706,-666.185348,-10658.965565,76.609550
163543.130025,1110.308913,-10658.965565,459.657299
163543.130345,2738.761985,-8290.306550,2528.115143
163543.130665,0.000000,-7328.038826,0.000000
163543.130985,-1702.473667,-6735.874072,0.000000
163543.131304,0.000000,-9548.656652,0.000000
163543.131624,3182.885551,-9474.636058,4673.182538
163543.131944,-888.247130,-7476.080014,-1838.629195
163543.132264,-1406.391290,-10584.944971,459.657299
163543.132584,-1258.350101,-8290.306550,-3447.429741
163543.132903,-1332.370696,-9326.594869,0.000000
163543.133223,-2368.659014,-9326.594869,-3370.820191
163543.133543,-4367.215058,-8364.327145,-2145.067394
163543.133863,-2368.659014,-10140.821405,-3677.258390
163543.134183,0.000000,-8956.491898,0.000000
163543.134502,-1850.514855,-9696.697840,-2451.505594
163543.134822,-666.185348,-11547.212695,-689.485948
163543.135142,-2146.597232,-9178.553681,-1302.362347
163543.135462,3478.967927,-9474.636058,0.000000
163543.135782,666.185348,-9178.553681,-1072.533697
163543.136101,-666.185348,-9252.574275,-612.876398
163543.136421,-148.041188,-10584.944971,76.609550
163543.136741,0.000000,-8364.327145,1225.752797
163543.137061,-2368.659014,-9548.656652,0.000000
163543.137381,-1110.308913,-9918.759623,0.000000
163543.137700,740.205942,-10807.006753,1149.143247
163543.138020,370.102971,-7105.977043,-1532.190996
163543.138340,-74.020594,-8882.471304,-1455.581446
163543.138660,2886.803174,-10066.800811,2068.457845
163543.138980,518.144159,-9326.594869,1838.629195
163543.139299,74.020594,-7846.182985,-306.438199
163543.139619,-2368.659014,-9992.780217,0.000000
163543.139939,-3552.988522,-9548.656652,0.000000
163543.140259,-370.102971,-8142.265362,-383.047749
163543.140579,-2368.659014,-7179.997637,-1838.629195
163543.140898,-444.123565,-9474.636058,-76.609550
163543.141218,-74.020594,-9474.636058,-689.485948
163543.141538,1554.432478,-13027.624579,3600.648841
163543.141858,1702.473667,-9030.512492,-1149.143247
163543.142178,-1184.329507,-9844.739029,383.047749
163543.142497,-888.247130,-9696.697840,-1915.238745
163543.142817,-2368.659014,-8364.327145,0.000000
163543.143137,1628.453072,-9548.656652,-1685.410096
163543.143457,-74.020594,-10658.965565,-76.609550
163543.143777,-592.164754,-9696.697840,-1685.410096
163543.144096,-1554.432478,-7624.121203,-1838.629195
163543.144416,0.000000,-9548.656652,-1225.752797
163543.144736,-3552.988522,-8512.368333,0.000000
163543.145056,592.164754,-10436.903782,-1302.362347
163543.145376,1850.514855,-9696.697840,1149.143247
163543.145695,2072.576638,-9400.615463,-459.657299
163543.146015,-74.020594,-9474.636058,-76.609550
163543.146335,370.102971,-9104.533087,153.219100
163543.146655,1036.288319,-8512.368333,1685.410096
163543.146975,740.205942,-9326.594869,-1455.581446
163543.147295,-1850.514855,-10140.821405,1762.019645
163543.147614,-2960.823768,-9548.656652,0.000000
163543.147934,-2146.597232,-8882.471304,-689.485948
163543.148254,-3330.926739,-9178.553681,-3140.991542
163543.148574,-3552.988522,-7179.997637,-1838.629195
163543.148894,-1332.370696,-9252.574275,-1225.752797
163543.149214,2294.638420,-7105.977043,-76.609550
163543.149533,-74.020594,-9992.780217,-919.314598
163543.149853,-2146.597232,-10288.862594,153.219100
163543.150173,888.247130,-10140.821405,229.828649
163543.150493,2294.638420,-9474.636058,2374.896044
163543.150813,296.082377,-9548.656652,0.000000
163543.151133,-1628.453072,-8364.327145,0.000000
163543.151453,-74.020594,-10658.965565,-76.609550
163543.151772,1702.473667,-10658.965565,-76.609550
163543.152092,-3552.988522,-9548.656652,-3677.258390
163543.152412,-1258.350101,-10658.965565,-1302.362347
163543.152732,-592.164754,-9548.656652,76.609550
163543.153052,2294.638420,-8882.471304,229.828649
163543.153372,962.267725,-8808.450710,536.266849
163543.153691,296.082377,-8734.430116,1149.143247
163543.154011,-370.102971,-9030.512492,2374.896044
163543.154331,296.082377,-7772.162391,0.000000
163543.154651,-4145.153275,-7772.162391,0.000000
163543.154971,-74.020594,-11843.295072,-76.609550
163543.155291,-3775.050304,-7772.162391,0.000000
163543.155610,-888.247130,-9326.594869,-2528.115143
163543.155930,-4071.132681,-10436.903782,-383.047749
163543.156250,888.247130,-9622.677246,-1762.019645
163543.156570,370.102971,-8586.388927,766.095498
163543.156890,1036.288319,-10658.965565,-76.609550
163543.157210,-2442.679609,-10362.883188,536.266849
163543.157529,-1258.350101,-9474.636058,-2528.115143
163543.157849,-1776.494261,-9548.656652,612.876398
163543.158169,666.185348,-9918.759623,-919.314598
163543.158489,-2146.597232,-5995.668130,-1838.629195
163543.158809,1406.391290,-9178.553681,-153.219100
163543.159129,1554.432478,-8734.430116,1072.533697
163543.159448,592.164754,-9474.636058,-2451.505594
163543.159768,-1258.350101,-11843.295072,-76.609550
163543.160088,-1406.391290,-13323.706956,-3064.381992
163543.160408,-74.020594,-13027.624579,-76.609550
163543.160728,-74.020594,-10510.924376,-1608.800546
163543.161048,-592.164754,-7624.121203,1149.143247
163543.161367,0.000000,-7179.997637,0.000000
163543.161687,4071.132681,-7105.977043,1455.581446
163543.162007,2516.700203,-8216.285956,306.438199
163543.162327,-370.102971,-8956.491898,1762.019645
163543.162647,-1258.350101,-9844.739029,-229.828649
163543.162967,592.164754,-9770.718434,1149.143247
163543.163286,-1628.453072,-8068.244768,-1378.971896
163543.163606,-1184.329507,-8956.491898,612.876398
163543.163926,-74.020594,-10732.986159,2068.457845
163543.164246,1998.556043,-8882.471304,-76.609550
163543.164566,-3552.988522,-7179.997637,-2451.505594
163543.164886,-1332.370696,-8734.430116,-2068.457845
163543.165205,-2442.679609,-10214.842000,-995.924147
163543.165525,0.000000,-9252.574275,-766.095498
163543.165845,-962.267725,-7994.224174,-1302.362347
163543.166165,-74.020594,-8882.471304,-76.609550
163543.166485,0.000000,-9104.533087,459.657299
163543.166805,1776.494261,-7179.997637,0.000000
163543.167124,2368.659014,-10288.862594,2451.505594
163543.167444,1998.556043,-10807.006753,1685.410096
163543.167764,-4145.153275,-9548.656652,0.000000
163543.168084,-592.164754,-9770.718434,-2528.115143
163543.168404,-2146.597232,-9474.636058,-1225.752797
163543.168724,-814.226536,-10214.842000,-2145.067394
163543.169043,2294.638420,-10362.883188,1762.019645
163543.169363,4071.132681,-9178.553681,306.438199
163543.169683,1702.473667,-10658.965565,2987.772442
163543.170003,-666.185348,-9326.594869,-1455.581446
163543.170323,-1776.494261,-9548.656652,0.000000
163543.170643,0.000000,-9844.739029,1225.752797
163543.170962,-2886.803174,-7994.224174,306.438199
163543.171282,-2886.803174,-9326.594869,-1455.581446
163543.171602,-148.041188,-8956.491898,1762.019645
163543.171922,666.185348,-7624.121203,-1762.019645
163543.172242,-74.020594,-10955.047942,1762.019645
163543.172562,-2368.659014,-9548.656652,-1225.752797
163543.172882,-1480.411884,-10066.800811,-76.609550
163543.173201,-2590.720797,-11251.130318,-1915.238745
163543.173521,-3330.926739,-7698.141797,-1302.362347
163543.173841,-1776.494261,-9548.656652,0.000000
163543.174161,518.144159,-8586.388927,1762.019645
163543.174481,888.247130,-9104.533087,-1302.362347
163543.174801,-666.185348,-9474.636058,1838.629195
163543.175120,-814.226536,-7550.100608,-2221.676944
163543.175440,-1258.350101,-8290.306550,-995.924147
163543.175760,-2960.823768,-8956.491898,-2298.286494
163543.176080,-4441.235652,-7179.997637,0.000000
163543.176400,1110.308913,-11547.212695,-76.609550
163543.176720,4663.297435,-9474.636058,3600.648841
163543.177039,592.164754,-8956.491898,0.000000
163543.177359,962.267725,-9252.574275,766.095498
163543.177679,0.000000,-10140.821405,-383.047749
163543.177999,296.082377,-9030.512492,-383.047749
163543.178319,-1554.432478,-8586.388927,-2374.896044
163543.178639,-1628.453072,-9622.677246,76.609550
163543.178958,-962.267725,-8068.244768,0.000000
163543.179278,2960.823768,-7476.080014,1532.190996
163543.179598,1924.535449,-8660.409521,1225.752797
163543.179918,-1776.494261,-7179.997637,-1838.629195
163543.180238,-740.205942,-8882.471304,0.000000
163543.180558,-1036.288319,-8290.306550,-2757.943793
163543.180877,-3849.070898,-10066.800811,-2145.067394
163543.181197,-2960.823768,-10362.883188,-2834.553343
163543.181517,-1480.411884,-11029.068536,76.609550
163543.181837,0.000000,-7179.997637,-1225.752797
163543.182157,1406.391290,-9178.553681,919.314598
163543.182477,1776.494261,-9992.780217,306.438199
163543.182796,-74.020594,-9104.533087,0.000000
163543.183116,-74.020594,-9474.636058,-2528.115143
163543.183436,-2368.659014,-10214.842000,306.438199
163543.183756,-814.226536,-9622.677246,-1455.581446
163543.184076,1184.329507,-9030.512492,2604.724693
163543.184396,3849.070898,-9548.656652,2451.505594
163543.184715,1036.288319,-9104.533087,2987.772442
163543.185035,1110.308913,-10362.883188,0.000000
163543.185355,-74.020594,-11843.295072,-76.609550
163543.185675,-3404.947333,-8364.327145,-3677.258390
163543.185995,-2442.679609,-11843.295072,-76.609550
163543.186315,-3330.926739,-10214.842000,-2528.115143
163543.186634,0.000000,-8808.450710,1149.143247
163543.186954,1480.411884,-8734.430116,-995.924147
163543.187274,-222.061783,-9326.594869,3524.039291
163543.187594,-3256.906145,-6587.832884,-2451.505594
163543.187914,-74.020594,-8586.388927,2298.286494
163543.188234,-1184.329507,-9030.512492,-1608.800546
163543.188553,-2294.638420,-9696.697840,-153.219100
163543.188873,-666.185348,-11103.089130,-1915.238745
163543.189193,-74.020594,-7550.100608,-76.609550
163543.189513,1406.391290,-10362.883188,-1762.019645
163543.189833,-74.020594,-10066.800811,-76.609550
163543.190153,518.144159,-9326.594869,-1608.800546
163543.190472,0.000000,-8364.327145,1225.752797
163543.190792,-2812.782580,-8364.327145,-4290.134789
163543.191112,-2220.617826,-10807.006753,-459.657299
163543.191432,296.082377,-10362.883188,612.876398
163543.191752,3256.906145,-7179.997637,1608.800546
163543.192072,2812.782580,-8586.388927,842.705048
163543.192392,1110.308913,-7994.224174,536.266849
163543.192711,740.205942,-10140.821405,2451.505594
163543.193031,3478.967927,-9474.636058,1762.019645
163543.193351,-666.185348,-9474.636058,-842.705048
163543.193671,-4145.153275,-8364.327145,-1838.629195
163543.193991,-962.267725,-9622.677246,689.485948
163543.194311,2146.597232,-8290.306550,-1378.971896
163543.194630,296.082377,-9992.780217,0.000000
163543.194950,-666.185348,-9548.656652,-2451.505594
163543.195270,-1258.350101,-9474.636058,-76.609550
163543.195590,-2368.659014,-8734.430116,-3753.867940
163543.195910,-4737.318029,-8660.409521,0.000000
163543.196230,-666.185348,-9474.636058,-689.485948
163543.196549,2294.638420,-10066.800811,4826.401637
163543.196869,1184.329507,-7179.997637,0.000000
163543.197189,222.061783,-8438.347739,1378.971896
163543.197509,-1110.308913,-9474.636058,-2451.505594
163543.197829,-1554.432478,-10510.924376,229.828649
163543.198149,-1258.350101,-11251.130318,-4366.744339
163543.198468,-3182.885551,-11029.068536,-612.876398
163543.198788,-666.185348,-11843.295072,-2528.115143
163543.199108,1702.473667,-9178.553681,2374.896044
163543.199428,4071.132681,-6809.894666,-1302.362347
163543.199748,2368.659014,-9030.512492,6665.030833
163543.200068,1184.329507,-7772.162391,612.876398
163543.200387,1998.556043,-7624.121203,3064.381992
163543.200707,-222.061783,-8808.450710,-1455.581446
163543.201027,-3182.885551,-9178.553681,842.705048
163543.201347,-2590.720797,-11029.068536,-2911.162892
163543.201667,-888.247130,-9252.574275,1532.190996
163543.201987,-74.020594,-9326.594869,-1302.362347
163543.202306,-74.020594,-9474.636058,-76.609550
163543.202626,-222.061783,-8882.471304,-1302.362347
163543.202946,0.000000,-10436.903782,2757.943793
163543.203266,-2960.823768,-9622.677246,-2911.162892
163543.203586,-3775.050304,-9474.636058,-306.438199
163543.203906,-2368.659014,-10732.986159,-995.924147
163543.204225,148.041188,-6587.832884,0.000000
163543.204545,0.000000,-6365.771101,-2145.067394
163543.204865,1258.350101,-7476.080014,306.438199
163543.205185,0.000000,-8364.327145,612.876398
163543.205505,1184.329507,-8660.409521,-229.828649
163543.205825,-1258.350101,-13027.624579,-689.485948
163543.206144,-3552.988522,-10732.986159,-2298.286494
163543.206464,-1554.432478,-11251.130318,-1685.410096
163543.206784,1332.370696,-9104.533087,-766.095498
163543.207104,962.267725,-9622.677246,0.000000
163543.207424,814.226536,-6587.832884,-842.705048
163543.207744,3478.967927,-9474.636058,3600.648841
163543.208063,1110.308913,-6809.894666,-766.095498
163543.208383,-2960.823768,-8364.327145,0.000000
163543.208703,-2886.803174,-9548.656652,0.000000
163543.209023,-74.020594,-11843.295072,2374.896044
163543.209343,222.061783,-6883.915261,-1225.752797
163543.209663,0.000000,-9030.512492,3064.381992
163543.209982,1258.350101,-8290.306550,0.000000
163543.210302,1702.473667,-8882.471304,2451.505594
163543.210622,-74.020594,-7698.141797,-2451.505594
163543.210942,-3552.988522,-10732.986159,0.000000
163543.211262,-3923.091493,-11843.295072,-3524.039291
163543.211582,-370.102971,-13027.624579,1762.019645
163543.211902,-962.267725,-8290.306550,-2528.115143
163543.212221,-74.020594,-10362.883188,3294.210641
163543.212541,1258.350101,-8512.368333,-842.705048
163543.212861,2812.782580,-8512.368333,3370.820191
163543.213181,1554.432478,-8512.368333,-536.266849
163543.213501,-4145.153275,-7179.997637,0.000000
163543.213821,-3849.070898,-9548.656652,-3677.258390
163543.214140,-370.102971,-8956.491898,1225.752797
163543.214460,3478.967927,-11843.295072,-383.047749
163543.214780,74.020594,-9918.759623,1762.019645
163543.215100,2294.638420,-10658.965565,-1302.362347
163543.215420,592.164754,-9400.615463,1608.800546
163543.215740,-1480.411884,-9844.739029,-3600.648841
163543.216059,-1850.514855,-11029.068536,76.609550
163543.216379,-1036.288319,-11177.109724,-1762.019645
163543.216699,0.000000,-5995.668130,1532.190996
163543.217019,2146.597232,-7105.977043,-76.609550
163543.217339,1184.329507,-5699.585753,2451.505594
163543.217659,3256.906145,-8660.409521,1532.190996
163543.217978,1776.494261,-7179.997637,1838.629195
163543.218298,-2960.823768,-11325.150913,-1225.752797
163543.218618,-5181.441594,-10362.883188,-2987.772442
163543.218938,-3923.091493,-11473.192101,-2987.772442
163543.219258,-1332.370696,-9770.718434,-995.924147
163543.219578,-2368.659014,-8660.409521,-2451.505594
163543.219897,-888.247130,-8660.409521,-766.095498
163543.220217,0.000000,-8956.491898,612.876398
163543.220537,1702.473667,-7994.224174,0.000000
163543.220857,-74.020594,-10658.965565,-76.609550
163543.221177,-2368.659014,-7179.997637,0.000000
163543.221497,-666.185348,-8438.347739,229.828649
163543.221816,1850.514855,-8068.244768,-153.219100
163543.222136,222.061783,-8734.430116,536.266849
163543.222456,-740.205942,-9474.636058,-1915.238745
163543.222776,2294.638420,-11843.295072,-76.609550
163543.223096,370.102971,-9770.718434,-2604.724693
163543.223416,-1258.350101,-13027.624579,-76.609550
163543.223735,-2960.823768,-8660.409521,-3677.258390
163543.224055,740.205942,-10584.944971,2604.724693
163543.224375,1702.473667,-7105.977043,-4366.744339
163543.224695,1332.370696,-8438.347739,2757.943793
163543.225015,1850.514855,-7624.121203,-229.828649
163543.225335,1850.514855,-8586.388927,3600.648841
163543.225654,1110.308913,-9474.636058,-76.609550
163543.225974,-3552.988522,-8660.409521,1225.752797
163543.226294,-2886.803174,-10658.965565,-3600.648841
163543.226614,-1776.494261,-9770.718434,612.876398
163543.226934,-1258.350101,-9104.533087,-3447.429741
163543.227254,-814.226536,-10658.965565,0.000000
163543.227573,-1110.308913,-8734.430116,-2911.162892
163543.227893,1998.556043,-8882.471304,1149.143247
163543.228213,-1110.308913,-9474.636058,-3140.991542
163543.228533,-2960.823768,-8364.327145,0.000000
163543.228853,-74.020594,-11769.274478,-76.609550
163543.229173,-1776.494261,-7772.162391,2451.505594
163543.229492,444.123565,-7846.182985,-2528.115143
163543.229812,222.061783,-8882.471304,2451.505594
163543.230132,2294.638420,-9474.636058,383.047749
163543.230452,1776.494261,-6587.832884,1225.752797
163543.230772,-296.082377,-9548.656652,-1991.848295
163543.231092,-1480.411884,-10732.986159,612.876398
163543.231412,-1258.350101,-13027.624579,-1915.238745
163543.231731,-1258.350101,-10066.800811,229.828649
163543.232051,-888.247130,-12879.583391,-689.485948
163543.232371,-1332.370696,-8586.388927,459.657299
163543.232691,814.226536,-8660.409521,0.000000
163543.233011,2664.741391,-7328.038826,2451.505594
163543.233331,0.000000,-7179.997637,-2451.505594
163543.233650,-4145.153275,-6587.832884,0.000000
163543.233970,-3182.885551,-7920.203579,-2451.505594
163543.234290,0.000000,-9400.615463,536.266849
163543.234610,-1258.350101,-10362.883188,-1302.362347
163543.234930,-1258.350101,-11251.130318,-76.609550
163543.235250,0.000000,-11991.336260,1455.581446
163543.235569,1332.370696,-7550.100608,-1302.362347
163543.235889,-1850.514855,-9622.677246,-1991.848295
163543.236209,-3256.906145,-9622.677246,-3140.991542
163543.236529,-3182.885551,-9548.656652,-995.924147
163543.236849,2294.638420,-9326.594869,-689.485948
163543.237169,1702.473667,-8438.347739,459.657299
163543.237488,888.247130,-8364.327145,0.000000
163543.237808,4367.215058,-10362.883188,4213.525239
163543.238128,4663.297435,-9474.636058,-76.609550
163543.238448,-888.247130,-10140.821405,1072.533697
163543.238768,-962.267725,-10214.842000,-1225.752797
163543.239088,1110.308913,-10658.965565,2451.505594
163543.239407,2146.597232,-7550.100608,-76.609550
163543.239727,-740.205942,-8956.491898,2757.943793
163543.240047,-1258.350101,-9474.636058,-1302.362347
163543.240367,-148.041188,-9548.656652,3140.991542
163543.240687,-74.020594,-8290.306550,-2528.115143
163543.241007,-3256.906145,-7476.080014,-2068.457845
163543.241326,-74.020594,-11843.295072,-1302.362347
163543.241646,-1332.370696,-9252.574275,2145.067394
163543.241966,-296.082377,-8364.327145,-2834.553343
163543.242286,-2146.597232,-9770.718434,1149.143247
163543.242606,-2368.659014,-9548.656652,-1225.752797
163543.242926,0.000000,-8364.327145,1225.752797
163543.243245,-2368.659014,-7772.162391,-4903.011187
163543.243565,-1776.494261,-10436.903782,1072.533697
163543.243885,-74.020594,-11251.130318,-919.314598
163543.244205,1998.556043,-9178.553681,-229.828649
163543.244525,1702.473667,-9474.636058,-1149.143247
163543.244845,0.000000,-10066.800811,1608.800546
163543.245164,1332.370696,-9548.656652,-306.438199
163543.245484,2368.659014,-7105.977043,1532.190996
163543.245804,0.000000,-7179.997637,-2451.505594
163543.246124,-1258.350101,-10658.965565,-689.485948
163543.246443,-3404.947333,-10140.821405,-2451.505594
163543.246763,-1776.494261,-9548.656652,0.000000
163543.247083,-1184.329507,-10140.821405,-612.876398
163543.247403,-74.020594,-8734.430116,-689.485948
163543.247723,1036.288319,-9474.636058,1532.190996
163543.248042,2146.597232,-6217.729913,1072.533697
163543.248362,222.061783,-8808.450710,306.438199
163543.248682,-1480.411884,-7920.203579,-766.095498
163543.249002,-2368.659014,-8512.368333,-1838.629195
163543.249322,-74.020594,-9474.636058,-76.609550
163543.249641,-3552.988522,-8512.368333,0.000000
163543.249961,0.000000,-10584.944971,153.219100
163543.250281,2294.638420,-9474.636058,-76.609550
163543.250601,1110.308913,-7698.141797,-1378.971896
163543.250920,-1628.453072,-10584.944971,-383.047749
163543.251240,-2590.720797,-9252.574275,-2911.162892
163543.251560,-1554.432478,-10140.821405,76.609550
163543.251880,0.000000,-7772.162391,-1532.190996
163543.252200,-1184.329507,-9844.739029,766.095498
163543.252519,888.247130,-8364.327145,0.000000
163543.252839,4071.132681,-9474.636058,3600.648841
163543.253159,444.123565,-6883.915261,-2681.334243
163543.253479,-1258.350101,-8290.306550,0.000000
163543.253799,-148.041188,-10955.047942,-1762.019645
163543.254118,1258.350101,-9770.718434,2604.724693
163543.254438,1184.329507,-8734.430116,-1838.629195
163543.254758,-444.123565,-10732.986159,2374.896044
163543.255078,0.000000,-7476.080014,-2451.505594
163543.255397,-1406.391290,-6365.771101,306.438199
163543.255717,-1776.494261,-7476.080014,-3677.258390
163543.256037,-1258.350101,-10584.944971,3447.429741
163543.256357,-74.020594,-10658.965565,-1915.238745
163543.256677,1332.370696,-11251.130318,4826.401637
163543.256996,-814.226536,-8512.368333,-1532.190996
163543.257316,-1628.453072,-9770.718434,1991.848295
163543.257636,0.000000,-9696.697840,-1302.362347
163543.257956,0.000000,-5403.503377,612.876398
163543.258276,-1184.329507,-8512.368333,-2757.943793
163543.258595,-1258.350101,-10658.965565,842.705048
163543.258915,-666.185348,-11843.295072,-2528.115143
163543.259235,-2960.823768,-8364.327145,0.000000
163543.259555,-2368.659014,-11029.068536,-919.314598
163543.259874,-2960.823768,-9844.739029,0.000000
163543.260194,962.267725,-9770.718434,-612.876398
163543.260514,1480.411884,-7624.121203,1149.143247
163543.260834,74.020594,-9030.512492,-766.095498
163543.261154,1110.308913,-8290.306550,-383.047749
163543.261473,1924.535449,-10066.800811,612.876398
163543.261793,1406.391290,-8660.409521,766.095498
163543.262113,-1036.288319,-9474.636058,-306.438199
163543.262433,-74.020594,-11103.089130,1685.410096
163543.262753,1184.329507,-10214.842000,1762.019645
163543.263072,0.000000,-7179.997637,0.000000
163543.263392,-222.061783,-9474.636058,-689.485948
163543.263712,-1258.350101,-11843.295072,-1302.362347
163543.264032,-2886.803174,-9548.656652,-3064.381992
163543.264351,-74.020594,-10658.965565,-2528.115143
163543.264671,-2960.823768,-11325.150913,0.000000
163543.264991,-1258.350101,-10066.800811,-919.314598
163543.265311,1480.411884,-9696.697840,2451.505594
163543.265631,1480.411884,-7105.977043,536.266849
163543.265950,1480.411884,-9400.615463,2145.067394
163543.266270,0.000000,-8068.244768,-1225.752797
163543.266590,1184.329507,-8364.327145,2451.505594
163543.266910,148.041188,-9770.718434,-1915.238745
163543.267230,-3923.091493,-8068.244768,-2451.505594
163543.267549,-2590.720797,-11251.130318,-2987.772442
163543.267869,-2072.576638,-10732.986159,0.000000
163543.268189,-1776.494261,-9178.553681,-4443.353888
163543.268509,-1628.453072,-9992.780217,995.924147
163543.268828,1702.473667,-10658.965565,-1302.362347
163543.269148,1702.473667,-9252.574275,2987.772442
163543.269468,1702.473667,-8882.471304,-2528.115143
163543.269788,-2368.659014,-7772.162391,1225.752797
163543.270108,592.164754,-9548.656652,0.000000
163543.270427,1110.308913,-7179.997637,1608.800546
163543.270747,1924.535449,-8956.491898,-612.876398
163543.271067,-592.164754,-8438.347739,2145.067394
163543.271387,518.144159,-10510.924376,-2528.115143
163543.271706,1702.473667,-11843.295072,2374.896044
163543.272026,-74.020594,-11843.295072,-4596.572988
163543.272346,-3552.988522,-11621.233289,1838.629195
163543.272666,-370.102971,-12435.459826,-1302.362347
163543.272986,444.123565,-9548.656652,2451.505594
163543.273305,-4145.153275,-6587.832884,-3064.381992
163543.273625,-1554.432478,-6661.853478,-306.438199
163543.273945,148.041188,-8808.450710,-842.705048
163543.274265,1110.308913,-7920.203579,1455.581446
163543.274585,-74.020594,-8956.491898,-1608.800546
163543.274904,-1184.329507,-9844.739029,1455.581446
163543.275224,-1924.535449,-9844.739029,-919.314598
163543.275544,-444.123565,-8512.368333,76.609550
163543.275864,-74.020594,-11843.295072,-689.485948
163543.276183,-74.020594,-10066.800811,-995.924147
163543.276503,0.000000,-7179.997637,0.000000
163543.276823,3478.967927,-8734.430116,229.828649
163543.277143,592.164754,-10584.944971,0.000000
163543.277463,-1036.288319,-9474.636058,-536.266849
163543.277782,74.020594,-9770.718434,536.266849
163543.278102,518.144159,-7624.121203,-383.047749
163543.278422,-1776.494261,-9252.574275,919.314598
163543.278742,-666.185348,-6587.832884,-1685.410096
163543.279062,592.164754,-7624.121203,1838.629195
163543.279381,2960.823768,-8364.327145,2145.067394
163543.279701,-2368.659014,-7179.997637,0.000000
163543.280021,-1406.391290,-9474.636058,-2528.115143
163543.280341,-1924.535449,-10584.944971,459.657299
163543.280660,-2294.638420,-9770.718434,-3064.381992
163543.280980,-1258.350101,-11843.295072,-76.609550
163543.281300,-370.102971,-9474.636058,-2298.286494
163543.281620,-74.020594,-10362.883188,-689.485948
163543.281940,-1184.329507,-8364.327145,-3370.820191
163543.282259,-1036.288319,-10288.862594,0.000000
163543.282579,0.000000,-9548.656652,0.000000
163543.282899,-1184.329507,-8364.327145,1532.190996
163543.283219,74.020594,-8290.306550,-2451.505594
163543.283539,-1924.535449,-7920.203579,1838.629195
163543.283858,666.185348,-7698.141797,-2757.943793
163543.284178,2294.638420,-10658.965565,2757.943793
163543.284498,0.000000,-9548.656652,-2451.505594
163543.284818,-1258.350101,-11843.295072,2068.457845
163543.285137,-74.020594,-13619.789333,-689.485948
163543.285457,-74.020594,-10362.883188,842.705048
163543.285777,-2368.659014,-9548.656652,0.000000
163543.286097,-370.102971,-7254.018232,1455.581446
163543.286417,518.144159,-8586.388927,-459.657299
163543.286736,3849.070898,-7179.997637,3447.429741
163543.287056,1702.473667,-7402.059420,-1915.238745
163543.287376,-74.020594,-8882.471304,2681.334243
163543.287696,-1480.411884,-8956.491898,-919.314598
163543.288016,-3552.988522,-7179.997637,0.000000
163543.288335,-1702.473667,-10658.965565,-2221.676944
163543.288655,-666.185348,-11251.130318,-76.609550
163543.288975,-2368.659014,-9548.656652,-1838.629195
163543.289295,1554.432478,-9770.718434,0.000000
163543.289614,-296.082377,-11029.068536,-1302.362347
163543.289934,-814.226536,-9770.718434,306.438199
163543.290254,-370.102971,-8290.306550,-1302.362347
163543.290574,962.267725,-8290.306550,919.314598
163543.290894,-666.185348,-6365.771101,-1762.019645
163543.291213,0.000000,-6291.750507,0.000000
163543.291533,1924.535449,-8660.409521,0.000000
163543.291853,592.164754,-5107.421000,-2451.505594
163543.292173,-74.020594,-11399.171507,-229.828649
163543.292493,-1628.453072,-11695.253884,-2911.162892
163543.292812,-1406.391290,-12435.459826,-766.095498
163543.293132,0.000000,-10066.800811,-2528.115143
163543.293452,592.164754,-10881.027347,1685.410096
163543.293772,0.000000,-7476.080014,0.000000
163543.294091,4219.173869,-9178.553681,4826.401637
163543.294411,5033.400406,-7846.182985,2374.896044
163543.294731,-1258.350101,-6291.750507,995.924147
163543.295051,-74.020594,-9474.636058,-995.924147
163543.295371,-2220.617826,-9252.574275,1762.019645
163543.295690,-3256.906145,-8882.471304,-3677.258390
163543.296010,-3997.112087,-10288.862594,153.219100
163543.296330,-2368.659014,-10362.883188,-3294.210641
163543.296650,-1406.391290,-9474.636058,536.266849
163543.296969,-74.020594,-9400.615463,-2834.553343
163543.297289,-666.185348,-11843.295072,-76.609550
163543.297609,-2368.659014,-10732.986159,-2451.505594
163543.297929,2294.638420,-11843.295072,3600.648841
163543.298249,-1184.329507,-9104.533087,-1225.752797
163543.298568,-1702.473667,-8586.388927,1685.410096
163543.298888,222.061783,-8660.409521,-1762.019645
163543.299208,2368.659014,-7624.121203,4519.963438
163543.299528,0.000000,-6291.750507,-2451.505594
163543.299848,1110.308913,-10510.924376,2221.676944
163543.300167,518.144159,-10955.047942,-612.876398
163543.300487,0.000000,-9400.615463,612.876398
163543.300807,-2442.679609,-10955.047942,-3907.087040
163543.301127,-3034.844362,-9474.636058,-995.924147
163543.301446,0.000000,-9548.656652,-1149.143247
163543.301766,1406.391290,-7698.141797,2987.772442
163543.302086,2294.638420,-11251.130318,-76.609550
163543.302406,0.000000,-8364.327145,2451.505594
163543.302726,0.000000,-8364.327145,612.876398
163543.303045,222.061783,-7328.038826,766.095498
163543.303365,-3256.906145,-9104.533087,-2221.676944
163543.303685,-2738.761985,-9326.594869,-229.828649
163543.304005,1554.432478,-9326.594869,-995.924147
163543.304325,2886.803174,-8068.244768,76.609550
163543.304644,888.247130,-10732.986159,0.000000
163543.304964,2294.638420,-11843.295072,-76.609550
163543.305284,-74.020594,-11251.130318,-689.485948
163543.305604,-3552.988522,-8364.327145,-2451.505594
163543.305923,-4145.153275,-10732.986159,-2221.676944
163543.306243,-1554.432478,-9252.574275,-2068.457845
163543.306563,1924.535449,-8660.409521,1302.362347
163543.306883,3849.070898,-5403.503377,-1838.629195
163543.307203,1702.473667,-7994.224174,536.266849
163543.307522,666.185348,-9178.553681,-2068.457845
163543.307842,0.000000,-10732.986159,2451.505594
163543.308162,1036.288319,-10658.965565,-1302.362347
163543.308482,-1258.350101,-12731.542202,2068.457845
163543.308802,-2368.659014,-8364.327145,-2451.505594
163543.309121,2294.638420,-9474.636058,1838.629195
163543.309441,1776.494261,-8068.244768,-2068.457845
163543.309761,-592.164754,-9548.656652,1532.190996
163543.310081,-74.020594,-9474.636058,-1608.800546
163543.310400,-74.020594,-11251.130318,4213.525239
163543.310720,-370.102971,-8882.471304,-3140.991542
163543.311040,-5329.482782,-8956.491898,229.828649
163543.311360,-2960.823768,-6883.915261,-3064.381992
163543.311680,1776.494261,-8364.327145,5056.230287
163543.311999,1184.329507,-6587.832884,-2145.067394
163543.312319,-962.267725,-9622.677246,1838.629195
163543.312639,-2072.576638,-11177.109724,-2451.505594
163543.312959,-2368.659014,-10140.821405,-689.485948
163543.313279,-3182.885551,-9844.739029,-6128.763984
163543.313598,-4441.235652,-10140.821405,0.000000
163543.313918,-74.020594,-9474.636058,-76.609550
163543.314238,3478.967927,-7698.141797,1762.019645
163543.314558,2664.741391,-7402.059420,-1378.971896
163543.314877,592.164754,-11029.068536,4596.572988
163543.315197,1480.411884,-9918.759623,-383.047749
163543.315517,370.102971,-8660.409521,1608.800546
163543.315837,-1554.432478,-9696.697840,-1302.362347
163543.316157,-3775.050304,-8364.327145,0.000000
163543.316476,0.000000,-7550.100608,-2374.896044
163543.316796,2368.659014,-6513.812290,-689.485948
163543.317116,296.082377,-8364.327145,-1838.629195
163543.317436,0.000000,-10436.903782,0.000000
163543.317756,-74.020594,-14211.954086,-76.609550
163543.318075,-2368.659014,-9548.656652,0.000000
163543.318395,-2738.761985,-10510.924376,-1532.190996
163543.318715,-2960.823768,-8882.471304,-1838.629195
163543.319035,-148.041188,-9548.656652,1378.971896
163543.319354,0.000000,-4293.194464,-1608.800546
163543.319674,1406.391290,-10658.965565,2374.896044
163543.319994,-74.020594,-9474.636058,-76.609550
163543.320314,-666.185348,-9326.594869,536.266849
163543.320634,-2220.617826,-7179.997637,-3370.820191
163543.320953,-1332.370696,-11843.295072,1762.019645
163543.321273,-3404.947333,-9104.533087,-3064.381992
163543.321593,-962.267725,-9918.759623,459.657299
163543.321913,1776.494261,-8290.306550,-2451.505594
163543.322232,1110.308913,-9844.739029,1532.190996
163543.322552,2294.638420,-9030.512492,-919.314598
163543.322872,1480.411884,-10140.821405,4136.915689
163543.323192,-962.267725,-8882.471304,-1225.752797
163543.323512,-2442.679609,-11843.295072,2374.896044
163543.323831,-1850.514855,-8290.306550,-3294.210641
163543.324151,3404.947333,-9474.636058,4826.401637
163543.324471,2368.659014,-6883.915261,-459.657299
163543.324791,740.205942,-7550.100608,2757.943793
163543.325111,222.061783,-9326.594869,-1225.752797
163543.325430,-2368.659014,-8364.327145,612.876398
163543.325750,-3256.906145,-9548.656652,-4596.572988
163543.326070,-4441.235652,-10436.903782,0.000000
163543.326390,-1776.494261,-11621.233289,-1838.629195
163543.326709,-74.020594,-9178.553681,1991.848295
163543.327029,2294.638420,-9474.636058,-2528.115143
163543.327349,888.247130,-9918.759623,2681.334243
163543.327669,2516.700203,-10510.924376,-612.876398
163543.327989,2220.617826,-8364.327145,2374.896044
163543.328308,-1258.350101,-10584.944971,-2221.676944
163543.328628,-5847.626942,-7179.997637,0.000000
163543.328948,-1258.350101,-9474.636058,-2834.553343
163543.329268,0.000000,-5995.668130,612.876398
163543.329588,1776.494261,-9474.636058,-1225.752797
163543.329907,1036.288319,-9844.739029,1685.410096
163543.330227,0.000000,-11325.150913,0.000000
163543.330547,-1998.556043,-8290.306550,-1532.190996
163543.330867,-3478.967927,-10658.965565,-2911.162892
163543.331186,-2516.700203,-10066.800811,-612.876398
163543.331506,0.000000,-8364.327145,0.000000
163543.331826,1776.494261,-5255.462188,919.314598
163543.332146,1776.494261,-8364.327145,2145.067394
163543.332466,3478.967927,-8956.491898,2834.553343
163543.332785,4663.297435,-9474.636058,2374.896044
163543.333105,-2368.659014,-5995.668130,0.000000
163543.333425,-4515.256246,-9622.677246,-1685.410096
163543.333745,-3330.926739,-11029.068536,-3294.210641
163543.334065,-1258.350101,-11325.150913,76.609550
163543.334384,-666.185348,-8290.306550,-2298.286494
163543.334704,-74.020594,-10658.965565,2374.896044
163543.335024,0.000000,-7772.162391,-2145.067394
163543.335344,148.041188,-9622.677246,1378.971896
163543.335663,-1480.411884,-9474.636058,-1991.848295
163543.335983,-4663.297435,-10362.883188,1838.629195
163543.336303,-2960.823768,-8364.327145,0.000000
163543.336623,0.000000,-6291.750507,1225.752797
163543.336943,3775.050304,-8882.471304,766.095498
163543.337262,814.226536,-7920.203579,1608.800546
163543.337582,888.247130,-7772.162391,-3447.429741
163543.337902,4071.132681,-12435.459826,2374.896044
163543.338222,-2886.803174,-10732.986159,-4596.572988
163543.338542,-5847.626942,-11621.233289,-459.657299
163543.338861,-2294.638420,-11399.171507,-4596.572988
163543.339181,0.000000,-9548.656652,1455.581446
163543.339501,2368.659014,-8438.347739,-306.438199
163543.339821,888.247130,-6069.688724,2451.505594
163543.340140,2368.659014,-8364.327145,0.000000
163543.340460,2368.659014,-7772.162391,4290.134789
163543.340780,-74.020594,-9178.553681,-1302.362347
163543.341100,-1036.288319,-10214.842000,2987.772442
163543.341420,-962.267725,-9178.553681,-1991.848295
163543.341739,-518.144159,-8956.491898,1685.410096
163543.342059,1184.329507,-8290.306550,-2298.286494
163543.342379,-888.247130,-9548.656652,919.314598
163543.342699,-888.247130,-10732.986159,-2757.943793
163543.343019,-74.020594,-11547.212695,-76.609550
163543.343338,-2442.679609,-11843.295072,-2834.553343
163543.343658,-5329.482782,-9548.656652,-2451.505594
163543.343978,-370.102971,-11843.295072,-1302.362347
163543.344298,1184.329507,-8068.244768,1608.800546
163543.344617,3182.885551,-7920.203579,1685.410096
163543.344937,2516.700203,-7179.997637,1762.019645
163543.345257,4219.173869,-9622.677246,2757.943793
163543.345577,592.164754,-7772.162391,1225.752797
163543.345897,-4737.318029,-8364.327145,0.000000
163543.346216,-2590.720797,-11251.130318,-3294.210641
163543.346536,-3108.864956,-12287.418637,-76.609550
163543.346856,-2368.659014,-7328.038826,-4673.182538
163543.347176,-74.020594,-10658.965565,-76.609550
163543.347495,-888.247130,-8068.244768,-2681.334243
163543.347815,1036.288319,-10066.800811,612.876398
163543.348135,1702.473667,-8734.430116,-842.705048
163543.348454,0.000000,-8364.327145,2451.505594
163543.348774,-74.020594,-9178.553681,-383.047749
163543.349094,-74.020594,-8808.450710,2987.772442
163543.349413,1184.329507,-7772.162391,0.000000
163543.349733,4367.215058,-9474.636058,5898.935335
163543.350053,4071.132681,-9474.636058,-76.609550
163543.350372,2072.576638,-10584.944971,6052.154434
163543.350692,-814.226536,-9474.636058,-3217.601092
163543.351012,-4811.338623,-10658.965565,-76.609550
163543.351332,-5181.441594,-9918.759623,-6435.202183
163543.351651,-4737.318029,-9548.656652,-76.609550
163543.351971,-2368.659014,-7179.997637,-4290.134789
163543.352291,0.000000,-9474.636058,1685.410096
163543.352610,2294.638420,-11843.295072,-76.609550
163543.352930,2886.803174,-8882.471304,2374.896044
163543.353250,0.000000,-7179.997637,-4903.011187
163543.353569,-74.020594,-9918.759623,1915.238745
163543.353889,296.082377,-10510.924376,-1302.362347
163543.354209,666.185348,-9918.759623,2451.505594
163543.354528,1850.514855,-10658.965565,-689.485948
163543.354848,2072.576638,-10658.965565,3600.648841
163543.355168,2590.720797,-9696.697840,1149.143247
163543.355487,3478.967927,-8882.471304,2374.896044
163543.355807,0.000000,-8364.327145,-2451.505594
163543.356127,-4737.318029,-9548.656652,0.000000
163543.356447,-4515.256246,-9104.533087,-3677.258390
163543.356766,-1776.494261,-8882.471304,383.047749
163543.357086,-592.164754,-9548.656652,-536.266849
163543.357406,-1184.329507,-7772.162391,76.609550
163543.357725,1702.473667,-11843.295072,2374.896044
163543.358045,-74.020594,-8660.409521,306.438199
163543.358365,-296.082377,-11251.130318,459.657299
163543.358684,-2442.679609,-9326.594869,-2068.457845
163543.359004,-2442.679609,-10658.965565,-76.609550
163543.359324,-3552.988522,-7179.997637,-2451.505594
163543.359643,-1554.432478,-10362.883188,-995.924147
163543.359963,-444.123565,-8734.430116,-1072.533697
163543.360283,1184.329507,-9474.636058,153.219100
163543.360602,1332.370696,-8364.327145,-1378.971896
163543.360922,148.041188,-9548.656652,1378.971896
163543.361242,-3256.906145,-7772.162391,-1838.629195
163543.361561,592.164754,-10436.903782,2681.334243
163543.361881,2294.638420,-10658.965565,-76.609550
163543.362201,-370.102971,-10658.965565,2374.896044
163543.362521,-3552.988522,-5995.668130,-3677.258390
163543.362840,-74.020594,-9474.636058,1149.143247
163543.363160,-370.102971,-9474.636058,-1991.848295
163543.363480,-148.041188,-10140.821405,1532.190996
163543.363799,962.267725,-8290.306550,-2528.115143
163543.364119,1702.473667,-9474.636058,2987.772442
163543.364439,518.144159,-7328.038826,-3064.381992
163543.364758,-3552.988522,-9548.656652,1838.629195
163543.365078,814.226536,-10362.883188,-383.047749
163543.365398,592.164754,-9548.656652,3064.381992
163543.365717,-1776.494261,-7328.038826,-3677.258390
163543.366037,-2146.597232,-10288.862594,1225.752797
163543.366357,-1628.453072,-10584.944971,-2451.505594
163543.366676,-888.247130,-9548.656652,1838.629195
163543.366996,-74.020594,-9474.636058,-3753.867940
163543.367316,-1924.535449,-9918.759623,2374.896044
163543.367636,2294.638420,-9474.636058,-2528.115143
163543.367955,666.185348,-7179.997637,1532.190996
163543.368275,0.000000,-9548.656652,-4596.572988
163543.368595,-3182.885551,-7772.162391,-2451.505594
163543.368914,-1258.350101,-10658.965565,-2068.457845
163543.369234,0.000000,-8734.430116,1455.581446
163543.369554,592.164754,-9770.718434,-919.314598
163543.369873,1776.494261,-10362.883188,3600.648841
163543.370193,2368.659014,-7994.224174,1685.410096
163543.370513,1702.473667,-6069.688724,536.266849
163543.370832,-1184.329507,-9548.656652,-1838.629195
163543.371152,-2368.659014,-10140.821405,0.000000
163543.371472,-666.185348,-10510.924376,-2528.115143
163543.371791,-74.020594,-10658.965565,1455.581446
163543.372111,-1406.391290,-10807.006753,-919.314598
163543.372431,-148.041188,-9252.574275,536.266849
163543.372751,2590.720797,-8882.471304,1608.800546
163543.373070,2368.659014,-4811.338623,1838.629195
163543.373390,-740.205942,-8216.285956,0.000000
163543.373710,-1850.514855,-9326.594869,-1225.752797
163543.374029,-74.020594,-12731.542202,-76.609550
163543.374349,-2960.823768,-7920.203579,-2911.162892
163543.374669,-1628.453072,-13619.789333,2374.896044
163543.374988,-2812.782580,-8882.471304,-2451.505594
163543.375308,-814.226536,-9252.574275,0.000000
163543.375628,-370.102971,-7624.121203,-3677.258390
163543.375947,-2368.659014,-9992.780217,0.000000
163543.376267,-3034.844362,-9030.512492,-4673.182538
163543.376587,-2072.576638,-11695.253884,1608.800546
163543.376906,-1998.556043,-8956.491898,-2221.676944
163543.377226,-2664.741391,-10732.986159,2834.553343
163543.377546,1110.308913,-9474.636058,919.314598
163543.377865,2886.803174,-8882.471304,5439.278036
163543.378185,-1184.329507,-5699.585753,306.438199
163543.378505,-2442.679609,-7994.224174,4519.963438
163543.378825,-2442.679609,-9474.636058,-2528.115143
163543.379144,-6809.894666,-8364.327145,0.000000
163543.379464,-4811.338623,-8586.388927,-4366.744339
163543.379784,-7772.162391,-11843.295072,459.657299
163543.380103,-6883.915261,-11177.109724,-4060.306139
163543.380423,-5847.626942,-10584.944971,306.438199
163543.380743,-6069.688724,-8882.471304,-3140.991542
163543.381062,-8142.265362,-8956.491898,0.000000
163543.381382,-6587.832884,-9474.636058,-2528.115143
163543.381702,-4219.173869,-9992.780217,2987.772442
163543.382021,-4737.318029,-6587.832884,0.000000
163543.382341,-8882.471304,-5995.668130,0.000000
163543.382661,-4811.338623,-8290.306550,-536.266849
163543.382980,-3034.844362,-8586.388927,3600.648841
163543.383300,-1554.432478,-7624.121203,0.000000
163543.383620,-5921.647536,-8142.265362,-76.609550
163543.383940,-6587.832884,-13027.624579,-3140.991542
163543.384259,-9548.656652,-14211.954086,-2528.115143
163543.384579,-7179.997637,-13619.789333,-3753.867940
163543.384899,-8290.306550,-10140.821405,-3064.381992
163543.385218,-7105.977043,-10140.821405,0.000000
163543.385538,-6883.915261,-5551.544565,-2374.896044
163543.385858,-1258.350101,-7994.224174,2068.457845
163543.386177,2294.638420,-7402.059420,4826.401637
163543.386497,740.205942,-5551.544565,3677.258390
163543.386817,-74.020594,-8290.306550,3600.648841
163543.387136,-2072.576638,-7772.162391,1532.190996
163543.387456,-1850.514855,-11843.295072,1149.143247
163543.387776,-4515.256246,-10955.047942,-689.485948
163543.388095,-6883.915261,-10140.821405,-2451.505594
163543.388415,-8290.306550,-8364.327145,-3370.820191
163543.388735,-6883.915261,-8956.491898,-3907.087040
163543.389055,-3034.844362,-10066.800811,-1225.752797
163543.389374,0.000000,-7994.224174,766.095498
163543.389694,592.164754,-6661.853478,1149.143247
163543.390014,-444.123565,-6291.750507,-689.485948
163543.390333,-2960.823768,-7179.997637,-1532.190996
163543.390653,-2368.659014,-8956.491898,-2451.505594
163543.390973,1184.329507,-11991.336260,1915.238745
163543.391292,-74.020594,-11843.295072,1762.019645
163543.391612,-3552.988522,-10140.821405,612.876398
163543.391932,-3256.906145,-9400.615463,-2528.115143
163543.392251,-2368.659014,-9326.594869,-2221.676944
163543.392571,296.082377,-9622.677246,-1455.581446
163543.392891,814.226536,-7105.977043,-995.924147
163543.393210,-74.020594,-7105.977043,-383.047749
163543.393530,-2146.597232,-6513.812290,-1302.362347
163543.393850,-4145.153275,-8364.327145,-2451.505594
163543.394169,0.000000,-10658.965565,612.876398
163543.394489,962.267725,-12435.459826,3753.867940
163543.394809,-3256.906145,-9548.656652,2451.505594
163543.395129,-2368.659014,-9474.636058,1302.362347
163543.395448,-3108.864956,-9918.759623,919.314598
163543.395768,-2886.803174,-8290.306550,-153.219100
163543.396088,-1554.432478,-7105.977043,-76.609550
163543.396407,-4145.153275,-8068.244768,1225.752797
163543.396727,-1850.514855,-9178.553681,-689.485948
163543.397047,-4515.256246,-8068.244768,-842.705048
163543.397366,-3627.009116,-7994.224174,-2528.115143
163543.397686,-4737.318029,-10955.047942,-1302.362347
163543.398006,-7105.977043,-9622.677246,-3370.820191
163543.398325,-5625.565159,-11029.068536,-3217.601092
163543.398645,-4885.359217,-12583.501014,-383.047749
163543.398965,-3404.947333,-11325.150913,612.876398
163543.399284,-1850.514855,-9918.759623,612.876398
163543.399604,-3552.988522,-8586.388927,1378.971896
163543.399924,-3923.091493,-7846.182985,-76.609550
163543.400244,-4811.338623,-6217.729913,-1302.362347
163543.400563,-3997.112087,-7105.977043,842.705048
163543.400883,-2960.823768,-8956.491898,1991.848295
163543.401203,-3552.988522,-8956.491898,229.828649
163543.401522,-3849.070898,-8956.491898,-766.095498
163543.401842,-5255.462188,-9400.615463,-2221.676944
163543.402162,-8882.471304,-8364.327145,-6128.763984
163543.402481,-6957.935855,-10436.903782,-3753.867940
163543.402801,-5921.647536,-10436.903782,-2221.676944
163543.403121,-5921.647536,-10140.821405,612.876398
163543.403440,-3552.988522,-10288.862594,2374.896044
163543.403760,-74.020594,-9474.636058,4826.401637
163543.404080,0.000000,-5403.503377,3830.477490
163543.404399,-1998.556043,-3775.050304,536.266849
163543.404719,-4145.153275,-6439.791695,-1532.190996
163543.405039,-5403.503377,-8882.471304,-2298.286494
163543.405358,-7105.977043,-8364.327145,-4290.134789
163543.405678,-6587.832884,-11251.130318,-2834.553343
163543.405998,-9326.594869,-10732.986159,-4903.011187
163543.406318,-5921.647536,-12213.398043,-2451.505594
163543.406637,-3552.988522,-9548.656652,612.876398
163543.406957,-2072.576638,-7179.997637,3677.258390
163543.407277,-2072.576638,-5699.585753,383.047749
163543.407596,-1554.432478,-5773.606348,-536.266849
163543.407916,-74.020594,-8660.409521,459.657299
163543.408236,0.000000,-7772.162391,1225.752797
163543.408555,-1184.329507,-9548.656652,1838.629195
163543.408875,-3256.906145,-9548.656652,306.438199
163543.409195,-3182.885551,-10214.842000,-4903.011187
163543.409514,-888.247130,-13545.768739,-76.609550
163543.409834,-2368.659014,-9548.656652,0.000000
163543.410154,-1258.350101,-7920.203579,842.705048
163543.410473,-2368.659014,-6291.750507,-612.876398
163543.410793,-3552.988522,-7328.038826,-3600.648841
163543.411113,-3552.988522,-10140.821405,-2451.505594
163543.411433,-666.185348,-13619.789333,2374.896044
163543.411752,-3552.988522,-10881.027347,2911.162892
163543.412072,-4219.173869,-8882.471304,2145.067394
163543.412392,-4737.318029,-7179.997637,-459.657299
163543.412711,-2738.761985,-8142.265362,612.876398
163543.413031,0.000000,-7179.997637,612.876398
163543.413351,0.000000,-7179.997637,2451.505594
163543.413670,-148.041188,-10288.862594,2987.772442
163543.413990,-4219.173869,-8290.306550,-76.609550
163543.414310,-6661.853478,-7179.997637,-5056.230287
163543.414629,-2442.679609,-11843.295072,-4979.620737
163543.414949,-4293.194464,-10140.821405,-5515.887586
163543.415269,-4367.215058,-11917.315666,-2681.334243
163543.415588,-5181.441594,-12879.583391,-1608.800546
163543.415908,-5921.647536,-11917.315666,612.876398
163543.416228,-3552.988522,-10288.862594,2757.943793
163543.416548,-2220.617826,-7105.977043,3064.381992
163543.416867,0.000000,-3034.844362,612.876398
163543.417187,1184.329507,-4219.173869,4443.353888
163543.417507,1110.308913,-4441.235652,2987.772442
163543.417826,-962.267725,-7994.224174,2221.676944
163543.418146,-4663.297435,-10955.047942,-1225.752797
163543.418466,-7179.997637,-13027.624579,-3447.429741
163543.418785,-9400.615463,-13545.768739,-4826.401637
163543.419105,-9770.718434,-12805.562797,-3370.820191
163543.419425,-9030.512492,-10732.986159,-4596.572988
163543.419744,-5995.668130,-10658.965565,-1302.362347
163543.420064,-1850.514855,-7105.977043,-689.485948
163543.420384,-1110.308913,-4811.338623,1302.362347
163543.420703,-74.020594,-7105.977043,1762.019645
163543.421023,-2738.761985,-8660.409521,2528.115143
163543.421343,-3701.029710,-10584.944971,2298.286494
163543.421662,-4219.173869,-11251.130318,3064.381992
163543.421982,-2442.679609,-11917.315666,4136.915689
163543.422302,-4145.153275,-10436.903782,3370.820191
163543.422622,-6809.894666,-5995.668130,-2451.505594
163543.422941,-4811.338623,-7994.224174,-3753.867940
163543.423261,-7476.080014,-7698.141797,-6358.592633
163543.423581,-9474.636058,-7179.997637,-7890.783629
163543.423900,-5107.421000,-10658.965565,-4979.620737
163543.424220,-4219.173869,-10732.986159,-2145.067394
163543.424540,-1258.350101,-10955.047942,1225.752797
163543.424859,740.205942,-9474.636058,3907.087040
163543.425179,3552.988522,-8068.244768,6281.983084
163543.425499,2664.741391,-6883.915261,4903.011187
163543.425818,592.164754,-7179.997637,3677.258390
163543.426138,-888.247130,-8808.450710,0.000000
163543.426458,-4737.318029,-9548.656652,0.000000
163543.426777,-6735.874072,-8808.450710,-4596.572988
163543.427097,-7476.080014,-11547.212695,-3753.867940
163543.427417,-8660.409521,-10140.821405,-5286.058936
163543.427737,-6883.915261,-9770.718434,-4443.353888
163543.428056,-3701.029710,-9104.533087,-1915.238745
163543.428376,-666.185348,-9474.636058,1915.238745
163543.428696,1998.556043,-7994.224174,2987.772442
163543.429015,1776.494261,-7698.141797,3600.648841
163543.429335,0.000000,-7179.997637,3064.381992
163543.429655,592.164754,-9400.615463,3064.381992
163543.429974,-2442.679609,-7920.203579,0.000000
163543.430294,-2072.576638,-10732.986159,689.485948
163543.430614,-1628.453072,-10732.986159,0.000000
163543.430933,222.061783,-10436.903782,76.609550
163543.431253,3478.967927,-11843.295072,2374.896044
163543.431573,3701.029710,-12287.418637,2757.943793
163543.431892,2664.741391,-8660.409521,3370.820191
163543.432212,4663.297435,-9474.636058,4060.306139
163543.432532,3034.844362,-7772.162391,4213.525239
163543.432852,296.082377,-6587.832884,4903.011187
163543.433171,2886.803174,-7550.100608,6052.154434
163543.433491,2368.659014,-8586.388927,6435.202183
163543.433811,1554.432478,-9104.533087,5898.935335
163543.434130,-518.144159,-9326.594869,5286.058936
163543.434450,-222.061783,-10881.027347,5132.839837
163543.434770,-5921.647536,-8364.327145,1225.752797
163543.435089,-3552.988522,-10436.903782,2604.724693
163543.435409,-2146.597232,-11547.212695,3983.696590
163543.435729,-74.020594,-11843.295072,6052.154434
163543.436048,0.000000,-7179.997637,4903.011187
163543.436368,1702.473667,-7772.162391,7124.688131
163543.436688,1776.494261,-5329.482782,5975.544884
163543.437007,1036.288319,-5033.400406,4596.572988
163543.437327,592.164754,-5625.565159,4213.525239
163543.437647,0.000000,-9178.553681,4213.525239
163543.437966,-1924.535449,-11547.212695,3677.258390
163543.438286,-2072.576638,-14582.057057,3677.258390
163543.438606,-2368.659014,-16358.551318,7967.393179
163543.438926,-888.247130,-14434.015869,11031.775171
163543.439245,-3552.988522,-8364.327145,7967.393179
163543.439565,-370.102971,-4737.318029,7967.393179
163543.439885,296.082377,-1332.370696,6205.373534
163543.440204,1258.350101,-2072.576638,5209.449386
163543.440524,3478.967927,-5921.647536,6052.154434
163543.440844,1702.473667,-9474.636058,6665.030833
163543.441163,-74.020594,-13619.789333,7277.907231
163543.441483,-4293.194464,-10732.986159,4060.306139
163543.441803,-5329.482782,-11917.315666,3677.258390
163543.442122,-5921.647536,-10140.821405,4903.011187
163543.442442,-3034.844362,-9178.553681,2757.943793
163543.442762,74.020594,-9326.594869,4136.915689
163543.443081,1406.391290,-9918.759623,5592.497135
163543.443401,518.144159,-9844.739029,6435.202183
163543.443721,-74.020594,-11843.295072,5745.716235
163543.444041,-2960.823768,-8364.327145,3983.696590
163543.444360,-2738.761985,-9474.636058,1149.143247
163543.444680,-2442.679609,-7476.080014,1149.143247
163543.445000,1998.556043,-7105.977043,1225.752797
163543.445319,2886.803174,-6809.894666,1915.238745
163543.445639,2368.659014,-10066.800811,1762.019645
163543.445959,-370.102971,-10881.027347,-76.609550
163543.446278,-2886.803174,-12583.501014,-689.485948
163543.446598,-1554.432478,-15100.201217,1149.143247
163543.446918,-1554.432478,-11843.295072,-306.438199
163543.447238,-518.144159,-8364.327145,0.000000
163543.447557,1110.308913,-8290.306550,536.266849
163543.447877,592.164754,-7772.162391,2451.505594
163543.448197,4071.132681,-7994.224174,2987.772442
163543.448517,2516.700203,-6587.832884,2528.115143
163543.448836,888.247130,-7402.059420,-689.485948
163543.449156,1702.473667,-10140.821405,306.438199
163543.449476,3552.988522,-10140.821405,3447.429741
163543.449795,1184.329507,-5995.668130,3677.258390
163543.450115,-74.020594,-7994.224174,-76.609550
163543.450435,-4737.318029,-9622.677246,-4596.572988
163543.450755,-6291.750507,-12435.459826,-3830.477490
163543.451074,-4885.359217,-11621.233289,-689.485948
163543.451394,-1850.514855,-10658.965565,-76.609550
163543.451714,-74.020594,-9918.759623,2681.334243
163543.452034,1702.473667,-6957.935855,459.657299
163543.452353,1776.494261,-4737.318029,-76.609550
163543.452673,3182.885551,-7031.956449,2145.067394
163543.452993,-2368.659014,-6587.832884,-2145.067394
163543.453313,-222.061783,-10807.006753,-1072.533697
163543.453632,-592.164754,-11621.233289,-383.047749
163543.453952,-1258.350101,-12361.439231,-689.485948
163543.454272,-1258.350101,-14211.954086,76.609550
163543.454592,-74.020594,-12361.439231,1302.362347
163543.454911,444.123565,-9770.718434,2757.943793
163543.455231,-74.020594,-9474.636058,2987.772442
163543.455551,-666.185348,-8882.471304,-76.609550
163543.455871,0.000000,-9548.656652,3983.696590
163543.456190,2738.761985,-7179.997637,3983.696590
163543.456510,3849.070898,-8438.347739,4979.620737
163543.456830,370.102971,-8290.306550,2834.553343
163543.457149,-814.226536,-9104.533087,1149.143247
163543.457469,-1406.391290,-10288.862594,0.000000
163543.457789,-2960.823768,-12509.480420,1225.752797
163543.458109,-4737.318029,-10732.986159,306.438199
163543.458428,-2960.823768,-10140.821405,2757.943793
163543.458748,-1332.370696,-8660.409521,2987.772442
163543.459068,-2960.823768,-7179.997637,4903.011187
163543.459388,-2146.597232,-6513.812290,4213.525239
163543.459707,-888.247130,-5921.647536,4290.134789
163543.460027,814.226536,-6439.791695,4290.134789
163543.460347,2146.597232,-6143.709319,4519.963438
163543.460667,3478.967927,-7698.141797,6052.154434
163543.460986,518.144159,-7476.080014,3677.258390
163543.461306,-2072.576638,-12065.356855,2834.553343
163543.461626,-3330.926739,-14137.933492,1225.752797
163543.461946,-2442.679609,-14211.954086,2987.772442
163543.462265,-4737.318029,-11917.315666,2451.505594
163543.462585,-1850.514855,-10658.965565,3064.381992
163543.462905,-370.102971,-8882.471304,4213.525239
163543.463224,370.102971,-6217.729913,5056.230287
163543.463544,1702.473667,-4441.235652,4519.963438
163543.463864,2368.659014,-5921.647536,6052.154434
163543.464184,4071.132681,-8290.306550,6665.030833
163543.464503,3923.091493,-8216.285956,6052.154434
163543.464823,1776.494261,-9548.656652,6281.983084
163543.465143,1036.288319,-14804.118840,9116.536426
163543.465463,-2442.679609,-12213.398043,4213.525239
163543.465782,-3552.988522,-12287.418637,3524.039291
163543.466102,-3923.091493,-10955.047942,2834.553343
163543.466422,-3627.009116,-8956.491898,1225.752797
163543.466742,-4441.235652,-6587.832884,0.000000
163543.467061,-2368.659014,-5181.441594,1838.629195
163543.467381,-1036.288319,-5995.668130,2451.505594
163543.467701,1702.473667,-8290.306550,2374.896044
163543.468021,518.144159,-8290.306550,2068.457845
163543.468340,1776.494261,-12509.480420,6435.202183
163543.468660,1850.514855,-11991.336260,5592.497135
163543.468980,1406.391290,-13027.624579,8120.612279
163543.469299,0.000000,-10807.006753,5515.887586
163543.469619,-3552.988522,-7179.997637,1225.752797
163543.469939,-3330.926739,-7179.997637,3064.381992
163543.470259,-1258.350101,-4737.318029,536.266849
163543.470578,-2072.576638,-5995.668130,1225.752797
163543.470898,888.247130,-6735.874072,0.000000
163543.471218,2886.803174,-9474.636058,-76.609550
163543.471538,1036.288319,-11029.068536,2604.724693
163543.471857,1036.288319,-11103.089130,3294.210641
163543.472177,1406.391290,-13841.851115,5592.497135
163543.472497,0.000000,-11769.274478,4213.525239
163543.472817,-2960.823768,-8364.327145,2451.505594
163543.473136,-1258.350101,-9178.553681,3600.648841
163543.473456,-1258.350101,-5921.647536,1455.581446
163543.473776,0.000000,-5995.668130,0.000000
163543.474096,0.000000,-7328.038826,0.000000
163543.474415,2294.638420,-12731.542202,-76.609550
163543.474735,-2072.576638,-11991.336260,1991.848295
163543.475055,-1258.350101,-12805.562797,842.705048
163543.475375,-3108.864956,-10436.903782,-76.609550
163543.475694,-2072.576638,-10140.821405,1838.629195
163543.476014,-148.041188,-6587.832884,1532.190996
163543.476334,2516.700203,-8586.388927,2221.676944
163543.476653,3108.864956,-8660.409521,2451.505594
163543.476973,1110.308913,-9474.636058,-1302.362347
163543.477293,-1332.370696,-9992.780217,-995.924147
163543.477613,-74.020594,-13027.624579,1149.143247
163543.477932,-1776.494261,-12213.398043,612.876398
163543.478252,-2664.741391,-11621.233289,766.095498
163543.478572,-148.041188,-10436.903782,2681.334243
163543.478892,592.164754,-5107.421000,4903.011187
163543.479211,2368.659014,-3182.885551,2528.115143
163543.479531,0.000000,-4811.338623,0.000000
163543.479851,-1184.329507,-7179.997637,612.876398
163543.480171,2294.638420,-11399.171507,3064.381992
163543.480490,-74.020594,-8290.306550,-76.609550
163543.480810,-2738.761985,-9622.677246,995.924147
163543.481130,-3849.070898,-6883.915261,0.000000
163543.481450,0.000000,-7105.977043,-536.266849
163543.481769,2146.597232,-5995.668130,536.266849
163543.482089,0.000000,-10140.821405,0.000000
163543.482409,-74.020594,-11103.089130,842.705048
163543.482728,-2368.659014,-11917.315666,0.000000
163543.483048,-3330.926739,-10658.965565,612.876398
163543.483368,-3627.009116,-9178.553681,-4366.744339
163543.483688,-1036.288319,-7698.141797,-459.657299
163543.484007,1406.391290,-6069.688724,-1302.362347
163543.484327,4293.194464,-5699.585753,0.000000
163543.484647,2886.803174,-10288.862594,-306.438199
163543.484967,0.000000,-9844.739029,0.000000
163543.485286,0.000000,-13545.768739,-1149.143247
163543.485606,-3034.844362,-12435.459826,-1608.800546
163543.485926,-3627.009116,-15396.283594,-1302.362347
163543.486246,-1998.556043,-7476.080014,-2451.505594
163543.486565,2368.659014,-8364.327145,1532.190996
163543.486885,2368.659014,-4811.338623,-1225.752797
163543.487205,1776.494261,-10955.047942,153.219100
163543.487525,444.123565,-9548.656652,-612.876398
163543.487844,-1184.329507,-10807.006753,-1378.971896
163543.488164,-1258.350101,-11547.212695,-3140.991542
163543.488484,-4293.194464,-9992.780217,-2757.943793
163543.488803,-1184.329507,-7179.997637,-2834.553343
163543.489123,1776.494261,-7920.203579,-689.485948
163543.489443,4737.318029,-8142.265362,-1225.752797
163543.489763,0.000000,-10732.986159,2145.067394
163543.490082,0.000000,-9548.656652,-1225.752797
163543.490402,-2368.659014,-11325.150913,-995.924147
163543.490722,-4145.153275,-9844.739029,-3370.820191
163543.491042,-6143.709319,-6661.853478,-3294.210641
163543.491361,1998.556043,-7698.141797,-3140.991542
163543.491681,1776.494261,-6291.750507,-1302.362347
163543.492001,2368.659014,-7698.141797,-3983.696590
163543.492321,-740.205942,-11917.315666,-536.266849
163543.492640,296.082377,-13397.727550,-1149.143247
163543.492960,-1110.308913,-13989.892304,1455.581446
163543.493280,-3182.885551,-11103.089130,-2221.676944
163543.493600,-4219.173869,-5477.523971,-1302.362347
163543.493919,0.000000,-2442.679609,-3370.820191
163543.494239,2886.803174,-1628.453072,-3983.696590
163543.494559,6143.709319,-8882.471304,-2068.457845
163543.494879,2960.823768,-14137.933492,3524.039291
163543.495198,1702.473667,-15618.345376,1991.848295
163543.495518,-5033.400406,-12879.583391,995.924147
163543.495838,-7328.038826,-12435.459826,-3447.429741
163543.496157,-5181.441594,-6439.791695,-2451.505594
163543.496477,4663.297435,-5921.647536,-76.609550
163543.496797,6735.874072,-3404.947333,2987.772442
163543.497117,6439.791695,-7772.162391,2451.505594
163543.497436,1110.308913,-9030.512492,2374.896044
163543.497756,-1184.329507,-12065.356855,229.828649
163543.498076,-5329.482782,-9030.512492,-1685.410096
163543.498396,-6069.688724,-11029.068536,-3447.429741
163543.498715,-1554.432478,-9178.553681,1149.143247
163543.499035,3552.988522,-7179.997637,0.000000
163543.499355,2368.659014,-4811.338623,1225.752797
163543.499675,2368.659014,-9992.780217,1685.410096
163543.499994,0.000000,-10732.986159,612.876398
163543.500314,-2960.823768,-9844.739029,0.000000
163543.500634,-2442.679609,-10510.924376,-766.095498
163543.500954,-2664.741391,-11843.295072,1991.848295
163543.501273,1480.411884,-5995.668130,1762.019645
163543.501593,4367.215058,-6291.750507,3907.087040
163543.501913,4737.318029,-4959.379811,3140.991542
163543.502232,962.267725,-8956.491898,1225.752797
163543.502552,0.000000,-11917.315666,1072.533697
163543.502872,-2368.659014,-12509.480420,1225.752797
163543.503192,-2738.761985,-14211.954086,-1302.362347
163543.503511,-7698.141797,-11325.150913,0.000000
163543.503831,-1258.350101,-8290.306550,536.266849
163543.504151,592.164754,-5699.585753,2221.676944
163543.504471,1480.411884,-4515.256246,-1072.533697
163543.504790,-74.020594,-8290.306550,2374.896044
163543.505110,1702.473667,-9474.636058,2374.896044
163543.505430,-666.185348,-10066.800811,2987.772442
163543.505750,-2442.679609,-11843.295072,-1302.362347
163543.506069,-6809.894666,-9696.697840,0.000000
163543.506389,-2368.659014,-7179.997637,-2145.067394
163543.506709,-2072.576638,-4367.215058,0.000000
163543.507029,1702.473667,-7624.121203,-2528.115143
163543.507348,1554.432478,-10362.883188,2528.115143
163543.507668,2368.659014,-10881.027347,0.000000
163543.507988,-74.020594,-11843.295072,2987.772442
163543.508308,-1554.432478,-12657.521608,-3064.381992
163543.508627,-1554.432478,-11251.130318,2374.896044
163543.508947,814.226536,-6957.935855,-2528.115143
163543.509267,1776.494261,-3034.844362,76.609550
163543.509586,2368.659014,-5995.668130,0.000000
163543.509906,1998.556043,-7698.141797,2068.457845
163543.510226,2886.803174,-10510.924376,-995.924147
163543.510546,-518.144159,-11547.212695,689.485948
163543.510865,-3552.988522,-14137.933492,-2451.505594
163543.511185,-2738.761985,-12065.356855,459.657299
163543.511505,-3552.988522,-6587.832884,-2451.505594
163543.511825,444.123565,-3849.070898,-766.095498
163543.512144,2886.803174,-7994.224174,-2528.115143
163543.512464,4663.297435,-8882.471304,-76.609550
163543.512784,3552.988522,-11917.315666,0.000000
163543.513104,370.102971,-14137.933492,2221.676944
163543.513423,-4811.338623,-14878.139434,-995.924147
163543.513743,-6365.771101,-8364.327145,-2911.162892
163543.514063,-2442.679609,-5033.400406,-5592.497135
163543.514383,2294.638420,-3552.988522,-2834.553343
163543.514702,2738.761985,-7476.080014,0.000000
163543.515022,2442.679609,-6587.832884,0.000000
163543.515342,1184.329507,-12213.398043,919.314598
163543.515661,-3108.864956,-12879.583391,-76.609550
163543.515981,-8882.471304,-10140.821405,-4290.134789
163543.516301,-2664.741391,-8364.327145,-3753.867940
163543.516621,2442.679609,-6439.791695,-383.047749
163543.516940,6143.709319,-5995.668130,383.047749
163543.517260,4663.297435,-8882.471304,1762.019645
163543.517580,2368.659014,-8660.409521,536.266849
163543.517900,-74.020594,-12435.459826,-383.047749
163543.518219,-4367.215058,-11325.150913,-4596.572988
163543.518539,-4811.338623,-13101.645173,0.000000
163543.518859,-3256.906145,-7179.997637,-3677.258390
163543.519179,1702.473667,-6513.812290,2374.896044
163543.519498,3478.967927,-5255.462188,-536.266849
163543.519818,1110.308913,-6883.915261,1838.629195
163543.520138,814.226536,-9474.636058,-2528.115143
163543.520458,-1776.494261,-11325.150913,-459.657299
163543.520777,-5329.482782,-11325.150913,-4290.134789
163543.521097,-5921.647536,-13101.645173,306.438199
163543.521417,-1554.432478,-11769.274478,-76.609550
163543.521736,-1258.350101,-5921.647536,-76.609550
163543.522056,2886.803174,-7994.224174,-2528.115143
163543.522376,814.226536,-7179.997637,1072.533697
163543.522696,2368.659014,-9252.574275,-1302.362347
163543.523015,0.000000,-11917.315666,2145.067394
163543.523335,0.000000,-13101.645173,2145.067394
163543.523655,-1628.453072,-9474.636058,2451.505594
163543.523975,518.144159,-8290.306550,-76.609550
163543.524294,4071.132681,-7105.977043,1762.019645
163543.524614,3478.967927,-7550.100608,-1302.362347
163543.524934,5255.462188,-9474.636058,6665.030833
163543.525254,1924.535449,-9844.739029,306.438199
163543.525573,-518.144159,-11547.212695,1685.410096
163543.525893,-3182.885551,-11769.274478,-2145.067394
163543.526213,-2886.803174,-10140.821405,1225.752797
163543.526533,-2146.597232,-6735.874072,-2298.286494
163543.526852,1258.350101,-6365.771101,1532.190996
163543.527172,814.226536,-8734.430116,2145.067394
163543.527492,1480.411884,-6069.688724,1762.019645
163543.527812,2294.638420,-10584.944971,995.924147
163543.528131,-2220.617826,-9548.656652,0.000000
163543.528451,-2886.803174,-12953.603985,-153.219100
163543.528771,-3627.009116,-10510.924376,-383.047749
163543.529090,-666.185348,-10658.965565,-689.485948
163543.529410,-3552.988522,-6587.832884,0.000000
163543.529730,-1850.514855,-8512.368333,-995.924147
163543.530050,592.164754,-7772.162391,-1302.362347
163543.530369,0.000000,-10140.821405,153.219100
163543.530689,-592.164754,-11473.192101,-2298.286494
163543.531009,-1406.391290,-14211.954086,2374.896044
163543.531329,-370.102971,-10658.965565,842.705048
163543.531648,-2590.720797,-7698.141797,1762.019645
163543.531968,0.000000,-4811.338623,-2451.505594
163543.532288,2294.638420,-8142.265362,2145.067394
163543.532608,2368.659014,-5995.668130,0.000000
163543.532927,2590.720797,-9474.636058,3907.087040
163543.533247,-740.205942,-11251.130318,-459.657299
163543.533567,-4367.215058,-10658.965565,383.047749
163543.533887,-2886.803174,-9474.636058,-4060.306139
163543.534206,-1258.350101,-7105.977043,-76.609550
163543.534526,1110.308913,-9474.636058,-76.609550
163543.534846,1110.308913,-7105.977043,3294.210641
163543.535165,2960.823768,-7179.997637,0.000000
163543.535485,2812.782580,-9844.739029,4903.011187
163543.535805,-3552.988522,-9548.656652,-2451.505594
163543.536125,-3034.844362,-10732.986159,995.924147
163543.536444,-1036.288319,-10140.821405,-2987.772442
163543.536764,-740.205942,-7698.141797,306.438199
163543.537084,1702.473667,-9474.636058,-2528.115143
163543.537404,1702.473667,-8660.409521,1838.629195
163543.537723,2886.803174,-10658.965565,-2528.115143
163543.538043,0.000000,-8808.450710,-689.485948
163543.538363,-4663.297435,-10732.986159,-5822.325785
163543.538683,-3552.988522,-11917.315666,919.314598
163543.539002,-1628.453072,-10584.944971,-2451.505594
163543.539322,1036.288319,-8068.244768,1149.143247
163543.539642,1924.535449,-8660.409521,0.000000
163543.539962,2738.761985,-6439.791695,1532.190996
163543.540281,2886.803174,-7550.100608,-2068.457845
163543.540601,0.000000,-8956.491898,0.000000
163543.540921,-2368.659014,-13101.645173,-4290.134789
163543.541240,-1480.411884,-12287.418637,842.705048
163543.541560,-1554.432478,-10658.965565,-1302.362347
163543.541880,-2368.659014,-7179.997637,0.000000
163543.542200,-1258.350101,-7698.141797,-1149.143247
163543.542519,1554.432478,-6365.771101,612.876398
163543.542839,1628.453072,-7994.224174,995.924147
163543.543159,0.000000,-6957.935855,0.000000
163543.543479,-2738.761985,-9918.759623,-383.047749
163543.543798,-1998.556043,-10066.800811,-76.609550
163543.544118,-3552.988522,-7179.997637,0.000000
163543.544438,-1184.329507,-6883.915261,-2298.286494
163543.544758,-74.020594,-11843.295072,-76.609550
163543.545077,0.000000,-7772.162391,-2451.505594
163543.545397,148.041188,-10510.924376,0.000000
163543.545717,-1332.370696,-11029.068536,-2834.553343
163543.546037,-3849.070898,-12435.459826,-612.876398
163543.546356,-1554.432478,-9918.759623,-3600.648841
163543.546676,1702.473667,-11103.089130,2374.896044
163543.546996,2294.638420,-7105.977043,-1838.629195
163543.547316,592.164754,-7179.997637,2757.943793
163543.547635,2368.659014,-6291.750507,0.000000
163543.547955,4663.297435,-10658.965565,4213.525239
163543.548275,0.000000,-9770.718434,-2451.505594
163543.548598,-3256.906145,-12879.583391,1225.752797
163543.548918,-1258.350101,-12139.377449,-2068.457845
163543.549238,-740.205942,-9844.739029,0.000000
163543.549558,-74.020594,-9326.594869,-3677.258390
163543.549878,0.000000,-8956.491898,2451.505594
163543.550197,3108.864956,-8290.306550,-1225.752797
163543.550517,4071.132681,-11251.130318,3600.648841
163543.550837,740.205942,-11251.130318,-76.609550
163543.551157,-74.020594,-11843.295072,3600.648841
163543.551477,-2368.659014,-6587.832884,-1685.410096
163543.551797,-1776.494261,-5995.668130,76.609550
163543.552117,0.000000,-8068.244768,-1762.019645
163543.552436,0.000000,-7476.080014,1225.752797
163543.552756,592.164754,-8660.409521,-1225.752797
163543.553076,-1628.453072,-9252.574275,-2451.505594
163543.553396,-2960.823768,-12953.603985,-1532.190996
163543.553716,-3627.009116,-9770.718434,-2221.676944
163543.554036,-74.020594,-10066.800811,-3294.210641
163543.554356,1628.453072,-10362.883188,995.924147
163543.554675,74.020594,-8734.430116,306.438199
163543.554995,1258.350101,-7772.162391,2221.676944
163543.555315,2146.597232,-8364.327145,1455.581446
163543.555635,0.000000,-5995.668130,0.000000
163543.555955,-2146.597232,-7402.059420,-3064.381992
163543.556275,-2368.659014,-9548.656652,0.000000
163543.556595,2294.638420,-11251.130318,-76.609550
163543.556914,2294.638420,-11399.171507,-76.609550
163543.557234,-1184.329507,-14211.954086,2374.896044
163543.557554,-1924.535449,-10140.821405,-383.047749
163543.557874,-666.185348,-9474.636058,0.000000
163543.558194,-962.267725,-8586.388927,-1991.848295
163543.558514,-3552.988522,-8364.327145,0.000000
163543.558834,1184.329507,-8364.327145,612.876398
163543.559153,2590.720797,-9918.759623,3064.381992
163543.559473,1702.473667,-8290.306550,-229.828649
163543.559793,-2738.761985,-7772.162391,0.000000
163543.560113,0.000000,-7772.162391,0.000000
163543.560433,-1776.494261,-7772.162391,0.000000
163543.560753,-370.102971,-9548.656652,-2374.896044
163543.561073,-2294.638420,-10732.986159,306.438199
163543.561392,0.000000,-9844.739029,-1608.800546
163543.561712,2294.638420,-9474.636058,-76.609550
163543.562032,0.000000,-9474.636058,-1991.848295
163543.562352,-888.247130,-10214.842000,1991.848295
163543.562672,1554.432478,-8808.450710,-536.266849
163543.562992,1480.411884,-8956.491898,3600.648841
163543.563312,1184.329507,-8364.327145,919.314598
163543.563631,0.000000,-7179.997637,2451.505594
163543.563951,4071.132681,-9474.636058,-76.609550
163543.564271,222.061783,-8364.327145,612.876398
163543.564591,-1184.329507,-10140.821405,-3064.381992
163543.564911,-74.020594,-11251.130318,1762.019645
163543.565231,-1184.329507,-10140.821405,-2145.067394
163543.565551,-1776.494261,-9326.594869,-306.438199
163543.565870,-1924.535449,-10140.821405,-2987.772442
163543.566190,-2072.576638,-9548.656652,1225.752797
163543.566510,0.000000,-8586.388927,-2145.067394
163543.566830,-1776.494261,-7476.080014,153.219100
163543.567150,-1998.556043,-9548.656652,-2451.505594
163543.567470,-1480.411884,-8512.368333,919.314598
163543.567790,-666.185348,-7846.182985,-4596.572988
163543.568109,1110.308913,-9474.636058,-689.485948
163543.568429,-2072.576638,-11473.192101,-2221.676944
163543.568749,-1406.391290,-9770.718434,-612.876398
163543.569069,0.000000,-9844.739029,-2528.115143
163543.569389,518.144159,-10066.800811,-229.828649
163543.569709,-2294.638420,-10510.924376,-2068.457845
163543.570029,518.144159,-9474.636058,-76.609550
163543.570349,814.226536,-7550.100608,0.000000
163543.570668,296.082377,-6883.915261,0.000000
163543.570988,-666.185348,-7846.182985,-2221.676944
163543.571308,1406.391290,-6957.935855,-766.095498
163543.571628,2146.597232,-9178.553681,612.876398
163543.571948,2368.659014,-7994.224174,-612.876398
163543.572268,-222.061783,-12879.583391,1762.019645
163543.572588,1702.473667,-12435.459826,-76.609550
163543.572907,-888.247130,-10436.903782,1838.629195
163543.573227,-74.020594,-9474.636058,-2068.457845
163543.573547,-3701.029710,-7772.162391,-995.924147
163543.573867,0.000000,-6291.750507,-4290.134789
163543.574187,1110.308913,-8290.306550,-1302.362347
163543.574507,1998.556043,-9992.780217,-383.047749
163543.574827,-1554.432478,-11029.068536,2911.162892
163543.575146,-222.061783,-9844.739029,-612.876398
163543.575466,-74.020594,-9400.615463,-76.609550
163543.575786,-2960.823768,-7772.162391,-4596.572988
163543.576106,-1776.494261,-8660.409521,0.000000
163543.576426,2294.638420,-9474.636058,-1838.629195
163543.576746,2442.679609,-12435.459826,3217.601092
163543.577066,-2368.659014,-9548.656652,-3677.258390
163543.577385,-2590.720797,-11547.212695,229.828649
163543.577705,-1702.473667,-10140.821405,-2681.334243
163543.578025,-1628.453072,-7476.080014,-306.438199
163543.578345,-962.267725,-8068.244768,-1608.800546
163543.578665,814.226536,-7550.100608,2374.896044
163543.578985,2368.659014,-7328.038826,0.000000
163543.579305,1480.411884,-8290.306550,842.705048
163543.579624,-2368.659014,-10140.821405,0.000000
163543.579944,-2368.659014,-11547.212695,4519.963438
163543.580264,-3552.988522,-7179.997637,-3677.258390
163543.580584,-2220.617826,-8882.471304,-229.828649
163543.580904,-1776.494261,-9548.656652,-1302.362347
163543.581224,148.041188,-7402.059420,1378.971896
163543.581544,2294.638420,-8882.471304,-76.609550
163543.581863,2294.638420,-8882.471304,-76.609550
163543.582183,-666.185348,-13915.871710,-76.609550
163543.582503,-1554.432478,-10362.883188,-76.609550
163543.582823,-2368.659014,-9548.656652,-842.705048
163543.583143,0.000000,-7772.162391,1378.971896
163543.583463,-2146.597232,-7476.080014,-1532.190996
163543.583783,888.247130,-7105.977043,-459.657299
163543.584102,1258.350101,-8438.347739,-536.266849
163543.584422,1554.432478,-10362.883188,-1149.143247
163543.584742,-74.020594,-15396.283594,1762.019645
163543.585062,0.000000,-11917.315666,1225.752797
163543.585382,-296.082377,-11843.295072,1149.143247
163543.585702,-2220.617826,-5847.626942,-2374.896044
163543.586022,-2368.659014,-4219.173869,-1685.410096
163543.586341,2368.659014,-5403.503377,0.000000
163543.586661,4811.338623,-8364.327145,1532.190996
163543.586981,3552.988522,-11029.068536,229.828649
163543.587301,-592.164754,-14211.954086,4749.792088
163543.587621,-1480.411884,-9548.656652,-1838.629195
163543.587941,-2886.803174,-8364.327145,-536.266849
163543.588261,-3552.988522,-5551.544565,-3677.258390
163543.588580,-296.082377,-5995.668130,0.000000
163543.588900,4737.318029,-7698.141797,1532.190996
163543.589220,4663.297435,-10658.965565,6052.154434
163543.589540,0.000000,-10140.821405,0.000000
163543.589860,-4811.338623,-12361.439231,842.705048
163543.590180,-3997.112087,-11177.109724,-3294.210641
163543.590500,-3775.050304,-9252.574275,0.000000
163543.590819,-2442.679609,-6513.812290,-4366.744339
163543.591139,-1258.350101,-7698.141797,1072.533697
163543.591459,1184.329507,-5403.503377,-3677.258390
163543.591779,0.000000,-6587.832884,306.438199
163543.592099,74.020594,-11103.089130,-2298.286494
163543.592419,-1480.411884,-13545.768739,2374.896044
163543.592739,-3552.988522,-11917.315666,-3064.381992
163543.593058,-2146.597232,-9030.512492,76.609550
163543.593378,-1850.514855,-8290.306550,-2451.505594
163543.593698,370.102971,-5921.647536,76.609550
163543.594018,3478.967927,-6217.729913,-3140.991542
163543.594338,4663.297435,-10658.965565,2987.772442
163543.594658,1110.308913,-11843.295072,-2068.457845
163543.594978,-1776.494261,-13101.645173,1532.190996
163543.595297,-4145.153275,-10140.821405,-1225.752797
163543.595617,-4737.318029,-7179.997637,0.000000
163543.595937,-1184.329507,-8660.409521,-459.657299
163543.596257,2886.803174,-6513.812290,2911.162892
163543.596577,2886.803174,-5625.565159,0.000000
163543.596897,3478.967927,-5625.565159,-76.609550
163543.597217,-1258.350101,-10955.047942,-1608.800546
163543.597536,-2368.659014,-10732.986159,-1225.752797
163543.597856,-1258.350101,-14508.036463,-612.876398
163543.598176,-222.061783,-14063.912898,-76.609550
163543.598496,-3923.091493,-8068.244768,-3677.258390
163543.598816,-74.020594,-5921.647536,-1302.362347
163543.599136,1184.329507,-5403.503377,-1685.410096
163543.599456,2886.803174,-7031.956449,-2681.334243
163543.599775,1776.494261,-13101.645173,1915.238745
163543.600095,2368.659014,-13545.768739,2604.724693
163543.600415,-2220.617826,-12287.418637,612.876398
163543.600735,-3552.988522,-9622.677246,-2834.553343
163543.601055,-4219.173869,-7624.121203,-2068.457845
163543.601375,1480.411884,-4811.338623,-3677.258390
163543.601695,2738.761985,-3627.009116,-1762.019645
163543.602014,4663.297435,-9030.512492,-1608.800546
163543.602334,148.041188,-12509.480420,2145.067394
163543.602654,-1184.329507,-11917.315666,-2451.505594
163543.602974,-3627.009116,-14211.954086,2374.896044
163543.603294,-4145.153275,-10732.986159,-1532.190996
163543.603614,-4367.215058,-6883.915261,0.000000
163543.603934,1184.329507,-4367.215058,-153.219100
163543.604253,4145.153275,-3330.926739,2221.676944
163543.604573,2738.761985,-5255.462188,-612.876398
163543.604893,2294.638420,-11843.295072,2987.772442
163543.605213,-370.102971,-13619.789333,-1455.581446
163543.605533,-5477.523971,-14211.954086,-76.609550
163543.605853,-7179.997637,-10807.006753,-4136.915689
163543.606173,-3034.844362,-9474.636058,-76.609550
163543.606492,0.000000,-5551.544565,-2145.067394
163543.606812,2738.761985,-5181.441594,153.219100
163543.607132,2590.720797,-8882.471304,-1225.752797
163543.607452,296.082377,-11399.171507,2068.457845
163543.607772,-2072.576638,-11325.150913,-1685.410096
163543.608092,-3775.050304,-11177.109724,-1225.752797
163543.608412,-4145.153275,-11325.150913,-1225.752797
163543.608731,-666.185348,-7698.141797,-689.485948
163543.609051,3478.967927,-5477.523971,-1378.971896
163543.609371,8068.244768,-9474.636058,3600.648841
163543.609691,2368.659014,-10436.903782,-536.266849
163543.610011,1110.308913,-12731.542202,1225.752797
163543.610331,-1110.308913,-13323.706956,-536.266849
163543.610651,-3552.988522,-10140.821405,0.000000
163543.610970,-4737.318029,-9548.656652,0.000000
163543.611290,-2368.659014,-3034.844362,0.000000
163543.611610,2664.741391,-4811.338623,1225.752797
163543.611930,5255.462188,-5181.441594,0.000000
163543.612250,1702.473667,-9474.636058,-76.609550
163543.612570,1110.308913,-13471.748144,2221.676944
163543.612890,-1998.556043,-12805.562797,0.000000
163543.613209,-3701.029710,-12065.356855,-1225.752797
163543.613529,-5107.421000,-10510.924376,-76.609550
163543.613849,-2368.659014,-4811.338623,-2374.896044
163543.614169,3182.885551,-4737.318029,-76.609550
163543.614489,2072.576638,-4219.173869,-1838.629195
163543.614809,-814.226536,-8364.327145,0.000000
163543.615129,0.000000,-11029.068536,-919.314598
163543.615448,-74.020594,-13619.789333,-76.609550
163543.615768,-3849.070898,-12657.521608,-2451.505594
163543.616088,-4589.276840,-10881.027347,76.609550
163543.616408,-74.020594,-7846.182985,-1302.362347
163543.616728,2294.638420,-5551.544565,2374.896044
163543.617048,3330.926739,-6587.832884,-766.095498
163543.617368,1406.391290,-10362.883188,2298.286494
163543.617687,1998.556043,-12509.480420,1225.752797
163543.618007,-1258.350101,-11843.295072,842.705048
163543.618327,-4737.318029,-10732.986159,-4290.134789
163543.618647,-2442.679609,-10658.965565,-76.609550
163543.618967,-740.205942,-5847.626942,-1685.410096
163543.619287,1924.535449,-5181.441594,1455.581446
163543.619607,2442.679609,-7920.203579,-689.485948
163543.619926,1184.329507,-8956.491898,3064.381992
163543.620246,0.000000,-11325.150913,0.000000
163543.620566,-4737.318029,-9548.656652,0.000000
163543.620886,-4737.318029,-12805.562797,-2451.505594
163543.621206,-2738.761985,-10362.883188,1149.143247
163543.621526,222.061783,-4885.359217,-3447.429741
163543.621846,4663.297435,-7105.977043,1762.019645
163543.622165,1702.473667,-7920.203579,-536.266849
163543.622485,518.144159,-7105.977043,612.876398
163543.622805,-370.102971,-10362.883188,-1608.800546
163543.623125,-2368.659014,-10732.986159,-1225.752797
163543.623445,-1850.514855,-14211.954086,-2221.676944
163543.623765,-2368.659014,-9844.739029,919.314598
163543.624085,888.247130,-6587.832884,0.000000
163543.624404,4071.132681,-5921.647536,1149.143247
163543.624724,1110.308913,-6957.935855,-4366.744339
163543.625044,3701.029710,-8364.327145,-689.485948
163543.625364,1480.411884,-11917.315666,-229.828649
163543.625684,-666.185348,-12509.480420,-383.047749
163543.626004,-4959.379811,-14211.954086,-76.609550
163543.626324,-4219.173869,-9918.759623,-536.266849
163543.626643,-74.020594,-7031.956449,-1915.238745
163543.626963,2812.782580,-5921.647536,-1302.362347
163543.627283,1036.288319,-7031.956449,1225.752797
163543.627603,1184.329507,-5995.668130,0.000000
163543.627923,1110.308913,-10658.965565,1455.581446
163543.628243,-2812.782580,-10436.903782,-1915.238745
163543.628563,-6957.935855,-11621.233289,-995.924147
163543.628882,-3256.906145,-8956.491898,-2834.553343
163543.629202,-74.020594,-8586.388927,1608.800546
163543.629522,1184.329507,-7328.038826,-2374.896044
163543.629842,0.000000,-8956.491898,1225.752797
163543.630162,1110.308913,-11103.089130,-1608.800546
163543.630482,-1850.514855,-10362.883188,-76.609550
163543.630802,-4737.318029,-10140.821405,-6128.763984
163543.631121,-3034.844362,-11547.212695,229.828649
163543.631441,370.102971,-8660.409521,-689.485948
163543.631761,2294.638420,-6143.709319,1455.581446
163543.632081,2442.679609,-6587.832884,-842.705048
163543.632401,2368.659014,-9622.677246,2451.505594
163543.632721,0.000000,-7476.080014,-2451.505594
163543.633041,-888.247130,-10881.027347,0.000000
163543.633360,-3552.988522,-13027.624579,-1762.019645
163543.633680,-3034.844362,-11547.212695,-2068.457845
163543.634000,-74.020594,-9474.636058,-2528.115143
163543.634320,2886.803174,-6883.915261,919.314598
163543.634640,3330.926739,-8956.491898,689.485948
163543.634960,2294.638420,-8512.368333,3753.867940
163543.635280,296.082377,-8364.327145,0.000000
163543.635599,-1702.473667,-10510.924376,1149.143247
163543.635919,-1850.514855,-11843.295072,-1608.800546
163543.636239,-1998.556043,-10658.965565,2374.896044
163543.636559,-1480.411884,-6735.874072,0.000000
163543.636879,740.205942,-6957.935855,-76.609550
163543.637199,-2368.659014,-7772.162391,-2451.505594
163543.637519,-814.226536,-7698.141797,-3064.381992
163543.637838,-296.082377,-11547.212695,-2298.286494
163543.638158,-814.226536,-12879.583391,-153.219100
163543.638478,-4515.256246,-10436.903782,-3677.258390
163543.638798,-666.185348,-10807.006753,1762.019645
163543.639118,518.144159,-6883.915261,536.266849
163543.639438,2516.700203,-5699.585753,229.828649
163543.639758,2812.782580,-8290.306550,2987.772442
163543.640077,5551.544565,-8290.306550,1762.019645
163543.640397,3478.967927,-11843.295072,3600.648841
163543.640717,-1258.350101,-10288.862594,-2528.115143
163543.641037,-4441.235652,-11843.295072,-76.609550
163543.641357,-3552.988522,-9548.656652,0.000000
163543.641677,-1258.350101,-6809.894666,0.000000
163543.641997,444.123565,-7476.080014,-995.924147
163543.642316,444.123565,-7550.100608,2528.115143
163543.642636,1406.391290,-7476.080014,229.828649
163543.642956,666.185348,-8882.471304,2834.553343
163543.643276,-518.144159,-10955.047942,-995.924147
163543.643596,-5181.441594,-9844.739029,1915.238745
163543.643916,-4737.318029,-6587.832884,0.000000
163543.644236,-1332.370696,-7476.080014,995.924147
163543.644555,0.000000,-4811.338623,-2451.505594
163543.644875,1110.308913,-8142.265362,229.828649
163543.645195,740.205942,-9918.759623,-2528.115143
163543.645515,-1628.453072,-12731.542202,-459.657299
163543.645835,-3478.967927,-14285.974681,-3907.087040
163543.646155,-3182.885551,-12435.459826,-76.609550
163543.646475,-2368.659014,-9844.739029,-2068.457845
163543.646794,0.000000,-4811.338623,0.000000
163543.647114,1776.494261,-5995.668130,-1225.752797
163543.647434,3923.091493,-6439.791695,4826.401637
163543.647754,1184.329507,-5403.503377,0.000000
163543.648074,1924.535449,-10881.027347,1072.533697
163543.648393,-3034.844362,-12509.480420,-2298.286494
163543.648713,-3997.112087,-11843.295072,-995.924147
163543.649033,-4737.318029,-9548.656652,-4290.134789
163543.649353,0.000000,-8290.306550,-76.609550
163543.649672,444.123565,-7772.162391,-2145.067394
163543.649992,2368.659014,-7698.141797,0.000000
163543.650312,2664.741391,-10881.027347,1378.971896
163543.650632,-74.020594,-8290.306550,-76.609550
163543.650951,-1850.514855,-11251.130318,-1302.362347
163543.651271,-1998.556043,-8216.285956,0.000000
163543.651591,0.000000,-8660.409521,-2451.505594
163543.651911,2738.761985,-7698.141797,536.266849
163543.652230,1480.411884,-8660.409521,1225.752797
163543.652550,888.247130,-8956.491898,2911.162892
163543.652870,-74.020594,-9474.636058,-2834.553343
163543.653190,-4589.276840,-9548.656652,-4596.572988
163543.653509,-4737.318029,-10732.986159,-4673.182538
163543.653829,-3849.070898,-7179.997637,-4290.134789
163543.654149,-74.020594,-9844.739029,-76.609550
163543.654469,814.226536,-6809.894666,-995.924147
163543.654788,74.020594,-7994.224174,229.828649
163543.655108,1554.432478,-6957.935855,-536.266849
163543.655428,0.000000,-9474.636058,1149.143247
163543.655748,-370.102971,-9992.780217,-1608.800546
163543.656067,-2368.659014,-10214.842000,-842.705048
163543.656387,-1776.494261,-10732.986159,0.000000
163543.656707,-74.020594,-10362.883188,1532.190996
163543.657027,-2146.597232,-5403.503377,-4290.134789
163543.657346,0.000000,-9178.553681,1455.581446
163543.657666,1702.473667,-8364.327145,-1455.581446
163543.657986,222.061783,-9696.697840,1915.238745
163543.658306,-74.020594,-11843.295072,-76.609550
163543.658625,-74.020594,-11843.295072,3600.648841
163543.658945,1110.308913,-10732.986159,1915.238745
163543.659265,-74.020594,-9178.553681,1762.019645
163543.659585,-1184.329507,-7328.038826,0.000000
163543.659904,-2960.823768,-4811.338623,2451.505594
163543.660224,-666.185348,-6957.935855,-2221.676944
163543.660544,0.000000,-9326.594869,459.657299
163543.660864,-1258.350101,-10881.027347,-2145.067394
163543.661183,-1184.329507,-10658.965565,1838.629195
163543.661503,-74.020594,-11547.212695,-76.609550
163543.661823,-2368.659014,-8364.327145,1225.752797
163543.662143,-74.020594,-9770.718434,-76.609550
163543.662462,666.185348,-7698.141797,2068.457845
163543.662782,3478.967927,-8290.306550,-76.609550
163543.663102,0.000000,-5995.668130,1225.752797
163543.663421,-74.020594,-10658.965565,-229.828649
163543.663741,-222.061783,-9844.739029,459.657299
163543.664061,74.020594,-10955.047942,-459.657299
163543.664381,-222.061783,-8068.244768,76.609550
163543.664700,-888.247130,-9548.656652,-1302.362347
163543.665020,0.000000,-7179.997637,0.000000
163543.665340,2664.741391,-9992.780217,306.438199
163543.665660,3478.967927,-10658.965565,2068.457845
163543.665979,-666.185348,-12139.377449,-76.609550
163543.666299,-4441.235652,-9548.656652,0.000000
163543.666619,-2442.679609,-9326.594869,-1455.581446
163543.666939,-1184.329507,-7920.203579,-1302.362347
163543.667258,-1628.453072,-9474.636058,-459.657299
163543.667578,1702.473667,-8290.306550,-689.485948
163543.667898,-74.020594,-9474.636058,-76.609550
163543.668218,-2220.617826,-8142.265362,-2528.115143
163543.668537,-5921.647536,-9548.656652,-2145.067394
163543.668857,-1554.432478,-10584.944971,-1455.581446
163543.669177,-592.164754,-10732.986159,2145.067394
163543.669497,-1480.411884,-7476.080014,-2451.505594
163543.669816,0.000000,-9178.553681,919.314598
163543.670136,1628.453072,-7920.203579,-766.095498
163543.670456,1332.370696,-6883.915261,153.219100
163543.670776,1110.308913,-9474.636058,-3140.991542
163543.671095,-74.020594,-13027.624579,2374.896044
163543.671415,2072.576638,-11843.295072,-2528.115143
163543.671735,0.000000,-10436.903782,919.314598
163543.672055,-2368.659014,-7179.997637,-2451.505594
163543.672374,-2368.659014,-6291.750507,0.000000
163543.672694,2368.659014,-7994.224174,-2145.067394
163543.673014,3034.844362,-8290.306550,1225.752797
163543.673334,1332.370696,-10140.821405,-995.924147
163543.673653,-74.020594,-11843.295072,4519.963438
163543.673973,-222.061783,-9104.533087,-1608.800546
163543.674293,-1406.391290,-7179.997637,0.000000
163543.674613,-1480.411884,-7476.080014,-6128.763984
163543.674932,740.205942,-10584.944971,2757.943793
163543.675252,2294.638420,-7994.224174,-3140.991542
163543.675572,2294.638420,-11251.130318,1149.143247
163543.675892,-2442.679609,-13323.706956,-2068.457845
163543.676211,-2368.659014,-11103.089130,612.876398
163543.676531,-1554.432478,-9992.780217,-1225.752797
163543.676851,-1184.329507,-6291.750507,1838.629195
163543.677171,-444.123565,-7179.997637,-2528.115143
163543.677490,2294.638420,-8216.285956,2221.676944
163543.677810,3552.988522,-8586.388927,306.438199
163543.678130,1480.411884,-9548.656652,0.000000
163543.678450,-3034.844362,-10955.047942,-3140.991542
163543.678769,-1258.350101,-11843.295072,-76.609550
163543.679089,-2812.782580,-9548.656652,-3830.477490
163543.679409,-888.247130,-6291.750507,-2528.115143
163543.679729,-666.185348,-13323.706956,2374.896044
163543.680048,0.000000,-8364.327145,3064.381992
163543.680368,1406.391290,-8438.347739,1991.848295
163543.680688,-1110.308913,-6365.771101,383.047749
163543.681008,-5107.421000,-8660.409521,-919.314598
163543.681327,-1850.514855,-7476.080014,-1532.190996
163543.681647,518.144159,-9178.553681,229.828649
163543.681967,1110.308913,-9474.636058,1838.629195
163543.682287,-2368.659014,-9548.656652,0.000000
163543.682606,-1776.494261,-8660.409521,612.876398
163543.682926,-74.020594,-10658.965565,-76.609550
163543.683246,-2368.659014,-7624.121203,-3064.381992
163543.683566,-2368.659014,-9622.677246,-306.438199
163543.683885,1332.370696,-8734.430116,-612.876398
163543.684205,1554.432478,-9548.656652,2451.505594
163543.684525,592.164754,-9548.656652,612.876398
163543.684845,-814.226536,-10658.965565,1991.848295
163543.685164,3478.967927,-11251.130318,-76.609550
163543.685484,2294.638420,-7698.141797,-76.609550
163543.685804,370.102971,-8364.327145,-2528.115143
163543.686124,2294.638420,-12139.377449,2068.457845
163543.686443,2368.659014,-10362.883188,-1838.629195
163543.686763,1776.494261,-10732.986159,1072.533697
163543.687083,-740.205942,-10881.027347,-1915.238745
163543.687402,-2368.659014,-9548.656652,-1225.752797
163543.687722,-74.020594,-8290.306550,-3140.991542
163543.688042,1406.391290,-7698.141797,1762.019645
163543.688362,0.000000,-6587.832884,-1225.752797
163543.688681,1332.370696,-8364.327145,3064.381992
163543.689001,4663.297435,-11547.212695,2987.772442
163543.689321,0.000000,-9548.656652,612.876398
163543.689641,-2516.700203,-11325.150913,-1149.143247
163543.689960,-3701.029710,-10288.862594,995.924147
163543.690280,-1628.453072,-9326.594869,-1608.800546
163543.690600,-666.185348,-8290.306550,-689.485948
163543.690920,-666.185348,-10584.944971,-383.047749
163543.691239,-74.020594,-8290.306550,-76.609550
163543.691559,-666.185348,-7698.141797,-1455.581446
163543.691879,-1258.350101,-8142.265362,-1915.238745
163543.692199,-4441.235652,-11917.315666,-995.924147
163543.692518,-3552.988522,-9696.697840,0.000000
163543.692838,370.102971,-9992.780217,153.219100
163543.693158,444.123565,-8142.265362,612.876398
163543.693478,-1776.494261,-9992.780217,-459.657299
163543.693797,-666.185348,-8290.306550,-1225.752797
163543.694117,0.000000,-10732.986159,0.000000
163543.694437,1110.308913,-10658.965565,-153.219100
163543.694757,-74.020594,-12435.459826,-76.609550
163543.695076,-962.267725,-7105.977043,0.000000
163543.695396,1184.329507,-8956.491898,2145.067394
163543.695716,2072.576638,-7994.224174,-1532.190996
163543.696036,1184.329507,-10510.924376,1149.143247
163543.696355,2294.638420,-10658.965565,1455.581446
163543.696675,-1776.494261,-9548.656652,0.000000
163543.696995,-2368.659014,-8364.327145,-3600.648841
163543.697315,-2960.823768,-9548.656652,-2298.286494
163543.697634,0.000000,-8068.244768,-919.314598
163543.697954,2294.638420,-9474.636058,2681.334243
163543.698274,1702.473667,-9474.636058,-76.609550
163543.698594,-2368.659014,-9252.574275,1225.752797
163543.698913,-1036.288319,-8290.306550,-1915.238745
163543.699233,-518.144159,-8660.409521,0.000000
163543.699553,814.226536,-11029.068536,-1532.190996
163543.699873,-1628.453072,-8068.244768,1072.533697
163543.700192,814.226536,-11843.295072,-76.609550
163543.700512,-1480.411884,-7179.997637,0.000000
163543.700832,-1776.494261,-7772.162391,-3677.258390
163543.701152,-2368.659014,-9548.656652,0.000000
163543.701471,2738.761985,-11843.295072,-76.609550
163543.701791,0.000000,-9548.656652,919.314598
163543.702111,0.000000,-10214.842000,-1072.533697
163543.702431,-296.082377,-8734.430116,2068.457845
163543.702750,0.000000,-8142.265362,-1225.752797
163543.703070,-74.020594,-7994.224174,0.000000
163543.703390,-592.164754,-10732.986159,-1608.800546
163543.703710,1110.308913,-9474.636058,2681.334243
163543.704029,2294.638420,-9474.636058,-689.485948
163543.704349,0.000000,-9844.739029,842.705048
163543.704669,-814.226536,-13471.748144,-76.609550
163543.704989,-3552.988522,-9178.553681,612.876398
163543.705308,-2220.617826,-8142.265362,-1532.190996
163543.705628,-962.267725,-7105.977043,-766.095498
163543.705948,-4737.318029,-7179.997637,0.000000
163543.706268,-1480.411884,-7328.038826,306.438199
163543.706587,296.082377,-8734.430116,-2451.505594
163543.706907,1702.473667,-11103.089130,-76.609550
163543.707227,-1850.514855,-11843.295072,-1302.362347
163543.707547,-74.020594,-10658.965565,-383.047749
163543.707866,-814.226536,-10658.965565,-383.047749
163543.708186,74.020594,-9696.697840,-612.876398
163543.708506,296.082377,-9622.677246,-459.657299
163543.708826,1702.473667,-8438.347739,306.438199
163543.709145,0.000000,-7772.162391,0.000000
163543.709465,1184.329507,-8290.306550,-2528.115143
163543.709785,-2368.659014,-10140.821405,0.000000
163543.710105,1702.473667,-9474.636058,-76.609550
163543.710424,518.144159,-11547.212695,1762.019645
163543.710744,1480.411884,-10140.821405,1838.629195
163543.711064,0.000000,-8808.450710,1608.800546
163543.711384,1480.411884,-8068.244768,0.000000
163543.711703,1184.329507,-8364.327145,536.266849
163543.712023,0.000000,-7772.162391,-2451.505594
163543.712343,-888.247130,-10140.821405,1455.581446
163543.712662,296.082377,-10510.924376,459.657299
163543.712982,-370.102971,-10510.924376,1455.581446
163543.713302,-2738.761985,-5995.668130,-4290.134789
163543.713622,-4145.153275,-7179.997637,2451.505594
163543.713941,0.000000,-7624.121203,-1838.629195
163543.714261,1406.391290,-9326.594869,1762.019645
163543.714581,0.000000,-9252.574275,-459.657299
163543.714901,-1406.391290,-9696.697840,1915.238745
163543.715220,-74.020594,-10658.965565,-1915.238745
163543.715540,-2072.576638,-9548.656652,0.000000
163543.715860,-1628.453072,-10436.903782,-1762.019645
163543.716180,-1332.370696,-9474.636058,1762.019645
163543.716499,0.000000,-8660.409521,842.705048
163543.716819,0.000000,-5995.668130,0.000000
163543.717139,-2368.659014,-9548.656652,-2145.067394
163543.717459,592.164754,-11251.130318,1991.848295
163543.717778,-74.020594,-10362.883188,-76.609550
163543.718098,-1110.308913,-9548.656652,229.828649
163543.718418,-74.020594,-11843.295072,-76.609550
163543.718738,-1332.370696,-7624.121203,995.924147
163543.719057,0.000000,-7328.038826,-689.485948
163543.719377,2072.576638,-7624.121203,76.609550
163543.719697,592.164754,-9548.656652,0.000000
163543.720017,1480.411884,-10807.006753,2528.115143
163543.720336,-1850.514855,-10140.821405,0.000000
163543.720656,-3849.070898,-7772.162391,-3677.258390
163543.720976,-4737.318029,-8956.491898,-1838.629195
163543.721296,-666.185348,-7105.977043,-3753.867940
163543.721615,1702.473667,-8290.306550,-842.705048
163543.721935,2220.617826,-7105.977043,-612.876398
163543.722255,1628.453072,-10362.883188,1072.533697
163543.722575,1628.453072,-10658.965565,612.876398
163543.722894,-1480.411884,-11917.315666,2145.067394
163543.723214,-2664.741391,-9992.780217,-1991.848295
163543.723534,-2590.720797,-9474.636058,-1302.362347
163543.723854,0.000000,-4811.338623,-2451.505594
163543.724173,2072.576638,-7772.162391,0.000000
163543.724493,4663.297435,-8882.471304,-1915.238745
163543.724813,1258.350101,-11917.315666,1608.800546
163543.725133,296.082377,-11843.295072,0.000000
163543.725452,-2146.597232,-10510.924376,229.828649
163543.725772,-1258.350101,-11251.130318,-689.485948
163543.726092,-1480.411884,-9844.739029,1838.629195
163543.726412,0.000000,-3627.009116,-2145.067394
163543.726731,4293.194464,-7031.956449,3217.601092
163543.727051,3775.050304,-8882.471304,-76.609550
163543.727371,-1184.329507,-11325.150913,0.000000
163543.727691,-1258.350101,-14211.954086,-1608.800546
163543.728010,-4737.318029,-12065.356855,919.314598
