#time,accel_x,accel_y,accel_z
59290.946024,-74.020594,-9474.636058,2068.457845
59290.946334,-444.123565,-8808.450710,229.828649
59290.946643,-370.102971,-9178.553681,689.485948
59290.946953,-370.102971,-9104.533087,842.705048
59290.947263,-2368.659014,-7179.997637,0.000000
59290.947573,0.000000,-8956.491898,1225.752797
59290.947882,-74.020594,-9992.780217,3600.648841
59290.948192,-2368.659014,-6735.874072,-1225.752797
59290.948502,1258.350101,-10658.965565,2298.286494
59290.948812,-74.020594,-8882.471304,-76.609550
59290.949121,592.164754,-9844.739029,1915.238745
59290.949431,-74.020594,-8956.491898,1072.533697
59290.949741,-518.144159,-8808.450710,612.876398
59290.950051,-296.082377,-9030.512492,689.485948
59290.950361,-2368.659014,-6587.832884,0.000000
59290.950670,-2072.576638,-8364.327145,306.438199
59290.950980,0.000000,-8956.491898,1225.752797
59290.951290,-74.020594,-8290.306550,-76.609550
59290.951600,0.000000,-8364.327145,612.876398
59290.951909,2294.638420,-11843.295072,3294.210641
59290.952219,0.000000,-8956.491898,919.314598
59290.952529,-74.020594,-9326.594869,842.705048
59290.952839,-518.144159,-9030.512492,842.705048
59290.953148,-444.123565,-8882.471304,689.485948
59290.953458,-74.020594,-8586.388927,-1302.362347
59290.953768,-1776.494261,-7328.038826,0.000000
59290.954078,-1184.329507,-8364.327145,0.000000
59290.954388,-74.020594,-10658.965565,-76.609550
59290.954697,-1776.494261,-8364.327145,612.876398
59290.955007,1406.391290,-10510.924376,2987.772442
59290.955317,-1184.329507,-8364.327145,612.876398
59290.955627,-148.041188,-9326.594869,689.485948
59290.955936,-222.061783,-9252.574275,919.314598
59290.956246,-370.102971,-9104.533087,536.266849
59290.956556,-74.020594,-9474.636058,-76.609550
59290.956866,-74.020594,-8290.306550,-76.609550
59290.957175,-1184.329507,-7772.162391,0.000000
59290.957485,1776.494261,-11177.109724,2911.162892
59290.957795,-1554.432478,-7772.162391,0.000000
59290.958105,0.000000,-8364.327145,1838.629195
59290.958415,-1184.329507,-8068.244768,0.000000
59290.958724,-296.082377,-8956.491898,612.876398
59290.959034,-296.082377,-9104.533087,766.095498
59290.959344,-370.102971,-8882.471304,383.047749
59290.959654,1554.432478,-10658.965565,2374.896044
59290.959963,-74.020594,-9474.636058,1149.143247
59290.960273,-740.205942,-7476.080014,-2145.067394
59290.960583,1480.411884,-10881.027347,2911.162892
59290.960893,-1406.391290,-7772.162391,0.000000
59290.961202,-2368.659014,-7179.997637,0.000000
59290.961512,-74.020594,-8586.388927,383.047749
59290.961822,-296.082377,-8660.409521,842.705048
59290.962132,-148.041188,-9104.533087,842.705048
59290.962442,-370.102971,-8734.430116,689.485948
59290.962751,740.205942,-10658.965565,2757.943793
59290.963061,1110.308913,-10362.883188,1762.019645
59290.963371,-74.020594,-9474.636058,-76.609550
59290.963681,0.000000,-8364.327145,1225.752797
59290.963990,-74.020594,-10658.965565,1149.143247
59290.964300,-1406.391290,-6883.915261,-2451.505594
59290.964610,-74.020594,-9474.636058,1149.143247
59290.964920,-518.144159,-8956.491898,536.266849
59290.965229,-296.082377,-9030.512492,842.705048
59290.965539,-74.020594,-9252.574275,1072.533697
59290.965849,0.000000,-8956.491898,1838.629195
59290.966159,740.205942,-10140.821405,1685.410096
59290.966469,1110.308913,-11843.295072,2374.896044
59290.966778,-1554.432478,-7328.038826,-689.485948
59290.967088,0.000000,-9696.697840,1532.190996
59290.967398,-74.020594,-8290.306550,-76.609550
59290.967708,-74.020594,-9474.636058,1149.143247
59290.968017,-222.061783,-8734.430116,919.314598
59290.968327,-444.123565,-8734.430116,919.314598
59290.968637,-592.164754,-9030.512492,689.485948
59290.968947,0.000000,-7179.997637,0.000000
59290.969256,0.000000,-8956.491898,919.314598
59290.969566,1110.308913,-11843.295072,3600.648841
59290.969876,-1924.535449,-7179.997637,0.000000
59290.970186,1332.370696,-9252.574275,2451.505594
59290.970495,2294.638420,-9474.636058,-76.609550
59290.970805,1924.535449,-9252.574275,1608.800546
59290.971115,1184.329507,-8734.430116,689.485948
59290.971425,1554.432478,-8586.388927,919.314598
59290.971735,1998.556043,-8808.450710,842.705048
59290.972044,0.000000,-6587.832884,306.438199
59290.972354,1776.494261,-8364.327145,612.876398
59290.972664,2960.823768,-10140.821405,3064.381992
59290.972974,1702.473667,-8216.285956,-1149.143247
59290.973283,2368.659014,-9844.739029,919.314598
59290.973593,5847.626942,-11843.295072,2374.896044
59290.973903,2812.782580,-9548.656652,919.314598
59290.974213,4145.153275,-9474.636058,1149.143247
59290.974522,4811.338623,-9474.636058,1455.581446
59290.974832,5403.503377,-8438.347739,1838.629195
59290.975142,5847.626942,-7402.059420,0.000000
59290.975452,4811.338623,-7476.080014,842.705048
59290.975762,2960.823768,-7179.997637,0.000000
59290.976071,8216.285956,-10658.965565,2374.896044
59290.976381,4145.153275,-7328.038826,0.000000
59290.976691,6217.729913,-10288.862594,2757.943793
59290.977001,5033.400406,-8364.327145,-1072.533697
59290.977310,5773.606348,-9844.739029,-383.047749
59290.977620,4811.338623,-11177.109724,-536.266849
59290.977930,3552.988522,-12213.398043,-612.876398
59290.978240,4663.297435,-13027.624579,-76.609550
59290.978549,2294.638420,-12435.459826,-76.609550
59290.978859,0.000000,-9548.656652,0.000000
59290.979169,4663.297435,-10658.965565,2374.896044
59290.979479,2368.659014,-5403.503377,612.876398
59290.979789,5329.482782,-4811.338623,4290.134789
59290.980098,5847.626942,-3108.864956,1915.238745
59290.980408,8290.306550,-4367.215058,3064.381992
59290.980718,9400.615463,-5551.544565,3217.601092
59290.981028,8586.388927,-7624.121203,2451.505594
59290.981337,7031.956449,-13027.624579,1762.019645
59290.981647,-74.020594,-16136.489536,-1302.362347
59290.981957,-3627.009116,-16580.613101,-6205.373534
59290.982267,-4145.153275,-16950.716072,-3370.820191
59290.982576,-3923.091493,-11695.253884,-3294.210641
59290.982886,-1258.350101,-8586.388927,-2681.334243
59290.983196,-888.247130,-7179.997637,842.705048
59290.983506,3997.112087,-5107.421000,3677.258390
59290.983816,5551.544565,-5551.544565,5822.325785
59290.984125,4219.173869,-4441.235652,5439.278036
59290.984435,1184.329507,-3627.009116,4290.134789
59290.984745,592.164754,-3627.009116,612.876398
59290.985055,2812.782580,-6291.750507,4060.306139
59290.985364,-666.185348,-4737.318029,-995.924147
59290.985674,-4441.235652,-7179.997637,-4903.011187
59290.985984,-7105.977043,-15470.304188,-1838.629195
59290.986294,-8364.327145,-18949.272115,-3753.867940
59290.986603,-10510.924376,-19837.519246,-4060.306139
59290.986913,-9622.677246,-16654.633695,-2528.115143
59290.987223,-8142.265362,-9474.636058,-1685.410096
59290.987533,-1850.514855,-4441.235652,2374.896044
59290.987843,4071.132681,-4145.153275,7277.907231
59290.988152,4367.215058,2812.782580,5286.058936
59290.988462,4737.318029,-3330.926739,8580.269578
59290.988772,2294.638420,-5921.647536,4826.401637
59290.989082,-1554.432478,-8586.388927,612.876398
59290.989391,-3701.029710,-10732.986159,1225.752797
59290.989701,-3997.112087,-9474.636058,-1532.190996
59290.990011,-6069.688724,-8512.368333,-2757.943793
59290.990321,-6587.832884,-11917.315666,-2528.115143
59290.990630,-7698.141797,-13841.851115,-3064.381992
59290.990940,-9474.636058,-14878.139434,-2451.505594
59290.991250,-3478.967927,-16580.613101,1762.019645
59290.991560,-4515.256246,-10436.903782,536.266849
59290.991870,-666.185348,-7328.038826,5132.839837
59290.992179,2590.720797,-2368.659014,6665.030833
59290.992489,6291.750507,2368.659014,5286.058936
59290.992799,7550.100608,-74.020594,5439.278036
59290.993109,4959.379811,-6513.812290,3753.867940
59290.993418,1332.370696,-12213.398043,612.876398
59290.993728,-74.020594,-15914.427753,-76.609550
59290.994038,-1258.350101,-16580.613101,-689.485948
59290.994348,-4219.173869,-9326.594869,-4366.744339
59290.994657,-2960.823768,-9548.656652,-2451.505594
59290.994967,2220.617826,-12879.583391,-612.876398
59290.995277,814.226536,-12509.480420,-1455.581446
59290.995587,2368.659014,-16062.468941,1532.190996
59290.995897,1036.288319,-14952.160028,2374.896044
59290.996206,666.185348,-9696.697840,1838.629195
59290.996516,2294.638420,-6809.894666,3447.429741
59290.996826,3849.070898,-74.020594,2374.896044
59290.997136,4737.318029,3478.967927,919.314598
59290.997445,7031.956449,-5107.421000,3983.696590
59290.997755,3478.967927,-10658.965565,-76.609550
59290.998065,0.000000,-14285.974681,0.000000
59290.998375,-74.020594,-18875.251521,-76.609550
59290.998684,-2590.720797,-14730.098246,-2451.505594
59290.998994,-2738.761985,-10510.924376,-3217.601092
59290.999304,370.102971,-7328.038826,-2068.457845
59290.999614,1332.370696,-5403.503377,-2451.505594
59290.999923,5551.544565,-10436.903782,1838.629195
59291.000233,3478.967927,-15100.201217,2681.334243
59291.000543,-2368.659014,-13101.645173,0.000000
59291.000853,-1258.350101,-14211.954086,3600.648841
59291.001163,-4737.318029,-4811.338623,0.000000
59291.001472,0.000000,-962.267725,229.828649
59291.001782,1480.411884,-1924.535449,1991.848295
59291.002092,1924.535449,-7328.038826,2987.772442
59291.002402,222.061783,-12509.480420,2681.334243
59291.002711,-222.061783,-18357.107362,4826.401637
59291.003021,-4219.173869,-14359.995275,-76.609550
59291.003331,-7105.977043,-9548.656652,-2451.505594
59291.003641,-3108.864956,-5773.606348,306.438199
59291.003950,-74.020594,-3552.988522,-76.609550
59291.004260,666.185348,-1924.535449,-76.609550
59291.004570,2294.638420,-8290.306550,2374.896044
59291.004880,-1258.350101,-12731.542202,229.828649
59291.005190,-3849.070898,-15248.242405,76.609550
59291.005499,-4885.359217,-13397.727550,-383.047749
59291.005809,-6809.894666,-7179.997637,0.000000
59291.006119,-1184.329507,-4367.215058,1378.971896
59291.006429,-74.020594,-5625.565159,3447.429741
59291.006738,814.226536,-4885.359217,536.266849
59291.007048,2072.576638,-11917.315666,5515.887586
59291.007358,-592.164754,-13101.645173,3677.258390
59291.007668,-2812.782580,-11325.150913,1225.752797
59291.007977,-2664.741391,-10881.027347,1838.629195
59291.008287,-1554.432478,-5033.400406,229.828649
59291.008597,444.123565,-3108.864956,0.000000
59291.008907,3775.050304,-6513.812290,2068.457845
59291.009217,518.144159,-9474.636058,-995.924147
59291.009526,-3404.947333,-14285.974681,-1838.629195
59291.009836,-1406.391290,-20133.601622,-76.609550
59291.010146,-6513.812290,-13101.645173,-3217.601092
59291.010456,-1258.350101,-9474.636058,-383.047749
59291.010765,592.164754,-4737.318029,1915.238745
59291.011075,3182.885551,-1776.494261,2834.553343
59291.011385,5329.482782,-4293.194464,4903.011187
59291.011695,5847.626942,-7772.162391,5286.058936
59291.012004,1184.329507,-9548.656652,2451.505594
59291.012314,148.041188,-12509.480420,2911.162892
59291.012624,-666.185348,-9474.636058,-76.609550
59291.012934,-2368.659014,-2442.679609,0.000000
59291.013244,3478.967927,-4737.318029,-76.609550
59291.013553,1628.453072,-5107.421000,-612.876398
59291.013863,0.000000,-10436.903782,-2068.457845
59291.014173,-1332.370696,-18357.107362,-689.485948
59291.014483,-3034.844362,-20133.601622,-995.924147
59291.014792,-4589.276840,-15692.365970,-1225.752797
59291.015102,-666.185348,-9474.636058,-76.609550
59291.015412,518.144159,-1998.556043,459.657299
59291.015721,4145.153275,-74.020594,2451.505594
59291.016031,9400.615463,-4737.318029,6665.030833
59291.016340,2960.823768,-5995.668130,3064.381992
59291.016650,2294.638420,-10955.047942,1685.410096
59291.016960,-444.123565,-14063.912898,1762.019645
59291.017269,-3034.844362,-10066.800811,-1225.752797
59291.017579,-1036.288319,-6291.750507,-1532.190996
59291.017889,-518.144159,-3478.967927,-2451.505594
59291.018198,0.000000,-4811.338623,-1838.629195
59291.018508,-666.185348,-12139.377449,-1302.362347
59291.018818,-2516.700203,-16432.571912,-1225.752797
59291.019127,-4589.276840,-18209.066173,-612.876398
59291.019437,-4589.276840,-13767.830521,459.657299
59291.019746,-666.185348,-8882.471304,1762.019645
59291.020056,962.267725,-1628.453072,2374.896044
59291.020366,2960.823768,-74.020594,4903.011187
59291.020675,7031.956449,-3552.988522,4826.401637
59291.020985,2368.659014,-7179.997637,2604.724693
59291.021295,-1776.494261,-13101.645173,612.876398
59291.021604,-3627.009116,-16284.530724,-229.828649
59291.021914,-4885.359217,-13027.624579,-1608.800546
59291.022224,-3923.091493,-7476.080014,-2145.067394
59291.022533,-2442.679609,-5181.441594,-2068.457845
59291.022843,-74.020594,-7105.977043,-76.609550
59291.023152,-74.020594,-10510.924376,-76.609550
59291.023462,-4737.318029,-12509.480420,612.876398
59291.023772,-1258.350101,-14804.118840,2987.772442
59291.024081,-3034.844362,-10066.800811,1762.019645
59291.024391,-1776.494261,-2146.597232,1225.752797
59291.024701,1924.535449,0.000000,3217.601092
59291.025010,4367.215058,222.061783,3983.696590
59291.025320,3923.091493,-3997.112087,2911.162892
59291.025630,1184.329507,-11103.089130,1762.019645
59291.025939,-888.247130,-18357.107362,1762.019645
59291.026249,-4589.276840,-18949.272115,-1302.362347
59291.026558,-7105.977043,-11029.068536,-3677.258390
59291.026868,-1924.535449,-8290.306550,-766.095498
59291.027178,518.144159,-3256.906145,-1915.238745
59291.027487,1554.432478,-5033.400406,0.000000
59291.027797,1776.494261,-11177.109724,2145.067394
59291.028107,74.020594,-14434.015869,1762.019645
59291.028416,-1998.556043,-14878.139434,1838.629195
59291.028726,-2072.576638,-10066.800811,2374.896044
59291.029036,-74.020594,-6513.812290,3294.210641
59291.029345,3997.112087,-2220.617826,4826.401637
59291.029655,3478.967927,-74.020594,1608.800546
59291.029964,4145.153275,-6291.750507,3677.258390
59291.030274,2294.638420,-13027.624579,1149.143247
59291.030584,-2442.679609,-17468.860231,-995.924147
59291.030893,-5625.565159,-16654.633695,-2145.067394
59291.031203,-4441.235652,-11473.192101,-2145.067394
59291.031513,-1776.494261,-5033.400406,-1762.019645
59291.031822,1850.514855,-2590.720797,-76.609550
59291.032132,3849.070898,-4811.338623,2145.067394
59291.032442,4663.297435,-11325.150913,3983.696590
59291.032751,1110.308913,-14211.954086,-76.609550
59291.033061,-4145.153275,-14878.139434,0.000000
59291.033371,-1850.514855,-12879.583391,1455.581446
59291.033680,-74.020594,-6809.894666,-76.609550
59291.033990,592.164754,-1258.350101,1225.752797
59291.034299,3552.988522,-1628.453072,2068.457845
59291.034609,3627.009116,-6883.915261,2757.943793
59291.034919,1184.329507,-12213.398043,1225.752797
59291.035228,-3552.988522,-14285.974681,0.000000
59291.035538,-4145.153275,-16062.468941,612.876398
59291.035848,-2442.679609,-11251.130318,-1608.800546
59291.036157,-2960.823768,-3627.009116,-2451.505594
59291.036467,2294.638420,-3849.070898,-76.609550
59291.036777,3775.050304,-4441.235652,2374.896044
59291.037086,2220.617826,-9548.656652,459.657299
59291.037396,-370.102971,-15322.262999,842.705048
59291.037705,-3330.926739,-16580.613101,76.609550
59291.038015,-3923.091493,-13101.645173,0.000000
59291.038325,-3552.988522,-4811.338623,0.000000
59291.038634,0.000000,-74.020594,0.000000
59291.038944,5255.462188,-4145.153275,4826.401637
59291.039254,3330.926739,-5699.585753,2987.772442
59291.039563,2072.576638,-11769.274478,3983.696590
59291.039873,-1628.453072,-15988.448347,3907.087040
59291.040183,-4515.256246,-13915.871710,-153.219100
59291.040492,-5107.421000,-9104.533087,-1608.800546
59291.040802,-2368.659014,-4367.215058,-1302.362347
59291.041111,962.267725,-1850.514855,0.000000
59291.041421,1406.391290,-3701.029710,0.000000
59291.041731,0.000000,-9548.656652,0.000000
59291.042040,-370.102971,-18357.107362,2681.334243
59291.042350,-4219.173869,-17024.736666,-76.609550
59291.042660,-5921.647536,-12213.398043,76.609550
59291.042969,-3256.906145,-6587.832884,1838.629195
59291.043279,1110.308913,-1924.535449,1838.629195
59291.043589,3182.885551,-2368.659014,3370.820191
59291.043898,3849.070898,-6365.771101,3677.258390
59291.044208,1998.556043,-10584.944971,2834.553343
59291.044517,-1258.350101,-14211.954086,842.705048
59291.044827,-2442.679609,-14211.954086,-1302.362347
59291.045137,-5921.647536,-7772.162391,-1838.629195
59291.045446,-74.020594,-5033.400406,-76.609550
59291.045756,1110.308913,-2960.823768,-76.609550
59291.046066,1480.411884,-5403.503377,0.000000
59291.046375,1110.308913,-12879.583391,766.095498
59291.046685,-1850.514855,-16876.695478,383.047749
59291.046995,-3182.885551,-16950.716072,306.438199
59291.047304,-3034.844362,-12435.459826,1149.143247
59291.047614,-74.020594,-6513.812290,2374.896044
59291.047923,3478.967927,-1184.329507,1149.143247
59291.048233,2960.823768,-666.185348,3677.258390
59291.048543,6439.791695,-7105.977043,4826.401637
59291.048852,1184.329507,-10732.986159,2451.505594
59291.049162,-2368.659014,-13101.645173,0.000000
59291.049472,-3997.112087,-14359.995275,-919.314598
59291.049781,-3330.926739,-9030.512492,-2068.457845
59291.050091,-1036.288319,-4145.153275,-1532.190996
59291.050401,2072.576638,-4737.318029,-76.609550
59291.050710,4663.297435,-7105.977043,0.000000
59291.051020,2886.803174,-14211.954086,1762.019645
59291.051329,-2812.782580,-15470.304188,0.000000
59291.051639,-2960.823768,-16654.633695,2298.286494
59291.051949,-2738.761985,-11843.295072,0.000000
59291.052258,-1998.556043,-3108.864956,0.000000
59291.052568,2146.597232,-740.205942,1838.629195
59291.052878,4663.297435,-1776.494261,3447.429741
59291.053187,4293.194464,-6661.853478,2987.772442
59291.053497,2294.638420,-14211.954086,3294.210641
59291.053807,-888.247130,-17172.777854,1225.752797
59291.054116,-1258.350101,-15396.283594,-689.485948
59291.054426,-4737.318029,-7328.038826,-3064.381992
59291.054736,-74.020594,-5329.482782,-76.609550
59291.055045,2146.597232,-3256.906145,-1838.629195
59291.055355,1702.473667,-6513.812290,229.828649
59291.055664,1036.288319,-12953.603985,1149.143247
59291.055974,-1628.453072,-16580.613101,995.924147
59291.056284,-3256.906145,-16062.468941,612.876398
59291.056593,-2368.659014,-11177.109724,1532.190996
59291.056903,0.000000,-4811.338623,1608.800546
59291.057213,4663.297435,-2072.576638,4519.963438
59291.057522,3701.029710,-148.041188,2451.505594
59291.057832,3552.988522,-6735.874072,5439.278036
59291.058142,-74.020594,-11991.336260,229.828649
59291.058451,-1850.514855,-15988.448347,-76.609550
59291.058761,-5403.503377,-13989.892304,-1455.581446
59291.059070,-3997.112087,-8364.327145,-1838.629195
59291.059380,-1258.350101,-4145.153275,-1225.752797
59291.059690,592.164754,-2442.679609,0.000000
59291.059999,592.164754,-5995.668130,2374.896044
59291.060309,0.000000,-11917.315666,612.876398
59291.060619,-666.185348,-17172.777854,2068.457845
59291.060928,-4515.256246,-14804.118840,-689.485948
59291.061238,-4737.318029,-9030.512492,-76.609550
59291.061548,-74.020594,-4737.318029,1762.019645
59291.061857,2294.638420,-888.247130,2681.334243
59291.062167,4367.215058,-1776.494261,3447.429741
59291.062476,4145.153275,-7105.977043,3600.648841
59291.062786,0.000000,-11917.315666,383.047749
59291.063096,-4589.276840,-14285.974681,0.000000
59291.063405,-7105.977043,-12509.480420,0.000000
59291.063715,-2442.679609,-9474.636058,-383.047749
59291.064025,-1258.350101,-3034.844362,-3677.258390
59291.064334,2590.720797,-4737.318029,-76.609550
59291.064644,3627.009116,-8290.306550,2221.676944
59291.064954,444.123565,-13027.624579,1149.143247
59291.065263,-2294.638420,-16876.695478,0.000000
59291.065573,-3034.844362,-16358.551318,153.219100
59291.065882,-4145.153275,-9548.656652,-842.705048
59291.066192,-2220.617826,-2960.823768,-76.609550
59291.066502,0.000000,-74.020594,1225.752797
59291.066811,6439.791695,-4145.153275,4826.401637
59291.067121,3256.906145,-6587.832884,0.000000
59291.067431,1702.473667,-15396.283594,3600.648841
59291.067740,-2664.741391,-15914.427753,1225.752797
59291.068050,-4219.173869,-14137.933492,-919.314598
59291.068360,-3108.864956,-7698.141797,-1838.629195
59291.068669,-296.082377,-3478.967927,-1072.533697
59291.068979,2294.638420,-2368.659014,-76.609550
59291.069288,2294.638420,-8216.285956,536.266849
59291.069598,-1258.350101,-12435.459826,-842.705048
59291.069908,-3256.906145,-17246.798449,612.876398
59291.070217,-2738.761985,-18949.272115,-76.609550
59291.070527,-2590.720797,-11177.109724,1762.019645
59291.070837,0.000000,-2442.679609,612.876398
59291.071146,3034.844362,-1184.329507,2987.772442
59291.071456,4737.318029,-2368.659014,3677.258390
59291.071766,3627.009116,-7698.141797,3064.381992
59291.072075,1702.473667,-14211.954086,1762.019645
59291.072385,-1850.514855,-16580.613101,1149.143247
59291.072694,-3627.009116,-13915.871710,-1302.362347
59291.073004,-4737.318029,-6143.709319,-3677.258390
59291.073314,1702.473667,-6513.812290,-76.609550
59291.073623,2368.659014,-3182.885551,612.876398
59291.073933,1184.329507,-7179.997637,306.438199
59291.074243,1184.329507,-13767.830521,1532.190996
59291.074552,-1702.473667,-17320.819043,1532.190996
59291.074862,-3404.947333,-15470.304188,306.438199
59291.075172,-1258.350101,-11547.212695,2298.286494
59291.075481,0.000000,-2590.720797,766.095498
59291.075791,4663.297435,-2072.576638,3600.648841
59291.076101,2368.659014,-1258.350101,2451.505594
59291.076410,4663.297435,-9474.636058,4826.401637
59291.076720,-2368.659014,-11917.315666,0.000000
59291.077029,-4811.338623,-14285.974681,-1378.971896
59291.077339,-5551.544565,-13545.768739,-1608.800546
59291.077649,-2960.823768,-7179.997637,-1608.800546
59291.077958,370.102971,-2886.803174,-383.047749
59291.078268,3997.112087,-4219.173869,1838.629195
59291.078578,2294.638420,-7846.182985,1149.143247
59291.078887,1702.473667,-15988.448347,2068.457845
59291.079197,-3849.070898,-15840.407159,0.000000
59291.079507,-4145.153275,-14878.139434,2451.505594
59291.079816,-4367.215058,-7920.203579,0.000000
59291.080126,-74.020594,-2368.659014,1455.581446
59291.080435,2368.659014,-222.061783,2451.505594
59291.080745,4145.153275,-2960.823768,3370.820191
59291.081055,3182.885551,-8734.430116,2834.553343
59291.081364,0.000000,-13101.645173,306.438199
59291.081674,-3108.864956,-14952.160028,-919.314598
59291.081984,-4441.235652,-13693.809927,-612.876398
59291.082293,-1406.391290,-8290.306550,-1302.362347
59291.082603,-3256.906145,-1258.350101,-3064.381992
59291.082913,2072.576638,-2738.761985,-689.485948
59291.083222,3478.967927,-9474.636058,1149.143247
59291.083532,0.000000,-14285.974681,1225.752797
59291.083841,-2368.659014,-16728.654289,689.485948
59291.084151,-3849.070898,-15100.201217,612.876398
59291.084461,-4145.153275,-7772.162391,0.000000
59291.084770,222.061783,-2294.638420,536.266849
59291.085080,2368.659014,-74.020594,2451.505594
59291.085390,5847.626942,-3552.988522,2987.772442
59291.085699,0.000000,-7179.997637,0.000000
59291.086009,-74.020594,-14804.118840,1149.143247
59291.086319,-2442.679609,-17468.860231,-76.609550
59291.086628,-4663.297435,-13027.624579,-1915.238745
59291.086938,-2294.638420,-6587.832884,-919.314598
59291.087247,1110.308913,-3182.885551,-76.609550
59291.087557,1776.494261,-2442.679609,842.705048
59291.087867,2294.638420,-7402.059420,383.047749
59291.088176,0.000000,-13101.645173,919.314598
59291.088486,-1258.350101,-17764.942608,1762.019645
59291.088796,-7698.141797,-11917.315666,0.000000
59291.089105,-2442.679609,-9474.636058,-76.609550
59291.089415,296.082377,-3182.885551,1915.238745
59291.089725,3108.864956,-888.247130,2987.772442
59291.090034,4145.153275,-3404.947333,3217.601092
59291.090344,2590.720797,-10066.800811,2451.505594
59291.090653,-666.185348,-14359.995275,842.705048
59291.090963,-3552.988522,-16284.530724,-766.095498
59291.091273,-4811.338623,-11695.253884,-2221.676944
59291.091582,-2368.659014,-6587.832884,0.000000
59291.091892,4071.132681,-4441.235652,-76.609550
59291.092202,4071.132681,-5921.647536,3524.039291
59291.092511,2368.659014,-8364.327145,1532.190996
59291.092821,518.144159,-14804.118840,1608.800546
59291.093131,-2072.576638,-16580.613101,1149.143247
59291.093440,-3404.947333,-14285.974681,306.438199
59291.093750,-1258.350101,-8290.306550,842.705048
59291.094059,0.000000,-2516.700203,1532.190996
59291.094369,2886.803174,-592.164754,2374.896044
59291.094679,2960.823768,-3627.009116,3064.381992
59291.094988,4663.297435,-13027.624579,3600.648841
59291.095298,-1480.411884,-15470.304188,2145.067394
59291.095608,-5329.482782,-15470.304188,0.000000
59291.095917,-4367.215058,-12583.501014,-842.705048
59291.096227,-1850.514855,-5847.626942,-689.485948
59291.096537,814.226536,-2368.659014,153.219100
59291.096846,3478.967927,-4737.318029,2221.676944
59291.097156,1776.494261,-8956.491898,1532.190996
59291.097466,-74.020594,-16284.530724,1149.143247
59291.097775,-4737.318029,-15470.304188,0.000000
59291.098085,-2738.761985,-16580.613101,2374.896044
59291.098394,-4145.153275,-6587.832884,612.876398
59291.098704,0.000000,-1258.350101,766.095498
59291.099014,3404.947333,-370.102971,3217.601092
59291.099323,4515.256246,-4071.132681,3830.477490
59291.099633,2590.720797,-10288.862594,2834.553343
59291.099943,-370.102971,-14878.139434,1302.362347
59291.100252,-4737.318029,-15766.386565,0.000000
59291.100562,-3034.844362,-12435.459826,-1302.362347
59291.100872,-3182.885551,-4811.338623,-4443.353888
59291.101181,592.164754,-3034.844362,306.438199
59291.101491,592.164754,-3034.844362,0.000000
59291.101800,1406.391290,-8734.430116,153.219100
59291.102110,-592.164754,-15544.324782,1225.752797
59291.102420,-2738.761985,-17394.839637,919.314598
59291.102729,-3627.009116,-13249.686362,0.000000
59291.103039,-2368.659014,-7179.997637,919.314598
59291.103349,0.000000,-1258.350101,1838.629195
59291.103658,5773.606348,-2960.823768,4213.525239
59291.103968,5255.462188,-3552.988522,2374.896044
59291.104278,0.000000,-8364.327145,612.876398
59291.104587,-3404.947333,-12657.521608,0.000000
59291.104897,-3627.009116,-16284.530724,-995.924147
59291.105206,-4663.297435,-11473.192101,-1915.238745
59291.105516,-1406.391290,-5921.647536,-995.924147
59291.105826,1332.370696,-3108.864956,459.657299
59291.106135,1776.494261,-4219.173869,1149.143247
59291.106445,2294.638420,-10658.965565,1149.143247
59291.106755,-74.020594,-16876.695478,2068.457845
59291.107064,-3034.844362,-16580.613101,-76.609550
59291.107374,-6513.812290,-11917.315666,0.000000
59291.107684,-2738.761985,-5403.503377,0.000000
59291.107993,1702.473667,-2368.659014,2374.896044
59291.108303,3182.885551,-296.082377,2528.115143
59291.108612,4145.153275,-3923.091493,3217.601092
59291.108922,1554.432478,-10288.862594,1991.848295
59291.109232,-4145.153275,-14063.912898,-383.047749
59291.109541,-6217.729913,-13989.892304,-2911.162892
59291.109851,-5921.647536,-10732.986159,-2451.505594
59291.110161,-74.020594,-9326.594869,-76.609550
59291.110470,74.020594,-962.267725,-1838.629195
59291.110780,4663.297435,-5921.647536,1149.143247
59291.111090,3923.091493,-11547.212695,2528.115143
59291.111399,74.020594,-15840.407159,1455.581446
59291.111709,-2738.761985,-16432.571912,919.314598
59291.112018,-3997.112087,-13027.624579,76.609550
59291.112328,-2442.679609,-6513.812290,919.314598
59291.112638,1110.308913,-1776.494261,1149.143247
59291.112947,2368.659014,-666.185348,2451.505594
59291.113257,5847.626942,-7105.977043,4826.401637
59291.113567,1702.473667,-10881.027347,842.705048
59291.113876,-74.020594,-17172.777854,-76.609550
59291.114186,-4441.235652,-15544.324782,0.000000
59291.114496,-3404.947333,-10658.965565,-689.485948
59291.114805,-370.102971,-4737.318029,-153.219100
59291.115115,2146.597232,-2220.617826,766.095498
59291.115425,3849.070898,-5181.441594,2068.457845
59291.115734,2294.638420,-11843.295072,1762.019645
59291.116044,-2886.803174,-15544.324782,-766.095498
59291.116353,-5921.647536,-15766.386565,0.000000
59291.116663,-3627.009116,-14211.954086,-76.609550
59291.116973,-1998.556043,-7105.977043,2374.896044
59291.117282,444.123565,-2220.617826,2145.067394
59291.117592,4071.132681,-1036.288319,2911.162892
59291.117902,4367.215058,-4737.318029,3294.210641
59291.118211,1998.556043,-10955.047942,2374.896044
59291.118521,-1258.350101,-15174.221811,1532.190996
59291.118830,-2738.761985,-15988.448347,-76.609550
59291.119140,-4737.318029,-9178.553681,-2451.505594
59291.119450,-74.020594,-7994.224174,2374.896044
59291.119759,1998.556043,-2072.576638,-1302.362347
59291.120069,4663.297435,-8290.306550,1762.019645
59291.120379,2368.659014,-11917.315666,2451.505594
59291.120688,-2368.659014,-15692.365970,0.000000
59291.120998,-3849.070898,-17098.757260,0.000000
59291.121307,-3849.070898,-13027.624579,153.219100
59291.121617,-1258.350101,-6217.729913,383.047749
59291.121927,1998.556043,-1924.535449,1762.019645
59291.122236,2960.823768,-74.020594,2451.505594
59291.122546,6439.791695,-7105.977043,4826.401637
59291.122856,1554.432478,-9918.759623,1302.362347
59291.123165,-74.020594,-17024.736666,2374.896044
59291.123475,-3849.070898,-14878.139434,0.000000
59291.123785,-3034.844362,-10658.965565,-459.657299
59291.124094,-740.205942,-3849.070898,-1072.533697
59291.124404,1924.535449,-3478.967927,383.047749
59291.124713,3404.947333,-5699.585753,1838.629195
59291.125023,2294.638420,-13027.624579,1149.143247
59291.125333,-3997.112087,-15470.304188,0.000000
59291.125642,-3627.009116,-18949.272115,2374.896044
59291.125952,-4811.338623,-11547.212695,-1302.362347
59291.126262,-1776.494261,-6735.874072,2604.724693
59291.126571,592.164754,-74.020594,2451.505594
59291.126881,4663.297435,-1036.288319,4136.915689
59291.127190,4219.173869,-5033.400406,3907.087040
59291.127500,1332.370696,-11399.171507,2068.457845
59291.127810,-2146.597232,-14952.160028,0.000000
59291.128119,-3627.009116,-15988.448347,-383.047749
59291.128429,-4811.338623,-9400.615463,-2681.334243
59291.128739,-2368.659014,-3627.009116,0.000000
59291.129048,4663.297435,-4737.318029,1762.019645
59291.129358,2368.659014,-6883.915261,2451.505594
59291.129667,444.123565,-11621.233289,0.000000
59291.129977,-1110.308913,-16506.592507,1072.533697
59291.130287,-2590.720797,-16580.613101,536.266849
59291.130596,-3478.967927,-11547.212695,536.266849
59291.130906,-740.205942,-4811.338623,0.000000
59291.131216,2368.659014,-2294.638420,3064.381992
59291.131525,4663.297435,-2072.576638,2987.772442
59291.131835,0.000000,-3627.009116,1225.752797
59291.132144,2294.638420,-13545.768739,3217.601092
59291.132454,-4737.318029,-14285.974681,0.000000
59291.132764,-4515.256246,-14285.974681,-1455.581446
59291.133073,-2960.823768,-9548.656652,-459.657299
59291.133383,-814.226536,-3627.009116,-766.095498
59291.133693,1850.514855,-3256.906145,306.438199
59291.134002,2960.823768,-5403.503377,306.438199
59291.134312,592.164754,-12509.480420,1225.752797
59291.134622,-1258.350101,-17764.942608,2374.896044
59291.134931,-5107.421000,-15988.448347,-1915.238745
59291.135241,-7105.977043,-9548.656652,0.000000
59291.135550,-3552.988522,-2442.679609,0.000000
59291.135860,1702.473667,-592.164754,2068.457845
59291.136170,3701.029710,-962.267725,3140.991542
59291.136479,4145.153275,-5625.565159,2911.162892
59291.136789,1776.494261,-12435.459826,2221.676944
59291.137099,-2664.741391,-14952.160028,-76.609550
59291.137408,-6513.812290,-13101.645173,-2374.896044
59291.137718,-3404.947333,-10362.883188,-612.876398
59291.138027,-74.020594,-4737.318029,-689.485948
59291.138337,592.164754,-2442.679609,0.000000
59291.138647,2220.617826,-5773.606348,0.000000
59291.138956,2294.638420,-13619.789333,1149.143247
59291.139266,-1184.329507,-16506.592507,612.876398
59291.139576,-3256.906145,-16358.551318,229.828649
59291.139885,-3330.926739,-11029.068536,229.828649
59291.140195,-1258.350101,-4737.318029,2068.457845
59291.140504,888.247130,-74.020594,1225.752797
59291.140814,4737.318029,-1850.514855,3983.696590
59291.141124,6439.791695,-7105.977043,2374.896044
59291.141433,0.000000,-11325.150913,0.000000
59291.141743,-1554.432478,-15544.324782,-995.924147
59291.142053,-3849.070898,-15174.221811,-766.095498
59291.142362,-2590.720797,-9252.574275,-995.924147
59291.142672,0.000000,-3849.070898,-383.047749
59291.142981,2368.659014,-3552.988522,306.438199
59291.143291,4071.132681,-8290.306550,2374.896044
59291.143601,0.000000,-12435.459826,0.000000
59291.143910,-3256.906145,-15766.386565,0.000000
59291.144220,-2442.679609,-18653.189738,2221.676944
59291.144530,-4219.173869,-10362.883188,-689.485948
59291.144839,-74.020594,-4737.318029,1149.143247
59291.145149,1480.411884,-296.082377,2451.505594
59291.145458,4589.276840,-1036.288319,3907.087040
59291.145768,3775.050304,-6809.894666,3447.429741
59291.146078,518.144159,-12213.398043,1685.410096
59291.146387,-1554.432478,-16580.613101,1991.848295
59291.146697,-3997.112087,-14211.954086,-766.095498
59291.147007,-2442.679609,-8882.471304,-1302.362347
59291.147316,0.000000,-2442.679609,0.000000
59291.147626,4071.132681,-5329.482782,-76.609550
59291.147936,4663.297435,-9474.636058,1762.019645
59291.148245,0.000000,-13397.727550,306.438199
59291.148555,-2146.597232,-17320.819043,383.047749
59291.148864,-4071.132681,-15766.386565,-536.266849
59291.149174,-4145.153275,-10214.842000,229.828649
59291.149484,-1480.411884,-3182.885551,1838.629195
59291.149793,2072.576638,-370.102971,2528.115143
59291.150103,3552.988522,-74.020594,0.000000
59291.150413,6439.791695,-9326.594869,6052.154434
59291.150722,1702.473667,-13027.624579,1762.019645
59291.151032,-1480.411884,-16876.695478,1455.581446
59291.151341,-4663.297435,-13989.892304,-1685.410096
59291.151651,-3256.906145,-8364.327145,-1532.190996
59291.151961,0.000000,-3849.070898,-689.485948
59291.152270,2294.638420,-4071.132681,229.828649
59291.152580,1184.329507,-6587.832884,612.876398
59291.152890,0.000000,-14359.995275,766.095498
59291.153199,-2146.597232,-18357.107362,-76.609550
59291.153509,-7105.977043,-14285.974681,0.000000
59291.153818,-4145.153275,-10140.821405,612.876398
59291.154128,-592.164754,-4293.194464,3830.477490
59291.154438,2886.803174,74.020594,2987.772442
59291.154747,4811.338623,-444.123565,4136.915689
59291.155057,3627.009116,-6883.915261,3830.477490
59291.155367,962.267725,-13249.686362,1991.848295
59291.155676,-4441.235652,-14878.139434,0.000000
59291.155986,-4737.318029,-14285.974681,-612.876398
59291.156295,-2442.679609,-10658.965565,-76.609550
59291.156605,-3552.988522,-2442.679609,-2451.505594
59291.156915,3182.885551,-5921.647536,1149.143247
59291.157224,592.164754,-6587.832884,459.657299
59291.157534,518.144159,-14063.912898,1149.143247
59291.157844,-1998.556043,-16654.633695,76.609550
59291.158153,-3256.906145,-15618.345376,306.438199
59291.158463,-3108.864956,-9696.697840,229.828649
59291.158773,-1332.370696,-2146.597232,-1225.752797
59291.159082,1480.411884,-74.020594,1991.848295
59291.159392,6809.894666,-3923.091493,6205.373534
59291.159701,4367.215058,-7105.977043,2374.896044
59291.160011,0.000000,-12509.480420,1225.752797
59291.160321,-3552.988522,-15470.304188,0.000000
59291.160630,-3330.926739,-14804.118840,-383.047749
59291.160940,-1998.556043,-8216.285956,-689.485948
59291.161250,592.164754,-3256.906145,76.609550
59291.161559,2590.720797,-3404.947333,766.095498
59291.161869,2294.638420,-7105.977043,-76.609550
59291.162178,-2072.576638,-13397.727550,0.000000
59291.162488,-2220.617826,-19467.416275,2374.896044
59291.162798,-4811.338623,-15692.365970,-1915.238745
59291.163107,-6365.771101,-8068.244768,0.000000
59291.163417,-1776.494261,-2146.597232,0.000000
59291.163727,3256.906145,0.000000,3294.210641
59291.164036,4663.297435,-1258.350101,3677.258390
59291.164346,3552.988522,-7402.059420,3524.039291
59291.164655,518.144159,-12805.562797,1915.238745
59291.164965,-1258.350101,-16580.613101,-76.609550
59291.165275,-4515.256246,-12509.480420,-1302.362347
59291.165584,-5625.565159,-5995.668130,-2451.505594
59291.165894,1628.453072,-5255.462188,1072.533697
59291.166204,1998.556043,-3849.070898,-459.657299
59291.166513,814.226536,-6957.935855,0.000000
59291.166823,-1480.411884,-14582.057057,153.219100
59291.167132,-2886.803174,-16802.674883,-689.485948
59291.167442,-4441.235652,-15618.345376,-153.219100
59291.167752,-3923.091493,-9104.533087,536.266849
59291.168061,-74.020594,-4737.318029,2374.896044
59291.168371,3478.967927,0.000000,2374.896044
59291.168681,4737.318029,-1850.514855,5515.887586
59291.168990,4663.297435,-8290.306550,3600.648841
59291.169300,0.000000,-12213.398043,919.314598
59291.169610,-1258.350101,-16580.613101,0.000000
59291.169919,-2960.823768,-13101.645173,0.000000
59291.170229,-1998.556043,-7254.018232,-383.047749
59291.170538,518.144159,-3182.885551,-306.438199
59291.170848,2812.782580,-3627.009116,2068.457845
59291.171158,3404.947333,-10955.047942,2528.115143
59291.171467,-74.020594,-15396.283594,-76.609550
59291.171777,-7105.977043,-15470.304188,-3677.258390
59291.172087,-3627.009116,-16580.613101,-76.609550
59291.172396,-4515.256246,-6883.915261,-689.485948
59291.172706,1406.391290,-2812.782580,1762.019645
59291.173015,3034.844362,518.144159,3524.039291
59291.173325,5403.503377,-1850.514855,4290.134789
59291.173635,3997.112087,-8364.327145,4136.915689
59291.173944,-222.061783,-13693.809927,2451.505594
59291.174254,-4145.153275,-15470.304188,612.876398
59291.174564,-4811.338623,-14656.077652,-76.609550
59291.174873,-1258.350101,-8290.306550,-2528.115143
59291.175183,-2368.659014,-2442.679609,-2451.505594
59291.175492,2072.576638,-4737.318029,612.876398
59291.175802,3182.885551,-9474.636058,-76.609550
59291.176112,0.000000,-13915.871710,0.000000
59291.176421,-1924.535449,-17987.004391,612.876398
59291.176731,-3627.009116,-15766.386565,306.438199
59291.177041,-3034.844362,-8512.368333,0.000000
59291.177350,0.000000,-1850.514855,2451.505594
59291.177660,4145.153275,0.000000,3677.258390
59291.177969,7031.956449,-1776.494261,2987.772442
59291.178279,2368.659014,-7476.080014,3064.381992
59291.178589,2294.638420,-14804.118840,2987.772442
59291.178898,-2368.659014,-17172.777854,1762.019645
59291.179208,-3701.029710,-14211.954086,-842.705048
59291.179518,-2146.597232,-6513.812290,-1915.238745
59291.179827,518.144159,-4071.132681,-459.657299
59291.180137,2294.638420,-3923.091493,0.000000
59291.180447,0.000000,-6587.832884,0.000000
59291.180756,-1184.329507,-15174.221811,1225.752797
59291.181066,-1258.350101,-20133.601622,-76.609550
59291.181375,-7698.141797,-14285.974681,0.000000
59291.181685,-2442.679609,-9252.574275,1532.190996
59291.181995,-888.247130,-2738.761985,3677.258390
59291.182304,3478.967927,1184.329507,3294.210641
59291.182614,4441.235652,-1406.391290,3907.087040
59291.182924,2812.782580,-8364.327145,3524.039291
59291.183233,-1258.350101,-11917.315666,0.000000
59291.183543,-4811.338623,-14285.974681,-3217.601092
59291.183852,-5921.647536,-13101.645173,-3677.258390
59291.184162,-2368.659014,-9548.656652,919.314598
59291.184472,-74.020594,-4145.153275,-1455.581446
59291.184781,1480.411884,-5403.503377,1149.143247
59291.185091,296.082377,-9548.656652,1225.752797
59291.185401,-518.144159,-15396.283594,383.047749
59291.185710,-3034.844362,-16580.613101,-459.657299
59291.186020,-3997.112087,-15618.345376,689.485948
59291.186329,-2442.679609,-7105.977043,1149.143247
59291.186639,1702.473667,-1776.494261,-76.609550
59291.186949,2368.659014,1110.308913,0.000000
59291.187258,8216.285956,-4737.318029,6588.421283
59291.187568,3182.885551,-8586.388927,2681.334243
59291.187878,0.000000,-14285.974681,2757.943793
59291.188187,-2960.823768,-15470.304188,0.000000
59291.188497,-3256.906145,-12361.439231,-1072.533697
59291.188806,-2294.638420,-7402.059420,-1072.533697
59291.189116,1258.350101,-2442.679609,-766.095498
59291.189426,2590.720797,-4737.318029,-76.609550
59291.189735,2886.803174,-9474.636058,-76.609550
59291.190045,-1850.514855,-13619.789333,-2221.676944
59291.190355,-5921.647536,-15470.304188,0.000000
59291.190664,-2738.761985,-16284.530724,1149.143247
59291.190974,-2886.803174,-6143.709319,0.000000
59291.191283,0.000000,-1258.350101,1149.143247
59291.191593,3849.070898,-222.061783,4136.915689
59291.191903,5255.462188,-4145.153275,3753.867940
59291.192212,2368.659014,-10732.986159,3217.601092
59291.192522,-666.185348,-16580.613101,2374.896044
59291.192832,-3330.926739,-18357.107362,-76.609550
59291.193141,-4811.338623,-15396.283594,-76.609550
59291.193451,-4367.215058,-5477.523971,-3447.429741
59291.193761,0.000000,-4219.173869,0.000000
59291.194070,2886.803174,-5329.482782,0.000000
59291.194380,518.144159,-7994.224174,0.000000
59291.194689,0.000000,-14063.912898,766.095498
59291.194999,-1480.411884,-16876.695478,383.047749
59291.195309,-3034.844362,-14582.057057,1149.143247
59291.195618,-1258.350101,-9474.636058,2374.896044
59291.195928,2886.803174,-3552.988522,3600.648841
59291.196238,4663.297435,0.000000,3600.648841
59291.196547,2368.659014,-2442.679609,2451.505594
59291.196857,4663.297435,-11251.130318,4213.525239
59291.197166,-1776.494261,-13693.809927,0.000000
59291.197476,-4071.132681,-15470.304188,0.000000
59291.197786,-3404.947333,-12213.398043,-1608.800546
59291.198095,-1924.535449,-7994.224174,-919.314598
59291.198405,592.164754,-5181.441594,-306.438199
59291.198715,2146.597232,-7698.141797,1762.019645
59291.199024,2886.803174,-14211.954086,2374.896044
59291.199334,-1850.514855,-14285.974681,-2221.676944
59291.199643,-4737.318029,-16654.633695,612.876398
59291.199953,-3034.844362,-12731.542202,-76.609550
59291.200263,-3552.988522,-4219.173869,0.000000
59291.200572,1110.308913,-2368.659014,2374.896044
59291.200882,3552.988522,-1036.288319,3753.867940
59291.201192,3849.070898,-4737.318029,4213.525239
59291.201501,1258.350101,-10955.047942,2987.772442
59291.201811,-666.185348,-16580.613101,2068.457845
59291.202120,-2442.679609,-17764.942608,-76.609550
59291.202430,-4811.338623,-11843.295072,-1915.238745
59291.202740,-4737.318029,-3627.009116,-3677.258390
59291.203049,1480.411884,-4515.256246,689.485948
59291.203359,2886.803174,-6069.688724,0.000000
59291.203669,1332.370696,-10066.800811,612.876398
59291.203978,-592.164754,-17246.798449,1532.190996
59291.204288,-3330.926739,-17987.004391,459.657299
59291.204598,-3627.009116,-13989.892304,612.876398
59291.204907,-1258.350101,-8290.306550,2987.772442
59291.205217,3478.967927,-4145.153275,4826.401637
59291.205526,5847.626942,0.000000,4826.401637
59291.205836,2368.659014,-2442.679609,2451.505594
59291.206146,3627.009116,-12879.583391,4596.572988
59291.206455,-74.020594,-15692.365970,0.000000
59291.206765,-2738.761985,-16876.695478,-76.609550
59291.207075,-4441.235652,-10732.986159,-1225.752797
59291.207384,-1554.432478,-5847.626942,-766.095498
59291.207694,1258.350101,-3330.926739,-536.266849
59291.208003,2960.823768,-5699.585753,1532.190996
59291.208313,1184.329507,-13693.809927,2604.724693
59291.208623,-1258.350101,-18949.272115,-76.609550
59291.208932,-6513.812290,-16062.468941,-2451.505594
59291.209242,-4145.153275,-14952.160028,1532.190996
59291.209552,-2146.597232,-4811.338623,-689.485948
59291.209861,2294.638420,-3552.988522,3600.648841
59291.210171,4071.132681,222.061783,4443.353888
59291.210480,4071.132681,-5033.400406,3907.087040
59291.210790,2220.617826,-10658.965565,2834.553343
59291.211100,-2368.659014,-13397.727550,612.876398
59291.211409,-5921.647536,-14878.139434,0.000000
59291.211719,-4145.153275,-11769.274478,306.438199
59291.212029,-370.102971,-7105.977043,-1302.362347
59291.212338,0.000000,-1258.350101,-2451.505594
59291.212648,1628.453072,-7994.224174,995.924147
59291.212957,2294.638420,-13619.789333,1762.019645
59291.213267,-1480.411884,-15914.427753,76.609550
59291.213577,-3182.885551,-15766.386565,153.219100
59291.213886,-2960.823768,-10807.006753,0.000000
59291.214196,-2368.659014,-2590.720797,0.000000
59291.214506,0.000000,-74.020594,2451.505594
59291.214815,5033.400406,-666.185348,5515.887586
59291.215125,5847.626942,-5921.647536,3600.648841
59291.215435,1184.329507,-10140.821405,1838.629195
59291.215744,814.226536,-16580.613101,2987.772442
59291.216054,-2664.741391,-16136.489536,1225.752797
59291.216364,-3034.844362,-10362.883188,-1915.238745
59291.216673,-1628.453072,-5477.523971,-1608.800546
59291.216983,1628.453072,-2294.638420,-2451.505594
59291.217293,666.185348,-3923.091493,-2068.457845
59291.217603,-2368.659014,-9548.656652,-2451.505594
59291.217912,-4737.318029,-14285.974681,-2451.505594
59291.218222,-2960.823768,-18579.169144,1838.629195
59291.218532,-2442.679609,-12879.583391,2374.896044
59291.218842,-2442.679609,-2960.823768,1149.143247
59291.219151,3478.967927,0.000000,4213.525239
59291.219461,5107.421000,3108.864956,3294.210641
59291.219771,4145.153275,-4367.215058,4290.134789
59291.220081,1924.535449,-11029.068536,3140.991542
59291.220390,-4737.318029,-14285.974681,0.000000
59291.220700,-7105.977043,-13101.645173,-2451.505594
59291.221010,-7698.141797,-8364.327145,-4290.134789
59291.221320,-1258.350101,-7994.224174,-76.609550
59291.221629,814.226536,-2664.741391,-1302.362347
59291.221939,740.205942,-8882.471304,1378.971896
59291.222249,2220.617826,-12509.480420,1991.848295
59291.222559,-666.185348,-16358.551318,1149.143247
59291.222868,-2146.597232,-14582.057057,919.314598
59291.223178,-2590.720797,-9770.718434,612.876398
59291.223488,-1850.514855,-1850.514855,842.705048
59291.223798,592.164754,3182.885551,689.485948
59291.224107,2368.659014,-74.020594,2451.505594
59291.224417,6735.874072,-7994.224174,4826.401637
59291.224727,1110.308913,-12731.542202,1149.143247
59291.225037,-1554.432478,-18061.024985,1685.410096
59291.225346,-4737.318029,-16654.633695,0.000000
59291.225656,-3923.091493,-10658.965565,-2298.286494
59291.225966,-1554.432478,-6587.832884,-1455.581446
59291.226276,1480.411884,-4663.297435,0.000000
59291.226585,3478.967927,-6809.894666,-689.485948
59291.226895,-74.020594,-12139.377449,-76.609550
59291.227205,-1258.350101,-16284.530724,-689.485948
59291.227515,-4737.318029,-15174.221811,0.000000
59291.227824,-2442.679609,-11843.295072,2374.896044
59291.228134,-592.164754,-3923.091493,2451.505594
59291.228444,1776.494261,1702.473667,2757.943793
59291.228754,5551.544565,222.061783,4749.792088
59291.229063,4293.194464,-6143.709319,3830.477490
59291.229373,0.000000,-12583.501014,995.924147
59291.229683,-2442.679609,-18357.107362,-76.609550
59291.229993,-4811.338623,-16580.613101,-76.609550
59291.230302,-5551.544565,-8660.409521,-3907.087040
59291.230612,-3552.988522,-5403.503377,0.000000
59291.230922,2294.638420,-3552.988522,-76.609550
59291.231232,1184.329507,-3627.009116,0.000000
59291.231541,0.000000,-10436.903782,0.000000
59291.231851,-1184.329507,-16506.592507,1072.533697
59291.232161,-2738.761985,-15988.448347,995.924147
59291.232471,-3923.091493,-11917.315666,1149.143247
59291.232780,-74.020594,-6513.812290,3600.648841
59291.233090,4663.297435,-2368.659014,4136.915689
59291.233400,5847.626942,592.164754,2068.457845
59291.233710,2960.823768,-5995.668130,3064.381992
59291.234019,2294.638420,-13915.871710,3447.429741
59291.234329,-4145.153275,-14878.139434,0.000000
59291.234639,-3627.009116,-15100.201217,-842.705048
59291.234949,-3404.947333,-9548.656652,-1532.190996
59291.235258,-814.226536,-4811.338623,-689.485948
59291.235568,1110.308913,-3404.947333,-536.266849
59291.235878,2812.782580,-8364.327145,1378.971896
59291.236188,1924.535449,-15396.283594,3064.381992
59291.236497,-1258.350101,-17172.777854,-76.609550
59291.236807,-6513.812290,-14878.139434,0.000000
59291.237117,-2590.720797,-11843.295072,3600.648841
59291.237427,-1406.391290,-962.267725,229.828649
59291.237736,2886.803174,0.000000,3907.087040
59291.238046,4293.194464,1332.370696,4060.306139
59291.238356,4145.153275,-5995.668130,3753.867940
59291.238665,222.061783,-12361.439231,1455.581446
59291.238975,-4145.153275,-14285.974681,0.000000
59291.239285,-5921.647536,-14285.974681,-3677.258390
59291.239595,-4737.318029,-9548.656652,-1225.752797
59291.239904,-74.020594,-5921.647536,-995.924147
59291.240214,0.000000,-1258.350101,-3677.258390
59291.240524,3330.926739,-8586.388927,1149.143247
59291.240834,2886.803174,-14211.954086,1762.019645
59291.241143,-1554.432478,-16802.674883,842.705048
59291.241453,-2886.803174,-15396.283594,0.000000
59291.241763,-2442.679609,-9178.553681,76.609550
59291.242073,0.000000,-666.185348,0.000000
59291.242382,1184.329507,-74.020594,1225.752797
59291.242692,3552.988522,-1258.350101,3677.258390
59291.243002,4663.297435,-7994.224174,2374.896044
59291.243312,296.082377,-13101.645173,2451.505594
59291.243621,-74.020594,-17764.942608,-76.609550
59291.243931,-2516.700203,-14730.098246,-76.609550
59291.244241,-2442.679609,-7772.162391,-1532.190996
59291.244551,370.102971,-5107.421000,-689.485948
59291.244860,2220.617826,-4441.235652,229.828649
59291.245170,518.144159,-6291.750507,-1302.362347
59291.245480,-2368.659014,-13471.748144,-689.485948
59291.245790,-4145.153275,-14878.139434,-1838.629195
59291.246099,-2664.741391,-17246.798449,1991.848295
59291.246409,-2442.679609,-8364.327145,-2298.286494
59291.246719,1702.473667,-5773.606348,4519.963438
59291.247029,2960.823768,-1258.350101,4290.134789
59291.247338,4367.215058,-2738.761985,3830.477490
59291.247648,2664.741391,-9252.574275,3677.258390
59291.247958,-962.267725,-14359.995275,1149.143247
59291.248268,-3627.009116,-15988.448347,-995.924147
59291.248577,-6587.832884,-15396.283594,-689.485948
59291.248887,-5403.503377,-5995.668130,-3447.429741
59291.249197,-2368.659014,-2442.679609,-1225.752797
59291.249507,3478.967927,-4737.318029,2374.896044
59291.249816,2516.700203,-7550.100608,2757.943793
59291.250126,0.000000,-13101.645173,612.876398
59291.250436,-2294.638420,-18357.107362,689.485948
59291.250746,-4219.173869,-17246.798449,689.485948
59291.251055,-3923.091493,-10658.965565,306.438199
59291.251365,-74.020594,-4737.318029,2374.896044
59291.251675,4663.297435,0.000000,4519.963438
59291.251985,4663.297435,592.164754,2068.457845
59291.252294,4145.153275,-7920.203579,4290.134789
59291.252604,4071.132681,-15396.283594,4826.401637
59291.252914,-2812.782580,-16062.468941,1225.752797
59291.253224,-4737.318029,-12657.521608,-1378.971896
59291.253533,-2590.720797,-8512.368333,-995.924147
59291.253843,148.041188,-3108.864956,-689.485948
59291.254153,1480.411884,-3256.906145,0.000000
59291.254463,4071.132681,-8290.306550,1149.143247
59291.254772,-74.020594,-15988.448347,2834.553343
59291.255082,-2738.761985,-16876.695478,-995.924147
59291.255392,-5625.565159,-14582.057057,0.000000
59291.255702,-1258.350101,-11843.295072,-76.609550
59291.256011,-2368.659014,-1258.350101,1225.752797
59291.256321,3108.864956,1110.308913,2681.334243
59291.256631,4737.318029,-2072.576638,3677.258390
59291.256941,2738.761985,-9252.574275,3140.991542
59291.257250,-962.267725,-13545.768739,536.266849
59291.257560,-2812.782580,-17838.963202,0.000000
59291.257870,-4737.318029,-14285.974681,0.000000
59291.258180,-1850.514855,-9474.636058,-689.485948
59291.258489,-814.226536,-2516.700203,-1378.971896
59291.258799,2368.659014,-1850.514855,1225.752797
59291.259109,666.185348,-4811.338623,0.000000
59291.259419,1110.308913,-11843.295072,536.266849
59291.259728,-1850.514855,-16062.468941,766.095498
59291.260038,-3330.926739,-15396.283594,689.485948
59291.260348,-2442.679609,-9622.677246,689.485948
59291.260658,0.000000,-5107.421000,2451.505594
59291.260967,592.164754,-74.020594,2451.505594
59291.261277,7031.956449,-4737.318029,4826.401637
59291.261587,2886.803174,-8586.388927,2221.676944
59291.261897,2072.576638,-14878.139434,4290.134789
59291.262206,-2442.679609,-15100.201217,-1455.581446
59291.262516,-2442.679609,-13619.789333,-766.095498
59291.262826,-2368.659014,-7254.018232,-1608.800546
59291.263136,592.164754,-2590.720797,-995.924147
59291.263445,2442.679609,-3256.906145,-229.828649
59291.263755,592.164754,-5995.668130,0.000000
59291.264065,-2220.617826,-13101.645173,0.000000
59291.264375,-2960.823768,-17246.798449,766.095498
59291.264684,-2442.679609,-17468.860231,1149.143247
59291.264994,-4737.318029,-7179.997637,0.000000
59291.265304,2294.638420,-3552.988522,2374.896044
59291.265614,3775.050304,148.041188,3753.867940
59291.265923,4515.256246,0.000000,3140.991542
59291.266233,2368.659014,-8290.306550,2528.115143
59291.266543,-962.267725,-13175.665768,536.266849
59291.266853,-6809.894666,-14285.974681,-2604.724693
59291.267162,-6587.832884,-11103.089130,-2987.772442
59291.267472,-4737.318029,-5403.503377,-2298.286494
59291.267782,1332.370696,-4589.276840,1762.019645
59291.268092,2294.638420,-2368.659014,-689.485948
59291.268401,3478.967927,-9474.636058,2374.896044
59291.268711,-444.123565,-15988.448347,919.314598
59291.269021,-3034.844362,-18949.272115,383.047749
59291.269331,-4811.338623,-16062.468941,229.828649
59291.269640,-3701.029710,-8586.388927,536.266849
59291.269950,-74.020594,-3552.988522,2374.896044
59291.270260,4663.297435,0.000000,2987.772442
59291.270570,3552.988522,-3034.844362,3064.381992
59291.270879,4663.297435,-11251.130318,4826.401637
59291.271189,-74.020594,-13619.789333,229.828649
59291.271499,-1924.535449,-17764.942608,2681.334243
59291.271809,-4737.318029,-12805.562797,0.000000
59291.272118,-2220.617826,-6735.874072,-1302.362347
59291.272428,666.185348,-3256.906145,-306.438199
59291.272738,2590.720797,-5625.565159,842.705048
59291.273048,3478.967927,-11843.295072,1762.019645
59291.273357,-74.020594,-17764.942608,-76.609550
59291.273667,-4737.318029,-16654.633695,-1532.190996
59291.273977,-4737.318029,-15174.221811,2298.286494
59291.274287,-2442.679609,-5921.647536,-689.485948
59291.274596,1184.329507,-4219.173869,4903.011187
59291.274906,2960.823768,-74.020594,3064.381992
59291.275216,4663.297435,-4515.256246,3983.696590
59291.275526,1480.411884,-11029.068536,2757.943793
59291.275835,-2442.679609,-15100.201217,306.438199
59291.276145,-3627.009116,-18949.272115,-153.219100
59291.276455,-3034.844362,-13619.789333,-76.609550
59291.276765,-1850.514855,-5921.647536,-1915.238745
59291.277074,0.000000,-1258.350101,0.000000
59291.277384,6735.874072,-7105.977043,3600.648841
59291.277694,2368.659014,-9548.656652,2451.505594
59291.278004,0.000000,-15618.345376,919.314598
59291.278313,-2516.700203,-19097.313304,1225.752797
59291.278623,-3997.112087,-15618.345376,612.876398
59291.278933,-2960.823768,-7698.141797,612.876398
59291.279242,1110.308913,-4145.153275,3064.381992
59291.279552,5477.523971,-1184.329507,4136.915689
59291.279862,4663.297435,-3256.906145,2374.896044
59291.280172,1776.494261,-8956.491898,2451.505594
59291.280481,2294.638420,-15988.448347,-76.609550
59291.280791,-4737.318029,-14285.974681,0.000000
59291.281101,-3478.967927,-10658.965565,-1302.362347
59291.281411,-1406.391290,-4811.338623,-1072.533697
59291.281720,1850.514855,-3627.009116,0.000000
59291.282030,3849.070898,-4959.379811,842.705048
59291.282340,2368.659014,-11917.315666,1225.752797
59291.282650,0.000000,-16654.633695,1225.752797
59291.282959,-1554.432478,-20725.766376,1149.143247
59291.283269,-4811.338623,-14285.974681,-2451.505594
59291.283579,-592.164754,-9474.636058,2987.772442
59291.283889,0.000000,-74.020594,1532.190996
59291.284198,4663.297435,740.205942,2987.772442
59291.284508,4293.194464,-4515.256246,3600.648841
59291.284818,888.247130,-11399.171507,2604.724693
59291.285128,-2738.761985,-15692.365970,766.095498
59291.285437,-7105.977043,-15470.304188,0.000000
59291.285747,-7105.977043,-10732.986159,0.000000
59291.286057,-444.123565,-7105.977043,842.705048
59291.286367,1554.432478,-666.185348,-1915.238745
59291.286676,2960.823768,-4219.173869,2451.505594
59291.286986,1110.308913,-10658.965565,0.000000
59291.287296,-1184.329507,-15026.180623,306.438199
59291.287606,-4441.235652,-17616.901420,0.000000
59291.287915,-4959.379811,-13397.727550,0.000000
59291.288225,-2960.823768,-5773.606348,383.047749
59291.288535,0.000000,-1184.329507,2221.676944
59291.288845,1480.411884,-74.020594,1378.971896
59291.289154,4737.318029,-5995.668130,4903.011187
59291.289464,4071.132681,-13027.624579,4826.401637
59291.289774,-2664.741391,-12509.480420,0.000000
59291.290084,-2442.679609,-15100.201217,-1302.362347
59291.290393,-3552.988522,-10140.821405,-1685.410096
59291.290703,-814.226536,-5477.523971,-995.924147
59291.291013,1702.473667,-3404.947333,-689.485948
59291.291323,3182.885551,-6291.750507,0.000000
59291.291632,518.144159,-13027.624579,-76.609550
59291.291942,-2294.638420,-15174.221811,-1455.581446
59291.292252,-4145.153275,-18431.127956,612.876398
59291.292562,-2442.679609,-14211.954086,-76.609550
59291.292871,-2368.659014,-5403.503377,1225.752797
59291.293181,4663.297435,-4737.318029,4826.401637
59291.293491,3849.070898,-1332.370696,4136.915689
59291.293801,3404.947333,-6291.750507,3447.429741
59291.294110,-74.020594,-12213.398043,1302.362347
59291.294420,-3923.091493,-16210.510130,-1378.971896
59291.294730,-3627.009116,-17764.942608,-383.047749
59291.295040,-3627.009116,-10658.965565,-2528.115143
59291.295349,-2590.720797,-4293.194464,-1838.629195
59291.295659,2368.659014,-3627.009116,2451.505594
59291.295969,4663.297435,-6513.812290,2374.896044
59291.296279,2812.782580,-12435.459826,3600.648841
59291.296588,-1702.473667,-13693.809927,612.876398
59291.296898,-3108.864956,-15988.448347,919.314598
59291.297208,-2812.782580,-10362.883188,689.485948
59291.297518,-1184.329507,-3923.091493,919.314598
59291.297827,2886.803174,-1776.494261,3217.601092
59291.298137,6439.791695,0.000000,4213.525239
59291.298447,4663.297435,-5033.400406,2987.772442
59291.298757,0.000000,-9548.656652,0.000000
59291.299066,-74.020594,-17468.860231,2145.067394
59291.299376,-4071.132681,-16506.592507,-76.609550
59291.299686,-3849.070898,-9696.697840,-1838.629195
59291.299996,-888.247130,-4811.338623,-1378.971896
59291.300305,1924.535449,-2960.823768,0.000000
59291.300615,3849.070898,-5699.585753,1072.533697
59291.300925,1776.494261,-12805.562797,1838.629195
59291.301235,-74.020594,-17764.942608,2374.896044
59291.301544,-3034.844362,-18209.066173,-76.609550
59291.301854,-4737.318029,-11917.315666,1225.752797
59291.302164,-74.020594,-7105.977043,2374.896044
59291.302474,592.164754,-74.020594,2757.943793
59291.302783,4663.297435,0.000000,2987.772442
59291.303093,3478.967927,-5995.668130,2604.724693
59291.303403,-222.061783,-12879.583391,766.095498
59291.303713,-3701.029710,-16728.654289,0.000000
59291.304022,-6513.812290,-15470.304188,-2451.505594
59291.304332,-3552.988522,-11029.068536,-306.438199
59291.304642,-74.020594,-5921.647536,-76.609550
59291.304952,0.000000,-74.020594,0.000000
59291.305261,5847.626942,-7105.977043,3600.648841
59291.305571,592.164754,-10140.821405,1225.752797
59291.305881,-1110.308913,-16950.716072,1378.971896
59291.306191,-4737.318029,-17616.901420,612.876398
59291.306500,-5329.482782,-11843.295072,-383.047749
59291.306810,-3034.844362,-5699.585753,612.876398
59291.307120,0.000000,-444.123565,76.609550
59291.307430,2368.659014,-1258.350101,2757.943793
59291.307739,5255.462188,-7698.141797,3600.648841
59291.308049,0.000000,-10732.986159,306.438199
59291.308359,-74.020594,-17616.901420,2374.896044
59291.308669,-5625.565159,-12657.521608,0.000000
59291.308978,-2442.679609,-10066.800811,-383.047749
59291.309288,148.041188,-4145.153275,-536.266849
59291.309598,2664.741391,-4293.194464,689.485948
59291.309908,3256.906145,-6957.935855,1149.143247
59291.310217,444.123565,-12139.377449,536.266849
59291.310527,-3552.988522,-15470.304188,0.000000
59291.310837,-2442.679609,-18431.127956,2374.896044
59291.311147,-3627.009116,-9474.636058,-1302.362347
59291.311456,-1776.494261,-3034.844362,1225.752797
59291.311766,1850.514855,444.123565,612.876398
59291.312076,4293.194464,-666.185348,2911.162892
59291.312386,3478.967927,-7254.018232,2834.553343
59291.312695,148.041188,-12509.480420,1149.143247
59291.313005,-3701.029710,-16210.510130,-76.609550
59291.313315,-5551.544565,-15396.283594,-689.485948
59291.313625,-5329.482782,-7179.997637,-3064.381992
59291.313934,-1184.329507,-3034.844362,0.000000
59291.314244,5847.626942,-4737.318029,2374.896044
59291.314554,370.102971,-3182.885551,0.000000
59291.314864,1998.556043,-10807.006753,0.000000
59291.315173,-1924.535449,-15470.304188,229.828649
59291.315483,-3775.050304,-16432.571912,689.485948
59291.315793,-3923.091493,-10510.924376,0.000000
59291.316103,-1258.350101,-4515.256246,2374.896044
59291.316412,2294.638420,-2960.823768,4060.306139
59291.316722,4663.297435,0.000000,2374.896044
59291.317032,2738.761985,-3627.009116,0.000000
59291.317342,4663.297435,-13545.768739,4366.744339
59291.317651,-2738.761985,-13915.871710,-689.485948
59291.317961,-3627.009116,-13619.789333,-1302.362347
59291.318271,-3404.947333,-7772.162391,-1838.629195
59291.318581,74.020594,-4145.153275,-1149.143247
59291.318890,2738.761985,-4293.194464,766.095498
59291.319200,3330.926739,-7698.141797,1532.190996
59291.319510,3182.885551,-15988.448347,2068.457845
59291.319820,-74.020594,-18949.272115,-76.609550
59291.320130,-4737.318029,-16802.674883,0.000000
59291.320440,-2960.823768,-12509.480420,3217.601092
59291.320749,-962.267725,-2220.617826,-689.485948
59291.321059,3256.906145,888.247130,3294.210641
59291.321369,6365.771101,-1850.514855,5056.230287
59291.321679,3478.967927,-7550.100608,2834.553343
59291.321989,-1184.329507,-11991.336260,0.000000
59291.322298,-4441.235652,-17246.798449,-919.314598
59291.322608,-3627.009116,-15988.448347,-76.609550
59291.322918,-1850.514855,-9474.636058,-76.609550
59291.323228,-74.020594,-3256.906145,-76.609550
59291.323538,2368.659014,-74.020594,1225.752797
59291.323848,4663.297435,-7105.977043,2374.896044
59291.324157,1776.494261,-12139.377449,2987.772442
59291.324467,-2442.679609,-15470.304188,459.657299
59291.324777,-4663.297435,-15988.448347,0.000000
59291.325087,-4367.215058,-9918.759623,-229.828649
59291.325397,-1776.494261,-4441.235652,995.924147
59291.325707,2368.659014,-1850.514855,2451.505594
59291.326016,5847.626942,-2664.741391,3983.696590
59291.326326,4663.297435,-7994.224174,3294.210641
59291.326636,0.000000,-10140.821405,0.000000
59291.326946,-370.102971,-17764.942608,2145.067394
59291.327256,-4145.153275,-14582.057057,0.000000
59291.327565,-2442.679609,-7920.203579,-1915.238745
59291.327875,0.000000,-4737.318029,-612.876398
59291.328185,3108.864956,-4811.338623,612.876398
59291.328495,2664.741391,-8734.430116,1149.143247
59291.328805,0.000000,-15174.221811,0.000000
59291.329115,-814.226536,-19615.457463,2451.505594
59291.329424,-3627.009116,-17172.777854,536.266849
59291.329734,-4737.318029,-7772.162391,0.000000
59291.330044,2294.638420,-4737.318029,2987.772442
59291.330354,2368.659014,1702.473667,2451.505594
59291.330664,4663.297435,-1184.329507,2911.162892
59291.330973,2294.638420,-8660.409521,2221.676944
59291.331283,-1036.288319,-13471.748144,0.000000
59291.331593,-4885.359217,-17542.880825,-689.485948
59291.331903,-6957.935855,-13101.645173,-2451.505594
59291.332213,-4145.153275,-8660.409521,0.000000
59291.332523,1702.473667,-4145.153275,-76.609550
59291.332832,2368.659014,-4811.338623,2757.943793
59291.333142,4663.297435,-10658.965565,3600.648841
59291.333452,-1628.453072,-13693.809927,919.314598
59291.333762,-2516.700203,-17542.880825,1149.143247
59291.334072,-4959.379811,-15026.180623,229.828649
59291.334382,-4219.173869,-7698.141797,-76.609550
59291.334691,-740.205942,-1998.556043,842.705048
59291.335001,1924.535449,2146.597232,1149.143247
59291.335311,3552.988522,-74.020594,2451.505594
59291.335621,5551.544565,-9474.636058,4826.401637
59291.335931,-962.267725,-11029.068536,-1149.143247
59291.336240,-2960.823768,-16654.633695,612.876398
59291.336550,-4811.338623,-12583.501014,-2451.505594
59291.336860,-2368.659014,-7994.224174,-1532.190996
59291.337170,1036.288319,-3478.967927,-229.828649
59291.337480,3256.906145,-2664.741391,76.609550
59291.337790,3256.906145,-7698.141797,1225.752797
59291.338099,1110.308913,-14211.954086,1762.019645
59291.338409,-2294.638420,-16654.633695,0.000000
59291.338719,-4441.235652,-15470.304188,0.000000
59291.339029,-74.020594,-11843.295072,2374.896044
59291.339339,-1628.453072,-1554.432478,0.000000
59291.339648,2886.803174,0.000000,995.924147
59291.339958,4219.173869,-518.144159,1991.848295
59291.340268,1998.556043,-8290.306550,1378.971896
59291.340578,-1776.494261,-13175.665768,-689.485948
59291.340888,-4959.379811,-15914.427753,-689.485948
59291.341198,-3627.009116,-14211.954086,-76.609550
59291.341507,-2442.679609,-6513.812290,-1608.800546
59291.341817,0.000000,-814.226536,0.000000
59291.342127,4663.297435,-4737.318029,2374.896044
59291.342437,1628.453072,-4959.379811,0.000000
59291.342747,2294.638420,-12287.418637,-76.609550
59291.343056,-2368.659014,-14804.118840,766.095498
59291.343366,-4515.256246,-14211.954086,-76.609550
59291.343676,-3478.967927,-8142.265362,-383.047749
59291.343986,-666.185348,-3256.906145,2145.067394
59291.344296,3034.844362,-3849.070898,4673.182538
59291.344606,4663.297435,-4737.318029,3600.648841
59291.344915,1184.329507,-7179.997637,0.000000
59291.345225,592.164754,-14285.974681,2451.505594
59291.345535,-1258.350101,-16284.530724,-76.609550
59291.345845,-2738.761985,-12731.542202,-689.485948
59291.346155,-2960.823768,-5699.585753,-1838.629195
59291.346465,888.247130,-4219.173869,153.219100
59291.346774,3182.885551,-3923.091493,1149.143247
59291.347084,2590.720797,-10140.821405,1225.752797
59291.347394,1332.370696,-16950.716072,2451.505594
59291.347704,-370.102971,-18949.272115,1149.143247
59291.348014,-4367.215058,-15840.407159,-383.047749
59291.348323,-3552.988522,-7179.997637,612.876398
59291.348633,1702.473667,-4737.318029,2374.896044
59291.348943,2664.741391,-1184.329507,4213.525239
59291.349253,3034.844362,-3701.029710,2068.457845
59291.349563,814.226536,-10955.047942,1532.190996
59291.349873,-2368.659014,-15544.324782,76.609550
59291.350182,-4811.338623,-16728.654289,-1838.629195
59291.350492,-4737.318029,-11917.315666,0.000000
59291.350802,-444.123565,-7105.977043,1149.143247
59291.351112,2886.803174,-3552.988522,-76.609550
59291.351422,296.082377,-74.020594,0.000000
59291.351731,2664.741391,-9548.656652,2757.943793
59291.352041,0.000000,-16580.613101,2374.896044
59291.352351,-3627.009116,-19393.395680,842.705048
59291.352661,-5699.585753,-15618.345376,0.000000
59291.352971,-4737.318029,-8142.265362,-459.657299
59291.353281,-1702.473667,-2442.679609,0.000000
59291.353590,592.164754,3478.967927,0.000000
59291.353900,4145.153275,-2442.679609,3830.477490
59291.354210,4663.297435,-11843.295072,4826.401637
59291.354520,-1776.494261,-11325.150913,0.000000
59291.354830,-3256.906145,-15470.304188,1455.581446
59291.355139,-3552.988522,-12509.480420,0.000000
59291.355449,-666.185348,-5921.647536,-459.657299
59291.355759,2220.617826,-1850.514855,0.000000
59291.356069,3256.906145,-3182.885551,536.266849
59291.356379,2368.659014,-7550.100608,-383.047749
59291.356689,-1332.370696,-13249.686362,-2451.505594
59291.356998,-4145.153275,-17246.798449,0.000000
59291.357308,-1406.391290,-17690.922014,2374.896044
59291.357618,-4515.256246,-6143.709319,-1838.629195
59291.357928,-148.041188,-4663.297435,4213.525239
59291.358238,2146.597232,2294.638420,1838.629195
59291.358548,4145.153275,-3108.864956,3217.601092
59291.358857,2294.638420,-9178.553681,1762.019645
59291.359167,-1110.308913,-13841.851115,383.047749
59291.359477,-3034.844362,-15396.283594,-76.609550
59291.359787,-2442.679609,-11251.130318,-1302.362347
59291.360097,-2220.617826,-3923.091493,0.000000
59291.360406,3478.967927,-4737.318029,4136.915689
59291.360716,3478.967927,-4145.153275,-76.609550
59291.361026,0.000000,-10732.986159,1225.752797
59291.361336,-2960.823768,-14285.974681,0.000000
59291.361646,-5107.421000,-17616.901420,-689.485948
59291.361956,-5551.544565,-13323.706956,-1149.143247
59291.362265,-3330.926739,-5995.668130,-919.314598
59291.362575,222.061783,-3552.988522,2987.772442
59291.362885,4663.297435,0.000000,4213.525239
59291.363195,4515.256246,-3701.029710,3140.991542
59291.363505,2368.659014,-9548.656652,4903.011187
59291.363814,2294.638420,-15396.283594,2374.896044
59291.364124,-3552.988522,-14285.974681,0.000000
59291.364434,-3108.864956,-11029.068536,-2221.676944
59291.364744,-1480.411884,-5847.626942,-1072.533697
59291.365054,962.267725,-4663.297435,153.219100
59291.365364,2516.700203,-5107.421000,153.219100
59291.365673,1702.473667,-12139.377449,2374.896044
59291.365983,-74.020594,-17172.777854,2374.896044
59291.366293,-3034.844362,-17468.860231,-689.485948
59291.366603,-6143.709319,-11177.109724,-2451.505594
59291.366913,-888.247130,-8216.285956,1838.629195
59291.367222,1110.308913,-3627.009116,1149.143247
59291.367532,4071.132681,-888.247130,3294.210641
59291.367842,3552.988522,-4589.276840,3217.601092
59291.368152,1480.411884,-10807.006753,2604.724693
59291.368462,-1480.411884,-14508.036463,459.657299
59291.368772,-3849.070898,-16654.633695,1225.752797
59291.369081,-1776.494261,-13027.624579,1302.362347
59291.369391,-74.020594,-6809.894666,1149.143247
59291.369701,0.000000,-74.020594,0.000000
59291.370011,3849.070898,-5921.647536,2604.724693
59291.370321,-74.020594,-12435.459826,-76.609550
59291.370631,-1258.350101,-17172.777854,-76.609550
59291.370940,-5551.544565,-17764.942608,-842.705048
59291.371250,-5477.523971,-13397.727550,-383.047749
59291.371560,-2960.823768,-4885.359217,-995.924147
59291.371870,0.000000,-74.020594,1225.752797
59291.372180,3849.070898,2294.638420,3677.258390
59291.372489,5847.626942,-4737.318029,6052.154434
59291.372799,1702.473667,-7179.997637,842.705048
59291.373109,-1776.494261,-14285.974681,1225.752797
59291.373419,-2442.679609,-16580.613101,-76.609550
59291.373729,-1258.350101,-12731.542202,-76.609550
59291.374039,-666.185348,-5625.565159,-919.314598
59291.374348,1480.411884,-2590.720797,0.000000
59291.374658,3478.967927,-3108.864956,0.000000
59291.374968,148.041188,-8364.327145,0.000000
59291.375278,-2368.659014,-12509.480420,0.000000
59291.375588,-2664.741391,-16876.695478,306.438199
59291.375897,-2442.679609,-14211.954086,-689.485948
59291.376207,-2368.659014,-6291.750507,0.000000
59291.376517,2294.638420,-7105.977043,2987.772442
59291.376827,3849.070898,-1554.432478,3677.258390
59291.377137,3849.070898,-4737.318029,2987.772442
59291.377447,1184.329507,-10066.800811,1302.362347
59291.377756,-1998.556043,-13767.830521,-459.657299
59291.378066,-4515.256246,-14285.974681,-1455.581446
59291.378376,-4737.318029,-7179.997637,-3064.381992
59291.378686,-1184.329507,-4811.338623,0.000000
59291.378996,4663.297435,-3552.988522,-76.609550
59291.379306,2368.659014,-4811.338623,1225.752797
59291.379615,3478.967927,-14211.954086,4213.525239
59291.379925,-2368.659014,-15470.304188,306.438199
59291.380235,-4515.256246,-18949.272115,-76.609550
59291.380545,-5625.565159,-13767.830521,-612.876398
59291.380855,-2664.741391,-5773.606348,-229.828649
59291.381164,1110.308913,-1480.411884,1762.019645
59291.381474,3478.967927,2960.823768,995.924147
59291.381784,3849.070898,-2738.761985,1225.752797
59291.382094,5477.523971,-11843.295072,5822.325785
59291.382404,-1258.350101,-13027.624579,229.828649
59291.382714,-2960.823768,-15174.221811,2451.505594
59291.383023,-4145.153275,-9548.656652,-1838.629195
59291.383333,-1406.391290,-5921.647536,-1225.752797
59291.383643,814.226536,-5773.606348,229.828649
59291.383953,3034.844362,-5773.606348,229.828649
59291.384263,3478.967927,-13027.624579,2374.896044
59291.384572,-74.020594,-14211.954086,-76.609550
59291.384882,-4367.215058,-14285.974681,-3677.258390
59291.385192,-3552.988522,-12509.480420,1225.752797
59291.385502,-1258.350101,-5921.647536,-76.609550
59291.385812,0.000000,-2442.679609,1532.190996
59291.386122,2072.576638,-1258.350101,2145.067394
59291.386431,2812.782580,-6365.771101,2757.943793
59291.386741,740.205942,-11547.212695,2374.896044
59291.387051,-2368.659014,-15396.283594,229.828649
59291.387361,-2590.720797,-16580.613101,2374.896044
59291.387671,-74.020594,-11547.212695,-76.609550
59291.387980,518.144159,-4145.153275,-383.047749
59291.388290,0.000000,-1850.514855,1225.752797
59291.388600,3478.967927,-6809.894666,1149.143247
59291.388910,0.000000,-9548.656652,0.000000
59291.389220,-2590.720797,-14804.118840,-842.705048
59291.389530,-5551.544565,-15840.407159,-1149.143247
59291.389839,-4885.359217,-10732.986159,-766.095498
59291.390149,-2368.659014,-4589.276840,0.000000
59291.390459,1776.494261,-2442.679609,4136.915689
59291.390769,6439.791695,0.000000,4826.401637
59291.391079,5847.626942,-6513.812290,4826.401637
59291.391389,148.041188,-8364.327145,766.095498
59291.391698,-296.082377,-15544.324782,2298.286494
59291.392008,-4219.173869,-13619.789333,-1762.019645
59291.392318,-1850.514855,-10658.965565,-1302.362347
59291.392628,-222.061783,-5551.544565,-766.095498
59291.392938,2368.659014,-2738.761985,-459.657299
59291.393247,2516.700203,-5995.668130,689.485948
59291.393557,1184.329507,-9548.656652,0.000000
59291.393867,0.000000,-15470.304188,1838.629195
59291.394177,-2072.576638,-17542.880825,2451.505594
59291.394487,-3034.844362,-10658.965565,-1302.362347
59291.394797,-1184.329507,-5403.503377,1378.971896
59291.395106,2294.638420,0.000000,1149.143247
59291.395416,5551.544565,0.000000,2987.772442
59291.395726,3478.967927,-5551.544565,2451.505594
59291.396036,1332.370696,-10955.047942,842.705048
59291.396346,-2220.617826,-15914.427753,229.828649
59291.396655,-6513.812290,-13101.645173,0.000000
59291.396965,-4145.153275,-9548.656652,0.000000
59291.397275,1184.329507,-7772.162391,3370.820191
59291.397585,3478.967927,-2368.659014,-76.609550
59291.397895,2368.659014,-5995.668130,1838.629195
59291.398205,2294.638420,-13027.624579,-76.609550
59291.398514,-2294.638420,-17172.777854,919.314598
59291.398824,-5181.441594,-17246.798449,-306.438199
59291.399134,-4737.318029,-11695.253884,-306.438199
59291.399444,-1480.411884,-5921.647536,1608.800546
59291.399754,0.000000,-74.020594,612.876398
59291.400063,1184.329507,-74.020594,2451.505594
59291.400373,4737.318029,-5403.503377,4903.011187
59291.400683,4663.297435,-14211.954086,4213.525239
59291.400993,-3404.947333,-14285.974681,0.000000
59291.401303,-2516.700203,-17616.901420,-76.609550
59291.401613,-3256.906145,-9992.780217,-612.876398
59291.401922,-74.020594,-5773.606348,-689.485948
59291.402232,1702.473667,-4885.359217,306.438199
59291.402542,1776.494261,-7772.162391,919.314598
59291.402852,-74.020594,-14063.912898,-1762.019645
59291.403162,-4589.276840,-16062.468941,-1608.800546
59291.403472,-7105.977043,-15470.304188,0.000000
59291.403781,-1258.350101,-13027.624579,1762.019645
59291.404091,-2368.659014,-1850.514855,0.000000
59291.404401,4663.297435,-1924.535449,5439.278036
59291.404711,3552.988522,2294.638420,2451.505594
59291.405021,4293.194464,-6883.915261,3600.648841
59291.405330,0.000000,-11917.315666,1455.581446
59291.405640,-3330.926739,-16136.489536,0.000000
59291.405950,-3034.844362,-15396.283594,-1302.362347
59291.406260,-2442.679609,-8586.388927,-1608.800546
59291.406570,-3552.988522,-2442.679609,0.000000
59291.406880,4663.297435,-7105.977043,2374.896044
59291.407189,1702.473667,-8290.306550,383.047749
59291.407499,-1776.494261,-13397.727550,612.876398
59291.407809,-4367.215058,-16358.551318,-1225.752797
59291.408119,-4811.338623,-16062.468941,-995.924147
59291.408429,-4145.153275,-9178.553681,-612.876398
59291.408738,-814.226536,-3627.009116,995.924147
59291.409048,4663.297435,-2368.659014,4826.401637
59291.409358,5847.626942,0.000000,4826.401637
59291.409668,4071.132681,-4737.318029,2681.334243
59291.409978,592.164754,-10732.986159,2604.724693
59291.410288,-74.020594,-15396.283594,1149.143247
59291.410597,-6809.894666,-11917.315666,0.000000
59291.410907,-3404.947333,-7846.182985,-2298.286494
59291.411217,-740.205942,-4811.338623,-1149.143247
59291.411527,2072.576638,-3034.844362,-689.485948
59291.411837,1998.556043,-6587.832884,0.000000
59291.412147,1998.556043,-13619.789333,2374.896044
59291.412456,-74.020594,-16580.613101,-76.609550
59291.412766,-1258.350101,-15988.448347,-689.485948
59291.413076,-4737.318029,-9548.656652,0.000000
59291.413386,-74.020594,-5329.482782,2374.896044
59291.413696,0.000000,-74.020594,0.000000
59291.414005,5255.462188,-1184.329507,2987.772442
59291.414315,2960.823768,-7550.100608,3217.601092
59291.414625,296.082377,-12731.542202,1532.190996
59291.414935,-3034.844362,-16284.530724,536.266849
59291.415245,-3552.988522,-15470.304188,919.314598
59291.415555,-148.041188,-9918.759623,1225.752797
59291.415864,3478.967927,-7105.977043,-76.609550
59291.416174,592.164754,-3034.844362,0.000000
59291.416484,2516.700203,-9474.636058,3600.648841
59291.416794,-1850.514855,-12435.459826,-2604.724693
59291.417104,-2442.679609,-18949.272115,-76.609550
59291.417413,-6069.688724,-15322.262999,-1991.848295
59291.417723,-4885.359217,-9844.739029,-766.095498
59291.418033,-962.267725,-3552.988522,1225.752797
59291.418342,592.164754,-74.020594,4903.011187
59291.418652,4737.318029,-74.020594,2451.505594
59291.418962,7031.956449,-8882.471304,6052.154434
59291.419272,1110.308913,-9770.718434,1762.019645
59291.419581,-2368.659014,-13693.809927,1225.752797
59291.419891,-2442.679609,-14211.954086,-76.609550
59291.420201,-3256.906145,-7476.080014,-1838.629195
59291.420510,814.226536,-6365.771101,-76.609550
59291.420820,2146.597232,-4441.235652,-689.485948
59291.421130,1702.473667,-7031.956449,-612.876398
59291.421439,0.000000,-13101.645173,1838.629195
59291.421749,-74.020594,-17172.777854,-76.609550
59291.422059,-2442.679609,-17764.942608,-76.609550
59291.422369,-4737.318029,-7476.080014,-2145.067394
59291.422678,814.226536,-7105.977043,2987.772442
59291.422988,148.041188,-74.020594,612.876398
59291.423298,4663.297435,-3552.988522,3600.648841
59291.423607,2368.659014,-8216.285956,3217.601092
59291.423917,296.082377,-12953.603985,1762.019645
59291.424227,-2294.638420,-15396.283594,536.266849
59291.424536,-3552.988522,-12509.480420,0.000000
59291.424846,-592.164754,-9400.615463,1225.752797
59291.425156,2812.782580,-8290.306550,3600.648841
59291.425466,3478.967927,-4737.318029,-76.609550
59291.425775,0.000000,-9548.656652,612.876398
59291.426085,-74.020594,-13619.789333,-689.485948
59291.426395,-3182.885551,-17764.942608,-995.924147
59291.426704,-5329.482782,-15692.365970,-1149.143247
59291.427014,-3552.988522,-9326.594869,0.000000
59291.427324,0.000000,-4885.359217,2451.505594
59291.427633,1184.329507,-74.020594,3677.258390
59291.427943,4737.318029,-2442.679609,4903.011187
59291.428253,7031.956449,-11547.212695,8197.221829
59291.428563,1702.473667,-11843.295072,1762.019645
59291.428872,-2960.823768,-16062.468941,1225.752797
59291.429182,-2442.679609,-14211.954086,-76.609550
59291.429492,-2442.679609,-9326.594869,-766.095498
59291.429801,-962.267725,-5847.626942,-689.485948
59291.430111,1184.329507,-4367.215058,-995.924147
59291.430421,1628.453072,-8216.285956,0.000000
59291.430730,-2368.659014,-11029.068536,-2145.067394
59291.431040,-4737.318029,-12509.480420,0.000000
59291.431350,-2960.823768,-15470.304188,2911.162892
59291.431660,-3404.947333,-6291.750507,0.000000
59291.431969,2590.720797,-4145.153275,3600.648841
59291.432279,4663.297435,-2368.659014,4826.401637
59291.432589,4737.318029,-1554.432478,3677.258390
59291.432898,2960.823768,-8290.306550,3064.381992
59291.433208,-222.061783,-13397.727550,1149.143247
59291.433518,-3330.926739,-15988.448347,-383.047749
59291.433827,-3923.091493,-13471.748144,-3140.991542
59291.434137,-3552.988522,-5403.503377,-2757.943793
59291.434447,-3552.988522,-2442.679609,0.000000
59291.434757,4663.297435,-4737.318029,1762.019645
59291.435066,1406.391290,-6809.894666,-383.047749
59291.435376,-888.247130,-13101.645173,1378.971896
59291.435686,-4737.318029,-14878.139434,0.000000
59291.435995,-3997.112087,-14656.077652,-76.609550
59291.436305,-3034.844362,-8660.409521,612.876398
59291.436615,222.061783,-3627.009116,2757.943793
59291.436924,4663.297435,-1776.494261,3600.648841
59291.437234,4663.297435,-1628.453072,2374.896044
59291.437544,0.000000,-7179.997637,1225.752797
59291.437854,296.082377,-14434.015869,2451.505594
59291.438163,-3775.050304,-16580.613101,-76.609550
59291.438473,-5921.647536,-12509.480420,306.438199
59291.438783,-3552.988522,-7179.997637,-2145.067394
59291.439092,296.082377,-4293.194464,-383.047749
59291.439402,3108.864956,-2368.659014,153.219100
59291.439712,2294.638420,-7846.182985,919.314598
59291.440022,2294.638420,-11843.295072,2374.896044
59291.440331,-666.185348,-16284.530724,-76.609550
59291.440641,-3627.009116,-12731.542202,-1302.362347
59291.440951,-2368.659014,-8660.409521,1532.190996
59291.441260,814.226536,-4737.318029,2221.676944
59291.441570,592.164754,-74.020594,2451.505594
59291.441880,3478.967927,-4145.153275,2374.896044
59291.442189,1628.453072,-10732.986159,2451.505594
59291.442499,-1110.308913,-14952.160028,766.095498
59291.442809,-4367.215058,-16654.633695,0.000000
59291.443119,-2220.617826,-13915.871710,1762.019645
59291.443428,-74.020594,-8290.306550,1149.143247
59291.443738,2294.638420,-4737.318029,-76.609550
59291.444048,1480.411884,-3627.009116,612.876398
59291.444357,1702.473667,-11547.212695,1762.019645
59291.444667,-3997.112087,-11917.315666,-2451.505594
59291.444977,-3627.009116,-16284.530724,-995.924147
59291.445286,-5033.400406,-13619.789333,-383.047749
59291.445596,-2442.679609,-7476.080014,306.438199
59291.445906,518.144159,-2590.720797,2374.896044
59291.446216,3552.988522,-1554.432478,5515.887586
59291.446525,6809.894666,-3182.885551,4903.011187
59291.446835,5847.626942,-10658.965565,4826.401637
59291.447145,-2220.617826,-11325.150913,0.000000
59291.447454,-2960.823768,-15618.345376,2374.896044
59291.447764,-4811.338623,-10362.883188,-2528.115143
59291.448074,-1406.391290,-6957.935855,-1302.362347
59291.448383,222.061783,-3552.988522,-689.485948
59291.448693,2516.700203,-3701.029710,-229.828649
59291.449003,1998.556043,-9474.636058,0.000000
59291.449313,-2368.659014,-13101.645173,612.876398
59291.449622,-2960.823768,-17838.963202,0.000000
59291.449932,-1258.350101,-17616.901420,2374.896044
59291.450242,-3034.844362,-6661.853478,0.000000
59291.450551,1332.370696,-4515.256246,3983.696590
59291.450861,4663.297435,-1776.494261,2374.896044
59291.451171,5255.462188,-4589.276840,3830.477490
59291.451480,1998.556043,-9844.739029,2221.676944
59291.451790,-1628.453072,-13915.871710,1072.533697
59291.452100,-3701.029710,-14878.139434,0.000000
59291.452410,-4737.318029,-9548.656652,0.000000
59291.452719,-2368.659014,-3627.009116,-2451.505594
59291.453029,1776.494261,-3923.091493,1532.190996
59291.453339,3478.967927,-5329.482782,842.705048
59291.453648,0.000000,-10288.862594,0.000000
59291.453958,-74.020594,-18357.107362,-76.609550
59291.454268,-4589.276840,-18283.086767,-229.828649
59291.454577,-5107.421000,-14359.995275,-995.924147
59291.454887,-2442.679609,-7402.059420,1072.533697
59291.455197,222.061783,-3478.967927,2681.334243
59291.455507,2590.720797,1998.556043,1915.238745
59291.455816,3330.926739,-2072.576638,2987.772442
59291.456126,592.164754,-7179.997637,2451.505594
59291.456436,-74.020594,-14656.077652,2374.896044
59291.456745,-4811.338623,-13471.748144,-1302.362347
59291.457055,-3701.029710,-11843.295072,-76.609550
59291.457365,-2960.823768,-5995.668130,-1532.190996
59291.457674,814.226536,-3923.091493,-76.609550
59291.457984,2368.659014,-4441.235652,0.000000
59291.458294,888.247130,-11695.253884,612.876398
59291.458604,-74.020594,-13027.624579,-689.485948
59291.458913,-3034.844362,-15396.283594,-1302.362347
59291.459223,-4737.318029,-10732.986159,0.000000
59291.459533,-74.020594,-5921.647536,1455.581446
59291.459842,370.102971,-1258.350101,1225.752797
59291.460152,5921.647536,-1480.411884,5898.935335
59291.460462,2664.741391,-4219.173869,2451.505594
59291.460771,888.247130,-11029.068536,1532.190996
59291.461081,-2590.720797,-15248.242405,-536.266849
59291.461391,-4663.297435,-15692.365970,-229.828649
59291.461701,-1554.432478,-11251.130318,-76.609550
59291.462010,-74.020594,-7105.977043,-76.609550
59291.462320,0.000000,-74.020594,0.000000
59291.462630,5107.421000,-4737.318029,1762.019645
59291.462939,1110.308913,-8734.430116,-689.485948
59291.463249,-2368.659014,-14285.974681,306.438199
59291.463559,-5033.400406,-17468.860231,-1455.581446
59291.463868,-4293.194464,-14211.954086,153.219100
59291.464178,-2072.576638,-7254.018232,1072.533697
59291.464488,1110.308913,-2516.700203,2528.115143
59291.464798,5847.626942,-4145.153275,6052.154434
59291.465107,7031.956449,-7698.141797,6665.030833
59291.465417,3478.967927,-11843.295072,2374.896044
59291.465727,-3552.988522,-13101.645173,0.000000
59291.466036,-2738.761985,-16580.613101,-76.609550
59291.466346,-5921.647536,-7772.162391,-2451.505594
59291.466656,-1258.350101,-5329.482782,-995.924147
59291.466965,1628.453072,-3552.988522,0.000000
59291.467275,2812.782580,-6883.915261,1378.971896
59291.467585,1628.453072,-12361.439231,1072.533697
59291.467895,592.164754,-17098.757260,1378.971896
59291.468204,-2960.823768,-16950.716072,1225.752797
59291.468514,-2442.679609,-13027.624579,-76.609550
59291.468824,-3256.906145,-5995.668130,0.000000
59291.469133,2886.803174,-4737.318029,4826.401637
59291.469443,1184.329507,-74.020594,1225.752797
59291.469753,4071.132681,-6365.771101,3294.210641
59291.470063,888.247130,-11473.192101,1532.190996
59291.470372,-2220.617826,-15100.201217,536.266849
59291.470682,-3701.029710,-14730.098246,0.000000
59291.470992,-2960.823768,-9548.656652,153.219100
59291.471301,0.000000,-3034.844362,0.000000
59291.471611,4367.215058,-6513.812290,2374.896044
59291.471921,1998.556043,-3478.967927,-383.047749
59291.472230,1184.329507,-11917.315666,2757.943793
59291.472540,-1850.514855,-14211.954086,-2068.457845
59291.472850,-3627.009116,-16580.613101,-383.047749
59291.473160,-4515.256246,-12065.356855,-842.705048
59291.473469,-1258.350101,-7031.956449,1762.019645
59291.473779,2146.597232,-2886.803174,2987.772442
59291.474089,3552.988522,-74.020594,2451.505594
59291.474398,1184.329507,-4811.338623,2451.505594
59291.474708,2664.741391,-13545.768739,4136.915689
59291.475018,-1258.350101,-15396.283594,1149.143247
59291.475327,-5921.647536,-14285.974681,0.000000
59291.475637,-2442.679609,-10658.965565,-1608.800546
59291.475947,-2294.638420,-5625.565159,-1072.533697
59291.476257,1554.432478,-3256.906145,-76.609550
59291.476566,1998.556043,-5699.585753,459.657299
59291.476876,740.205942,-10658.965565,689.485948
59291.477186,-2368.659014,-12509.480420,-1991.848295
59291.477495,-5921.647536,-12509.480420,-2451.505594
59291.477805,-4737.318029,-9548.656652,0.000000
59291.478115,-74.020594,-6513.812290,2221.676944
59291.478424,0.000000,-74.020594,0.000000
59291.478734,6439.791695,-2368.659014,4213.525239
59291.479044,2368.659014,-5551.544565,2451.505594
59291.479354,222.061783,-11621.233289,1149.143247
59291.479663,-2664.741391,-14656.077652,383.047749
59291.479973,-3701.029710,-13619.789333,-153.219100
59291.480283,-1850.514855,-8882.471304,-1302.362347
59291.480592,-74.020594,-3552.988522,-1302.362347
59291.480902,296.082377,-3034.844362,0.000000
59291.481212,4071.132681,-8734.430116,2987.772442
59291.481521,-2146.597232,-11029.068536,-1608.800546
59291.481831,-1258.350101,-18209.066173,1762.019645
59291.482141,-5329.482782,-15914.427753,-1532.190996
59291.482451,-3701.029710,-11325.150913,0.000000
59291.482760,-592.164754,-4515.256246,1685.410096
59291.483070,1554.432478,-1332.370696,2834.553343
59291.483380,5847.626942,0.000000,4826.401637
59291.483689,5847.626942,-6513.812290,3600.648841
59291.483999,0.000000,-9548.656652,306.438199
59291.484309,-2590.720797,-15174.221811,2911.162892
59291.484618,-2442.679609,-14211.954086,-1302.362347
59291.484928,-3849.070898,-9696.697840,-612.876398
59291.485238,-148.041188,-5107.421000,-306.438199
59291.485548,2368.659014,-2516.700203,612.876398
59291.485857,1924.535449,-6661.853478,612.876398
59291.486167,592.164754,-10658.965565,76.609550
59291.486477,-74.020594,-16284.530724,-76.609550
59291.486786,-1258.350101,-17764.942608,-76.609550
59291.487096,-3034.844362,-9474.636058,-1302.362347
59291.487406,-2368.659014,-6291.750507,1225.752797
59291.487715,4663.297435,-4737.318029,2374.896044
59291.488025,2368.659014,-1258.350101,4290.134789
59291.488335,3404.947333,-7105.977043,2987.772442
59291.488645,0.000000,-11695.253884,612.876398
59291.488954,-2886.803174,-15100.201217,383.047749
59291.489264,-3627.009116,-13545.768739,-459.657299
59291.489574,-1776.494261,-9252.574275,0.000000
59291.489883,2886.803174,-5773.606348,2374.896044
59291.490193,2146.597232,-2368.659014,-76.609550
59291.490503,2368.659014,-4811.338623,1225.752797
59291.490812,2294.638420,-13027.624579,-76.609550
59291.491122,-4737.318029,-14285.974681,0.000000
59291.491432,-3775.050304,-15840.407159,-459.657299
59291.491742,-3552.988522,-10955.047942,0.000000
59291.492051,-370.102971,-4885.359217,1149.143247
59291.492361,2590.720797,-3404.947333,3830.477490
59291.492671,3552.988522,-1850.514855,3983.696590
59291.492980,2368.659014,-7179.997637,3677.258390
59291.493290,1110.308913,-12731.542202,1149.143247
59291.493600,-4441.235652,-13693.809927,0.000000
59291.493909,-1258.350101,-16580.613101,-76.609550
59291.494219,-3923.091493,-6587.832884,-3677.258390
59291.494529,222.061783,-4737.318029,153.219100
59291.494839,4663.297435,-2072.576638,1149.143247
59291.495148,2516.700203,-5995.668130,1302.362347
59291.495458,222.061783,-11251.130318,842.705048
59291.495768,-3552.988522,-14285.974681,0.000000
59291.496077,-4737.318029,-14285.974681,0.000000
59291.496387,-1258.350101,-11843.295072,1149.143247
59291.496697,-1036.288319,-3034.844362,0.000000
59291.497006,4663.297435,-3552.988522,4826.401637
59291.497316,4219.173869,-666.185348,3370.820191
59291.497626,2664.741391,-8068.244768,2757.943793
59291.497936,370.102971,-12435.459826,1149.143247
59291.498245,-3034.844362,-15988.448347,76.609550
59291.498555,-3627.009116,-13545.768739,-306.438199
59291.498865,-2368.659014,-8956.491898,0.000000
59291.499174,592.164754,-4811.338623,1225.752797
59291.499484,3478.967927,-5625.565159,-76.609550
59291.499794,592.164754,-7179.997637,1225.752797
59291.500104,1702.473667,-15396.283594,2374.896044
59291.500413,-4293.194464,-14285.974681,-1225.752797
59291.500723,-4515.256246,-14878.139434,0.000000
59291.501033,-3182.885551,-9992.780217,459.657299
59291.501342,0.000000,-3627.009116,1838.629195
59291.501652,3108.864956,-666.185348,3907.087040
59291.501962,3552.988522,-1554.432478,3064.381992
59291.502271,2368.659014,-9548.656652,4903.011187
59291.502581,-74.020594,-13619.789333,1149.143247
59291.502891,-4737.318029,-14285.974681,0.000000
59291.503201,-2442.679609,-16580.613101,-76.609550
59291.503510,-4589.276840,-5995.668130,-3677.258390
59291.503820,-888.247130,-3923.091493,306.438199
59291.504130,1998.556043,-4145.153275,689.485948
59291.504439,2146.597232,-7105.977043,995.924147
59291.504749,-74.020594,-13101.645173,842.705048
59291.505059,-3256.906145,-14582.057057,0.000000
59291.505368,-4737.318029,-14285.974681,612.876398
59291.505678,-666.185348,-9474.636058,-76.609550
59291.505988,-1184.329507,-2442.679609,0.000000
59291.506298,4663.297435,-3552.988522,4826.401637
59291.506607,3478.967927,-296.082377,1225.752797
59291.506917,2294.638420,-9104.533087,3370.820191
59291.507227,-814.226536,-13027.624579,229.828649
59291.507536,-4441.235652,-15840.407159,-919.314598
59291.507846,-4367.215058,-12509.480420,-766.095498
59291.508156,-2960.823768,-5403.503377,-1685.410096
59291.508465,0.000000,-74.020594,0.000000
59291.508775,4663.297435,-4441.235652,1762.019645
59291.509085,2294.638420,-5181.441594,-1915.238745
59291.509395,592.164754,-13101.645173,919.314598
59291.509704,-1554.432478,-15396.283594,-2221.676944
59291.510014,-4145.153275,-14878.139434,0.000000
59291.510324,-2368.659014,-9178.553681,536.266849
59291.510633,74.020594,-3997.112087,1455.581446
59291.510943,3108.864956,-1258.350101,4213.525239
59291.511253,3627.009116,148.041188,2987.772442
59291.511562,1702.473667,-5995.668130,1225.752797
59291.511872,0.000000,-11917.315666,1225.752797
59291.512182,-2442.679609,-16284.530724,-76.609550
59291.512492,-7105.977043,-10732.986159,-2451.505594
59291.512801,-814.226536,-7994.224174,-2528.115143
59291.513111,222.061783,-3478.967927,0.000000
59291.513421,3701.029710,-2812.782580,1072.533697
59291.513730,2812.782580,-7846.182985,1532.190996
59291.514040,518.144159,-13841.851115,1915.238745
59291.514350,-1850.514855,-18653.189738,2068.457845
59291.514659,-3627.009116,-15100.201217,-76.609550
59291.514969,-3552.988522,-9548.656652,919.314598
59291.515279,-74.020594,-4737.318029,-76.609550
59291.515589,2368.659014,-666.185348,3064.381992
59291.515898,5255.462188,-4145.153275,4826.401637
59291.516208,1184.329507,-8216.285956,1455.581446
59291.516518,-1776.494261,-13101.645173,0.000000
59291.516828,-4589.276840,-15248.242405,-536.266849
59291.517137,-4737.318029,-11029.068536,0.000000
59291.517447,-74.020594,-7105.977043,-76.609550
59291.517757,3478.967927,-4737.318029,1149.143247
59291.518067,1776.494261,-2738.761985,0.000000
59291.518377,4219.173869,-12731.542202,4596.572988
59291.518686,-666.185348,-15396.283594,-995.924147
59291.518996,-4293.194464,-18357.107362,1762.019645
59291.519306,-5107.421000,-15100.201217,0.000000
59291.519616,-2368.659014,-8290.306550,536.266849
59291.519926,814.226536,-2516.700203,1762.019645
59291.520236,2368.659014,-444.123565,1532.190996
59291.520545,5477.523971,-3701.029710,2451.505594
59291.520855,4071.132681,-11251.130318,3600.648841
59291.521165,-2960.823768,-12509.480420,-2451.505594
59291.521475,-2664.741391,-17468.860231,1149.143247
59291.521785,-5921.647536,-10732.986159,-2451.505594
59291.522094,-1480.411884,-8882.471304,1149.143247
59291.522404,1702.473667,-2368.659014,229.828649
59291.522714,2072.576638,-2960.823768,995.924147
59291.523024,2294.638420,-7105.977043,766.095498
59291.523334,-370.102971,-12213.398043,0.000000
59291.523643,-2886.803174,-15766.386565,0.000000
59291.523953,-3034.844362,-16432.571912,1762.019645
59291.524263,-3034.844362,-7105.977043,-689.485948
59291.524573,0.000000,-4811.338623,3064.381992
59291.524883,4071.132681,-3256.906145,3600.648841
59291.525192,3552.988522,-4811.338623,3370.820191
59291.525502,1924.535449,-11177.109724,2374.896044
59291.525812,-1924.535449,-14285.974681,459.657299
59291.526122,-3849.070898,-15470.304188,0.000000
59291.526432,-3108.864956,-10140.821405,-1302.362347
59291.526742,0.000000,-3627.009116,0.000000
59291.527051,1184.329507,-2442.679609,1225.752797
59291.527361,4071.132681,-5329.482782,1608.800546
59291.527671,0.000000,-7179.997637,0.000000
59291.527981,-74.020594,-16580.613101,3294.210641
59291.528291,-4293.194464,-16654.633695,0.000000
59291.528600,-4145.153275,-14434.015869,-76.609550
59291.528910,-2146.597232,-7698.141797,153.219100
59291.529220,666.185348,-5033.400406,2451.505594
59291.529530,3478.967927,-2368.659014,4213.525239
59291.529840,2960.823768,-3034.844362,2068.457845
59291.530149,592.164754,-9548.656652,2451.505594
59291.530459,-74.020594,-14211.954086,2374.896044
59291.530769,-5921.647536,-12509.480420,0.000000
59291.531079,-1850.514855,-11843.295072,-76.609550
59291.531389,-2368.659014,-2738.761985,0.000000
59291.531699,2072.576638,-1628.453072,306.438199
59291.532008,2812.782580,-3997.112087,919.314598
59291.532318,1702.473667,-8586.388927,229.828649
59291.532628,-444.123565,-15396.283594,-76.609550
59291.532938,-4219.173869,-15100.201217,-689.485948
59291.533248,-7105.977043,-11917.315666,0.000000
59291.533557,-1480.411884,-8586.388927,2374.896044
59291.533867,-2738.761985,-1554.432478,0.000000
59291.534177,3552.988522,-1850.514855,3064.381992
59291.534487,3182.885551,-2664.741391,1302.362347
59291.534797,1480.411884,-9326.594869,2451.505594
59291.535106,-1258.350101,-13027.624579,383.047749
59291.535416,-3849.070898,-13471.748144,-536.266849
59291.535726,-1258.350101,-10658.965565,-76.609550
59291.536036,-74.020594,-6513.812290,-76.609550
59291.536346,1110.308913,-1776.494261,-995.924147
59291.536655,2368.659014,-7179.997637,1225.752797
59291.536965,2294.638420,-13027.624579,-76.609550
59291.537275,-4737.318029,-14878.139434,-3677.258390
59291.537585,-3923.091493,-18801.230927,-995.924147
59291.537895,-3849.070898,-13101.645173,-459.657299
59291.538205,-1406.391290,-7402.059420,1149.143247
59291.538514,1406.391290,-3330.926739,2987.772442
59291.538824,4737.318029,-1850.514855,4903.011187
59291.539134,5551.544565,-7994.224174,6052.154434
59291.539444,3182.885551,-10658.965565,2987.772442
59291.539754,-2960.823768,-13101.645173,0.000000
59291.540063,-2294.638420,-16506.592507,1762.019645
59291.540373,-4441.235652,-7772.162391,-3447.429741
59291.540683,-74.020594,-5921.647536,-76.609550
59291.540993,1332.370696,-5033.400406,229.828649
59291.541303,1702.473667,-6883.915261,1225.752797
59291.541612,-222.061783,-12657.521608,153.219100
59291.541922,-4145.153275,-16062.468941,0.000000
59291.542232,-3034.844362,-18135.045579,1225.752797
59291.542542,-2442.679609,-13323.706956,-76.609550
59291.542852,-2368.659014,-4219.173869,0.000000
59291.543162,4663.297435,-5921.647536,5439.278036
59291.543471,4663.297435,0.000000,3600.648841
59291.543781,5847.626942,-7550.100608,4749.792088
59291.544091,1110.308913,-11399.171507,2145.067394
59291.544401,-3034.844362,-14804.118840,0.000000
59291.544711,-5329.482782,-15470.304188,-919.314598
59291.545020,-5329.482782,-8364.327145,-3677.258390
59291.545330,-1776.494261,-4811.338623,0.000000
59291.545640,3478.967927,-4737.318029,1762.019645
59291.545950,1850.514855,-4811.338623,-2451.505594
59291.546260,2368.659014,-14285.974681,3370.820191
59291.546569,-666.185348,-18949.272115,-76.609550
59291.546879,-3552.988522,-19763.498651,1378.971896
59291.547189,-3627.009116,-13841.851115,842.705048
59291.547499,-592.164754,-5773.606348,1225.752797
59291.547809,2368.659014,-1110.308913,3064.381992
59291.548118,4367.215058,1554.432478,2528.115143
59291.548428,2368.659014,-3627.009116,1838.629195
59291.548738,2072.576638,-11769.274478,2451.505594
59291.549048,-2442.679609,-15988.448347,-1302.362347
59291.549358,-6513.812290,-15470.304188,0.000000
59291.549668,-2442.679609,-13027.624579,-76.609550
59291.549977,-2368.659014,-4811.338623,0.000000
59291.550287,2516.700203,-4737.318029,1378.971896
59291.550597,3849.070898,-5921.647536,2221.676944
59291.550907,1628.453072,-11547.212695,1838.629195
59291.551217,-74.020594,-15396.283594,-76.609550
59291.551526,-4737.318029,-14582.057057,-1225.752797
59291.551836,-5329.482782,-10732.986159,0.000000
59291.552146,-666.185348,-9474.636058,2987.772442
59291.552456,0.000000,-74.020594,0.000000
59291.552766,4737.318029,-3034.844362,5515.887586
59291.553075,1924.535449,-5107.421000,1225.752797
59291.553385,148.041188,-12879.583391,1149.143247
59291.553695,-2738.761985,-15174.221811,-383.047749
59291.554005,-4071.132681,-14211.954086,-1225.752797
59291.554315,-666.185348,-11251.130318,-76.609550
59291.554625,1110.308913,-3256.906145,-383.047749
59291.554934,1184.329507,-3034.844362,0.000000
59291.555244,5255.462188,-7105.977043,2374.896044
59291.555554,0.000000,-9548.656652,0.000000
59291.555864,-1184.329507,-14878.139434,612.876398
59291.556174,-4737.318029,-15026.180623,-1532.190996
59291.556483,-4145.153275,-11473.192101,-536.266849
59291.556793,-1628.453072,-5033.400406,459.657299
59291.557103,518.144159,-2220.617826,2068.457845
59291.557413,5255.462188,-2220.617826,4826.401637
59291.557723,5847.626942,-7105.977043,3600.648841
59291.558032,222.061783,-9992.780217,229.828649
59291.558342,-3552.988522,-14285.974681,0.000000
59291.558652,-2442.679609,-14211.954086,-689.485948
59291.558962,-4737.318029,-6291.750507,-4290.134789
59291.559272,-74.020594,-4737.318029,-76.609550
59291.559581,1998.556043,-2146.597232,459.657299
59291.559891,2368.659014,-6513.812290,1378.971896
59291.560201,1036.288319,-10584.944971,919.314598
59291.560511,-592.164754,-14878.139434,1685.410096
59291.560821,-1850.514855,-17172.777854,1762.019645
59291.561131,-2442.679609,-10066.800811,-76.609550
59291.561440,-2368.659014,-3627.009116,1225.752797
59291.561750,2294.638420,-4145.153275,2987.772442
59291.562060,592.164754,-74.020594,612.876398
59291.562370,4515.256246,-7105.977043,2987.772442
59291.562680,296.082377,-11769.274478,766.095498
59291.562989,-2738.761985,-14434.015869,-536.266849
59291.563299,-4293.194464,-13841.851115,-612.876398
59291.563609,-3552.988522,-7179.997637,-1838.629195
59291.563919,592.164754,-5107.421000,1225.752797
59291.564229,3478.967927,-4737.318029,1762.019645
59291.564538,0.000000,-4811.338623,0.000000
59291.564848,1184.329507,-14137.933492,1838.629195
59291.565158,-666.185348,-16580.613101,-1302.362347
59291.565468,-3034.844362,-17616.901420,-76.609550
59291.565778,-2886.803174,-10510.924376,0.000000
59291.566088,0.000000,-4737.318029,1532.190996
59291.566397,1924.535449,-2664.741391,2834.553343
59291.566707,2368.659014,-74.020594,2451.505594
59291.567017,2960.823768,-6883.915261,3677.258390
59291.567327,2072.576638,-12509.480420,2451.505594
59291.567637,-74.020594,-15396.283594,-76.609550
59291.567946,-6513.812290,-11917.315666,-1838.629195
59291.568256,-74.020594,-9474.636058,-76.609550
59291.568566,592.164754,-5033.400406,612.876398
59291.568876,2812.782580,-2960.823768,766.095498
59291.569186,2294.638420,-8068.244768,1455.581446
59291.569495,740.205942,-12213.398043,919.314598
59291.569805,-3034.844362,-14878.139434,-1838.629195
59291.570115,-5921.647536,-13693.809927,0.000000
59291.570425,-2812.782580,-10436.903782,1838.629195
59291.570735,-1554.432478,-4441.235652,-383.047749
59291.571045,1184.329507,-2442.679609,3064.381992
59291.571354,5847.626942,-4737.318029,6052.154434
59291.571664,1776.494261,-6291.750507,2451.505594
59291.571974,-370.102971,-12287.418637,153.219100
59291.572284,-3849.070898,-14804.118840,-612.876398
59291.572594,-4367.215058,-13397.727550,-1302.362347
59291.572903,-1554.432478,-7105.977043,-1302.362347
59291.573213,0.000000,-666.185348,-1225.752797
59291.573523,2960.823768,-2738.761985,2451.505594
59291.573833,5847.626942,-5921.647536,-76.609550
59291.574143,0.000000,-10140.821405,0.000000
59291.574452,-1184.329507,-16802.674883,2451.505594
59291.574762,-5329.482782,-15470.304188,0.000000
59291.575072,-3404.947333,-11325.150913,-229.828649
59291.575382,-888.247130,-5403.503377,995.924147
59291.575692,1110.308913,-3701.029710,2451.505594
59291.576001,4663.297435,-3552.988522,3600.648841
59291.576311,2886.803174,-6661.853478,1608.800546
59291.576621,0.000000,-10732.986159,0.000000
59291.576931,-2368.659014,-15470.304188,1838.629195
59291.577241,-3627.009116,-13027.624579,-1302.362347
59291.577551,-3552.988522,-7179.997637,0.000000
59291.577860,222.061783,-2738.761985,0.000000
59291.578170,3256.906145,-3330.926739,1762.019645
59291.578480,2960.823768,-7550.100608,1762.019645
59291.578790,592.164754,-14285.974681,612.876398
59291.579100,-1258.350101,-18949.272115,2068.457845
59291.579409,-4811.338623,-17764.942608,-383.047749
59291.579719,-5403.503377,-9030.512492,-2528.115143
59291.580029,-296.082377,-7476.080014,2987.772442
59291.580339,592.164754,-370.102971,1225.752797
59291.580649,1184.329507,-74.020594,2451.505594
59291.580958,1998.556043,-7254.018232,1685.410096
59291.581268,-1184.329507,-12657.521608,383.047749
59291.581578,-3478.967927,-15692.365970,153.219100
59291.581888,-3775.050304,-13545.768739,-229.828649
59291.582198,296.082377,-9474.636058,1532.190996
59291.582508,3182.885551,-4441.235652,1455.581446
59291.582817,3108.864956,-1258.350101,-2145.067394
59291.583127,2960.823768,-9844.739029,2911.162892
59291.583437,-74.020594,-11843.295072,-995.924147
59291.583747,-5921.647536,-12509.480420,-3677.258390
59291.584057,-4219.173869,-15396.283594,-689.485948
59291.584366,-3701.029710,-9104.533087,-689.485948
59291.584676,-1036.288319,-6513.812290,1685.410096
59291.584986,1702.473667,-2960.823768,2834.553343
59291.585296,3552.988522,-3034.844362,5209.449386
59291.585606,4589.276840,-9104.533087,4213.525239
59291.585915,1110.308913,-13915.871710,-76.609550
59291.586225,-5921.647536,-12509.480420,0.000000
59291.586535,-1924.535449,-14211.954086,842.705048
59291.586845,-666.185348,-5625.565159,-2528.115143
59291.587155,2294.638420,-6217.729913,2145.067394
59291.587464,3182.885551,-4293.194464,1532.190996
59291.587774,2886.803174,-9400.615463,1762.019645
59291.588084,0.000000,-14359.995275,689.485948
59291.588394,-4737.318029,-15470.304188,0.000000
59291.588704,-5921.647536,-16358.551318,612.876398
59291.589014,-2442.679609,-11843.295072,-76.609550
59291.589323,-3552.988522,-666.185348,0.000000
59291.589633,2368.659014,-3034.844362,3524.039291
59291.589943,4663.297435,-2368.659014,1762.019645
59291.590253,2294.638420,-9178.553681,2834.553343
59291.590563,-666.185348,-11843.295072,229.828649
59291.590872,-4219.173869,-14508.036463,-383.047749
59291.591182,-3923.091493,-11473.192101,-689.485948
59291.591492,-3256.906145,-5107.421000,-1838.629195
59291.591802,592.164754,-3034.844362,612.876398
59291.592112,4367.215058,-7105.977043,3600.648841
59291.592421,444.123565,-8956.491898,0.000000
59291.592731,296.082377,-16580.613101,1608.800546
59291.593041,-1258.350101,-18949.272115,-76.609550
59291.593351,-4737.318029,-15766.386565,306.438199
59291.593661,-2442.679609,-8438.347739,-76.609550
59291.593971,592.164754,-2812.782580,1991.848295
59291.594280,3997.112087,-666.185348,3294.210641
59291.594590,3478.967927,-1258.350101,1532.190996
59291.594900,1184.329507,-7179.997637,1225.752797
59291.595210,-2368.659014,-11917.315666,612.876398
59291.595520,-2442.679609,-17394.839637,1149.143247
59291.595829,-5403.503377,-12065.356855,-2221.676944
59291.596139,518.144159,-8290.306550,2374.896044
59291.596449,1480.411884,-2442.679609,612.876398
59291.596759,3923.091493,-3478.967927,1225.752797
59291.597069,1776.494261,-9178.553681,995.924147
59291.597378,-444.123565,-14878.139434,459.657299
59291.597688,-3034.844362,-17024.736666,-1302.362347
59291.597998,-6365.771101,-14285.974681,0.000000
59291.598308,-5921.647536,-7179.997637,0.000000
59291.598618,2294.638420,-4145.153275,2374.896044
59291.598927,1776.494261,2294.638420,1838.629195
59291.599237,2442.679609,-74.020594,2451.505594
59291.599547,2146.597232,-9474.636058,2374.896044
59291.599857,-2072.576638,-14063.912898,383.047749
59291.600167,-4293.194464,-16284.530724,-459.657299
59291.600477,-3552.988522,-13545.768739,-383.047749
59291.600786,0.000000,-8290.306550,1532.190996
59291.601096,2886.803174,-4737.318029,2451.505594
59291.601406,3478.967927,-2664.741391,-383.047749
59291.601716,1184.329507,-9548.656652,1225.752797
59291.602026,-74.020594,-15396.283594,-76.609550
59291.602335,-2072.576638,-18949.272115,842.705048
59291.602645,-5329.482782,-16506.592507,0.000000
59291.602955,-2960.823768,-9474.636058,229.828649
59291.603265,-370.102971,-4293.194464,2451.505594
59291.603575,3256.906145,0.000000,2528.115143
59291.603884,4959.379811,-1702.473667,2374.896044
59291.604194,2590.720797,-6587.832884,76.609550
59291.604504,0.000000,-13101.645173,1838.629195
59291.604814,-2442.679609,-15396.283594,-76.609550
59291.605124,-4737.318029,-10881.027347,612.876398
59291.605434,-1184.329507,-5107.421000,0.000000
59291.605743,2072.576638,-3701.029710,612.876398
59291.606053,3404.947333,-3775.050304,536.266849
59291.606363,1776.494261,-10658.965565,1149.143247
59291.606673,-1036.288319,-14878.139434,76.609550
59291.606983,-3701.029710,-17838.963202,76.609550
59291.607292,-3034.844362,-17024.736666,2374.896044
59291.607602,-2738.761985,-6365.771101,-1302.362347
59291.607912,0.000000,-1554.432478,1225.752797
59291.608222,3478.967927,888.247130,2068.457845
59291.608532,4663.297435,-2368.659014,2221.676944
59291.608841,518.144159,-9548.656652,1838.629195
59291.609151,-1850.514855,-13471.748144,766.095498
59291.609461,-4145.153275,-14434.015869,383.047749
59291.609771,-3404.947333,-11029.068536,-76.609550
59291.610081,-1406.391290,-5329.482782,-1149.143247
59291.610390,0.000000,-370.102971,-1532.190996
59291.610700,3552.988522,-4219.173869,1532.190996
59291.611010,3182.885551,-10658.965565,1762.019645
59291.611320,-4145.153275,-11917.315666,-2757.943793
59291.611630,-4737.318029,-17838.963202,0.000000
59291.611940,-3552.988522,-14508.036463,-76.609550
59291.612249,-1998.556043,-7920.203579,0.000000
59291.612559,592.164754,-2886.803174,2068.457845
59291.612869,3849.070898,-148.041188,2987.772442
59291.613179,5329.482782,-5329.482782,3064.381992
59291.613489,4663.297435,-11547.212695,4443.353888
59291.613798,-74.020594,-14211.954086,1455.581446
59291.614108,-4441.235652,-13693.809927,0.000000
59291.614418,-1036.288319,-12509.480420,0.000000
59291.614728,-74.020594,-5921.647536,-76.609550
59291.615038,1776.494261,-2146.597232,0.000000
59291.615347,2886.803174,-4145.153275,766.095498
59291.615657,1480.411884,-10436.903782,459.657299
59291.615967,-1480.411884,-16802.674883,1225.752797
59291.616277,-5477.523971,-18949.272115,-76.609550
59291.616587,-6735.874072,-13545.768739,-1991.848295
59291.616897,-4145.153275,-7772.162391,0.000000
59291.617206,1110.308913,-4737.318029,2374.896044
59291.617516,666.185348,-74.020594,3294.210641
59291.617826,3552.988522,-4367.215058,4443.353888
59291.618136,1998.556043,-10881.027347,2834.553343
59291.618446,-1924.535449,-14137.933492,1149.143247
59291.618758,-3849.070898,-14434.015869,153.219100
59291.619068,-2738.761985,-9474.636058,-1608.800546
59291.619378,0.000000,-3923.091493,612.876398
59291.619688,4071.132681,-4737.318029,2068.457845
59291.619997,2886.803174,-4737.318029,-76.609550
59291.620307,0.000000,-11917.315666,1225.752797
59291.620617,-1554.432478,-15692.365970,-2068.457845
59291.620927,-4811.338623,-16284.530724,-1455.581446
59291.621236,-4737.318029,-11917.315666,0.000000
59291.621546,-2072.576638,-5995.668130,306.438199
59291.621856,1776.494261,-3552.988522,3294.210641
59291.622166,5329.482782,-2442.679609,5209.449386
59291.622475,5551.544565,-4737.318029,3600.648841
59291.622785,592.164754,-8956.491898,1225.752797
59291.623095,-1480.411884,-14878.139434,2757.943793
59291.623405,-3627.009116,-14211.954086,-1915.238745
59291.623714,-2960.823768,-12213.398043,536.266849
59291.624024,444.123565,-4811.338623,0.000000
59291.624334,1702.473667,-2960.823768,153.219100
59291.624644,3108.864956,-3182.885551,0.000000
59291.624953,1184.329507,-10584.944971,612.876398
59291.625263,-2442.679609,-13693.809927,-2221.676944
59291.625573,-4737.318029,-16654.633695,0.000000
59291.625883,-2590.720797,-14211.954086,1149.143247
59291.626192,-2442.679609,-5403.503377,0.000000
59291.626502,3478.967927,-6439.791695,5745.716235
59291.626812,2442.679609,-222.061783,3677.258390
59291.627122,2886.803174,-4219.173869,2681.334243
59291.627431,444.123565,-11177.109724,2068.457845
59291.627741,-3034.844362,-15322.262999,0.000000
59291.628051,-4811.338623,-15766.386565,-306.438199
59291.628361,-2664.741391,-13027.624579,-76.609550
59291.628670,-74.020594,-5921.647536,-689.485948
59291.628980,0.000000,-2442.679609,0.000000
59291.629290,4071.132681,-8290.306550,2374.896044
59291.629600,0.000000,-9548.656652,0.000000
59291.629909,-74.020594,-17616.901420,-76.609550
59291.630219,-3775.050304,-18949.272115,766.095498
59291.630529,-4071.132681,-14137.933492,383.047749
59291.630839,-1332.370696,-5551.544565,1225.752797
59291.631148,1554.432478,-962.267725,2451.505594
59291.631458,3034.844362,2294.638420,1225.752797
59291.631768,4737.318029,-4219.173869,4290.134789
59291.632078,3478.967927,-11695.253884,2987.772442
59291.632387,-4737.318029,-13101.645173,0.000000
59291.632697,-2442.679609,-16580.613101,-76.609550
59291.633007,-4737.318029,-10140.821405,0.000000
59291.633317,-74.020594,-5625.565159,-536.266849
59291.633626,2220.617826,-2886.803174,0.000000
59291.633936,2960.823768,-5699.585753,1072.533697
59291.634246,1110.308913,-11843.295072,612.876398
59291.634556,-814.226536,-18949.272115,2374.896044
59291.634865,-5107.421000,-17616.901420,-229.828649
59291.635175,-5921.647536,-11325.150913,-2451.505594
59291.635485,-74.020594,-8290.306550,2987.772442
59291.635795,0.000000,-370.102971,995.924147
59291.636104,5847.626942,0.000000,3600.648841
59291.636414,4515.256246,-5255.462188,4290.134789
59291.636724,1332.370696,-10658.965565,2221.676944
59291.637034,-2812.782580,-14285.974681,229.828649
59291.637343,-4219.173869,-14656.077652,76.609550
59291.637653,-4145.153275,-8364.327145,-1838.629195
59291.637963,814.226536,-5551.544565,76.609550
59291.638273,2146.597232,-2812.782580,-459.657299
59291.638582,1702.473667,-5625.565159,0.000000
59291.638892,592.164754,-10140.821405,-229.828649
59291.639202,-74.020594,-16284.530724,-76.609550
59291.639512,-3997.112087,-14878.139434,-2221.676944
59291.639821,-4737.318029,-11917.315666,1225.752797
59291.640131,-74.020594,-5921.647536,1455.581446
59291.640441,296.082377,-370.102971,1532.190996
59291.640751,3997.112087,1998.556043,2451.505594
59291.641060,4885.359217,-5403.503377,4136.915689
59291.641370,2294.638420,-11177.109724,2374.896044
59291.641680,-1554.432478,-14952.160028,612.876398
59291.641990,-3552.988522,-14656.077652,229.828649
59291.642299,-444.123565,-11251.130318,-76.609550
59291.642609,1110.308913,-8290.306550,-76.609550
59291.642919,1110.308913,-1776.494261,-2221.676944
59291.643229,1184.329507,-8956.491898,1225.752797
59291.643538,-74.020594,-14211.954086,-76.609550
59291.643848,-2738.761985,-15396.283594,-2451.505594
59291.644158,-4737.318029,-15766.386565,-306.438199
59291.644468,-3478.967927,-9252.574275,-306.438199
59291.644777,-296.082377,-5033.400406,2298.286494
59291.645087,2812.782580,-1554.432478,4213.525239
59291.645397,5107.421000,-3034.844362,5362.668486
59291.645707,4663.297435,-9474.636058,4826.401637
59291.646016,-1036.288319,-10140.821405,0.000000
59291.646326,-3997.112087,-16062.468941,1225.752797
59291.646636,-3627.009116,-14211.954086,-383.047749
59291.646946,-1850.514855,-10362.883188,-2528.115143
59291.647255,0.000000,-3330.926739,-919.314598
59291.647565,2072.576638,-5033.400406,536.266849
59291.647875,2664.741391,-7772.162391,919.314598
59291.648185,222.061783,-14359.995275,1762.019645
59291.648494,-3552.988522,-17246.798449,1225.752797
59291.648804,-2886.803174,-18357.107362,1762.019645
59291.649114,-3923.091493,-10658.965565,-689.485948
59291.649424,0.000000,-4367.215058,1838.629195
59291.649733,3923.091493,-3552.988522,3907.087040
59291.650043,6439.791695,-2220.617826,3600.648841
59291.650353,3404.947333,-6365.771101,3217.601092
59291.650663,1406.391290,-12139.377449,2298.286494
59291.650972,-2072.576638,-15322.262999,995.924147
59291.651282,-3627.009116,-13989.892304,0.000000
59291.651592,-3552.988522,-7772.162391,0.000000
59291.651902,296.082377,-3627.009116,0.000000
59291.652211,5551.544565,-4737.318029,1762.019645
59291.652521,1924.535449,-5107.421000,0.000000
59291.652831,888.247130,-13693.809927,919.314598
59291.653141,-2294.638420,-18061.024985,1762.019645
59291.653450,-5181.441594,-17690.922014,-459.657299
59291.653760,-4219.173869,-11917.315666,383.047749
59291.654070,-1036.288319,-4959.379811,1532.190996
59291.654380,1924.535449,-74.020594,1378.971896
59291.654689,2368.659014,-74.020594,1838.629195
59291.654999,0.000000,-4811.338623,1838.629195
59291.655309,1702.473667,-13323.706956,3600.648841
59291.655619,-3627.009116,-14656.077652,229.828649
59291.655928,-4737.318029,-12509.480420,0.000000
59291.656238,-2664.741391,-9178.553681,1608.800546
59291.656548,222.061783,-3849.070898,-306.438199
59291.656858,1332.370696,-3478.967927,-383.047749
59291.657167,740.205942,-9918.759623,0.000000
59291.657477,-1332.370696,-14434.015869,-2068.457845
59291.657787,-5107.421000,-16728.654289,-2451.505594
59291.658097,-7105.977043,-14878.139434,-2145.067394
59291.658406,-3552.988522,-10140.821405,1225.752797
59291.658716,-74.020594,-5921.647536,2987.772442
59291.659026,1998.556043,-148.041188,3294.210641
59291.659336,3256.906145,-1850.514855,4290.134789
59291.659645,3923.091493,-7105.977043,4213.525239
59291.659955,592.164754,-11843.295072,1915.238745
59291.660265,-2886.803174,-15174.221811,919.314598
59291.660575,-3627.009116,-12065.356855,-536.266849
59291.660884,-1258.350101,-7994.224174,-1455.581446
59291.661194,-74.020594,-2368.659014,-1915.238745
59291.661504,1184.329507,-4811.338623,612.876398
59291.661814,2886.803174,-9474.636058,1149.143247
59291.662123,-962.267725,-15026.180623,842.705048
59291.662433,-3997.112087,-19023.292709,0.000000
59291.662743,-4811.338623,-18135.045579,76.609550
59291.663053,-3923.091493,-10881.027347,536.266849
59291.663362,-666.185348,-4885.359217,2604.724693
59291.663672,3478.967927,0.000000,4213.525239
59291.663982,6735.874072,-1184.329507,4519.963438
59291.664292,4663.297435,-7698.141797,4213.525239
59291.664601,-2368.659014,-10881.027347,612.876398
59291.664911,-2442.679609,-16432.571912,1838.629195
59291.665221,-3034.844362,-14211.954086,306.438199
59291.665531,-3256.906145,-5995.668130,-1838.629195
59291.665840,148.041188,-4367.215058,0.000000
59291.666150,2516.700203,-3404.947333,-383.047749
59291.666460,2738.761985,-8512.368333,689.485948
59291.666770,518.144159,-14211.954086,1762.019645
59291.667079,-666.185348,-17172.777854,-1225.752797
59291.667389,-2442.679609,-18283.086767,1762.019645
59291.667699,-2442.679609,-9178.553681,-383.047749
59291.668009,0.000000,-4219.173869,2451.505594
59291.668318,4663.297435,0.000000,2451.505594
59291.668628,4663.297435,-74.020594,2604.724693
59291.668938,4145.153275,-6883.915261,3677.258390
59291.669248,1332.370696,-12509.480420,2145.067394
59291.669557,-2886.803174,-15692.365970,383.047749
59291.669867,-2442.679609,-14804.118840,1302.362347
59291.670177,-1110.308913,-9104.533087,-1378.971896
59291.670487,1332.370696,-5847.626942,306.438199
59291.670796,1702.473667,-6513.812290,-76.609550
59291.671106,0.000000,-8364.327145,0.000000
59291.671416,-592.164754,-16062.468941,-1225.752797
59291.671726,-3034.844362,-16580.613101,-1608.800546
59291.672035,-5255.462188,-14730.098246,-1149.143247
59291.672345,-3478.967927,-9178.553681,536.266849
59291.672655,370.102971,-2220.617826,1685.410096
59291.672965,2664.741391,518.144159,3677.258390
59291.673274,3552.988522,-74.020594,3600.648841
59291.673584,4071.132681,-9474.636058,4826.401637
59291.673894,-2812.782580,-11029.068536,0.000000
59291.674204,-4145.153275,-15840.407159,1532.190996
59291.674513,-3627.009116,-12435.459826,-1915.238745
59291.674823,-74.020594,-8882.471304,-76.609550
59291.675133,370.102971,-3701.029710,-919.314598
59291.675443,1554.432478,-4663.297435,-306.438199
59291.675752,1406.391290,-10510.924376,536.266849
59291.676062,-2368.659014,-14878.139434,0.000000
59291.676372,-4145.153275,-16950.716072,-76.609550
59291.676682,-6513.812290,-14285.974681,0.000000
59291.676991,-1554.432478,-9178.553681,1762.019645
59291.677301,-74.020594,-518.144159,229.828649
59291.677611,2368.659014,888.247130,3294.210641
59291.677921,6439.791695,-3552.988522,4826.401637
59291.678230,3108.864956,-8364.327145,3524.039291
59291.678540,-222.061783,-13249.686362,1762.019645
59291.678850,-3034.844362,-15766.386565,612.876398
59291.679160,-4737.318029,-10732.986159,-1302.362347
59291.679469,-2146.597232,-7402.059420,-76.609550
59291.679779,0.000000,-666.185348,-2451.505594
59291.680089,3256.906145,-5033.400406,1225.752797
59291.680399,2738.761985,-8290.306550,-689.485948
59291.680708,-740.205942,-15396.283594,1149.143247
59291.681018,-2072.576638,-17912.983796,766.095498
59291.681328,-4071.132681,-15396.283594,229.828649
59291.681638,-2072.576638,-9696.697840,1532.190996
59291.681947,1184.329507,-2294.638420,1608.800546
59291.682257,1702.473667,2516.700203,3600.648841
59291.682567,3034.844362,0.000000,2374.896044
59291.682877,0.000000,-6587.832884,2451.505594
59291.683186,-74.020594,-14804.118840,2068.457845
59291.683496,-4811.338623,-13767.830521,-1302.362347
59291.683806,-3775.050304,-14211.954086,842.705048
59291.684116,-2368.659014,-7179.997637,0.000000
59291.684425,1110.308913,-4663.297435,-153.219100
59291.684735,2886.803174,-4367.215058,459.657299
59291.685045,2146.597232,-9326.594869,306.438199
59291.685355,-74.020594,-15396.283594,-76.609550
59291.685664,-3330.926739,-17542.880825,0.000000
59291.685974,-3627.009116,-16580.613101,-689.485948
59291.686284,-3552.988522,-9548.656652,0.000000
59291.686594,1998.556043,-7105.977043,3600.648841
59291.686903,3404.947333,-1406.391290,3217.601092
59291.687213,2960.823768,-2442.679609,2451.505594
59291.687523,3404.947333,-9474.636058,3600.648841
59291.687833,592.164754,-13471.748144,1455.581446
59291.688142,-2664.741391,-14878.139434,689.485948
59291.688452,-666.185348,-11843.295072,-76.609550
59291.688762,1184.329507,-5255.462188,0.000000
59291.689072,3478.967927,-3552.988522,-76.609550
59291.689381,592.164754,-4811.338623,0.000000
