#time,accel_x,accel_y,accel_z
163571.321357,-74.020594,-9326.594869,-76.609550
163571.321677,-962.267725,-8660.409521,153.219100
163571.321997,-962.267725,-9178.553681,0.000000
163571.322317,-962.267725,-7698.141797,-1302.362347
163571.322637,-666.185348,-8512.368333,-76.609550
163571.322957,-1850.514855,-7772.162391,-995.924147
163571.323278,-1480.411884,-8364.327145,-3064.381992
163571.323598,-888.247130,-9844.739029,612.876398
163571.323918,-74.020594,-10066.800811,1762.019645
163571.324238,-3552.988522,-7179.997637,-1838.629195
163571.324558,-1184.329507,-9844.739029,-995.924147
163571.324878,-1924.535449,-10066.800811,-1225.752797
163571.325198,-1110.308913,-9696.697840,-1378.971896
163571.325518,1702.473667,-9474.636058,-76.609550
163571.325838,814.226536,-10658.965565,-995.924147
163571.326158,1110.308913,-11843.295072,-76.609550
163571.326478,222.061783,-8586.388927,-1072.533697
163571.326799,0.000000,-8364.327145,-1149.143247
163571.327119,0.000000,-9548.656652,1225.752797
163571.327439,74.020594,-8660.409521,0.000000
163571.327759,518.144159,-9548.656652,306.438199
163571.328079,296.082377,-9030.512492,153.219100
163571.328399,0.000000,-9548.656652,-689.485948
163571.328719,2294.638420,-10658.965565,1762.019645
163571.329039,0.000000,-8364.327145,0.000000
163571.329359,1406.391290,-10066.800811,1149.143247
163571.329679,-222.061783,-8438.347739,536.266849
163571.329999,-666.185348,-7772.162391,0.000000
163571.330320,-1850.514855,-7105.977043,-1685.410096
163571.330640,-1184.329507,-8734.430116,153.219100
163571.330960,-1406.391290,-8882.471304,0.000000
163571.331280,-1184.329507,-8882.471304,-919.314598
163571.331600,-74.020594,-11843.295072,-76.609550
163571.331920,-666.185348,-9474.636058,-842.705048
163571.332240,-1258.350101,-9474.636058,-1608.800546
163571.332560,-1776.494261,-9548.656652,-3064.381992
163571.332880,-1184.329507,-9548.656652,0.000000
163571.333200,2294.638420,-9474.636058,-76.609550
163571.333520,1036.288319,-10362.883188,689.485948
163571.333840,444.123565,-9474.636058,0.000000
163571.334161,444.123565,-9770.718434,-306.438199
163571.334481,74.020594,-9326.594869,-536.266849
163571.334801,0.000000,-8364.327145,0.000000
163571.335121,444.123565,-10066.800811,-383.047749
163571.335441,148.041188,-9474.636058,0.000000
163571.335761,296.082377,-9326.594869,153.219100
163571.336081,518.144159,-8882.471304,-76.609550
163571.336401,2294.638420,-9474.636058,-842.705048
163571.336721,1702.473667,-10584.944971,1455.581446
163571.337041,-74.020594,-8586.388927,-76.609550
163571.337361,-740.205942,-8290.306550,-76.609550
163571.337682,296.082377,-9548.656652,2298.286494
163571.338002,-2960.823768,-7179.997637,0.000000
163571.338322,-814.226536,-9400.615463,0.000000
163571.338642,-1628.453072,-9252.574275,-766.095498
163571.338962,-1628.453072,-9622.677246,-1302.362347
163571.339282,-1258.350101,-9918.759623,-383.047749
163571.339602,-1480.411884,-8660.409521,-995.924147
163571.339922,-444.123565,-9770.718434,-229.828649
163571.340242,-74.020594,-9474.636058,-76.609550
163571.340562,-1776.494261,-7476.080014,-1838.629195
163571.340882,0.000000,-8364.327145,0.000000
163571.341203,-888.247130,-8956.491898,-995.924147
163571.341523,0.000000,-9770.718434,-766.095498
163571.341843,0.000000,-9696.697840,-919.314598
163571.342163,0.000000,-9474.636058,0.000000
163571.342483,1110.308913,-10066.800811,-1302.362347
163571.342803,444.123565,-9252.574275,-689.485948
163571.343123,0.000000,-7772.162391,0.000000
163571.343443,592.164754,-9844.739029,1225.752797
163571.343763,814.226536,-9474.636058,536.266849
163571.344083,0.000000,-8364.327145,612.876398
163571.344403,592.164754,-9474.636058,-76.609550
163571.344724,0.000000,-9252.574275,0.000000
163571.345044,-370.102971,-9400.615463,76.609550
163571.345364,-370.102971,-7698.141797,-689.485948
163571.345684,-74.020594,-8882.471304,-76.609550
163571.346004,-74.020594,-9474.636058,-76.609550
163571.346324,-2664.741391,-8364.327145,-995.924147
163571.346644,-740.205942,-9696.697840,0.000000
163571.346964,-74.020594,-9992.780217,2145.067394
163571.347284,-2960.823768,-7179.997637,0.000000
163571.347604,-814.226536,-9104.533087,-689.485948
163571.347924,-1036.288319,-9104.533087,-536.266849
163571.348244,-1036.288319,-8882.471304,-536.266849
163571.348565,-74.020594,-9474.636058,-76.609550
163571.348885,-1184.329507,-8956.491898,-1072.533697
163571.349205,1110.308913,-10658.965565,-76.609550
163571.349525,-888.247130,-7994.224174,-1915.238745
163571.349845,0.000000,-8364.327145,0.000000
163571.350165,0.000000,-9844.739029,1378.971896
163571.350485,222.061783,-8882.471304,-842.705048
163571.350805,666.185348,-9030.512492,-229.828649
163571.351125,1258.350101,-8882.471304,612.876398
163571.351445,1406.391290,-8956.491898,0.000000
163571.351765,1406.391290,-8364.327145,-1762.019645
163571.352086,740.205942,-8364.327145,0.000000
163571.352406,0.000000,-7179.997637,0.000000
163571.352726,2886.803174,-11251.130318,-76.609550
163571.353046,2294.638420,-11251.130318,-76.609550
163571.353366,0.000000,-8956.491898,0.000000
163571.353686,1998.556043,-8882.471304,153.219100
163571.354006,2294.638420,-9474.636058,-229.828649
163571.354326,2590.720797,-8956.491898,153.219100
163571.354646,2294.638420,-7402.059420,-1915.238745
163571.354966,4071.132681,-8882.471304,-76.609550
163571.355286,6439.791695,-9474.636058,-76.609550
163571.355607,3256.906145,-8364.327145,0.000000
163571.355927,4737.318029,-9178.553681,612.876398
163571.356247,5921.647536,-10732.986159,1149.143247
163571.356567,3552.988522,-8956.491898,-1838.629195
163571.356887,4663.297435,-9844.739029,-1762.019645
163571.357207,4737.318029,-9622.677246,-1608.800546
163571.357527,5699.585753,-9326.594869,-842.705048
163571.357847,8216.285956,-9474.636058,-1149.143247
163571.358167,7105.977043,-8364.327145,0.000000
163571.358487,9252.574275,-9474.636058,-76.609550
163571.358807,7031.956449,-11843.295072,2374.896044
163571.359128,3923.091493,-10140.821405,-1072.533697
163571.359448,3701.029710,-13841.851115,2145.067394
163571.359768,2072.576638,-11917.315666,0.000000
163571.360088,2812.782580,-10362.883188,995.924147
163571.360408,3775.050304,-8808.450710,919.314598
163571.360728,3108.864956,-6291.750507,0.000000
163571.361048,3923.091493,-4885.359217,-689.485948
163571.361368,3256.906145,-4219.173869,-1532.190996
163571.361688,1184.329507,-3627.009116,-4290.134789
163571.362008,4441.235652,-8512.368333,-1685.410096
163571.362328,4663.297435,-13027.624579,-1302.362347
163571.362648,1776.494261,-13101.645173,-1225.752797
163571.362969,1776.494261,-15544.324782,-306.438199
163571.363289,1702.473667,-15618.345376,1762.019645
163571.363609,2886.803174,-12361.439231,2221.676944
163571.363929,2738.761985,-7179.997637,0.000000
163571.364249,2146.597232,-5921.647536,-76.609550
163571.364569,3478.967927,-6513.812290,-689.485948
163571.364889,814.226536,-4959.379811,-1225.752797
163571.365209,2368.659014,-5477.523971,-1302.362347
163571.365529,1332.370696,-9474.636058,1915.238745
163571.365849,-2590.720797,-9104.533087,-1072.533697
163571.366169,-2220.617826,-10066.800811,-995.924147
163571.366490,222.061783,-9474.636058,612.876398
163571.366810,1924.535449,-9548.656652,0.000000
163571.367130,3478.967927,-9474.636058,1149.143247
163571.367450,1184.329507,-10140.821405,1838.629195
163571.367770,3108.864956,-10362.883188,2374.896044
163571.368090,2294.638420,-10658.965565,1762.019645
163571.368410,-74.020594,-7846.182985,-995.924147
163571.368730,-3552.988522,-6587.832884,-6128.763984
163571.369050,-1258.350101,-10881.027347,-3600.648841
163571.369370,888.247130,-12805.562797,-536.266849
163571.369690,1184.329507,-11843.295072,1608.800546
163571.370011,2294.638420,-11251.130318,1762.019645
163571.370331,592.164754,-7698.141797,0.000000
163571.370651,1702.473667,-6661.853478,0.000000
163571.370971,2368.659014,-7476.080014,2451.505594
163571.371291,6735.874072,-9474.636058,5439.278036
163571.371611,4663.297435,-5477.523971,995.924147
163571.371931,2146.597232,-7105.977043,-1378.971896
163571.372251,-1776.494261,-8512.368333,-6971.469032
163571.372571,-2516.700203,-12361.439231,-6818.249932
163571.372891,-740.205942,-14582.057057,-4060.306139
163571.373211,-1628.453072,-14285.974681,-1225.752797
163571.373532,148.041188,-11769.274478,-2681.334243
163571.373852,2590.720797,-11473.192101,-689.485948
163571.374172,8734.430116,-9548.656652,4596.572988
163571.374492,11991.336260,-4811.338623,8427.050478
163571.374812,13841.851115,-1258.350101,9039.926876
163571.375132,11177.109724,-2368.659014,4826.401637
163571.375452,5181.441594,-3256.906145,0.000000
163571.375772,2368.659014,-8364.327145,0.000000
163571.376092,4663.297435,-14211.954086,1762.019645
163571.376412,-2960.823768,-12509.480420,-4290.134789
163571.376732,-3849.070898,-14211.954086,-7431.126331
163571.377052,-3627.009116,-14582.057057,-8197.221829
163571.377373,0.000000,-13693.809927,-4366.744339
163571.377693,3182.885551,-10140.821405,-2145.067394
163571.378013,5403.503377,-7402.059420,1225.752797
163571.378333,6809.894666,-5403.503377,612.876398
163571.378653,7105.977043,-4811.338623,4903.011187
163571.378973,8216.285956,-5255.462188,5286.058936
163571.379293,8290.306550,-9104.533087,8197.221829
163571.379613,6439.791695,-7772.162391,4060.306139
163571.379933,4367.215058,-8142.265362,76.609550
163571.380253,-444.123565,-10732.986159,-4290.134789
163571.380573,-3182.885551,-12953.603985,-7354.516781
163571.380894,-3701.029710,-13915.871710,-8580.269578
163571.381214,-1332.370696,-15396.283594,-4979.620737
163571.381534,-370.102971,-11991.336260,-4826.401637
163571.381854,592.164754,-9548.656652,-1225.752797
163571.382174,4145.153275,-9474.636058,1762.019645
163571.382494,6217.729913,-6291.750507,4903.011187
163571.382814,7476.080014,-5033.400406,4443.353888
163571.383134,8290.306550,-4441.235652,6128.763984
163571.383454,6069.688724,-5551.544565,4826.401637
163571.383774,2146.597232,-5995.668130,1302.362347
163571.384094,0.000000,-8956.491898,-1838.629195
163571.384415,-1258.350101,-12435.459826,-2834.553343
163571.384735,-3330.926739,-12435.459826,-4979.620737
163571.385055,-2442.679609,-13027.624579,-4979.620737
163571.385375,-74.020594,-15100.201217,-76.609550
163571.385695,592.164754,-9992.780217,306.438199
163571.386015,4293.194464,-7550.100608,1838.629195
163571.386335,4885.359217,-5255.462188,2145.067394
163571.386655,4737.318029,-5921.647536,2681.334243
163571.386975,4367.215058,-7031.956449,1991.848295
163571.387295,1776.494261,-7772.162391,919.314598
163571.387615,2294.638420,-10288.862594,612.876398
163571.387936,2294.638420,-11843.295072,-1915.238745
163571.388256,-74.020594,-9474.636058,-5592.497135
163571.388576,148.041188,-14804.118840,-2528.115143
163571.388896,370.102971,-13027.624579,-3677.258390
163571.389216,2664.741391,-11917.315666,-1608.800546
163571.389536,4737.318029,-10140.821405,536.266849
163571.389856,3552.988522,-7179.997637,0.000000
163571.390176,3034.844362,-6291.750507,2451.505594
163571.390496,6957.935855,-6217.729913,3907.087040
163571.390816,4737.318029,-5107.421000,4290.134789
163571.391136,4737.318029,-6809.894666,3753.867940
163571.391456,1998.556043,-8882.471304,-383.047749
163571.391777,-2368.659014,-9548.656652,-3524.039291
163571.392097,-370.102971,-10288.862594,-4519.963438
163571.392417,740.205942,-11177.109724,-4903.011187
163571.392737,1702.473667,-12213.398043,-2834.553343
163571.393057,0.000000,-10140.821405,-3983.696590
163571.393377,4071.132681,-12953.603985,1149.143247
163571.393697,6439.791695,-13027.624579,2987.772442
163571.394017,7105.977043,-8512.368333,4443.353888
163571.394337,5921.647536,-5403.503377,3677.258390
163571.394657,7624.121203,-7105.977043,4519.963438
163571.394977,2368.659014,-6143.709319,0.000000
163571.395297,666.185348,-7994.224174,-1225.752797
163571.395617,740.205942,-9326.594869,-3064.381992
163571.395937,740.205942,-9770.718434,-3064.381992
163571.396257,-74.020594,-10362.883188,-4903.011187
163571.396577,296.082377,-11917.315666,-2451.505594
163571.396897,3182.885551,-12583.501014,-2145.067394
163571.397217,2368.659014,-11325.150913,2451.505594
163571.397537,4145.153275,-9474.636058,2374.896044
163571.397857,4663.297435,-9474.636058,-76.609550
163571.398177,1998.556043,-7698.141797,0.000000
163571.398497,5625.565159,-7698.141797,2451.505594
163571.398817,6439.791695,-7105.977043,3294.210641
163571.399137,4885.359217,-7179.997637,2451.505594
163571.399457,2368.659014,-8956.491898,0.000000
163571.399777,2368.659014,-10732.986159,0.000000
163571.400097,3108.864956,-14063.912898,-76.609550
163571.400417,-74.020594,-10362.883188,-2221.676944
163571.400737,-222.061783,-9918.759623,-4673.182538
163571.401057,1850.514855,-9474.636058,-1455.581446
163571.401377,2590.720797,-9252.574275,-612.876398
163571.401697,3182.885551,-7698.141797,459.657299
163571.402017,3034.844362,-8586.388927,612.876398
163571.402337,1776.494261,-8364.327145,2451.505594
163571.402657,3849.070898,-5699.585753,0.000000
163571.402976,2368.659014,-8364.327145,1838.629195
163571.403296,1998.556043,-8290.306550,-995.924147
163571.403616,1184.329507,-8734.430116,-2528.115143
163571.403936,4959.379811,-13027.624579,2374.896044
163571.404256,2664.741391,-10140.821405,-4213.525239
163571.404576,-296.082377,-12213.398043,-2834.553343
163571.404896,-296.082377,-13101.645173,-2528.115143
163571.405216,1776.494261,-9548.656652,0.000000
163571.405536,4663.297435,-7772.162391,0.000000
163571.405856,3552.988522,-9104.533087,2374.896044
163571.406176,2294.638420,-7105.977043,2221.676944
163571.406496,2368.659014,-3627.009116,2451.505594
163571.406816,7105.977043,-7772.162391,4903.011187
163571.407136,2960.823768,-7179.997637,919.314598
163571.407456,2886.803174,-9474.636058,1378.971896
163571.407776,814.226536,-9252.574275,-766.095498
163571.408096,0.000000,-10584.944971,-3370.820191
163571.408416,-74.020594,-11843.295072,-4979.620737
163571.408736,592.164754,-11325.150913,-2374.896044
163571.409056,1480.411884,-9844.739029,-2221.676944
163571.409376,2886.803174,-10955.047942,-229.828649
163571.409696,1480.411884,-9474.636058,-76.609550
163571.410016,1184.329507,-9548.656652,3064.381992
163571.410336,1184.329507,-8364.327145,1225.752797
163571.410656,6439.791695,-8290.306550,2374.896044
163571.410975,4293.194464,-6291.750507,2451.505594
163571.411295,6661.853478,-7179.997637,1838.629195
163571.411615,8216.285956,-9474.636058,-76.609550
163571.411935,1554.432478,-10066.800811,-383.047749
163571.412255,-1850.514855,-10807.006753,-2221.676944
163571.412575,-3923.091493,-10807.006753,-4596.572988
163571.412895,-3552.988522,-11473.192101,-5362.668486
163571.413215,-1184.329507,-11843.295072,-3294.210641
163571.413535,0.000000,-8956.491898,-1685.410096
163571.413855,1628.453072,-8364.327145,0.000000
163571.414175,1776.494261,-7772.162391,3370.820191
163571.414495,1110.308913,-4441.235652,842.705048
163571.414815,2294.638420,-7105.977043,4519.963438
163571.415135,1554.432478,-6587.832884,2451.505594
163571.415455,2368.659014,-8734.430116,3217.601092
163571.415775,666.185348,-9844.739029,766.095498
163571.416095,-1776.494261,-11917.315666,1149.143247
163571.416415,-5033.400406,-11325.150913,-2528.115143
163571.416735,-8290.306550,-11843.295072,-4979.620737
163571.417055,-9548.656652,-11843.295072,-6971.469032
163571.417375,-9252.574275,-10732.986159,-6511.811733
163571.417695,-3923.091493,-7994.224174,-3753.867940
163571.418015,-296.082377,-7994.224174,3217.601092
163571.418335,1702.473667,-6439.791695,3600.648841
163571.418655,0.000000,-5033.400406,3064.381992
163571.418975,-1554.432478,-7105.977043,2987.772442
163571.419294,-3256.906145,-9030.512492,1991.848295
163571.419614,-2960.823768,-10436.903782,1225.752797
163571.419934,-1258.350101,-10658.965565,-2528.115143
163571.420254,-2442.679609,-12213.398043,-2068.457845
163571.420574,-4737.318029,-11917.315666,-4290.134789
163571.420894,-2442.679609,-13619.789333,-2834.553343
163571.421214,-5477.523971,-11103.089130,-3447.429741
163571.421534,-4071.132681,-9548.656652,-2528.115143
163571.421854,-592.164754,-7846.182985,383.047749
163571.422174,5033.400406,-7328.038826,4903.011187
163571.422494,6143.709319,-4367.215058,6128.763984
163571.422814,5329.482782,-4811.338623,7354.516781
163571.423134,3478.967927,-6809.894666,5439.278036
163571.423454,-370.102971,-10510.924376,1149.143247
163571.423774,-6291.750507,-7328.038826,-5822.325785
163571.424094,-4367.215058,-11843.295072,-3524.039291
163571.424414,-4737.318029,-13323.706956,-3524.039291
163571.424734,-1628.453072,-12065.356855,-5439.278036
163571.425054,-3849.070898,-13027.624579,-3064.381992
163571.425374,1776.494261,-10658.965565,1762.019645
163571.425694,1480.411884,-6217.729913,-2068.457845
163571.426014,-518.144159,-7105.977043,-76.609550
163571.426334,1184.329507,-7179.997637,0.000000
163571.426654,6587.832884,-8142.265362,5209.449386
163571.426974,6587.832884,-5699.585753,1991.848295
163571.427293,8512.368333,-9622.677246,5056.230287
163571.427613,1998.556043,-10807.006753,1149.143247
163571.427933,296.082377,-9770.718434,-1378.971896
163571.428253,-666.185348,-13619.789333,-4366.744339
163571.428573,-1258.350101,-13027.624579,-4979.620737
163571.428893,-74.020594,-14211.954086,-1915.238745
163571.429213,4071.132681,-12435.459826,1149.143247
163571.429533,4367.215058,-8512.368333,1149.143247
163571.429853,0.000000,-4811.338623,0.000000
163571.430173,-74.020594,-6513.812290,842.705048
163571.430493,0.000000,-6735.874072,536.266849
163571.430813,2220.617826,-6809.894666,1532.190996
163571.431133,3182.885551,-8364.327145,3600.648841
163571.431453,5847.626942,-11399.171507,5439.278036
163571.431773,0.000000,-8364.327145,153.219100
163571.432093,-2368.659014,-11177.109724,-1225.752797
163571.432413,-5107.421000,-11695.253884,-4596.572988
163571.432733,-5403.503377,-13027.624579,-4979.620737
163571.433053,-7994.224174,-8364.327145,-4903.011187
163571.433373,-1850.514855,-11103.089130,-1608.800546
163571.433693,962.267725,-9992.780217,1838.629195
163571.434013,2960.823768,-6957.935855,2757.943793
163571.434333,2738.761985,-5625.565159,2987.772442
163571.434653,592.164754,-5033.400406,1762.019645
163571.434973,-3108.864956,-6143.709319,-1149.143247
163571.435293,-1776.494261,-9548.656652,-2451.505594
163571.435612,-592.164754,-11769.274478,1685.410096
163571.435932,-74.020594,-13619.789333,2451.505594
163571.436252,-3256.906145,-9548.656652,-2298.286494
163571.436572,-4145.153275,-10658.965565,-2451.505594
163571.436892,-5033.400406,-9844.739029,-3600.648841
163571.437212,-5181.441594,-8882.471304,-3983.696590
163571.437532,-74.020594,-9474.636058,-76.609550
163571.437852,2886.803174,-8290.306550,2987.772442
163571.438172,4071.132681,-8290.306550,4826.401637
163571.438492,1184.329507,-5699.585753,2451.505594
163571.438812,-592.164754,-7624.121203,1838.629195
163571.439132,-4737.318029,-7179.997637,612.876398
163571.439452,-4589.276840,-9030.512492,-3140.991542
163571.439772,-3182.885551,-11473.192101,-1991.848295
163571.440092,-1776.494261,-12509.480420,-766.095498
163571.440412,-888.247130,-10436.903782,-766.095498
163571.440732,-74.020594,-11843.295072,-689.485948
163571.441052,-3552.988522,-9548.656652,-2451.505594
163571.441372,-2738.761985,-10362.883188,-1915.238745
163571.441692,-2442.679609,-8290.306550,-1302.362347
163571.442012,-2294.638420,-6291.750507,0.000000
163571.442332,2886.803174,-6809.894666,689.485948
163571.442652,4071.132681,-8142.265362,2987.772442
163571.442972,3330.926739,-9474.636058,2298.286494
163571.443292,-518.144159,-9326.594869,0.000000
163571.443611,-370.102971,-11843.295072,-76.609550
163571.443931,-1850.514855,-10955.047942,-2528.115143
163571.444251,0.000000,-11103.089130,-2757.943793
163571.444571,2516.700203,-9770.718434,-1302.362347
163571.444891,1776.494261,-8364.327145,1838.629195
163571.445211,5551.544565,-8290.306550,2987.772442
163571.445531,2590.720797,-7328.038826,1455.581446
163571.445851,296.082377,-7698.141797,-536.266849
163571.446171,518.144159,-8586.388927,153.219100
163571.446491,1258.350101,-7846.182985,1378.971896
163571.446811,592.164754,-7179.997637,1838.629195
163571.447131,3330.926739,-8586.388927,766.095498
163571.447451,-370.102971,-9622.677246,-1302.362347
163571.447771,-3552.988522,-10140.821405,-2221.676944
163571.448091,-4737.318029,-9622.677246,-4060.306139
163571.448411,-1258.350101,-10658.965565,-4673.182538
163571.448731,-74.020594,-11843.295072,-1915.238745
163571.449051,518.144159,-10658.965565,-536.266849
163571.449371,2886.803174,-7254.018232,-689.485948
163571.449691,4737.318029,-8808.450710,3753.867940
163571.450011,0.000000,-7179.997637,0.000000
163571.450331,-1258.350101,-8808.450710,-1762.019645
163571.450651,-2294.638420,-8068.244768,-1302.362347
163571.450971,-1924.535449,-10881.027347,-689.485948
163571.451291,1702.473667,-12139.377449,536.266849
163571.451611,296.082377,-9844.739029,-229.828649
163571.451930,-666.185348,-10955.047942,1149.143247
163571.452250,-1850.514855,-9474.636058,-383.047749
163571.452570,-2738.761985,-7402.059420,-2374.896044
163571.452890,-2368.659014,-8364.327145,0.000000
163571.453210,-1480.411884,-7772.162391,-1072.533697
163571.453530,-370.102971,-9104.533087,1378.971896
163571.453850,518.144159,-8512.368333,1915.238745
163571.454170,0.000000,-8734.430116,766.095498
163571.454490,-962.267725,-8216.285956,76.609550
163571.454810,-3849.070898,-8512.368333,0.000000
163571.455130,-4145.153275,-7772.162391,0.000000
163571.455450,0.000000,-10584.944971,2221.676944
163571.455770,3182.885551,-10881.027347,2528.115143
163571.456090,592.164754,-7772.162391,1838.629195
163571.456410,-1258.350101,-7994.224174,-1455.581446
163571.456730,-4515.256246,-8438.347739,-2451.505594
163571.457050,-4663.297435,-9992.780217,-3294.210641
163571.457370,-4219.173869,-7846.182985,-4060.306139
163571.457690,-1258.350101,-9474.636058,-76.609550
163571.458010,1702.473667,-9178.553681,-76.609550
163571.458330,1480.411884,-6291.750507,612.876398
163571.458650,2590.720797,-9474.636058,1225.752797
163571.458970,1702.473667,-10584.944971,-76.609550
163571.459290,-2368.659014,-8364.327145,-2451.505594
163571.459610,-814.226536,-11103.089130,-459.657299
163571.459929,444.123565,-10436.903782,-689.485948
163571.460249,1110.308913,-11029.068536,229.828649
163571.460569,4663.297435,-9474.636058,995.924147
163571.460889,0.000000,-8364.327145,0.000000
163571.461209,-74.020594,-10288.862594,-689.485948
163571.461529,-592.164754,-10288.862594,459.657299
163571.461849,1702.473667,-9474.636058,-76.609550
163571.462169,2664.741391,-10140.821405,3064.381992
163571.462489,2886.803174,-8512.368333,2145.067394
163571.462809,2368.659014,-8438.347739,1378.971896
163571.463129,-444.123565,-8512.368333,-459.657299
163571.463449,-3404.947333,-8586.388927,-4290.134789
163571.463769,-4515.256246,-8956.491898,-4903.011187
163571.464089,-4145.153275,-11325.150913,-2298.286494
163571.464409,-2368.659014,-9548.656652,0.000000
163571.464729,3478.967927,-9474.636058,1149.143247
163571.465049,3182.885551,-7994.224174,-76.609550
163571.465369,1184.329507,-7179.997637,1225.752797
163571.465689,-592.164754,-8438.347739,-153.219100
163571.466009,-1258.350101,-8660.409521,-1072.533697
163571.466329,-1776.494261,-11029.068536,-383.047749
163571.466649,-1110.308913,-9548.656652,0.000000
163571.466969,1406.391290,-7550.100608,-229.828649
163571.467289,222.061783,-7920.203579,-689.485948
163571.467609,0.000000,-8068.244768,0.000000
163571.467929,-1184.329507,-10362.883188,-2451.505594
163571.468248,-74.020594,-9474.636058,-383.047749
163571.468568,0.000000,-9104.533087,0.000000
163571.468888,2072.576638,-8808.450710,1762.019645
163571.469208,3034.844362,-7624.121203,1838.629195
163571.469528,592.164754,-8364.327145,1302.362347
163571.469848,-814.226536,-7698.141797,-229.828649
163571.470168,-1258.350101,-11325.150913,-153.219100
163571.470488,-1850.514855,-11695.253884,-842.705048
163571.470808,-1258.350101,-11843.295072,-76.609550
163571.471128,-1554.432478,-10066.800811,-1608.800546
163571.471448,592.164754,-11843.295072,-76.609550
163571.471768,-2368.659014,-10140.821405,-2145.067394
163571.472088,-2738.761985,-9844.739029,-1455.581446
163571.472408,-1332.370696,-9622.677246,-766.095498
163571.472728,-2368.659014,-8364.327145,-2451.505594
163571.473048,-1184.329507,-7179.997637,-2145.067394
163571.473368,0.000000,-9400.615463,0.000000
163571.473688,592.164754,-9252.574275,2451.505594
163571.474008,2294.638420,-11251.130318,-76.609550
163571.474328,-74.020594,-11843.295072,-689.485948
163571.474648,-592.164754,-10584.944971,842.705048
163571.474968,-1554.432478,-9030.512492,-383.047749
163571.475288,518.144159,-10140.821405,1072.533697
163571.475608,3182.885551,-7846.182985,1378.971896
163571.475928,0.000000,-5995.668130,612.876398
163571.476247,814.226536,-7550.100608,1149.143247
163571.476567,-2294.638420,-6735.874072,-2068.457845
163571.476887,-2368.659014,-10140.821405,306.438199
163571.477207,-2442.679609,-9474.636058,-76.609550
163571.477527,-74.020594,-10658.965565,-76.609550
163571.477847,-1776.494261,-9178.553681,-612.876398
163571.478167,-1110.308913,-8882.471304,-689.485948
163571.478487,-1480.411884,-8364.327145,-689.485948
163571.478807,-888.247130,-8882.471304,919.314598
163571.479127,-1110.308913,-7031.956449,-2145.067394
163571.479447,2294.638420,-9474.636058,-76.609550
163571.479767,740.205942,-7920.203579,306.438199
163571.480087,888.247130,-8364.327145,0.000000
163571.480407,1554.432478,-12731.542202,-76.609550
163571.480727,0.000000,-11029.068536,-1838.629195
163571.481047,-1406.391290,-10288.862594,-3294.210641
163571.481367,-814.226536,-10510.924376,-1225.752797
163571.481687,-962.267725,-9992.780217,-1532.190996
163571.482007,-666.185348,-8364.327145,-2681.334243
163571.482327,666.185348,-8808.450710,-689.485948
163571.482647,592.164754,-7624.121203,612.876398
163571.482967,3552.988522,-9992.780217,3370.820191
163571.483287,3478.967927,-8882.471304,1762.019645
163571.483607,0.000000,-5995.668130,612.876398
163571.483927,518.144159,-8882.471304,-459.657299
163571.484247,-888.247130,-11325.150913,-1149.143247
163571.484566,-2072.576638,-11325.150913,-1915.238745
163571.484886,-2738.761985,-9992.780217,-1991.848295
163571.485206,-814.226536,-13027.624579,-76.609550
163571.485526,-1998.556043,-9474.636058,-1225.752797
163571.485846,1110.308913,-8512.368333,0.000000
163571.486166,1332.370696,-7698.141797,1685.410096
163571.486486,0.000000,-7179.997637,1225.752797
163571.486806,0.000000,-7920.203579,1225.752797
163571.487126,-74.020594,-8882.471304,-76.609550
163571.487446,-1184.329507,-7550.100608,0.000000
163571.487766,-3552.988522,-8364.327145,0.000000
163571.488086,-1258.350101,-10658.965565,-1302.362347
163571.488406,-888.247130,-11547.212695,-459.657299
163571.488726,-2516.700203,-10955.047942,-1838.629195
163571.489046,-2146.597232,-9030.512492,-2298.286494
163571.489366,-3182.885551,-9622.677246,-2145.067394
163571.489686,-1184.329507,-8808.450710,-1532.190996
163571.490006,0.000000,-8956.491898,-766.095498
163571.490326,3108.864956,-8882.471304,2374.896044
163571.490646,2294.638420,-7179.997637,1685.410096
163571.490966,1480.411884,-8438.347739,2911.162892
163571.491286,2294.638420,-9474.636058,1762.019645
163571.491606,-1184.329507,-8660.409521,-1072.533697
163571.491926,-1258.350101,-11103.089130,-1149.143247
163571.492246,74.020594,-11917.315666,-536.266849
163571.492565,-1554.432478,-10658.965565,1149.143247
163571.492885,-1628.453072,-9548.656652,-1225.752797
163571.493205,-1702.473667,-10140.821405,-1838.629195
163571.493525,-148.041188,-9474.636058,-76.609550
163571.493845,-1258.350101,-9178.553681,-383.047749
163571.494165,1110.308913,-7179.997637,-1915.238745
163571.494485,4663.297435,-9474.636058,-76.609550
163571.494805,1554.432478,-8956.491898,1608.800546
163571.495124,0.000000,-8660.409521,842.705048
163571.495444,-1406.391290,-9696.697840,-919.314598
163571.495764,-3552.988522,-8364.327145,-2451.505594
163571.496084,-5921.647536,-9696.697840,-4749.792088
163571.496403,-5921.647536,-9548.656652,-4290.134789
163571.496723,0.000000,-9548.656652,-1225.752797
163571.497043,0.000000,-10732.986159,1225.752797
163571.497363,2294.638420,-7105.977043,-689.485948
163571.497682,1702.473667,-9474.636058,842.705048
163571.498002,1184.329507,-7698.141797,1532.190996
163571.498322,3849.070898,-6735.874072,2374.896044
163571.498641,1776.494261,-6587.832884,1225.752797
163571.498961,296.082377,-7476.080014,1225.752797
163571.499281,0.000000,-8364.327145,612.876398
163571.499601,-74.020594,-10658.965565,2374.896044
163571.499920,-962.267725,-10362.883188,-1915.238745
163571.500240,-4737.318029,-8364.327145,-3524.039291
163571.500560,-2738.761985,-7550.100608,-4060.306139
163571.500880,74.020594,-10288.862594,-306.438199
163571.501199,1406.391290,-7624.121203,229.828649
163571.501519,814.226536,-8438.347739,995.924147
163571.501839,-370.102971,-9474.636058,1762.019645
163571.502158,-370.102971,-9474.636058,-76.609550
163571.502478,-1258.350101,-8290.306550,-689.485948
163571.502798,-2590.720797,-7772.162391,-1685.410096
163571.503118,296.082377,-10288.862594,459.657299
163571.503437,592.164754,-8956.491898,0.000000
163571.503757,2294.638420,-8882.471304,-1762.019645
163571.504077,370.102971,-10436.903782,-536.266849
163571.504397,-1702.473667,-9622.677246,-1991.848295
163571.504716,-3552.988522,-10584.944971,-3447.429741
163571.505036,-74.020594,-12879.583391,-383.047749
163571.505356,814.226536,-11029.068536,306.438199
163571.505675,4589.276840,-10362.883188,3294.210641
163571.505995,3182.885551,-7698.141797,1991.848295
163571.506315,222.061783,-9178.553681,2068.457845
163571.506635,-3997.112087,-6291.750507,0.000000
163571.506954,-962.267725,-8586.388927,-229.828649
163571.507274,296.082377,-9326.594869,842.705048
163571.507594,1480.411884,-9918.759623,1149.143247
163571.507914,0.000000,-8290.306550,1072.533697
163571.508233,0.000000,-9548.656652,306.438199
163571.508553,-4441.235652,-8660.409521,-2145.067394
163571.508873,-4441.235652,-8808.450710,-2451.505594
163571.509192,-7105.977043,-7179.997637,-3677.258390
163571.509512,-4737.318029,-9104.533087,-1838.629195
163571.509832,-2960.823768,-5995.668130,-2451.505594
163571.510152,2738.761985,-9474.636058,2911.162892
163571.510471,3701.029710,-7698.141797,3064.381992
163571.510791,518.144159,-8216.285956,919.314598
163571.511111,-370.102971,-9474.636058,-76.609550
163571.511431,-1554.432478,-10658.965565,-1302.362347
163571.511750,-2072.576638,-9696.697840,-1532.190996
163571.512070,0.000000,-9548.656652,0.000000
163571.512390,1406.391290,-12583.501014,-76.609550
163571.512709,0.000000,-9548.656652,0.000000
163571.513029,-2442.679609,-8956.491898,-2451.505594
163571.513349,-2294.638420,-8364.327145,-1608.800546
163571.513669,-1036.288319,-8586.388927,-1532.190996
163571.513988,148.041188,-9030.512492,0.000000
163571.514308,5847.626942,-9474.636058,2987.772442
163571.514628,4515.256246,-8364.327145,3983.696590
163571.514948,4663.297435,-11251.130318,2374.896044
163571.515267,-1184.329507,-8216.285956,0.000000
163571.515587,-4441.235652,-9696.697840,-4903.011187
163571.515907,-3034.844362,-10658.965565,-4979.620737
163571.516226,-2368.659014,-11621.233289,-2681.334243
163571.516546,1184.329507,-9992.780217,536.266849
163571.516866,2442.679609,-9104.533087,766.095498
163571.517186,3182.885551,-9474.636058,3600.648841
163571.517505,0.000000,-7105.977043,842.705048
163571.517825,-2738.761985,-6513.812290,-1915.238745
163571.518145,-4441.235652,-8364.327145,-1991.848295
163571.518464,-74.020594,-11325.150913,1532.190996
163571.518784,4663.297435,-11251.130318,-76.609550
163571.519104,4737.318029,-10362.883188,3830.477490
163571.519424,814.226536,-10140.821405,689.485948
163571.519743,-1332.370696,-8512.368333,-1915.238745
163571.520063,-6365.771101,-9474.636058,-5209.449386
163571.520383,-8142.265362,-9548.656652,-4903.011187
163571.520703,-3256.906145,-9992.780217,-2221.676944
163571.521022,3108.864956,-9474.636058,2451.505594
163571.521342,6439.791695,-8882.471304,4213.525239
163571.521662,2886.803174,-7254.018232,1608.800546
163571.521981,1184.329507,-6587.832884,3064.381992
163571.522301,-1406.391290,-6735.874072,0.000000
163571.522621,-1110.308913,-9770.718434,-919.314598
163571.522941,-1036.288319,-10807.006753,-1378.971896
163571.523260,148.041188,-10140.821405,0.000000
163571.523580,2294.638420,-10658.965565,-76.609550
163571.523900,-518.144159,-11473.192101,306.438199
163571.524220,-1184.329507,-9104.533087,-2374.896044
163571.524539,-5033.400406,-9104.533087,-2145.067394
163571.524859,-3552.988522,-9030.512492,-1378.971896
163571.525179,962.267725,-9474.636058,-76.609550
163571.525498,2368.659014,-7179.997637,1532.190996
163571.525818,3997.112087,-7772.162391,2451.505594
163571.526138,1924.535449,-9474.636058,2604.724693
163571.526458,-1258.350101,-6957.935855,-2528.115143
163571.526777,-3627.009116,-11251.130318,-2528.115143
163571.527097,-4885.359217,-11547.212695,-2987.772442
163571.527417,-2516.700203,-10881.027347,-2757.943793
163571.527737,1036.288319,-10658.965565,0.000000
163571.528056,3404.947333,-11103.089130,3600.648841
163571.528376,814.226536,-8660.409521,459.657299
163571.528696,-2368.659014,-5477.523971,-2221.676944
163571.529015,-4737.318029,-7772.162391,-1838.629195
163571.529335,-1184.329507,-9474.636058,-459.657299
163571.529655,1702.473667,-7698.141797,-995.924147
163571.529975,3923.091493,-8734.430116,3677.258390
163571.530294,2664.741391,-8364.327145,1762.019645
163571.530614,666.185348,-9548.656652,0.000000
163571.530934,-3034.844362,-10658.965565,-1302.362347
163571.531254,-4811.338623,-13027.624579,-1915.238745
163571.531573,-3330.926739,-12509.480420,-1532.190996
163571.531893,-74.020594,-10955.047942,536.266849
163571.532213,3552.988522,-7994.224174,3600.648841
163571.532532,2368.659014,-5995.668130,1225.752797
163571.532852,2294.638420,-7105.977043,536.266849
163571.533172,-2368.659014,-7254.018232,-383.047749
163571.533492,-3330.926739,-8882.471304,-1838.629195
163571.533811,-2664.741391,-9548.656652,-2528.115143
163571.534131,296.082377,-10658.965565,-919.314598
163571.534451,518.144159,-9918.759623,-1532.190996
163571.534771,592.164754,-10140.821405,0.000000
163571.535090,1184.329507,-9992.780217,0.000000
163571.535410,-1480.411884,-10881.027347,-1072.533697
163571.535730,-6291.750507,-8364.327145,-4903.011187
163571.536049,-1258.350101,-9474.636058,-2221.676944
163571.536369,2664.741391,-8808.450710,842.705048
163571.536689,5107.421000,-8438.347739,3294.210641
163571.537009,5033.400406,-8364.327145,4060.306139
163571.537328,2590.720797,-8290.306550,3600.648841
163571.537648,-1850.514855,-8068.244768,-1532.190996
163571.537968,-4441.235652,-9992.780217,-4060.306139
163571.538288,-4737.318029,-10732.986159,-2451.505594
163571.538607,-740.205942,-10214.842000,0.000000
163571.538927,814.226536,-7846.182985,0.000000
163571.539247,3182.885551,-9844.739029,2298.286494
163571.539566,518.144159,-8512.368333,229.828649
163571.539886,-3034.844362,-7698.141797,-1455.581446
163571.540206,-2590.720797,-10658.965565,-383.047749
163571.540526,-1406.391290,-11251.130318,-76.609550
163571.540845,2516.700203,-10881.027347,2681.334243
163571.541165,4663.297435,-8882.471304,2068.457845
163571.541485,2368.659014,-8660.409521,2068.457845
163571.541805,-2960.823768,-7179.997637,0.000000
163571.542124,-4515.256246,-9474.636058,-3524.039291
163571.542444,-4885.359217,-10510.924376,-4979.620737
163571.542764,-2738.761985,-11473.192101,-2528.115143
163571.543083,740.205942,-11029.068536,-383.047749
163571.543403,5551.544565,-11251.130318,2987.772442
163571.543723,0.000000,-7179.997637,612.876398
163571.544043,0.000000,-7328.038826,0.000000
163571.544362,-2516.700203,-9474.636058,0.000000
163571.544682,-3108.864956,-9474.636058,-612.876398
163571.545002,-4737.318029,-7179.997637,0.000000
163571.545321,814.226536,-9178.553681,1455.581446
163571.545641,3256.906145,-9400.615463,2451.505594
163571.545961,3923.091493,-9992.780217,4060.306139
163571.546281,962.267725,-7105.977043,842.705048
163571.546600,-2368.659014,-7550.100608,-76.609550
163571.546920,-5921.647536,-7476.080014,-5209.449386
163571.547240,-2812.782580,-8734.430116,-3753.867940
163571.547560,-296.082377,-11177.109724,1378.971896
163571.547879,1850.514855,-9548.656652,2604.724693
163571.548199,1184.329507,-7772.162391,1225.752797
163571.548519,-740.205942,-7402.059420,306.438199
163571.548838,-3775.050304,-8290.306550,-1072.533697
163571.549158,-3775.050304,-8586.388927,-2451.505594
163571.549478,2294.638420,-11251.130318,-383.047749
163571.549798,1628.453072,-7920.203579,0.000000
163571.550117,1406.391290,-8438.347739,1302.362347
163571.550437,0.000000,-7179.997637,0.000000
163571.550757,-2072.576638,-10140.821405,-2221.676944
163571.551077,-3552.988522,-11917.315666,-2298.286494
163571.551396,-6513.812290,-10140.821405,-4903.011187
163571.551716,-1258.350101,-10732.986159,-1378.971896
163571.552036,3404.947333,-9030.512492,1838.629195
163571.552355,6365.771101,-9252.574275,3447.429741
163571.552675,4663.297435,-7698.141797,1149.143247
163571.552995,-370.102971,-7698.141797,1762.019645
163571.553315,-1850.514855,-8290.306550,-2834.553343
163571.553634,-3923.091493,-8956.491898,-3064.381992
163571.553954,-444.123565,-11029.068536,0.000000
163571.554274,-1628.453072,-8364.327145,0.000000
163571.554594,2886.803174,-9992.780217,1455.581446
163571.554913,1776.494261,-8882.471304,0.000000
163571.555233,-1998.556043,-9400.615463,-689.485948
163571.555553,-2960.823768,-8882.471304,-1608.800546
163571.555872,-2368.659014,-10140.821405,-1532.190996
163571.556192,-2368.659014,-7179.997637,0.000000
163571.556512,2738.761985,-8956.491898,3217.601092
163571.556832,4663.297435,-10066.800811,5439.278036
163571.557151,1998.556043,-4737.318029,689.485948
163571.557471,-74.020594,-9474.636058,-76.609550
163571.557791,-4367.215058,-8438.347739,-3983.696590
163571.558111,-4737.318029,-11177.109724,-3753.867940
163571.558430,-2442.679609,-11695.253884,-2451.505594
163571.558750,296.082377,-10732.986159,612.876398
163571.559070,1998.556043,-10658.965565,306.438199
163571.559389,2294.638420,-8882.471304,919.314598
163571.559709,2886.803174,-10658.965565,-76.609550
163571.560029,-1776.494261,-7179.997637,-1225.752797
163571.560349,-74.020594,-10066.800811,2374.896044
163571.560668,-592.164754,-7698.141797,306.438199
163571.560988,2368.659014,-9178.553681,1608.800546
163571.561308,3923.091493,-9844.739029,2068.457845
163571.561628,1184.329507,-9400.615463,1225.752797
163571.561947,-2886.803174,-9548.656652,-2451.505594
163571.562267,-4441.235652,-9992.780217,-4213.525239
163571.562587,-4885.359217,-11325.150913,-4060.306139
163571.562906,-2664.741391,-11251.130318,-1838.629195
163571.563226,2294.638420,-10658.965565,1149.143247
163571.563546,2812.782580,-8734.430116,2374.896044
163571.563866,1184.329507,-7328.038826,3064.381992
163571.564185,-74.020594,-6809.894666,2374.896044
163571.564505,-1258.350101,-7105.977043,-2528.115143
163571.564825,-4145.153275,-7772.162391,0.000000
163571.565145,-1850.514855,-9622.677246,-2068.457845
163571.565464,-962.267725,-11769.274478,1302.362347
163571.565784,814.226536,-10510.924376,0.000000
163571.566104,370.102971,-9474.636058,-995.924147
163571.566423,-1036.288319,-9474.636058,-689.485948
163571.566743,-1998.556043,-10510.924376,-1608.800546
163571.567063,-1776.494261,-7328.038826,-3907.087040
163571.567383,0.000000,-7772.162391,306.438199
163571.567702,3923.091493,-9252.574275,2911.162892
163571.568022,1184.329507,-4811.338623,2451.505594
163571.568342,2146.597232,-6809.894666,842.705048
163571.568662,-2590.720797,-8364.327145,-536.266849
163571.568981,-4219.173869,-9326.594869,-2451.505594
163571.569301,-3034.844362,-10658.965565,-1915.238745
163571.569621,-74.020594,-10658.965565,-76.609550
163571.569940,1702.473667,-11843.295072,2374.896044
163571.570260,2886.803174,-10658.965565,995.924147
163571.570580,592.164754,-7402.059420,689.485948
163571.570900,0.000000,-7772.162391,919.314598
163571.571219,-4737.318029,-7772.162391,-2451.505594
163571.571539,-3182.885551,-8808.450710,-2221.676944
163571.571859,-2738.761985,-9770.718434,-459.657299
163571.572178,-666.185348,-10362.883188,76.609550
163571.572498,2886.803174,-11251.130318,1455.581446
163571.572818,1184.329507,-8660.409521,1225.752797
163571.573138,-74.020594,-10510.924376,-76.609550
163571.573457,-1406.391290,-9992.780217,-2528.115143
163571.573777,-3034.844362,-9474.636058,-4213.525239
163571.574097,-2368.659014,-9548.656652,0.000000
163571.574417,0.000000,-9548.656652,-995.924147
163571.574736,2220.617826,-9252.574275,842.705048
163571.575056,2220.617826,-8364.327145,1762.019645
163571.575376,148.041188,-8068.244768,76.609550
163571.575695,666.185348,-8290.306550,459.657299
163571.576015,0.000000,-8068.244768,0.000000
163571.576335,888.247130,-8364.327145,0.000000
163571.576655,0.000000,-8660.409521,1225.752797
163571.576974,1036.288319,-9844.739029,1149.143247
163571.577294,-3256.906145,-8364.327145,0.000000
163571.577614,-2146.597232,-10066.800811,-766.095498
163571.577934,-1702.473667,-9030.512492,-842.705048
163571.578253,-1702.473667,-8586.388927,0.000000
163571.578573,74.020594,-6883.915261,-689.485948
163571.578893,2886.803174,-7698.141797,536.266849
163571.579212,1702.473667,-5921.647536,1149.143247
163571.579532,0.000000,-6587.832884,0.000000
163571.579852,-962.267725,-10658.965565,-689.485948
163571.580172,-1036.288319,-11473.192101,-76.609550
163571.580491,-2960.823768,-8660.409521,-3064.381992
163571.580811,-962.267725,-11251.130318,-1532.190996
163571.581131,-370.102971,-10362.883188,-612.876398
163571.581451,0.000000,-8660.409521,-1225.752797
163571.581770,1702.473667,-9474.636058,-1302.362347
163571.582090,-74.020594,-10436.903782,-153.219100
163571.582410,1110.308913,-11251.130318,-995.924147
163571.582729,-740.205942,-8364.327145,229.828649
163571.583049,0.000000,-7179.997637,0.000000
163571.583369,1480.411884,-9548.656652,3294.210641
163571.583689,444.123565,-8364.327145,76.609550
163571.584008,0.000000,-9548.656652,-229.828649
163571.584328,-2146.597232,-10140.821405,-919.314598
163571.584648,-2664.741391,-9696.697840,-2451.505594
163571.584968,-1258.350101,-9992.780217,-2068.457845
163571.585287,0.000000,-10140.821405,76.609550
163571.585607,1332.370696,-8660.409521,612.876398
163571.585927,1628.453072,-9474.636058,2528.115143
163571.586246,-74.020594,-9474.636058,-76.609550
163571.586566,-2368.659014,-9548.656652,0.000000
163571.586886,-1258.350101,-8512.368333,-76.609550
163571.587206,-1184.329507,-7920.203579,536.266849
163571.587525,-370.102971,-9474.636058,766.095498
163571.587845,-1110.308913,-6365.771101,-3600.648841
163571.588165,-1998.556043,-7846.182985,-3217.601092
163571.588485,-4145.153275,-9548.656652,-4826.401637
163571.588804,-4737.318029,-9844.739029,-2451.505594
163571.589124,-74.020594,-12361.439231,-766.095498
163571.589444,2294.638420,-11843.295072,2374.896044
163571.589763,296.082377,-9548.656652,1838.629195
163571.590083,1998.556043,-7772.162391,1072.533697
163571.590403,814.226536,-8660.409521,689.485948
163571.590723,1184.329507,-8882.471304,-306.438199
163571.591042,-74.020594,-7846.182985,-689.485948
163571.591362,1110.308913,-12435.459826,2374.896044
163571.591682,148.041188,-9030.512492,-995.924147
163571.592002,0.000000,-9992.780217,0.000000
163571.592321,0.000000,-8364.327145,0.000000
163571.592641,-3552.988522,-7179.997637,-2451.505594
163571.592961,-2072.576638,-9622.677246,-1685.410096
163571.593280,-2516.700203,-9770.718434,-919.314598
163571.593600,-222.061783,-10436.903782,536.266849
163571.593920,2294.638420,-8290.306550,-76.609550
163571.594240,222.061783,-9844.739029,2528.115143
163571.594559,0.000000,-5995.668130,766.095498
163571.594879,-74.020594,-7624.121203,1532.190996
163571.595199,2294.638420,-9178.553681,-689.485948
163571.595519,-2960.823768,-5995.668130,-4290.134789
163571.595838,-666.185348,-9474.636058,-995.924147
163571.596158,-2368.659014,-10658.965565,-1225.752797
163571.596478,-2812.782580,-10807.006753,-1991.848295
163571.596801,-3478.967927,-9104.533087,-3064.381992
163571.597120,0.000000,-11917.315666,1072.533697
163571.597440,0.000000,-9030.512492,0.000000
163571.597760,2072.576638,-8660.409521,766.095498
163571.598080,814.226536,-8364.327145,153.219100
163571.598399,222.061783,-8364.327145,-689.485948
163571.598719,-518.144159,-7105.977043,0.000000
163571.599039,2294.638420,-9474.636058,1762.019645
163571.599358,518.144159,-9548.656652,0.000000
163571.599678,-888.247130,-9844.739029,-2451.505594
163571.599998,-74.020594,-11843.295072,-76.609550
163571.600318,814.226536,-10510.924376,-76.609550
163571.600637,-74.020594,-12435.459826,1149.143247
163571.600957,1036.288319,-9992.780217,153.219100
163571.601277,1110.308913,-9474.636058,229.828649
163571.601597,-2368.659014,-8660.409521,-1455.581446
163571.601916,-1776.494261,-9548.656652,229.828649
163571.602236,-1036.288319,-8068.244768,-1685.410096
163571.602556,0.000000,-9400.615463,1225.752797
163571.602875,-74.020594,-11843.295072,-76.609550
163571.603195,-1258.350101,-8882.471304,-76.609550
163571.603515,-740.205942,-9992.780217,-689.485948
163571.603835,-592.164754,-8660.409521,-995.924147
163571.604154,370.102971,-9474.636058,-1915.238745
163571.604474,0.000000,-9548.656652,-383.047749
163571.604794,592.164754,-9548.656652,306.438199
163571.605114,-592.164754,-9844.739029,306.438199
163571.605433,-74.020594,-11251.130318,-76.609550
163571.605753,-2442.679609,-8142.265362,-1608.800546
163571.606073,-2220.617826,-7920.203579,-2068.457845
163571.606392,-74.020594,-8882.471304,-76.609550
163571.606712,962.267725,-9548.656652,383.047749
163571.607032,1850.514855,-9696.697840,1608.800546
163571.607352,1406.391290,-9992.780217,842.705048
163571.607671,444.123565,-10140.821405,1685.410096
163571.607991,-1184.329507,-9548.656652,1225.752797
163571.608311,-2368.659014,-7772.162391,0.000000
163571.608630,1628.453072,-10658.965565,1608.800546
163571.608950,1110.308913,-9474.636058,2374.896044
163571.609270,-962.267725,-9030.512492,-1455.581446
163571.609590,-74.020594,-11251.130318,-76.609550
163571.609909,-2146.597232,-8956.491898,-1302.362347
163571.610229,-2664.741391,-9178.553681,-995.924147
163571.610549,-1924.535449,-8734.430116,-1378.971896
163571.610869,-2368.659014,-7179.997637,0.000000
163571.611188,1110.308913,-8734.430116,536.266849
163571.611508,1184.329507,-7179.997637,0.000000
163571.611828,-592.164754,-8364.327145,0.000000
163571.612147,-2368.659014,-8364.327145,-1225.752797
163571.612467,-2442.679609,-8290.306550,-2834.553343
163571.612787,-1332.370696,-11103.089130,-1608.800546
163571.613107,1184.329507,-9622.677246,-536.266849
163571.613426,1702.473667,-9474.636058,536.266849
163571.613746,2516.700203,-9326.594869,842.705048
163571.614066,2220.617826,-10584.944971,1455.581446
163571.614386,814.226536,-9474.636058,-383.047749
163571.614705,-74.020594,-10658.965565,-76.609550
163571.615025,-2368.659014,-7179.997637,-2145.067394
163571.615345,2738.761985,-9178.553681,612.876398
163571.615664,5847.626942,-9474.636058,1608.800546
163571.615984,3997.112087,-10732.986159,2528.115143
163571.616304,148.041188,-8882.471304,1532.190996
163571.616624,-2368.659014,-8512.368333,-995.924147
163571.616943,-3330.926739,-9548.656652,-76.609550
163571.617263,-3552.988522,-9548.656652,-3294.210641
163571.617583,-2812.782580,-9548.656652,0.000000
163571.617903,-666.185348,-9178.553681,-1608.800546
163571.618222,-1258.350101,-10140.821405,-1072.533697
163571.618542,-2960.823768,-8364.327145,-2451.505594
163571.618862,-1258.350101,-9474.636058,-995.924147
163571.619181,-2220.617826,-9104.533087,-306.438199
163571.619501,370.102971,-8216.285956,-306.438199
163571.619821,2738.761985,-8142.265362,536.266849
163571.620141,1776.494261,-8364.327145,2451.505594
163571.620460,-1110.308913,-7772.162391,0.000000
163571.620780,-2368.659014,-9548.656652,0.000000
163571.621100,-2590.720797,-10436.903782,-1225.752797
163571.621420,-1850.514855,-11843.295072,-383.047749
163571.621739,-2738.761985,-8364.327145,-4213.525239
163571.622059,1998.556043,-9474.636058,919.314598
163571.622379,3701.029710,-8216.285956,2451.505594
163571.622698,2516.700203,-8660.409521,2451.505594
163571.623018,666.185348,-8290.306550,-76.609550
163571.623338,-2886.803174,-9474.636058,-76.609550
163571.623658,-1258.350101,-9770.718434,-1302.362347
163571.623977,0.000000,-9178.553681,-842.705048
163571.624297,0.000000,-9548.656652,2451.505594
163571.624617,1184.329507,-7772.162391,0.000000
163571.624937,-74.020594,-9474.636058,-995.924147
163571.625256,740.205942,-10955.047942,-76.609550
163571.625576,-3478.967927,-10584.944971,-1685.410096
163571.625896,-4515.256246,-10510.924376,-3983.696590
163571.626215,-74.020594,-12879.583391,-76.609550
163571.626535,1924.535449,-9548.656652,229.828649
163571.626855,4071.132681,-11251.130318,3600.648841
163571.627175,222.061783,-7920.203579,-919.314598
163571.627494,-2812.782580,-7624.121203,-1685.410096
163571.627814,-6513.812290,-7179.997637,-3677.258390
163571.628134,-3627.009116,-9474.636058,-2834.553343
163571.628453,444.123565,-9770.718434,-536.266849
163571.628773,3775.050304,-9326.594869,1915.238745
163571.629093,3775.050304,-9548.656652,1762.019645
163571.629413,1998.556043,-11399.171507,1532.190996
163571.629732,-4737.318029,-7772.162391,-3677.258390
163571.630052,-4737.318029,-10436.903782,-1991.848295
163571.630372,-2146.597232,-9474.636058,-1149.143247
163571.630692,2738.761985,-9548.656652,1225.752797
163571.631011,7031.956449,-8290.306550,2374.896044
163571.631331,5181.441594,-7920.203579,3677.258390
163571.631651,3552.988522,-8142.265362,2451.505594
163571.631970,-666.185348,-7624.121203,229.828649
163571.632290,-2368.659014,-9548.656652,-612.876398
163571.632610,-3034.844362,-11399.171507,-1838.629195
163571.632930,-666.185348,-10658.965565,-1149.143247
163571.633249,888.247130,-10658.965565,-76.609550
163571.633569,370.102971,-8956.491898,0.000000
163571.633889,814.226536,-11251.130318,-76.609550
163571.634209,-3552.988522,-8364.327145,-1838.629195
163571.634528,-3330.926739,-8586.388927,-2221.676944
163571.634848,-2516.700203,-9400.615463,-2145.067394
163571.635168,1110.308913,-9770.718434,0.000000
163571.635487,1776.494261,-5995.668130,0.000000
163571.635807,3923.091493,-9622.677246,1455.581446
163571.636127,592.164754,-10214.842000,-76.609550
163571.636447,-2812.782580,-10807.006753,-2987.772442
163571.636766,-4959.379811,-12435.459826,-2528.115143
163571.637086,-1850.514855,-13027.624579,-2528.115143
163571.637406,1184.329507,-10807.006753,1225.752797
163571.637726,5255.462188,-10066.800811,2681.334243
163571.638045,4071.132681,-9474.636058,2374.896044
163571.638365,1184.329507,-7179.997637,1225.752797
163571.638685,-666.185348,-7105.977043,-383.047749
163571.639004,-2738.761985,-7994.224174,-919.314598
163571.639324,-2294.638420,-9474.636058,-459.657299
163571.639644,666.185348,-9326.594869,306.438199
163571.639964,3552.988522,-9178.553681,2374.896044
163571.640283,3182.885551,-10362.883188,1455.581446
163571.640603,-888.247130,-8364.327145,612.876398
163571.640923,-4145.153275,-8956.491898,-1225.752797
163571.641243,-4811.338623,-9474.636058,-3753.867940
163571.641562,-7105.977043,-5995.668130,-6128.763984
163571.641882,-2442.679609,-9178.553681,-536.266849
163571.642202,1628.453072,-9252.574275,1149.143247
163571.642521,1998.556043,-9178.553681,2451.505594
163571.642841,222.061783,-8734.430116,1532.190996
163571.643161,-666.185348,-8882.471304,-76.609550
163571.643481,-3404.947333,-7920.203579,-2834.553343
163571.643800,-1258.350101,-7550.100608,-2834.553343
163571.644120,592.164754,-8660.409521,0.000000
163571.644440,2886.803174,-10584.944971,2757.943793
163571.644759,0.000000,-7179.997637,0.000000
163571.645079,-74.020594,-9474.636058,-612.876398
163571.645399,-2886.803174,-9770.718434,-2451.505594
163571.645719,-3034.844362,-10066.800811,-1838.629195
163571.646038,1110.308913,-10658.965565,-76.609550
163571.646358,4663.297435,-9474.636058,2451.505594
163571.646678,6217.729913,-10066.800811,4826.401637
163571.646998,4367.215058,-8290.306550,2374.896044
163571.647317,740.205942,-9474.636058,-76.609550
163571.647637,-4441.235652,-7772.162391,-1225.752797
163571.647957,-5699.585753,-10140.821405,-4673.182538
163571.648276,-2960.823768,-11621.233289,-2221.676944
163571.648596,-444.123565,-10510.924376,0.000000
163571.648916,2664.741391,-9104.533087,1532.190996
163571.649236,2738.761985,-9178.553681,1149.143247
163571.649555,0.000000,-8660.409521,612.876398
163571.649875,-666.185348,-9474.636058,-1455.581446
163571.650195,-3627.009116,-13027.624579,-2528.115143
163571.650515,-4071.132681,-8956.491898,-3677.258390
163571.650834,0.000000,-9548.656652,0.000000
163571.651154,3478.967927,-9474.636058,842.705048
163571.651474,1850.514855,-9918.759623,306.438199
163571.651793,-1554.432478,-9252.574275,-1608.800546
163571.652113,-4145.153275,-7179.997637,-4290.134789
163571.652433,-2738.761985,-9548.656652,-2528.115143
163571.652753,0.000000,-8956.491898,-383.047749
163571.653072,2294.638420,-7254.018232,536.266849
163571.653392,4737.318029,-8660.409521,3830.477490
163571.653712,5847.626942,-8882.471304,4213.525239
163571.654032,-2960.823768,-7179.997637,0.000000
163571.654351,-3330.926739,-9400.615463,-2221.676944
163571.654671,-3997.112087,-11029.068536,-2221.676944
163571.654991,-296.082377,-10288.862594,-153.219100
163571.655310,2886.803174,-9178.553681,-76.609550
163571.655630,4367.215058,-9474.636058,3064.381992
163571.655950,4663.297435,-8882.471304,1762.019645
163571.656270,-2072.576638,-7179.997637,-1608.800546
163571.656589,-4589.276840,-8364.327145,-4290.134789
163571.656909,-3256.906145,-10436.903782,-76.609550
163571.657229,-2664.741391,-8364.327145,-2068.457845
163571.657549,2146.597232,-9474.636058,1762.019645
163571.657868,2812.782580,-9992.780217,1915.238745
163571.658188,222.061783,-9252.574275,1225.752797
163571.658508,-666.185348,-9474.636058,-1455.581446
163571.658827,-4737.318029,-9548.656652,-3370.820191
163571.659147,-2738.761985,-11103.089130,-2298.286494
163571.659467,-1258.350101,-11251.130318,-1915.238745
163571.659787,370.102971,-9548.656652,459.657299
163571.660106,2368.659014,-9548.656652,2757.943793
163571.660426,1924.535449,-9252.574275,689.485948
163571.660746,-1036.288319,-9178.553681,-1455.581446
163571.661066,-3849.070898,-9696.697840,-2681.334243
163571.661385,-4737.318029,-8956.491898,-2604.724693
163571.661705,814.226536,-8734.430116,0.000000
163571.662025,2960.823768,-9548.656652,2451.505594
163571.662344,3552.988522,-9548.656652,4903.011187
163571.662664,3330.926739,-9474.636058,2374.896044
163571.662984,-74.020594,-11843.295072,-76.609550
163571.663304,-4737.318029,-9548.656652,-3370.820191
163571.663623,-3552.988522,-10362.883188,-2528.115143
163571.663943,-1258.350101,-10214.842000,-919.314598
163571.664263,2368.659014,-10510.924376,2374.896044
163571.664582,3182.885551,-7772.162391,0.000000
163571.664902,1184.329507,-6439.791695,689.485948
163571.665222,-1850.514855,-7105.977043,-2528.115143
163571.665542,-4737.318029,-7179.997637,-3983.696590
163571.665861,-2368.659014,-10288.862594,-612.876398
163571.666181,-2368.659014,-8364.327145,0.000000
163571.666501,1850.514855,-10362.883188,153.219100
163571.666821,1332.370696,-9622.677246,459.657299
163571.667140,0.000000,-10362.883188,-459.657299
163571.667460,-1406.391290,-8290.306550,-1608.800546
163571.667780,-1480.411884,-9252.574275,-2451.505594
163571.668099,0.000000,-7179.997637,-2451.505594
163571.668419,1776.494261,-10140.821405,1149.143247
163571.668739,4663.297435,-10658.965565,3600.648841
163571.669059,1406.391290,-7476.080014,0.000000
163571.669378,2886.803174,-8290.306550,-76.609550
163571.669698,-1332.370696,-9548.656652,0.000000
163571.670018,-3404.947333,-10436.903782,-1302.362347
163571.670338,-2368.659014,-9622.677246,-1149.143247
163571.670657,-1184.329507,-11621.233289,1455.581446
163571.670977,1776.494261,-11325.150913,842.705048
163571.671297,2294.638420,-9178.553681,1455.581446
163571.671616,-74.020594,-9474.636058,-76.609550
163571.671936,-4145.153275,-8438.347739,-3447.429741
163571.672256,-3108.864956,-11843.295072,-1302.362347
163571.672576,-2294.638420,-9548.656652,-919.314598
163571.672895,0.000000,-9326.594869,612.876398
163571.673215,1110.308913,-9104.533087,1685.410096
163571.673535,2664.741391,-8734.430116,3370.820191
163571.673855,0.000000,-5403.503377,0.000000
163571.674174,-370.102971,-9178.553681,-1302.362347
163571.674494,-3997.112087,-10881.027347,-3140.991542
163571.674814,-3849.070898,-10658.965565,-2834.553343
163571.675133,-370.102971,-11695.253884,-2528.115143
163571.675453,1110.308913,-10658.965565,-229.828649
163571.675773,2738.761985,-10066.800811,1762.019645
163571.676093,-74.020594,-7994.224174,1149.143247
163571.676412,-74.020594,-7698.141797,-1915.238745
163571.676732,-2960.823768,-7772.162391,612.876398
163571.677052,-962.267725,-7328.038826,0.000000
163571.677372,2516.700203,-8660.409521,2834.553343
163571.677691,2812.782580,-8438.347739,3140.991542
163571.678011,2220.617826,-7476.080014,1762.019645
163571.678331,-814.226536,-9622.677246,-995.924147
163571.678650,-1850.514855,-9770.718434,-2374.896044
163571.678970,-3478.967927,-10362.883188,-4903.011187
163571.679290,-2960.823768,-11917.315666,-306.438199
163571.679610,518.144159,-10584.944971,-76.609550
163571.679929,0.000000,-9548.656652,1225.752797
163571.680249,1702.473667,-8808.450710,459.657299
163571.680569,-962.267725,-8438.347739,-689.485948
163571.680888,-4219.173869,-9474.636058,-1532.190996
163571.681208,-5033.400406,-9548.656652,-2987.772442
163571.681528,-3330.926739,-11473.192101,-2528.115143
163571.681848,-1184.329507,-11251.130318,-76.609550
163571.682167,-1776.494261,-8660.409521,1225.752797
163571.682487,-592.164754,-8068.244768,2298.286494
163571.682807,-1258.350101,-9474.636058,-76.609550
163571.683127,-8882.471304,-7772.162391,-3677.258390
163571.683446,-5403.503377,-10066.800811,-2528.115143
163571.683766,-5477.523971,-10436.903782,-1915.238745
163571.684086,-4663.297435,-10362.883188,-229.828649
163571.684405,-2442.679609,-9474.636058,-76.609550
163571.684725,-1850.514855,-8808.450710,1838.629195
163571.685045,-2738.761985,-8290.306550,-689.485948
163571.685365,-7179.997637,-8216.285956,-2374.896044
163571.685684,-7179.997637,-9474.636058,-2528.115143
163571.686004,-4441.235652,-10140.821405,4596.572988
163571.686324,-4441.235652,-7179.997637,612.876398
163571.686644,-2886.803174,-7846.182985,2604.724693
163571.686963,-2146.597232,-6957.935855,2145.067394
163571.687283,-2738.761985,-7031.956449,1991.848295
163571.687603,-4811.338623,-8216.285956,-3064.381992
163571.687922,-10510.924376,-10140.821405,-2757.943793
163571.688242,-8956.491898,-11917.315666,-3677.258390
163571.688562,-5995.668130,-13027.624579,-995.924147
163571.688882,-5995.668130,-11103.089130,-1608.800546
163571.689201,-7698.141797,-10732.986159,1225.752797
163571.689521,-2812.782580,-7994.224174,459.657299
163571.689841,-1776.494261,-5403.503377,689.485948
163571.690161,-2368.659014,-7476.080014,-76.609550
163571.690480,-6365.771101,-4959.379811,-2068.457845
163571.690800,-4219.173869,-8734.430116,-995.924147
163571.691120,-3849.070898,-8364.327145,-1302.362347
163571.691439,-5921.647536,-9696.697840,-2145.067394
163571.691759,-5995.668130,-11103.089130,-383.047749
163571.692079,-2442.679609,-13027.624579,-76.609550
163571.692399,-4145.153275,-8956.491898,0.000000
163571.692718,-2516.700203,-9474.636058,-1302.362347
163571.693038,-1628.453072,-8956.491898,536.266849
163571.693358,1036.288319,-9326.594869,1762.019645
163571.693678,3478.967927,-6365.771101,1762.019645
163571.693997,1924.535449,-8734.430116,4596.572988
163571.694317,-1258.350101,-7105.977043,-76.609550
163571.694637,-4737.318029,-7772.162391,-1608.800546
163571.694956,-2442.679609,-8734.430116,-1685.410096
163571.695276,-2442.679609,-11843.295072,-153.219100
163571.695596,-6513.812290,-11029.068536,-1915.238745
163571.695916,-5921.647536,-9548.656652,-3294.210641
163571.696235,-3849.070898,-11325.150913,-2298.286494
163571.696555,-3256.906145,-9844.739029,-2451.505594
163571.696875,-3923.091493,-9104.533087,-1225.752797
163571.697195,-3552.988522,-9030.512492,229.828649
163571.697515,666.185348,-8290.306550,-76.609550
163571.697834,4663.297435,-9474.636058,2987.772442
163571.698154,2368.659014,-5921.647536,1455.581446
163571.698474,2516.700203,-10658.965565,3294.210641
163571.698794,-2442.679609,-8586.388927,-3447.429741
163571.699114,-3923.091493,-11991.336260,-3447.429741
163571.699433,-4737.318029,-13545.768739,-2987.772442
163571.699753,-5921.647536,-10732.986159,-2451.505594
163571.700073,-5181.441594,-11917.315666,-1838.629195
163571.700393,-3997.112087,-8364.327145,0.000000
163571.700712,-2220.617826,-7920.203579,2911.162892
163571.701032,1702.473667,-5921.647536,4826.401637
163571.701352,4663.297435,-4737.318029,4826.401637
163571.701672,592.164754,-5181.441594,5056.230287
163571.701992,-3701.029710,-4885.359217,-459.657299
163571.702311,-5773.606348,-9696.697840,-1302.362347
163571.702631,-5477.523971,-11621.233289,-2681.334243
163571.702951,-8882.471304,-10140.821405,-4903.011187
163571.703271,-9992.780217,-13027.624579,-4979.620737
163571.703591,-11621.233289,-11473.192101,-5822.325785
163571.703910,-8290.306550,-10732.986159,-4290.134789
163571.704230,-4441.235652,-9548.656652,612.876398
163571.704550,0.000000,-7179.997637,3983.696590
163571.704870,296.082377,-4885.359217,4443.353888
163571.705189,740.205942,-3552.988522,3217.601092
163571.705509,-1184.329507,-4737.318029,919.314598
163571.705829,-5107.421000,-7179.997637,-1838.629195
163571.706149,-4663.297435,-10140.821405,-1532.190996
163571.706469,-5921.647536,-14285.974681,0.000000
163571.706788,-5995.668130,-13915.871710,-459.657299
163571.707108,-5995.668130,-14211.954086,-1915.238745
163571.707428,-8882.471304,-10140.821405,-3370.820191
163571.707748,-5255.462188,-8364.327145,-2834.553343
163571.708068,-3034.844362,-7772.162391,153.219100
163571.708387,-1702.473667,-6291.750507,1762.019645
163571.708707,0.000000,-5625.565159,2451.505594
163571.709027,-74.020594,-8290.306550,4213.525239
163571.709347,-2368.659014,-6513.812290,459.657299
163571.709666,-4663.297435,-8734.430116,-1915.238745
163571.709986,-5477.523971,-11843.295072,-1991.848295
163571.710306,-4737.318029,-12805.562797,-1532.190996
163571.710626,-5921.647536,-11917.315666,0.000000
163571.710946,-6809.894666,-10140.821405,0.000000
163571.711265,-3256.906145,-10066.800811,-306.438199
163571.711585,-4219.173869,-9178.553681,-1685.410096
163571.711905,-4515.256246,-7105.977043,-2528.115143
163571.712225,-1258.350101,-9474.636058,-76.609550
163571.712545,-2516.700203,-6587.832884,1225.752797
163571.712864,-1110.308913,-7105.977043,1378.971896
163571.713184,-740.205942,-8290.306550,995.924147
163571.713504,-3552.988522,-7476.080014,0.000000
163571.713824,-3330.926739,-8290.306550,-2374.896044
163571.714143,-5329.482782,-10732.986159,-4290.134789
163571.714463,-3552.988522,-13101.645173,-4903.011187
163571.714783,-3552.988522,-12657.521608,766.095498
163571.715103,-1258.350101,-11843.295072,1149.143247
163571.715423,-296.082377,-10658.965565,2374.896044
163571.715742,296.082377,-7402.059420,2451.505594
163571.716062,444.123565,-5107.421000,1762.019645
163571.716382,-888.247130,-4959.379811,76.609550
163571.716702,-2960.823768,-7476.080014,-612.876398
163571.717022,-3552.988522,-9104.533087,-612.876398
163571.717341,-2442.679609,-12435.459826,-76.609550
163571.717661,-4811.338623,-10807.006753,-2221.676944
163571.717981,-5625.565159,-10881.027347,-1532.190996
163571.718301,-1258.350101,-11843.295072,-76.609550
163571.718620,-1480.411884,-8956.491898,1838.629195
163571.718940,-2220.617826,-7031.956449,1455.581446
163571.719260,-3849.070898,-5699.585753,-1149.143247
163571.719580,-3404.947333,-7772.162391,-153.219100
163571.719900,-3552.988522,-9548.656652,612.876398
163571.720219,-4737.318029,-9548.656652,612.876398
163571.720539,-4811.338623,-11251.130318,-383.047749
163571.720859,-6809.894666,-9178.553681,-3140.991542
163571.721179,-5699.585753,-10140.821405,-4673.182538
163571.721499,-74.020594,-13027.624579,-76.609550
163571.721818,-2072.576638,-9548.656652,1455.581446
163571.722138,-2072.576638,-7179.997637,1455.581446
163571.722458,-3034.844362,-5773.606348,-2451.505594
163571.722778,-5921.647536,-7772.162391,-3370.820191
163571.723097,-3330.926739,-11103.089130,-1302.362347
163571.723417,-4737.318029,-10140.821405,1225.752797
163571.723737,-5625.565159,-9548.656652,0.000000
163571.724057,-6809.894666,-8364.327145,306.438199
163571.724377,-5403.503377,-6809.894666,-2221.676944
163571.724696,-1924.535449,-9474.636058,1149.143247
163571.725016,740.205942,-9474.636058,3524.039291
163571.725336,148.041188,-8438.347739,4213.525239
163571.725656,-2738.761985,-7550.100608,2145.067394
163571.725976,-5255.462188,-7846.182985,-1302.362347
163571.726295,-4219.173869,-7105.977043,-4443.353888
163571.726615,-4145.153275,-9474.636058,-3140.991542
163571.726935,-4737.318029,-10140.821405,-4213.525239
163571.727255,-6217.729913,-11917.315666,-3677.258390
163571.727574,-5995.668130,-12731.542202,-2221.676944
163571.727894,-6439.791695,-11769.274478,0.000000
163571.728214,-4145.153275,-10214.842000,1072.533697
163571.728534,-1480.411884,-6809.894666,1838.629195
163571.728854,740.205942,-5847.626942,4519.963438
163571.729173,296.082377,-5551.544565,3370.820191
163571.729493,0.000000,-7179.997637,2911.162892
163571.729813,-74.020594,-9474.636058,-76.609550
163571.730133,-3182.885551,-10584.944971,-1608.800546
163571.730453,-6217.729913,-10732.986159,-4903.011187
163571.730772,-4811.338623,-13915.871710,-3753.867940
163571.731092,-7105.977043,-12065.356855,-4136.915689
163571.731412,-5403.503377,-11103.089130,-3524.039291
163571.731732,-2220.617826,-9030.512492,-1762.019645
163571.732051,1184.329507,-8364.327145,1225.752797
163571.732371,0.000000,-5403.503377,0.000000
163571.732691,-1184.329507,-7476.080014,2451.505594
163571.733011,-444.123565,-10436.903782,4290.134789
163571.733331,-74.020594,-11843.295072,3600.648841
163571.733650,-2590.720797,-7772.162391,1225.752797
163571.733970,-1332.370696,-9178.553681,4366.744339
163571.734290,-2738.761985,-7550.100608,1455.581446
163571.734610,-4811.338623,-6809.894666,-1991.848295
163571.734930,-6587.832884,-8290.306550,-4979.620737
163571.735249,-9474.636058,-9474.636058,-5745.716235
163571.735569,-9844.739029,-8734.430116,-8197.221829
163571.735889,-9104.533087,-10658.965565,-6205.373534
163571.736209,-6809.894666,-10732.986159,-2451.505594
163571.736528,-2368.659014,-10140.821405,612.876398
163571.736848,0.000000,-8142.265362,2374.896044
163571.737168,2664.741391,-8956.491898,5592.497135
163571.737488,2368.659014,-8068.244768,5132.839837
163571.737808,1480.411884,-8142.265362,4366.744339
163571.738127,1110.308913,-10658.965565,4213.525239
163571.738447,-2590.720797,-10584.944971,689.485948
163571.738767,-5033.400406,-12731.542202,-76.609550
163571.739087,-8956.491898,-10362.883188,-4979.620737
163571.739407,-10066.800811,-10140.821405,-5822.325785
163571.739726,-9474.636058,-7772.162391,-4903.011187
163571.740046,-4219.173869,-9474.636058,-995.924147
163571.740366,-1332.370696,-8586.388927,2757.943793
163571.740686,1036.288319,-7550.100608,4903.011187
163571.741005,1332.370696,-7179.997637,5362.668486
163571.741325,3330.926739,-8290.306550,5898.935335
163571.741645,-2368.659014,-6291.750507,3677.258390
163571.741965,-1258.350101,-9474.636058,2987.772442
163571.742285,-2442.679609,-10362.883188,1762.019645
163571.742604,-666.185348,-12435.459826,0.000000
163571.742924,-74.020594,-11251.130318,-383.047749
163571.743244,0.000000,-10732.986159,383.047749
163571.743564,1036.288319,-10288.862594,383.047749
163571.743884,1110.308913,-9474.636058,995.924147
163571.744203,3701.029710,-9252.574275,4290.134789
163571.744523,3404.947333,-8734.430116,3294.210641
163571.744843,4663.297435,-8734.430116,4826.401637
163571.745163,2960.823768,-6587.832884,3677.258390
163571.745482,2368.659014,-8364.327145,7354.516781
163571.745802,4663.297435,-11251.130318,8503.660028
163571.746122,296.082377,-9548.656652,4903.011187
163571.746442,-1554.432478,-10140.821405,2528.115143
163571.746762,-2664.741391,-10436.903782,2068.457845
163571.747081,-1776.494261,-10807.006753,2221.676944
163571.747401,-2368.659014,-9548.656652,1225.752797
163571.747721,1702.473667,-10955.047942,6588.421283
163571.748041,2516.700203,-8512.368333,7584.345430
163571.748361,3330.926739,-6439.791695,7507.735880
163571.748680,3478.967927,-5921.647536,6665.030833
163571.749000,3182.885551,-5921.647536,4826.401637
163571.749320,2516.700203,-9474.636058,6052.154434
163571.749640,-74.020594,-10066.800811,3600.648841
163571.749959,-2072.576638,-12509.480420,2451.505594
163571.750279,-2368.659014,-15470.304188,6741.640382
163571.750599,-3627.009116,-13693.809927,5898.935335
163571.750919,-2812.782580,-12583.501014,8273.831378
163571.751239,-2886.803174,-8142.265362,7584.345430
163571.751558,-1702.473667,-4219.173869,6358.592633
163571.751878,296.082377,-1406.391290,4826.401637
163571.752198,740.205942,-2960.823768,4213.525239
163571.752518,0.000000,-6587.832884,5515.887586
163571.752838,-2368.659014,-7772.162391,5515.887586
163571.753157,-1480.411884,-12213.398043,6741.640382
163571.753477,-4737.318029,-10140.821405,4903.011187
163571.753797,-3923.091493,-11473.192101,3524.039291
163571.754117,-4219.173869,-10732.986159,4290.134789
163571.754436,-2072.576638,-8956.491898,3600.648841
163571.754756,0.000000,-8808.450710,4903.011187
163571.755076,3478.967927,-10955.047942,6665.030833
163571.755396,1554.432478,-10732.986159,7124.688131
163571.755716,-1258.350101,-8882.471304,4519.963438
163571.756035,-4515.256246,-6883.915261,2451.505594
163571.756355,-2812.782580,-6883.915261,2451.505594
163571.756675,0.000000,-4811.338623,3064.381992
163571.756995,2960.823768,-7328.038826,4213.525239
163571.757315,2812.782580,-8290.306550,3677.258390
163571.757634,888.247130,-10584.944971,842.705048
163571.757954,-1258.350101,-12435.459826,-76.609550
163571.758274,-3034.844362,-14211.954086,-995.924147
163571.758594,-3034.844362,-14211.954086,-76.609550
163571.758913,-3034.844362,-11399.171507,-1608.800546
163571.759233,-1184.329507,-9474.636058,-76.609550
163571.759553,1480.411884,-8956.491898,1838.629195
163571.759873,1776.494261,-7179.997637,2145.067394
163571.760193,3552.988522,-6365.771101,2374.896044
163571.760512,1332.370696,-5921.647536,-383.047749
163571.760832,1480.411884,-9030.512492,-995.924147
163571.761152,4663.297435,-12435.459826,2374.896044
163571.761472,5329.482782,-10732.986159,4443.353888
163571.761792,3478.967927,-9474.636058,1991.848295
163571.762111,-2738.761985,-10658.965565,-2528.115143
163571.762431,-5847.626942,-10658.965565,-6818.249932
163571.762751,-7105.977043,-13101.645173,-2451.505594
163571.763071,-3330.926739,-11547.212695,-689.485948
163571.763390,-1480.411884,-9622.677246,2221.676944
163571.763710,962.267725,-7105.977043,2757.943793
163571.764030,3256.906145,-3627.009116,1225.752797
163571.764350,3478.967927,-2368.659014,1762.019645
163571.764670,1258.350101,-4663.297435,306.438199
163571.764989,0.000000,-5995.668130,0.000000
163571.765309,1406.391290,-11621.233289,-76.609550
163571.765629,-666.185348,-13915.871710,-76.609550
163571.765949,-4737.318029,-11917.315666,-2451.505594
163571.766269,-3182.885551,-13471.748144,-383.047749
163571.766588,-2442.679609,-10510.924376,-383.047749
163571.766908,-2738.761985,-8142.265362,-459.657299
163571.767228,-3034.844362,-8290.306550,-2528.115143
163571.767548,-74.020594,-9474.636058,2374.896044
163571.767867,5847.626942,-8882.471304,4673.182538
163571.768187,4663.297435,-6735.874072,4903.011187
163571.768507,2664.741391,-8660.409521,3677.258390
163571.768827,1184.329507,-9844.739029,4903.011187
163571.769147,-1480.411884,-9548.656652,153.219100
163571.769466,-962.267725,-12953.603985,1302.362347
163571.769786,-1850.514855,-13027.624579,1302.362347
163571.770106,-2146.597232,-12065.356855,1685.410096
163571.770426,-74.020594,-11843.295072,1762.019645
163571.770746,0.000000,-9548.656652,3064.381992
163571.771065,-592.164754,-9326.594869,4290.134789
163571.771385,-666.185348,-9474.636058,6665.030833
163571.771705,-962.267725,-6217.729913,3600.648841
163571.772025,1480.411884,-8364.327145,7967.393179
163571.772344,4219.173869,-7105.977043,7967.393179
163571.772664,4145.153275,-8068.244768,8197.221829
163571.772984,222.061783,-10362.883188,5362.668486
163571.773304,-4737.318029,-10881.027347,612.876398
163571.773624,-4811.338623,-11843.295072,1149.143247
163571.773943,-5921.647536,-12213.398043,1685.410096
163571.774263,-7994.224174,-9548.656652,0.000000
163571.774583,-3182.885551,-11029.068536,2374.896044
163571.774903,-74.020594,-9474.636058,4826.401637
163571.775223,-1184.329507,-4811.338623,4290.134789
163571.775542,74.020594,-5551.544565,4519.963438
163571.775862,740.205942,-7328.038826,5439.278036
163571.776182,3552.988522,-8364.327145,6358.592633
163571.776502,4959.379811,-6661.853478,4903.011187
163571.776821,3404.947333,-10955.047942,8273.831378
163571.777141,0.000000,-9548.656652,5515.887586
163571.777461,-2368.659014,-10732.986159,4903.011187
163571.777781,-2072.576638,-11251.130318,3677.258390
163571.778101,-4737.318029,-7179.997637,1225.752797
163571.778420,-4367.215058,-10066.800811,1225.752797
163571.778740,-4219.173869,-8290.306550,1608.800546
163571.779060,-1480.411884,-7105.977043,1838.629195
163571.779380,-222.061783,-5625.565159,2068.457845
163571.779700,1776.494261,-7772.162391,3370.820191
163571.780019,0.000000,-7179.997637,4903.011187
163571.780339,3775.050304,-10807.006753,7277.907231
163571.780659,4663.297435,-14211.954086,9729.412825
163571.780979,666.185348,-9548.656652,6128.763984
163571.781298,-74.020594,-9474.636058,4213.525239
163571.781618,-4145.153275,-8956.491898,2681.334243
163571.781938,-4145.153275,-6365.771101,-459.657299
163571.782258,-3330.926739,-7846.182985,-2298.286494
163571.782578,-148.041188,-11029.068536,1149.143247
163571.782897,592.164754,-10066.800811,-995.924147
163571.783217,888.247130,-14211.954086,3600.648841
163571.783537,-1850.514855,-9548.656652,1378.971896
163571.783857,0.000000,-11917.315666,4596.572988
163571.784177,2294.638420,-11251.130318,4826.401637
163571.784496,740.205942,-6291.750507,3370.820191
163571.784816,1406.391290,-9474.636058,5898.935335
163571.785136,2294.638420,-6513.812290,5669.106685
163571.785456,1702.473667,-7328.038826,4903.011187
163571.785775,-4737.318029,-5403.503377,0.000000
163571.786095,-2664.741391,-9474.636058,-2681.334243
163571.786415,-3330.926739,-10732.986159,-1378.971896
163571.786735,-740.205942,-12657.521608,1532.190996
163571.787055,-74.020594,-12435.459826,2068.457845
163571.787374,-1850.514855,-10214.842000,2374.896044
163571.787694,-888.247130,-9252.574275,3294.210641
163571.788014,518.144159,-6365.771101,2068.457845
163571.788334,2886.803174,-8290.306550,-76.609550
163571.788654,0.000000,-5995.668130,612.876398
163571.788973,962.267725,-9696.697840,1685.410096
163571.789293,1628.453072,-10066.800811,3064.381992
163571.789613,-1480.411884,-11029.068536,2145.067394
163571.789933,-5477.523971,-10584.944971,-1455.581446
163571.790252,-3552.988522,-10140.821405,-2221.676944
163571.790572,-666.185348,-9622.677246,-76.609550
163571.790892,2368.659014,-7846.182985,0.000000
163571.791212,1184.329507,-9548.656652,1378.971896
163571.791532,-74.020594,-11843.295072,2374.896044
163571.791851,0.000000,-7179.997637,1532.190996
163571.792171,370.102971,-9252.574275,842.705048
163571.792491,-1406.391290,-7846.182985,0.000000
163571.792811,-1036.288319,-9844.739029,1149.143247
163571.793131,2220.617826,-7179.997637,1915.238745
163571.793450,4663.297435,-8882.471304,3600.648841
163571.793770,1776.494261,-9474.636058,2374.896044
163571.794090,-1776.494261,-10732.986159,3064.381992
163571.794410,0.000000,-9696.697840,1838.629195
163571.794729,-74.020594,-13027.624579,3370.820191
163571.795049,-4737.318029,-9548.656652,0.000000
163571.795369,-2886.803174,-9326.594869,2298.286494
163571.795689,74.020594,-6513.812290,1532.190996
163571.796009,1036.288319,-7105.977043,3370.820191
163571.796328,2294.638420,-9178.553681,2374.896044
163571.796648,-666.185348,-9548.656652,4903.011187
163571.796968,-74.020594,-11103.089130,2681.334243
163571.797288,-3923.091493,-9844.739029,2757.943793
163571.797607,-4737.318029,-9548.656652,0.000000
163571.797927,-592.164754,-9548.656652,5362.668486
163571.798247,444.123565,-7328.038826,1838.629195
163571.798567,1776.494261,-9548.656652,4519.963438
163571.798887,1406.391290,-10732.986159,3600.648841
163571.799206,-2812.782580,-8364.327145,2145.067394
163571.799526,-1850.514855,-9178.553681,1149.143247
163571.799846,-2442.679609,-9474.636058,1149.143247
163571.800166,-1554.432478,-8216.285956,306.438199
163571.800485,0.000000,-7772.162391,1225.752797
163571.800805,4663.297435,-11843.295072,6052.154434
163571.801125,1480.411884,-11325.150913,8120.612279
163571.801445,-1850.514855,-7031.956449,3217.601092
163571.801764,-2590.720797,-8364.327145,1532.190996
163571.802084,-1258.350101,-9400.615463,1302.362347
163571.802404,0.000000,-8364.327145,1225.752797
163571.802724,0.000000,-7772.162391,3677.258390
163571.803044,0.000000,-5995.668130,0.000000
163571.803363,-3552.988522,-7179.997637,612.876398
163571.803683,-3034.844362,-9474.636058,-3140.991542
163571.804003,-2442.679609,-9474.636058,-3753.867940
163571.804323,-1628.453072,-11843.295072,0.000000
163571.804642,592.164754,-9178.553681,-153.219100
163571.804962,1184.329507,-10584.944971,76.609550
163571.805282,1554.432478,-10140.821405,0.000000
163571.805602,0.000000,-6587.832884,-1685.410096
163571.805921,-74.020594,-9474.636058,-76.609550
163571.806241,-1258.350101,-10066.800811,-2834.553343
163571.806561,-3552.988522,-8364.327145,-4290.134789
163571.806881,-74.020594,-11843.295072,-2528.115143
163571.807201,3478.967927,-11843.295072,-383.047749
163571.807520,1776.494261,-10362.883188,-2451.505594
163571.807840,1924.535449,-9770.718434,-2528.115143
163571.808160,-1258.350101,-10140.821405,-4443.353888
163571.808480,-1406.391290,-10436.903782,-3677.258390
163571.808799,1110.308913,-10066.800811,-3677.258390
163571.809119,3330.926739,-10658.965565,-76.609550
163571.809439,3182.885551,-8882.471304,-76.609550
163571.809759,962.267725,-5403.503377,-1685.410096
163571.810079,592.164754,-5551.544565,-2221.676944
163571.810398,-74.020594,-9474.636058,-1302.362347
163571.810718,-3034.844362,-9252.574275,-3524.039291
163571.811038,-3701.029710,-9104.533087,-3907.087040
163571.811358,-2368.659014,-9770.718434,-3983.696590
163571.811677,-2368.659014,-7772.162391,-3677.258390
163571.811997,0.000000,-8956.491898,-2757.943793
163571.812317,-444.123565,-8364.327145,-3064.381992
163571.812637,-2368.659014,-9696.697840,-2757.943793
163571.812956,-1850.514855,-10658.965565,-4366.744339
163571.813276,-74.020594,-9474.636058,-2528.115143
163571.813596,444.123565,-9252.574275,-383.047749
163571.813916,1406.391290,-9252.574275,0.000000
163571.814236,1480.411884,-8216.285956,-229.828649
163571.814555,-222.061783,-8290.306550,-1302.362347
163571.814875,-4737.318029,-7179.997637,-4903.011187
163571.815195,-2590.720797,-11843.295072,-3140.991542
163571.815515,-2072.576638,-11029.068536,-3064.381992
163571.815834,-296.082377,-13027.624579,-76.609550
163571.816154,1036.288319,-10732.986159,919.314598
163571.816474,0.000000,-9252.574275,612.876398
163571.816794,-1258.350101,-6587.832884,-1838.629195
163571.817114,-740.205942,-8660.409521,-995.924147
163571.817433,592.164754,-10140.821405,766.095498
163571.817753,0.000000,-7920.203579,306.438199
163571.818073,1184.329507,-8364.327145,2451.505594
163571.818393,592.164754,-8068.244768,2221.676944
163571.818712,814.226536,-6513.812290,536.266849
163571.819032,-74.020594,-8290.306550,-995.924147
163571.819352,-2368.659014,-8364.327145,0.000000
163571.819672,-3256.906145,-10955.047942,-1532.190996
163571.819991,-1776.494261,-11473.192101,-536.266849
163571.820311,-1998.556043,-10066.800811,-1149.143247
163571.820631,0.000000,-9844.739029,153.219100
163571.820951,3478.967927,-9474.636058,-76.609550
163571.821271,592.164754,-8364.327145,2451.505594
163571.821590,666.185348,-8512.368333,2221.676944
163571.821910,222.061783,-8512.368333,2374.896044
163571.822230,814.226536,-8586.388927,2757.943793
163571.822550,0.000000,-5403.503377,1532.190996
163571.822869,-2368.659014,-8364.327145,0.000000
163571.823189,2368.659014,-11177.109724,2145.067394
163571.823509,-666.185348,-10510.924376,536.266849
163571.823829,-2072.576638,-10140.821405,0.000000
163571.824148,-74.020594,-11843.295072,-76.609550
163571.824468,-2516.700203,-9548.656652,0.000000
163571.824788,962.267725,-8586.388927,1378.971896
163571.825108,2590.720797,-7698.141797,2374.896044
163571.825428,370.102971,-8364.327145,3677.258390
163571.825747,-74.020594,-8068.244768,2987.772442
163571.826067,-1406.391290,-8956.491898,2451.505594
163571.826387,-2072.576638,-7179.997637,0.000000
163571.826707,-2368.659014,-9696.697840,1838.629195
163571.827026,-666.185348,-8882.471304,-76.609550
163571.827346,-222.061783,-9104.533087,995.924147
163571.827666,-814.226536,-9252.574275,1532.190996
163571.827986,-2294.638420,-9844.739029,0.000000
163571.828306,-3627.009116,-9696.697840,-1225.752797
163571.828625,-3552.988522,-10140.821405,919.314598
163571.828945,-2368.659014,-8364.327145,-612.876398
163571.829265,2294.638420,-11251.130318,2374.896044
163571.829585,1406.391290,-7179.997637,1072.533697
163571.829904,2664.741391,-8956.491898,3677.258390
163571.830224,4071.132681,-9474.636058,2374.896044
163571.830544,-1332.370696,-8364.327145,306.438199
163571.830864,-1776.494261,-9548.656652,-1991.848295
163571.831183,-962.267725,-10140.821405,-2681.334243
163571.831503,3849.070898,-13027.624579,1532.190996
163571.831823,2960.823768,-12509.480420,4903.011187
163571.832143,0.000000,-9548.656652,1225.752797
163571.832463,-1036.288319,-10584.944971,1072.533697
163571.832782,-1924.535449,-7105.977043,-689.485948
163571.833102,-1702.473667,-4811.338623,-3447.429741
163571.833422,2294.638420,-9474.636058,-76.609550
163571.833742,2664.741391,-8956.491898,1072.533697
163571.834061,2886.803174,-9622.677246,2145.067394
163571.834381,0.000000,-9622.677246,766.095498
163571.834701,-4441.235652,-9548.656652,-2451.505594
163571.835021,-5107.421000,-10362.883188,-4366.744339
163571.835340,-4145.153275,-9548.656652,-4290.134789
163571.835660,-518.144159,-9844.739029,-3677.258390
163571.835980,2516.700203,-10658.965565,-766.095498
163571.836300,2294.638420,-8290.306550,-1608.800546
163571.836620,370.102971,-10658.965565,-1378.971896
163571.836939,-1184.329507,-10288.862594,-2528.115143
163571.837259,-2960.823768,-9548.656652,-3524.039291
163571.837579,-2368.659014,-8956.491898,-3064.381992
163571.837899,-74.020594,-9178.553681,-689.485948
163571.838218,2294.638420,-8142.265362,-1915.238745
163571.838538,2664.741391,-6735.874072,-2221.676944
163571.838858,0.000000,-8364.327145,0.000000
163571.839178,-592.164754,-9696.697840,-3064.381992
163571.839498,-3034.844362,-9474.636058,-5592.497135
163571.839817,-2664.741391,-10288.862594,-4060.306139
163571.840137,0.000000,-9696.697840,-1991.848295
163571.840457,2886.803174,-7846.182985,153.219100
163571.840777,4441.235652,-7994.224174,2068.457845
163571.841096,1184.329507,-8660.409521,1072.533697
163571.841416,148.041188,-9844.739029,-76.609550
163571.841736,-370.102971,-9474.636058,-1302.362347
163571.842056,-2368.659014,-9548.656652,-1762.019645
163571.842375,0.000000,-8364.327145,0.000000
163571.842695,2294.638420,-9474.636058,-76.609550
163571.843015,1628.453072,-8142.265362,0.000000
163571.843335,0.000000,-8660.409521,-1455.581446
163571.843655,-1702.473667,-10510.924376,-2221.676944
163571.843974,-2072.576638,-10140.821405,-1225.752797
163571.844294,-2590.720797,-9474.636058,-3447.429741
163571.844614,-1776.494261,-9548.656652,-1838.629195
163571.844934,2072.576638,-11029.068536,1225.752797
163571.845253,3552.988522,-10658.965565,2911.162892
163571.845573,-2220.617826,-5995.668130,-3064.381992
163571.845893,-1702.473667,-9474.636058,-842.705048
163571.846213,-2368.659014,-9178.553681,-1149.143247
163571.846533,-518.144159,-10066.800811,-612.876398
163571.846852,1702.473667,-11843.295072,1149.143247
163571.847172,1406.391290,-13027.624579,4213.525239
163571.847492,518.144159,-10066.800811,1149.143247
163571.847812,-2368.659014,-9474.636058,-383.047749
163571.848131,-4737.318029,-8364.327145,0.000000
163571.848451,-3552.988522,-7179.997637,0.000000
163571.848771,-1258.350101,-7105.977043,76.609550
163571.849091,2072.576638,-8068.244768,2987.772442
163571.849410,3478.967927,-8142.265362,3294.210641
163571.849730,1036.288319,-7846.182985,2834.553343
163571.850050,-74.020594,-11251.130318,3600.648841
163571.850370,-2442.679609,-9252.574275,536.266849
163571.850690,-1258.350101,-11251.130318,1149.143247
163571.851009,-1258.350101,-9474.636058,-689.485948
163571.851329,-888.247130,-9252.574275,0.000000
163571.851649,0.000000,-7179.997637,1225.752797
163571.851969,-74.020594,-8290.306550,229.828649
163571.852288,-888.247130,-9474.636058,306.438199
163571.852608,-1924.535449,-8512.368333,-1608.800546
163571.852928,-296.082377,-8734.430116,383.047749
163571.853248,2590.720797,-10584.944971,2374.896044
163571.853567,1776.494261,-7179.997637,1838.629195
163571.853887,3330.926739,-10214.842000,2834.553343
163571.854207,1110.308913,-9474.636058,1149.143247
163571.854527,-74.020594,-9474.636058,-2221.676944
163571.854847,-370.102971,-11843.295072,-76.609550
163571.855166,-1850.514855,-9622.677246,-1072.533697
163571.855486,-1480.411884,-9104.533087,-842.705048
163571.855806,2072.576638,-8142.265362,153.219100
163571.856126,3849.070898,-8364.327145,3370.820191
163571.856445,1554.432478,-8882.471304,1225.752797
163571.856765,-74.020594,-9474.636058,-536.266849
163571.857085,-4145.153275,-9474.636058,-1915.238745
163571.857405,-4145.153275,-7772.162391,-2451.505594
163571.857725,-74.020594,-11843.295072,2374.896044
163571.858044,0.000000,-9844.739029,919.314598
163571.858364,1036.288319,-8734.430116,689.485948
163571.858684,-592.164754,-9178.553681,0.000000
163571.859004,-1998.556043,-8586.388927,-1532.190996
163571.859323,-4737.318029,-6587.832884,-4903.011187
163571.859643,-3034.844362,-8734.430116,-2451.505594
163571.859963,0.000000,-9844.739029,-1762.019645
163571.860283,1036.288319,-9474.636058,-306.438199
163571.860602,1406.391290,-9474.636058,-76.609550
163571.860922,-74.020594,-9474.636058,-995.924147
163571.861242,-74.020594,-11177.109724,-689.485948
163571.861562,-666.185348,-9474.636058,-2451.505594
163571.861882,-1406.391290,-9548.656652,-2221.676944
163571.862201,296.082377,-9548.656652,612.876398
163571.862521,222.061783,-7920.203579,-919.314598
163571.862841,2294.638420,-7402.059420,76.609550
163571.863161,962.267725,-7920.203579,-766.095498
163571.863480,444.123565,-8882.471304,-1991.848295
163571.863800,1184.329507,-10066.800811,-689.485948
163571.864120,-74.020594,-12953.603985,-229.828649
163571.864440,0.000000,-10732.986159,0.000000
163571.864760,-592.164754,-10732.986159,1532.190996
163571.865079,1110.308913,-8290.306550,-995.924147
163571.865399,-2368.659014,-6291.750507,-2451.505594
163571.865719,814.226536,-9178.553681,-919.314598
163571.866039,592.164754,-8068.244768,-842.705048
163571.866358,-1110.308913,-10362.883188,-76.609550
163571.866678,-888.247130,-10436.903782,-995.924147
163571.866998,-74.020594,-10066.800811,-76.609550
163571.867318,-1480.411884,-7772.162391,-919.314598
163571.867637,-3256.906145,-5403.503377,-2451.505594
163571.867957,-1776.494261,-8364.327145,-1225.752797
163571.868277,814.226536,-8586.388927,-76.609550
163571.868597,-2368.659014,-8364.327145,0.000000
163571.868917,-370.102971,-10658.965565,-1378.971896
163571.869236,-666.185348,-9696.697840,-1149.143247
163571.869556,-1332.370696,-10066.800811,-612.876398
163571.869876,518.144159,-8882.471304,-1302.362347
163571.870196,2294.638420,-10658.965565,-76.609550
163571.870515,2294.638420,-8734.430116,2374.896044
163571.870835,1554.432478,-8290.306550,842.705048
163571.871155,740.205942,-7698.141797,-76.609550
163571.871475,0.000000,-9548.656652,76.609550
163571.871794,-2368.659014,-9548.656652,0.000000
163571.872114,-1480.411884,-9178.553681,-842.705048
163571.872434,-2294.638420,-9030.512492,-76.609550
163571.872754,-1184.329507,-8660.409521,-1762.019645
163571.873074,1110.308913,-10066.800811,-76.609550
163571.873393,0.000000,-9548.656652,1838.629195
163571.873713,1924.535449,-8512.368333,2068.457845
163571.874033,-814.226536,-10807.006753,2528.115143
163571.874353,-666.185348,-9474.636058,-689.485948
163571.874672,-2368.659014,-8660.409521,306.438199
163571.874992,-296.082377,-8660.409521,-689.485948
163571.875312,740.205942,-9844.739029,0.000000
163571.875632,1628.453072,-10881.027347,1455.581446
163571.875952,1776.494261,-8364.327145,0.000000
163571.876271,-518.144159,-9178.553681,-1455.581446
163571.876591,-1776.494261,-9548.656652,-1532.190996
163571.876911,-2368.659014,-7476.080014,0.000000
163571.877231,1776.494261,-11843.295072,1378.971896
163571.877550,3478.967927,-11843.295072,2987.772442
163571.877870,0.000000,-10140.821405,1532.190996
163571.878190,814.226536,-9400.615463,1762.019645
163571.878510,-1480.411884,-8734.430116,76.609550
163571.878829,-1406.391290,-9030.512492,0.000000
163571.879149,-74.020594,-7402.059420,-1608.800546
163571.879469,-370.102971,-9770.718434,1762.019645
163571.879789,3182.885551,-11547.212695,1762.019645
163571.880109,-1258.350101,-9548.656652,1455.581446
163571.880428,-1776.494261,-8364.327145,0.000000
163571.880748,-1628.453072,-8882.471304,1762.019645
163571.881068,-3552.988522,-5995.668130,-2298.286494
163571.881388,-74.020594,-6513.812290,-383.047749
163571.881707,666.185348,-9474.636058,0.000000
163571.882027,1554.432478,-11843.295072,2145.067394
163571.882347,1110.308913,-11399.171507,2374.896044
163571.882667,-1258.350101,-10658.965565,-76.609550
163571.882987,-6291.750507,-6957.935855,-4290.134789
163571.883306,-4145.153275,-7179.997637,-6741.640382
163571.883626,0.000000,-7179.997637,-2451.505594
163571.883946,7031.956449,-13027.624579,3600.648841
163571.884266,3552.988522,-8660.409521,1838.629195
163571.884585,222.061783,-9326.594869,-76.609550
163571.884905,-2368.659014,-8734.430116,-2604.724693
163571.885225,-1184.329507,-8956.491898,-3677.258390
163571.885545,1406.391290,-11325.150913,-1225.752797
163571.885864,2886.803174,-10658.965565,1149.143247
163571.886184,1406.391290,-11251.130318,1762.019645
163571.886504,-370.102971,-7254.018232,-2374.896044
163571.886824,-1776.494261,-7179.997637,-3677.258390
163571.887144,-666.185348,-11843.295072,-1608.800546
163571.887463,-888.247130,-8068.244768,-2145.067394
163571.887783,222.061783,-9474.636058,0.000000
163571.888103,1924.535449,-9178.553681,229.828649
163571.888423,3478.967927,-10658.965565,2987.772442
163571.888742,1776.494261,-9474.636058,2221.676944
163571.889062,2886.803174,-9474.636058,2374.896044
163571.889382,-2590.720797,-7698.141797,-2987.772442
163571.889702,-3552.988522,-9104.533087,-2298.286494
163571.890021,-5921.647536,-7179.997637,-4903.011187
163571.890341,-962.267725,-9474.636058,-2528.115143
163571.890661,-296.082377,-9992.780217,-1838.629195
163571.890981,-74.020594,-11103.089130,-306.438199
163571.891301,-888.247130,-9844.739029,-1149.143247
163571.891620,-1776.494261,-9992.780217,-1225.752797
163571.891940,-4145.153275,-7179.997637,-2451.505594
163571.892260,1702.473667,-8290.306550,-689.485948
163571.892580,1110.308913,-8068.244768,0.000000
163571.892899,2368.659014,-7179.997637,0.000000
163571.893219,4663.297435,-11843.295072,-76.609550
163571.893539,0.000000,-11325.150913,0.000000
163571.893859,-4219.173869,-12361.439231,-2298.286494
163571.894179,-4367.215058,-11029.068536,-2528.115143
163571.894498,-3552.988522,-8364.327145,-1685.410096
163571.894818,0.000000,-8956.491898,-229.828649
163571.895138,3478.967927,-7698.141797,-383.047749
163571.895458,2664.741391,-9178.553681,-76.609550
163571.895777,0.000000,-8660.409521,1225.752797
163571.896097,-74.020594,-13619.789333,2374.896044
163571.896417,-3256.906145,-10436.903782,612.876398
163571.896737,-2590.720797,-6291.750507,-919.314598
163571.897056,-740.205942,-6661.853478,-306.438199
163571.897376,1998.556043,-5773.606348,0.000000
163571.897696,1702.473667,-6661.853478,-2451.505594
163571.898016,1406.391290,-10658.965565,689.485948
163571.898336,-2516.700203,-12065.356855,-766.095498
163571.898656,-3849.070898,-12065.356855,-2221.676944
163571.898976,-2442.679609,-10658.965565,-1302.362347
163571.899295,1554.432478,-10658.965565,-689.485948
163571.899615,2368.659014,-6587.832884,612.876398
163571.899935,5255.462188,-8290.306550,2298.286494
163571.900255,2368.659014,-7772.162391,2451.505594
163571.900575,1184.329507,-9622.677246,612.876398
163571.900895,-4737.318029,-9548.656652,536.266849
163571.901215,-666.185348,-9474.636058,-1608.800546
163571.901534,-2368.659014,-10436.903782,-1915.238745
163571.901854,1480.411884,-9844.739029,-383.047749
163571.902174,2738.761985,-10955.047942,1149.143247
163571.902494,888.247130,-11547.212695,2374.896044
163571.902814,-2738.761985,-9178.553681,-1762.019645
163571.903134,-3034.844362,-11251.130318,-1302.362347
163571.903453,-1850.514855,-8586.388927,-2528.115143
163571.903773,0.000000,-9548.656652,1225.752797
163571.904093,1110.308913,-9178.553681,2604.724693
163571.904413,1776.494261,-9030.512492,3830.477490
163571.904733,-1184.329507,-7846.182985,1072.533697
163571.905053,-2516.700203,-7105.977043,-1225.752797
163571.905373,-2442.679609,-7105.977043,-2834.553343
163571.905692,-1184.329507,-8660.409521,-1225.752797
163571.906012,1184.329507,-11029.068536,1685.410096
163571.906332,2294.638420,-12435.459826,1762.019645
163571.906652,74.020594,-10658.965565,1455.581446
163571.906972,-3552.988522,-9548.656652,612.876398
163571.907292,-2738.761985,-8586.388927,-1762.019645
163571.907612,-2146.597232,-6957.935855,-1915.238745
163571.907931,0.000000,-7031.956449,-689.485948
163571.908251,2886.803174,-6217.729913,0.000000
163571.908571,4663.297435,-8290.306550,2374.896044
163571.908891,4367.215058,-9474.636058,2374.896044
163571.909211,-2072.576638,-10288.862594,1225.752797
163571.909531,-1924.535449,-12139.377449,-612.876398
163571.909851,-1702.473667,-11251.130318,-76.609550
163571.910170,-2368.659014,-8956.491898,-1225.752797
163571.910490,2146.597232,-9474.636058,0.000000
163571.910810,1850.514855,-9696.697840,1072.533697
163571.911130,1036.288319,-10436.903782,536.266849
163571.911450,-666.185348,-11251.130318,-842.705048
163571.911770,-1258.350101,-12435.459826,-76.609550
163571.912089,-1850.514855,-9474.636058,-1302.362347
163571.912409,-962.267725,-11843.295072,-76.609550
163571.912729,0.000000,-5107.421000,0.000000
163571.913049,2368.659014,-8512.368333,3064.381992
163571.913369,888.247130,-7254.018232,-612.876398
163571.913689,-1924.535449,-10362.883188,-2298.286494
163571.914009,-3849.070898,-11843.295072,-2374.896044
163571.914328,-4811.338623,-10140.821405,-4290.134789
163571.914648,-3997.112087,-8438.347739,-4903.011187
163571.914968,-592.164754,-9474.636058,-2145.067394
163571.915288,3923.091493,-11695.253884,2374.896044
163571.915608,3478.967927,-8142.265362,1149.143247
163571.915928,814.226536,-8882.471304,1762.019645
163571.916248,0.000000,-9548.656652,612.876398
163571.916567,-1036.288319,-6439.791695,-1991.848295
163571.916887,0.000000,-8734.430116,-919.314598
163571.917207,3478.967927,-8586.388927,153.219100
163571.917527,2738.761985,-7920.203579,0.000000
163571.917847,-666.185348,-8808.450710,0.000000
163571.918167,-3034.844362,-8882.471304,-3447.429741
163571.918486,-6809.894666,-8364.327145,-4290.134789
163571.918806,-2886.803174,-8068.244768,-4903.011187
163571.919126,1702.473667,-11843.295072,-76.609550
163571.919446,2368.659014,-9548.656652,0.000000
163571.919766,4071.132681,-10140.821405,2221.676944
163571.920086,592.164754,-9474.636058,1838.629195
163571.920406,-2146.597232,-8512.368333,-612.876398
163571.920725,-4811.338623,-8290.306550,-3140.991542
163571.921045,-666.185348,-10066.800811,-2221.676944
163571.921365,1702.473667,-10066.800811,-2221.676944
163571.921685,3108.864956,-10066.800811,-76.609550
163571.922005,1480.411884,-9844.739029,1225.752797
163571.922325,1110.308913,-13915.871710,2374.896044
163571.922645,-4071.132681,-10140.821405,-2757.943793
163571.922964,-4441.235652,-9400.615463,-3907.087040
163571.923284,-1110.308913,-9252.574275,-1455.581446
163571.923604,592.164754,-7179.997637,0.000000
163571.923924,2960.823768,-7179.997637,1532.190996
163571.924244,4737.318029,-8882.471304,4826.401637
163571.924564,1110.308913,-10140.821405,3600.648841
163571.924884,-1258.350101,-9474.636058,-76.609550
163571.925203,-3034.844362,-9474.636058,-2528.115143
163571.925523,-2516.700203,-11843.295072,-689.485948
163571.925843,-814.226536,-10584.944971,76.609550
163571.926163,444.123565,-9474.636058,1225.752797
163571.926483,888.247130,-9548.656652,1838.629195
163571.926803,-4737.318029,-5995.668130,0.000000
163571.927122,-4071.132681,-9548.656652,-1838.629195
163571.927442,-5921.647536,-7179.997637,-2451.505594
163571.927762,-74.020594,-11251.130318,1149.143247
163571.928082,444.123565,-9548.656652,1915.238745
163571.928402,4663.297435,-10658.965565,4519.963438
163571.928722,1184.329507,-7179.997637,2145.067394
163571.929042,-2590.720797,-6809.894666,-612.876398
163571.929361,-3256.906145,-8512.368333,-4060.306139
163571.929681,-1628.453072,-10362.883188,-1532.190996
163571.930001,-962.267725,-11103.089130,-1225.752797
163571.930321,3182.885551,-12435.459826,1149.143247
163571.930641,296.082377,-9548.656652,1838.629195
163571.930961,814.226536,-8068.244768,306.438199
163571.931281,-74.020594,-11843.295072,-76.609550
163571.931600,0.000000,-7179.997637,-1838.629195
163571.931920,518.144159,-8512.368333,306.438199
163571.932240,2368.659014,-9992.780217,1838.629195
163571.932560,3478.967927,-9474.636058,1532.190996
163571.932880,2294.638420,-8734.430116,1455.581446
163571.933200,0.000000,-7476.080014,229.828649
163571.933519,-3404.947333,-9252.574275,-1225.752797
163571.933839,-5921.647536,-7772.162391,-3677.258390
163571.934159,-666.185348,-9474.636058,-1608.800546
163571.934479,-3552.988522,-7179.997637,0.000000
163571.934799,2294.638420,-8734.430116,-76.609550
163571.935119,1036.288319,-10436.903782,1838.629195
163571.935439,-1332.370696,-9992.780217,229.828649
163571.935758,-3701.029710,-9622.677246,-919.314598
163571.936078,-3034.844362,-11843.295072,-76.609550
163571.936398,-2812.782580,-6587.832884,-2451.505594
163571.936718,-888.247130,-8290.306550,-842.705048
163571.937038,2294.638420,-8216.285956,-153.219100
163571.937358,1776.494261,-8364.327145,612.876398
163571.937678,0.000000,-7846.182985,-1608.800546
163571.937997,-4737.318029,-9548.656652,-2757.943793
163571.938317,-4737.318029,-11547.212695,-2451.505594
163571.938637,-1258.350101,-11251.130318,-1302.362347
163571.938957,1702.473667,-9474.636058,-1302.362347
163571.939277,5773.606348,-9474.636058,2145.067394
163571.939597,4441.235652,-8512.368333,2451.505594
163571.939917,888.247130,-9548.656652,1838.629195
163571.940236,-740.205942,-10140.821405,0.000000
163571.940556,-2960.823768,-8660.409521,-1225.752797
163571.940876,-814.226536,-8290.306550,-1915.238745
163571.941196,0.000000,-8290.306550,-1608.800546
163571.941516,592.164754,-7179.997637,-1838.629195
163571.941836,2960.823768,-9844.739029,1762.019645
163571.942155,-74.020594,-11843.295072,-76.609550
163571.942475,-3256.906145,-11325.150913,-1838.629195
163571.942795,-4811.338623,-9918.759623,-3217.601092
163571.943115,-3034.844362,-10955.047942,-1762.019645
163571.943435,518.144159,-9992.780217,-76.609550
163571.943755,2368.659014,-8364.327145,1225.752797
163571.944075,3478.967927,-8364.327145,2757.943793
163571.944394,-74.020594,-8882.471304,-76.609550
163571.944714,-4219.173869,-6883.915261,-3600.648841
163571.945034,-3701.029710,-7772.162391,-4903.011187
163571.945354,-74.020594,-14211.954086,-1302.362347
163571.945674,1036.288319,-11325.150913,383.047749
163571.945994,1036.288319,-10658.965565,1378.971896
163571.946314,222.061783,-7698.141797,306.438199
163571.946633,-2368.659014,-7476.080014,-2451.505594
163571.946953,-3552.988522,-8364.327145,-3600.648841
163571.947273,-3552.988522,-7179.997637,-3064.381992
163571.947593,-1184.329507,-9844.739029,1225.752797
163571.947913,1184.329507,-8364.327145,1225.752797
163571.948233,2886.803174,-8882.471304,-76.609550
163571.948552,2220.617826,-7994.224174,3064.381992
163571.948872,-296.082377,-8068.244768,689.485948
163571.949192,-1480.411884,-8956.491898,-536.266849
163571.949512,-2516.700203,-8512.368333,-995.924147
163571.949832,-3627.009116,-8956.491898,-76.609550
163571.950152,-1850.514855,-8290.306550,-1608.800546
163571.950472,0.000000,-8956.491898,612.876398
163571.950791,0.000000,-7179.997637,0.000000
163571.951111,-1776.494261,-8216.285956,383.047749
163571.951431,-2442.679609,-9178.553681,-2528.115143
163571.951751,-2368.659014,-7772.162391,-1991.848295
163571.952071,-888.247130,-10658.965565,-1685.410096
163571.952391,1850.514855,-11473.192101,1455.581446
163571.952711,3330.926739,-11251.130318,3983.696590
163571.953030,0.000000,-10140.821405,2757.943793
163571.953350,-666.185348,-8586.388927,-76.609550
163571.953670,-666.185348,-10362.883188,-2528.115143
163571.953990,-1702.473667,-8364.327145,-2145.067394
163571.954310,0.000000,-8364.327145,0.000000
163571.954630,4663.297435,-12435.459826,3600.648841
163571.954950,3256.906145,-8586.388927,1838.629195
163571.955269,148.041188,-8808.450710,536.266849
163571.955589,-1258.350101,-8956.491898,-766.095498
163571.955909,-1184.329507,-10140.821405,612.876398
163571.956229,0.000000,-9548.656652,0.000000
163571.956549,592.164754,-9548.656652,3064.381992
163571.956869,740.205942,-10066.800811,2451.505594
163571.957188,592.164754,-7476.080014,2451.505594
163571.957508,-1258.350101,-6069.688724,-1608.800546
163571.957828,-1036.288319,-9770.718434,-689.485948
163571.958148,-2368.659014,-9918.759623,-766.095498
163571.958468,-2146.597232,-10436.903782,76.609550
163571.958788,-1480.411884,-9696.697840,1378.971896
163571.959108,-2368.659014,-8956.491898,76.609550
163571.959427,-666.185348,-8882.471304,-842.705048
163571.959747,-3552.988522,-8364.327145,-1685.410096
163571.960067,-74.020594,-11251.130318,-76.609550
163571.960387,-1850.514855,-8438.347739,-3370.820191
163571.960707,-666.185348,-9474.636058,-2528.115143
163571.961027,592.164754,-10066.800811,-459.657299
163571.961347,962.267725,-10436.903782,995.924147
163571.961666,1628.453072,-9548.656652,1149.143247
163571.961986,-74.020594,-10066.800811,1762.019645
163571.962306,-1924.535449,-9104.533087,-1838.629195
163571.962626,-1406.391290,-8290.306550,-1302.362347
163571.962946,1702.473667,-9474.636058,-2528.115143
163571.963266,2442.679609,-9548.656652,76.609550
163571.963585,888.247130,-8364.327145,0.000000
163571.963905,2294.638420,-8882.471304,536.266849
163571.964225,-1480.411884,-8438.347739,-919.314598
163571.964545,-1776.494261,-9030.512492,-1991.848295
163571.964865,-962.267725,-8882.471304,-995.924147
163571.965185,1184.329507,-9844.739029,2374.896044
163571.965505,1184.329507,-8660.409521,0.000000
163571.965824,592.164754,-9844.739029,919.314598
163571.966144,-74.020594,-8882.471304,-1302.362347
163571.966464,-2442.679609,-11843.295072,-76.609550
163571.966784,-666.185348,-11251.130318,-76.609550
163571.967104,-1628.453072,-9548.656652,-2221.676944
163571.967424,-518.144159,-10066.800811,0.000000
163571.967744,222.061783,-7105.977043,-919.314598
163571.968063,0.000000,-8660.409521,612.876398
163571.968383,-370.102971,-8068.244768,-1608.800546
163571.968703,1702.473667,-12435.459826,-2068.457845
163571.969023,-1554.432478,-12213.398043,-1608.800546
163571.969343,-3182.885551,-8364.327145,-2834.553343
163571.969663,-1998.556043,-12805.562797,1762.019645
163571.969983,0.000000,-8364.327145,-1838.629195
163571.970302,1406.391290,-7846.182985,-1302.362347
163571.970622,1776.494261,-7105.977043,306.438199
163571.970942,1480.411884,-8216.285956,-76.609550
163571.971262,-74.020594,-9770.718434,-1915.238745
163571.971582,888.247130,-10510.924376,1149.143247
163571.971902,-1480.411884,-11029.068536,229.828649
163571.972221,-1628.453072,-9252.574275,-383.047749
163571.972541,-370.102971,-8660.409521,459.657299
163571.972861,888.247130,-10214.842000,2681.334243
163571.973181,1332.370696,-9474.636058,1838.629195
163571.973501,-74.020594,-11251.130318,536.266849
163571.973821,-1110.308913,-9252.574275,2221.676944
163571.974141,-1628.453072,-8364.327145,0.000000
163571.974460,-666.185348,-8586.388927,-1608.800546
163571.974780,-296.082377,-8734.430116,0.000000
163571.975100,-592.164754,-9178.553681,612.876398
163571.975420,0.000000,-8438.347739,153.219100
163571.975740,-148.041188,-10288.862594,766.095498
163571.976060,-370.102971,-10658.965565,-76.609550
163571.976380,-2368.659014,-10140.821405,0.000000
163571.976699,-592.164754,-10362.883188,0.000000
163571.977019,0.000000,-8364.327145,0.000000
163571.977339,-2368.659014,-7179.997637,-2451.505594
163571.977659,-74.020594,-9474.636058,-76.609550
163571.977979,148.041188,-9030.512492,76.609550
163571.978299,518.144159,-10436.903782,766.095498
163571.978618,740.205942,-10807.006753,1149.143247
163571.978938,518.144159,-10658.965565,1762.019645
163571.979258,-1776.494261,-6291.750507,0.000000
163571.979578,-1776.494261,-5995.668130,-3064.381992
163571.979898,1776.494261,-11843.295072,766.095498
163571.980218,2294.638420,-11251.130318,1149.143247
163571.980538,-2960.823768,-8956.491898,0.000000
163571.980857,-1258.350101,-10510.924376,2145.067394
163571.981177,-2368.659014,-7920.203579,-536.266849
163571.981497,-1258.350101,-7105.977043,-76.609550
163571.981817,-666.185348,-8290.306550,-76.609550
163571.982137,1702.473667,-9474.636058,-76.609550
163571.982457,1110.308913,-11251.130318,2374.896044
163571.982777,-962.267725,-9252.574275,-1302.362347
163571.983096,-2368.659014,-10732.986159,-1225.752797
163571.983416,-3552.988522,-9548.656652,-1838.629195
163571.983736,-3034.844362,-7698.141797,-2528.115143
163571.984056,-296.082377,-9548.656652,-1838.629195
163571.984376,1110.308913,-9918.759623,-1072.533697
163571.984696,1702.473667,-10288.862594,689.485948
163571.985015,2294.638420,-11251.130318,2145.067394
163571.985335,0.000000,-8364.327145,0.000000
163571.985655,1628.453072,-9918.759623,1302.362347
163571.985975,1702.473667,-7846.182985,-76.609550
163571.986295,1702.473667,-8290.306550,-689.485948
163571.986615,0.000000,-7179.997637,0.000000
163571.986935,2294.638420,-8290.306550,229.828649
163571.987254,296.082377,-9178.553681,153.219100
163571.987574,-1036.288319,-10584.944971,-306.438199
163571.987894,-2072.576638,-10807.006753,-995.924147
163571.988214,-2072.576638,-9918.759623,-536.266849
163571.988534,-2368.659014,-8956.491898,-1072.533697
163571.988854,-592.164754,-8364.327145,-1455.581446
163571.989174,0.000000,-7772.162391,306.438199
163571.989493,370.102971,-9326.594869,3600.648841
163571.989813,0.000000,-5995.668130,-2451.505594
163571.990133,-296.082377,-9326.594869,-76.609550
163571.990453,-2886.803174,-10140.821405,-689.485948
163571.990773,-2738.761985,-9992.780217,-1378.971896
163571.991093,-666.185348,-10658.965565,-1302.362347
163571.991413,-74.020594,-10658.965565,-76.609550
163571.991732,-1776.494261,-8364.327145,-3140.991542
163571.992052,-2368.659014,-9548.656652,-1225.752797
163571.992372,-1184.329507,-9770.718434,153.219100
163571.992692,-1184.329507,-9548.656652,1225.752797
163571.993012,-1702.473667,-7772.162391,-1838.629195
163571.993332,-444.123565,-8956.491898,-76.609550
163571.993651,518.144159,-7624.121203,-459.657299
163571.993971,1184.329507,-8512.368333,-383.047749
163571.994291,3478.967927,-11843.295072,-76.609550
163571.994611,1776.494261,-11325.150913,2451.505594
163571.994931,-74.020594,-12435.459826,1149.143247
163571.995251,-74.020594,-9474.636058,842.705048
163571.995571,-370.102971,-6513.812290,-383.047749
163571.995890,0.000000,-4811.338623,-1838.629195
163571.996210,1702.473667,-7402.059420,-1149.143247
163571.996530,3552.988522,-10732.986159,612.876398
163571.996850,2294.638420,-10955.047942,1608.800546
163571.997170,-3108.864956,-10140.821405,76.609550
163571.997490,-3552.988522,-8364.327145,-1915.238745
163571.997810,-4737.318029,-6735.874072,-4596.572988
163571.998130,-592.164754,-7772.162391,-4136.915689
163571.998450,2368.659014,-7772.162391,306.438199
163571.998770,4663.297435,-13027.624579,4213.525239
163571.999089,0.000000,-10140.821405,1225.752797
163571.999409,-1850.514855,-11103.089130,0.000000
163571.999729,-4071.132681,-8660.409521,-1991.848295
163572.000049,-4441.235652,-5403.503377,-4290.134789
163572.000369,-74.020594,-8290.306550,-4060.306139
163572.000689,4663.297435,-9474.636058,-1915.238745
163572.001009,0.000000,-10732.986159,0.000000
163572.001329,0.000000,-11917.315666,0.000000
163572.001649,-2368.659014,-11029.068536,0.000000
163572.001969,-4145.153275,-11325.150913,612.876398
163572.002289,-3330.926739,-7328.038826,-1302.362347
163572.002609,444.123565,-7179.997637,153.219100
163572.002928,3627.009116,-6883.915261,2145.067394
163572.003248,3478.967927,-7105.977043,3217.601092
163572.003568,2294.638420,-8290.306550,2987.772442
163572.003888,-2960.823768,-8660.409521,1225.752797
163572.004208,-2738.761985,-11251.130318,-1915.238745
163572.004528,-3182.885551,-9178.553681,-2528.115143
163572.004848,-4737.318029,-9548.656652,0.000000
163572.005168,-1258.350101,-7698.141797,0.000000
163572.005488,222.061783,-9326.594869,1302.362347
163572.005808,-370.102971,-8956.491898,995.924147
163572.006128,-1184.329507,-8068.244768,-536.266849
163572.006447,-74.020594,-9474.636058,2068.457845
163572.006767,1110.308913,-7550.100608,76.609550
163572.007087,1776.494261,-8364.327145,229.828649
163572.007407,2590.720797,-9844.739029,0.000000
163572.007727,2960.823768,-10436.903782,3447.429741
163572.008047,-74.020594,-10658.965565,-76.609550
163572.008367,-888.247130,-11547.212695,-1302.362347
163572.008687,-3034.844362,-10732.986159,-2987.772442
163572.009007,-592.164754,-11177.109724,-1302.362347
163572.009327,2072.576638,-10214.842000,766.095498
163572.009647,1184.329507,-9548.656652,3064.381992
163572.009966,2146.597232,-9178.553681,2068.457845
163572.010286,-962.267725,-8512.368333,0.000000
163572.010606,-1998.556043,-9252.574275,-1149.143247
163572.010926,-2146.597232,-7550.100608,-1608.800546
163572.011246,-74.020594,-10362.883188,-76.609550
163572.011566,2294.638420,-9474.636058,1149.143247
163572.011886,0.000000,-8956.491898,229.828649
163572.012206,-444.123565,-9696.697840,0.000000
163572.012526,-1998.556043,-11325.150913,-76.609550
163572.012846,-7105.977043,-9548.656652,-3064.381992
163572.013166,-4071.132681,-9400.615463,-1915.238745
163572.013485,-2664.741391,-7476.080014,-1915.238745
163572.013805,-444.123565,-7624.121203,-995.924147
163572.014125,2294.638420,-9326.594869,995.924147
163572.014445,2368.659014,-8660.409521,2145.067394
163572.014765,-74.020594,-9474.636058,1455.581446
163572.015085,-2072.576638,-9474.636058,-1302.362347
163572.015405,-2442.679609,-9474.636058,-2528.115143
163572.015725,0.000000,-10732.986159,306.438199
163572.016045,296.082377,-8512.368333,0.000000
163572.016365,2146.597232,-9622.677246,919.314598
163572.016685,1110.308913,-8068.244768,0.000000
163572.017004,-666.185348,-8660.409521,-1608.800546
163572.017324,-2146.597232,-8586.388927,-3600.648841
163572.017644,-1036.288319,-8956.491898,-1685.410096
163572.017964,0.000000,-7772.162391,0.000000
163572.018284,3552.988522,-9400.615463,842.705048
163572.018604,3034.844362,-9474.636058,1149.143247
163572.018924,592.164754,-9548.656652,1838.629195
163572.019244,740.205942,-11177.109724,-689.485948
163572.019564,-1258.350101,-11917.315666,-536.266849
163572.019884,-1850.514855,-10584.944971,-1072.533697
163572.020204,-3108.864956,-7179.997637,-2451.505594
163572.020524,1110.308913,-7402.059420,-1302.362347
163572.020843,1998.556043,-8438.347739,-1302.362347
163572.021163,0.000000,-8364.327145,612.876398
163572.021483,-1850.514855,-9474.636058,0.000000
163572.021803,-2442.679609,-10584.944971,-1302.362347
163572.022123,-3552.988522,-7772.162391,-3370.820191
163572.022443,-1258.350101,-9992.780217,-1378.971896
163572.022763,2146.597232,-10288.862594,842.705048
163572.023083,3108.864956,-9844.739029,3370.820191
163572.023403,1702.473667,-10362.883188,1455.581446
163572.023723,-1036.288319,-11103.089130,842.705048
163572.024043,-3627.009116,-8734.430116,-1915.238745
163572.024362,-2442.679609,-7105.977043,-1302.362347
163572.024682,518.144159,-8142.265362,-1455.581446
163572.025002,4145.153275,-10584.944971,2987.772442
163572.025322,1036.288319,-9696.697840,2068.457845
163572.025642,-888.247130,-9992.780217,1915.238745
163572.025962,-2516.700203,-9548.656652,-1072.533697
163572.026282,-4071.132681,-9252.574275,-2451.505594
163572.026602,-3552.988522,-7179.997637,-3677.258390
163572.026922,666.185348,-9252.574275,842.705048
163572.027242,2960.823768,-9548.656652,2757.943793
163572.027562,4663.297435,-10955.047942,4060.306139
163572.027881,-74.020594,-11251.130318,2068.457845
163572.028201,-2960.823768,-11103.089130,536.266849
163572.028521,-4515.256246,-10066.800811,-2451.505594
163572.028841,-2368.659014,-9252.574275,-1685.410096
163572.029161,888.247130,-8956.491898,-383.047749
163572.029481,592.164754,-8364.327145,0.000000
163572.029801,2368.659014,-7772.162391,1991.848295
163572.030121,-814.226536,-6217.729913,-1608.800546
163572.030441,-3552.988522,-8068.244768,-2451.505594
163572.030761,-666.185348,-10807.006753,-2757.943793
163572.031081,2886.803174,-14211.954086,-76.609550
163572.031400,2368.659014,-11325.150913,2757.943793
163572.031720,3182.885551,-9474.636058,3524.039291
163572.032040,1702.473667,-7254.018232,1532.190996
163572.032360,-1258.350101,-8512.368333,-919.314598
163572.032680,-1702.473667,-8882.471304,-3140.991542
163572.033000,-74.020594,-10362.883188,-76.609550
163572.033320,-1258.350101,-8142.265362,-536.266849
163572.033640,0.000000,-8364.327145,-2451.505594
163572.033960,0.000000,-8660.409521,153.219100
163572.034280,2146.597232,-9474.636058,-76.609550
163572.034600,-2368.659014,-8956.491898,-1455.581446
163572.034919,-2368.659014,-11103.089130,-1378.971896
163572.035239,-2442.679609,-10732.986159,-689.485948
163572.035559,-2368.659014,-10140.821405,612.876398
163572.035879,0.000000,-7179.997637,612.876398
163572.036199,1332.370696,-8808.450710,1532.190996
163572.036519,518.144159,-8660.409521,1838.629195
163572.036839,-666.185348,-9474.636058,-1608.800546
163572.037159,-3034.844362,-9474.636058,-2528.115143
163572.037479,-1702.473667,-9474.636058,-766.095498
163572.037799,-2368.659014,-9326.594869,-1991.848295
163572.038119,148.041188,-9474.636058,-995.924147
163572.038439,2738.761985,-8734.430116,153.219100
163572.038758,0.000000,-8364.327145,0.000000
163572.039078,148.041188,-10140.821405,306.438199
163572.039398,-4145.153275,-9548.656652,0.000000
163572.039718,-2368.659014,-10288.862594,612.876398
163572.040038,-74.020594,-7698.141797,-76.609550
163572.040358,5847.626942,-8290.306550,-76.609550
163572.040678,4811.338623,-8290.306550,2145.067394
163572.040998,1998.556043,-8956.491898,1149.143247
163572.041318,-1554.432478,-10881.027347,0.000000
163572.041638,-3923.091493,-11029.068536,-76.609550
163572.041958,-4441.235652,-9548.656652,-3064.381992
163572.042277,-370.102971,-9178.553681,-1378.971896
163572.042597,592.164754,-8660.409521,153.219100
163572.042917,3478.967927,-8734.430116,4519.963438
163572.043237,3478.967927,-11251.130318,2374.896044
163572.043557,0.000000,-10140.821405,3064.381992
163572.043877,-2886.803174,-9030.512492,0.000000
163572.044197,-3330.926739,-8142.265362,-1149.143247
163572.044517,-2368.659014,-6883.915261,-2374.896044
163572.044837,-1036.288319,-6439.791695,-4290.134789
163572.045157,1184.329507,-10436.903782,0.000000
163572.045477,-814.226536,-12509.480420,229.828649
163572.045796,-2368.659014,-11917.315666,0.000000
163572.046116,-3627.009116,-10658.965565,-1915.238745
163572.046436,-4737.318029,-7179.997637,-3677.258390
163572.046756,-74.020594,-7550.100608,-3294.210641
163572.047076,4293.194464,-9178.553681,1532.190996
163572.047396,5255.462188,-8956.491898,3677.258390
163572.047716,2294.638420,-9474.636058,3370.820191
163572.048036,-74.020594,-11843.295072,-76.609550
163572.048356,-4737.318029,-7550.100608,-2911.162892
163572.048676,-3849.070898,-9548.656652,-3677.258390
163572.048996,0.000000,-9400.615463,-1685.410096
163572.049315,2664.741391,-10140.821405,919.314598
163572.049635,1480.411884,-10066.800811,3217.601092
163572.049955,-3552.988522,-6587.832884,-2451.505594
163572.050275,-4145.153275,-10288.862594,-2298.286494
163572.050595,-1258.350101,-11695.253884,-1378.971896
163572.050915,-1258.350101,-8734.430116,-2374.896044
163572.051235,4663.297435,-11251.130318,4213.525239
163572.051555,3552.988522,-7698.141797,3983.696590
163572.051875,2368.659014,-7254.018232,2374.896044
163572.052195,0.000000,-6439.791695,-1072.533697
163572.052515,-2960.823768,-8956.491898,-1915.238745
163572.052834,-2146.597232,-9770.718434,-2298.286494
163572.053154,-3404.947333,-9548.656652,-2451.505594
163572.053474,-2368.659014,-9548.656652,0.000000
163572.053794,888.247130,-9548.656652,0.000000
163572.054114,2294.638420,-8290.306550,-1302.362347
163572.054434,1628.453072,-9474.636058,1149.143247
163572.054754,0.000000,-8882.471304,0.000000
163572.055074,-518.144159,-9252.574275,536.266849
163572.055394,-740.205942,-8290.306550,383.047749
163572.055714,1924.535449,-10140.821405,2374.896044
163572.056034,2664.741391,-8734.430116,1838.629195
163572.056354,3478.967927,-11251.130318,2068.457845
163572.056673,-2368.659014,-9548.656652,0.000000
163572.056993,-4293.194464,-9844.739029,-2451.505594
163572.057313,-2442.679609,-11843.295072,-2528.115143
163572.057633,-3701.029710,-9844.739029,-1378.971896
163572.057953,444.123565,-10066.800811,689.485948
163572.058273,2516.700203,-9030.512492,2374.896044
163572.058593,2812.782580,-9548.656652,3907.087040
163572.058913,-1184.329507,-7179.997637,0.000000
163572.059233,-3552.988522,-10140.821405,0.000000
163572.059553,-3034.844362,-9474.636058,-1302.362347
163572.059873,-2072.576638,-8882.471304,-76.609550
163572.060192,-1184.329507,-7179.997637,0.000000
163572.060512,2294.638420,-9178.553681,1149.143247
163572.060832,0.000000,-8660.409521,-689.485948
163572.061152,-814.226536,-9844.739029,-995.924147
163572.061472,-1628.453072,-10288.862594,-995.924147
163572.061792,-2368.659014,-10807.006753,0.000000
163572.062112,-1554.432478,-8364.327145,-1455.581446
163572.062432,296.082377,-7179.997637,153.219100
163572.062752,3552.988522,-6587.832884,2145.067394
163572.063072,3478.967927,-8290.306550,-76.609550
163572.063392,1702.473667,-8364.327145,-2451.505594
163572.063711,592.164754,-11103.089130,689.485948
163572.064031,-1850.514855,-11769.274478,0.000000
163572.064351,-1924.535449,-10140.821405,-1915.238745
163572.064671,-518.144159,-10658.965565,-1915.238745
163572.064991,2294.638420,-9474.636058,-76.609550
163572.065311,1184.329507,-6587.832884,-1455.581446
163572.065631,-1258.350101,-8068.244768,-1838.629195
163572.065951,-2368.659014,-9548.656652,-1225.752797
163572.066271,-4145.153275,-10732.986159,-2451.505594
163572.066591,-666.185348,-10955.047942,-2528.115143
163572.066911,-1480.411884,-9622.677246,-536.266849
163572.067230,-296.082377,-8068.244768,0.000000
163572.067550,-666.185348,-6883.915261,-1838.629195
163572.067870,-74.020594,-10658.965565,-383.047749
163572.068190,-74.020594,-9474.636058,-1838.629195
163572.068510,-74.020594,-11843.295072,-76.609550
163572.068830,-222.061783,-10066.800811,-689.485948
163572.069150,-1184.329507,-6513.812290,-2528.115143
163572.069470,0.000000,-4811.338623,-2451.505594
163572.069790,1110.308913,-5921.647536,-2528.115143
163572.070110,814.226536,-8586.388927,-1762.019645
163572.070430,1036.288319,-9252.574275,-612.876398
163572.070749,0.000000,-9178.553681,-2451.505594
