#time,accel_x,accel_y,accel_z
59343.133955,-74.020594,-9252.574275,842.705048
59343.134264,0.000000,-10140.821405,3217.601092
59343.134574,-74.020594,-9918.759623,3294.210641
59343.134884,-2072.576638,-6587.832884,-1225.752797
59343.135193,0.000000,-9696.697840,2145.067394
59343.135503,-74.020594,-9178.553681,-76.609550
59343.135813,740.205942,-9696.697840,1455.581446
59343.136122,-1184.329507,-8956.491898,612.876398
59343.136432,-518.144159,-9178.553681,612.876398
59343.136742,-592.164754,-9104.533087,612.876398
59343.137051,-444.123565,-9104.533087,919.314598
59343.137361,-666.185348,-7698.141797,0.000000
59343.137671,-1184.329507,-7550.100608,-1302.362347
59343.137980,0.000000,-9548.656652,1225.752797
59343.138290,-74.020594,-9474.636058,1762.019645
59343.138600,-1776.494261,-7772.162391,0.000000
59343.138910,-1184.329507,-8364.327145,1225.752797
59343.139219,-74.020594,-9178.553681,1072.533697
59343.139529,-666.185348,-8956.491898,612.876398
59343.139839,-222.061783,-8956.491898,766.095498
59343.140148,0.000000,-9400.615463,842.705048
59343.140458,148.041188,-9474.636058,1838.629195
59343.140768,296.082377,-10140.821405,2757.943793
59343.141077,-74.020594,-8882.471304,-76.609550
59343.141387,-1776.494261,-8364.327145,612.876398
59343.141697,-74.020594,-9474.636058,-76.609550
59343.142006,-74.020594,-9178.553681,-76.609550
59343.142316,-592.164754,-8586.388927,766.095498
59343.142626,-370.102971,-8882.471304,459.657299
59343.142935,-148.041188,-9178.553681,919.314598
59343.143245,-518.144159,-8882.471304,1378.971896
59343.143555,-962.267725,-8290.306550,-76.609550
59343.143864,-1850.514855,-7179.997637,-1302.362347
59343.144174,888.247130,-10510.924376,2374.896044
59343.144484,-962.267725,-8290.306550,0.000000
59343.144794,0.000000,-10140.821405,3677.258390
59343.145103,-814.226536,-8660.409521,1991.848295
59343.145413,-74.020594,-9104.533087,1072.533697
59343.145723,-444.123565,-8956.491898,689.485948
59343.146032,-444.123565,-9104.533087,612.876398
59343.146342,-296.082377,-8290.306550,-76.609550
59343.146652,0.000000,-9696.697840,0.000000
59343.146961,592.164754,-10436.903782,2451.505594
59343.147271,-74.020594,-8290.306550,-76.609550
59343.147581,-1184.329507,-8364.327145,0.000000
59343.147890,-74.020594,-9474.636058,-76.609550
59343.148200,-74.020594,-9178.553681,-76.609550
59343.148510,-592.164754,-8808.450710,612.876398
59343.148819,-296.082377,-9030.512492,995.924147
59343.149129,-74.020594,-9030.512492,995.924147
59343.149439,0.000000,-8956.491898,2451.505594
59343.149748,-370.102971,-9474.636058,1762.019645
59343.150058,-1258.350101,-7772.162391,-383.047749
59343.150368,296.082377,-9918.759623,1991.848295
59343.150678,-814.226536,-8512.368333,0.000000
59343.150987,2294.638420,-11843.295072,-76.609550
59343.151297,0.000000,-8660.409521,1225.752797
59343.151607,-74.020594,-9474.636058,1149.143247
59343.151916,-592.164754,-9252.574275,459.657299
59343.152226,-296.082377,-9104.533087,1072.533697
59343.152536,-74.020594,-8586.388927,-76.609550
59343.152845,0.000000,-7772.162391,0.000000
59343.153155,888.247130,-10140.821405,2145.067394
59343.153465,-962.267725,-8142.265362,-229.828649
59343.153774,-3552.988522,-7179.997637,0.000000
59343.154084,-74.020594,-9178.553681,0.000000
59343.154394,-74.020594,-8882.471304,-76.609550
59343.154703,-740.205942,-8956.491898,383.047749
59343.155013,-518.144159,-9030.512492,459.657299
59343.155323,-296.082377,-9030.512492,612.876398
59343.155632,0.000000,-8660.409521,1532.190996
59343.155942,-74.020594,-9474.636058,1149.143247
59343.156252,-666.185348,-7846.182985,0.000000
59343.156562,592.164754,-8956.491898,2834.553343
59343.156871,2294.638420,-8290.306550,-76.609550
59343.157181,3108.864956,-10955.047942,4290.134789
59343.157491,1184.329507,-8660.409521,1225.752797
59343.157800,2294.638420,-9252.574275,1378.971896
59343.158110,2294.638420,-9030.512492,1149.143247
59343.158420,2220.617826,-8956.491898,1149.143247
59343.158729,2294.638420,-8290.306550,536.266849
59343.159039,1184.329507,-8364.327145,0.000000
59343.159349,3849.070898,-10140.821405,1838.629195
59343.159658,2738.761985,-7772.162391,-2068.457845
59343.159968,4663.297435,-11473.192101,2374.896044
59343.160278,814.226536,-6439.791695,-2145.067394
59343.160587,4071.132681,-9178.553681,536.266849
59343.160897,4145.153275,-8882.471304,919.314598
59343.161207,5033.400406,-8512.368333,1532.190996
59343.161516,5255.462188,-8364.327145,1455.581446
59343.161826,5329.482782,-8364.327145,2604.724693
59343.162136,6439.791695,-9474.636058,2068.457845
59343.162446,4959.379811,-8142.265362,0.000000
59343.162755,5847.626942,-11547.212695,2374.896044
59343.163065,4663.297435,-7994.224174,-1302.362347
59343.163375,6069.688724,-9474.636058,1532.190996
59343.163684,5033.400406,-9548.656652,0.000000
59343.163994,5403.503377,-10288.862594,-229.828649
59343.164304,4441.235652,-11695.253884,-306.438199
59343.164613,3034.844362,-11621.233289,-1149.143247
59343.164923,2294.638420,-11843.295072,-1302.362347
59343.165233,1628.453072,-11473.192101,0.000000
59343.165542,2146.597232,-10362.883188,842.705048
59343.165852,2960.823768,-8512.368333,1608.800546
59343.166162,4219.173869,-5921.647536,2068.457845
59343.166471,6661.853478,-5773.606348,3983.696590
59343.166781,8142.265362,-3627.009116,4213.525239
59343.167091,7328.038826,-1258.350101,1455.581446
59343.167400,10955.047942,-7105.977043,4290.134789
59343.167710,6439.791695,-8882.471304,842.705048
59343.168020,3478.967927,-13619.789333,-689.485948
59343.168330,-2368.659014,-16358.551318,-3677.258390
59343.168639,-5329.482782,-17838.963202,-4290.134789
59343.168949,-2442.679609,-16580.613101,-2528.115143
59343.169259,-6513.812290,-9548.656652,-4596.572988
59343.169568,-3108.864956,-5699.585753,-2145.067394
59343.169878,3478.967927,-6809.894666,2681.334243
59343.170188,4885.359217,-5107.421000,5056.230287
59343.170497,4515.256246,-4811.338623,5209.449386
59343.170807,3034.844362,-5033.400406,4673.182538
59343.171117,1184.329507,-3034.844362,3983.696590
59343.171426,3330.926739,-4145.153275,3600.648841
59343.171736,3552.988522,-3256.906145,1762.019645
59343.172046,2960.823768,-7105.977043,842.705048
59343.172355,0.000000,-11251.130318,-1149.143247
59343.172665,-3330.926739,-16580.613101,-4519.963438
59343.172975,-7031.956449,-19023.292709,-6511.811733
59343.173284,-7105.977043,-17838.963202,-3677.258390
59343.173594,-3627.009116,-13027.624579,-3753.867940
59343.173904,-2368.659014,-6587.832884,-2145.067394
59343.174214,1184.329507,-4811.338623,2451.505594
59343.174523,5625.565159,-5255.462188,5209.449386
59343.174833,5921.647536,-4515.256246,5669.106685
59343.175143,7105.977043,-4219.173869,6205.373534
59343.175452,8734.430116,-2960.823768,5898.935335
59343.175762,9400.615463,-4737.318029,5745.716235
59343.176072,6883.915261,-5403.503377,2068.457845
59343.176381,0.000000,-11917.315666,612.876398
59343.176691,-4811.338623,-15988.448347,-4979.620737
59343.177001,-7105.977043,-16654.633695,-6741.640382
59343.177310,-7105.977043,-15470.304188,-5975.544884
59343.177620,-7105.977043,-14508.036463,-5209.449386
59343.177930,-7254.018232,-12361.439231,-4060.306139
59343.178239,-3256.906145,-9104.533087,-995.924147
59343.178549,2294.638420,-5847.626942,3600.648841
59343.178859,9400.615463,-2368.659014,8503.660028
59343.179168,12953.603985,0.000000,9729.412825
59343.179478,9474.636058,2294.638420,8580.269578
59343.179788,10584.944971,-5625.565159,8963.317327
59343.180098,2072.576638,-8364.327145,2681.334243
59343.180407,-2590.720797,-11547.212695,-3677.258390
59343.180717,-8068.244768,-16432.571912,-6052.154434
59343.181027,-11991.336260,-15914.427753,-9576.193725
59343.181336,-14878.139434,-17542.880825,-9269.755526
59343.181646,-11399.171507,-15248.242405,-5898.935335
59343.181956,-2590.720797,-12435.459826,-459.657299
59343.182265,3775.050304,-9474.636058,4826.401637
59343.182575,8808.450710,-1184.329507,6052.154434
59343.182885,8290.306550,-814.226536,9806.022374
59343.183194,9400.615463,-2960.823768,9422.974625
59343.183504,4663.297435,-3849.070898,3907.087040
59343.183814,0.000000,-5403.503377,0.000000
59343.184123,-3923.091493,-10510.924376,-995.924147
59343.184433,-7698.141797,-13619.789333,-2757.943793
59343.184743,-10955.047942,-15544.324782,-3907.087040
59343.185052,-11843.295072,-16950.716072,-5822.325785
59343.185362,-7105.977043,-14285.974681,-1838.629195
59343.185672,-74.020594,-10658.965565,1762.019645
59343.185981,1184.329507,-4811.338623,2451.505594
59343.186291,3923.091493,-4811.338623,5209.449386
59343.186601,5551.544565,-6217.729913,4826.401637
59343.186911,2516.700203,-5699.585753,3677.258390
59343.187220,518.144159,-5921.647536,2068.457845
59343.187530,-1110.308913,-6217.729913,689.485948
59343.187840,-3775.050304,-8660.409521,-612.876398
59343.188149,-5625.565159,-9548.656652,0.000000
59343.188459,-4737.318029,-11917.315666,0.000000
59343.188769,-1258.350101,-15396.283594,-383.047749
59343.189078,0.000000,-9844.739029,-1225.752797
59343.189388,666.185348,-11325.150913,766.095498
59343.189698,1554.432478,-10955.047942,2374.896044
59343.190007,74.020594,-10066.800811,612.876398
59343.190317,444.123565,-9104.533087,1149.143247
59343.190627,2294.638420,-6735.874072,2298.286494
59343.190936,2886.803174,-6143.709319,2451.505594
59343.191246,0.000000,-5403.503377,1838.629195
59343.191556,-2368.659014,-5995.668130,0.000000
59343.191865,-74.020594,-11843.295072,2374.896044
59343.192175,-740.205942,-8364.327145,459.657299
59343.192485,2368.659014,-8512.368333,2298.286494
59343.192795,2368.659014,-9474.636058,3294.210641
59343.193104,518.144159,-10066.800811,153.219100
59343.193414,-962.267725,-10362.883188,-842.705048
59343.193724,-1480.411884,-12509.480420,-919.314598
59343.194033,-962.267725,-8956.491898,-3064.381992
59343.194343,-1258.350101,-7254.018232,-1685.410096
59343.194653,-1258.350101,-6217.729913,-1149.143247
59343.194962,0.000000,-8956.491898,2451.505594
59343.195272,1110.308913,-7698.141797,1149.143247
59343.195582,2960.823768,-6883.915261,2987.772442
59343.195891,4737.318029,-6587.832884,4290.134789
59343.196201,4367.215058,-7698.141797,3677.258390
59343.196511,1110.308913,-9992.780217,2145.067394
59343.196820,-1480.411884,-11325.150913,0.000000
59343.197130,-1998.556043,-9770.718434,-1915.238745
59343.197440,-1850.514855,-10066.800811,-2528.115143
59343.197749,-5255.462188,-7772.162391,-3907.087040
59343.198059,-4145.153275,-12509.480420,0.000000
59343.198369,-2738.761985,-11843.295072,-383.047749
59343.198679,-3182.885551,-8734.430116,306.438199
59343.198988,0.000000,-5403.503377,1838.629195
59343.199298,4663.297435,-4441.235652,4443.353888
59343.199608,5033.400406,-4589.276840,4596.572988
59343.199918,2664.741391,-7179.997637,3140.991542
59343.200228,-370.102971,-9474.636058,1762.019645
59343.200537,-74.020594,-10658.965565,-76.609550
59343.200847,-2442.679609,-9474.636058,-2528.115143
59343.201157,-4737.318029,-10140.821405,0.000000
59343.201467,-4811.338623,-11843.295072,-1302.362347
59343.201777,-6883.915261,-11177.109724,-2451.505594
59343.202086,-4737.318029,-7476.080014,-2145.067394
59343.202396,1184.329507,-7179.997637,2298.286494
59343.202706,4145.153275,-5107.421000,3983.696590
59343.203016,2960.823768,-4885.359217,3677.258390
59343.203326,2886.803174,-9474.636058,4826.401637
59343.203635,1406.391290,-10658.965565,2374.896044
59343.203945,-4737.318029,-7772.162391,-3294.210641
59343.204255,-1258.350101,-12731.542202,-76.609550
59343.204565,-5107.421000,-9844.739029,-2528.115143
59343.204875,-3182.885551,-15174.221811,0.000000
59343.205184,-4885.359217,-11991.336260,-2528.115143
59343.205494,-1776.494261,-9252.574275,1072.533697
59343.205804,1924.535449,-6365.771101,3447.429741
59343.206114,4737.318029,-3627.009116,5132.839837
59343.206424,6735.874072,-6217.729913,7277.907231
59343.206733,3108.864956,-8364.327145,3370.820191
59343.207043,1480.411884,-11029.068536,2298.286494
59343.207353,-1850.514855,-9474.636058,-1915.238745
59343.207663,-2960.823768,-11029.068536,-76.609550
59343.207973,-2738.761985,-10732.986159,-4060.306139
59343.208283,-3627.009116,-12435.459826,-2528.115143
59343.208592,-3849.070898,-12657.521608,-1149.143247
59343.208902,0.000000,-10288.862594,689.485948
59343.209212,4293.194464,-7476.080014,3370.820191
59343.209522,5921.647536,-4515.256246,4903.011187
59343.209832,4145.153275,-5107.421000,4826.401637
59343.210141,2368.659014,-7772.162391,3677.258390
59343.210451,1998.556043,-9474.636058,1149.143247
59343.210761,-2072.576638,-7476.080014,-3677.258390
59343.211071,-148.041188,-8956.491898,-1762.019645
59343.211381,-666.185348,-11843.295072,-689.485948
59343.211690,-3478.967927,-12065.356855,-1762.019645
59343.212000,-2886.803174,-12805.562797,-1072.533697
59343.212310,-296.082377,-9918.759623,459.657299
59343.212620,1184.329507,-5995.668130,1532.190996
59343.212930,2960.823768,-4811.338623,4213.525239
59343.213239,592.164754,-5995.668130,2451.505594
59343.213549,2294.638420,-9474.636058,3064.381992
59343.213859,-222.061783,-7698.141797,-689.485948
59343.214169,-1776.494261,-7846.182985,-995.924147
59343.214479,-74.020594,-9326.594869,-76.609550
59343.214788,-1998.556043,-9696.697840,-919.314598
59343.215098,-2812.782580,-11029.068536,-612.876398
59343.215408,-2442.679609,-11251.130318,-612.876398
59343.215718,-1776.494261,-8364.327145,0.000000
59343.216028,1776.494261,-8290.306550,2834.553343
59343.216337,1184.329507,-6587.832884,2451.505594
59343.216647,1776.494261,-9474.636058,3140.991542
59343.216957,-666.185348,-9474.636058,-76.609550
59343.217267,-1924.535449,-10658.965565,536.266849
59343.217577,-74.020594,-10066.800811,1072.533697
59343.217886,-1036.288319,-7994.224174,229.828649
59343.218196,-2146.597232,-9474.636058,0.000000
59343.218506,-2516.700203,-10288.862594,0.000000
59343.218816,-3552.988522,-8660.409521,-995.924147
59343.219126,0.000000,-7402.059420,-76.609550
59343.219435,0.000000,-4811.338623,1225.752797
59343.219745,3404.947333,-8068.244768,3677.258390
59343.220055,1110.308913,-7698.141797,-76.609550
59343.220365,-2146.597232,-11177.109724,1455.581446
59343.220675,-2960.823768,-10807.006753,306.438199
59343.220984,-2590.720797,-9474.636058,-536.266849
59343.221294,-2516.700203,-8808.450710,229.828649
59343.221604,-2146.597232,-9178.553681,536.266849
59343.221914,-2738.761985,-9474.636058,1149.143247
59343.222224,-1110.308913,-8956.491898,1072.533697
59343.222533,370.102971,-6513.812290,1149.143247
59343.222843,4145.153275,-6291.750507,3983.696590
59343.223153,4663.297435,-5921.647536,3600.648841
59343.223463,2294.638420,-9696.697840,4290.134789
59343.223773,-1776.494261,-9844.739029,0.000000
59343.224082,-1480.411884,-11547.212695,-995.924147
59343.224392,-1480.411884,-10510.924376,-1225.752797
59343.224702,-2220.617826,-10362.883188,-536.266849
59343.225012,-1258.350101,-12435.459826,-76.609550
59343.225322,-1850.514855,-11473.192101,229.828649
59343.225631,-74.020594,-9474.636058,1149.143247
59343.225941,296.082377,-5403.503377,1991.848295
59343.226251,6957.935855,-7179.997637,7048.078582
59343.226561,5181.441594,-5255.462188,5515.887586
59343.226871,1184.329507,-7179.997637,1838.629195
59343.227180,-444.123565,-9992.780217,995.924147
59343.227490,-2664.741391,-10732.986159,-1072.533697
59343.227800,-2738.761985,-10362.883188,-2145.067394
59343.228110,-2442.679609,-11843.295072,-689.485948
59343.228420,-3552.988522,-10732.986159,-919.314598
59343.228729,-2442.679609,-11843.295072,-689.485948
59343.229039,-2368.659014,-8068.244768,0.000000
59343.229349,3552.988522,-8364.327145,4903.011187
59343.229659,4145.153275,-4811.338623,3983.696590
59343.229969,3404.947333,-4071.132681,2757.943793
59343.230278,2220.617826,-8068.244768,2221.676944
59343.230588,-148.041188,-9474.636058,0.000000
59343.230898,-1406.391290,-10732.986159,-1302.362347
59343.231208,-74.020594,-11769.274478,-76.609550
59343.231518,-2664.741391,-10732.986159,-1838.629195
59343.231827,-1554.432478,-14211.954086,-76.609550
59343.232137,-3182.885551,-11843.295072,-689.485948
59343.232447,-4145.153275,-7772.162391,0.000000
59343.232757,2368.659014,-5995.668130,1225.752797
59343.233067,3923.091493,-4589.276840,3600.648841
59343.233376,2664.741391,-5255.462188,3370.820191
59343.233686,592.164754,-7920.203579,2145.067394
59343.233996,-1406.391290,-9400.615463,536.266849
59343.234306,-1776.494261,-8956.491898,0.000000
59343.234616,-2664.741391,-8956.491898,-1072.533697
59343.234925,-2664.741391,-10436.903782,-612.876398
59343.235235,-4811.338623,-11399.171507,-1608.800546
59343.235545,-4737.318029,-10140.821405,0.000000
59343.235855,-2220.617826,-8808.450710,-1455.581446
59343.236165,3182.885551,-7105.977043,2068.457845
59343.236474,3552.988522,-5477.523971,3140.991542
59343.236784,2516.700203,-7031.956449,2987.772442
59343.237094,370.102971,-8660.409521,1608.800546
59343.237404,-2368.659014,-8956.491898,0.000000
59343.237714,-1554.432478,-9178.553681,-689.485948
59343.238023,-2072.576638,-9548.656652,0.000000
59343.238333,-1258.350101,-10658.965565,-76.609550
59343.238643,-4737.318029,-9548.656652,0.000000
59343.238953,-2442.679609,-11251.130318,-383.047749
59343.239263,1110.308913,-10658.965565,2374.896044
59343.239572,2960.823768,-6069.688724,2987.772442
59343.239882,3034.844362,-6069.688724,3830.477490
59343.240192,1850.514855,-8216.285956,2987.772442
59343.240502,-2072.576638,-8956.491898,0.000000
59343.240812,-1406.391290,-10510.924376,-76.609550
59343.241121,-4145.153275,-8364.327145,0.000000
59343.241431,-666.185348,-9474.636058,1149.143247
59343.241741,-4515.256246,-7179.997637,-2221.676944
59343.242051,-2442.679609,-10362.883188,-76.609550
59343.242361,-2146.597232,-11769.274478,1378.971896
59343.242670,666.185348,-8142.265362,1302.362347
59343.242980,3256.906145,-6513.812290,2834.553343
59343.243290,3849.070898,-6143.709319,3217.601092
59343.243600,814.226536,-6735.874072,1762.019645
59343.243910,518.144159,-9474.636058,-76.609550
59343.244219,-2368.659014,-9548.656652,0.000000
59343.244529,-74.020594,-11251.130318,2374.896044
59343.244839,-1258.350101,-8882.471304,-2221.676944
59343.245149,-1258.350101,-11843.295072,1762.019645
59343.245459,-2220.617826,-12213.398043,306.438199
59343.245768,-1184.329507,-11251.130318,612.876398
59343.246078,2146.597232,-7179.997637,2145.067394
59343.246388,4663.297435,-5921.647536,3217.601092
59343.246698,5255.462188,-4737.318029,3447.429741
59343.247008,3478.967927,-8882.471304,2374.896044
59343.247318,-1702.473667,-8734.430116,-689.485948
59343.247627,-3552.988522,-9844.739029,0.000000
59343.247937,-74.020594,-11843.295072,-1302.362347
59343.248247,-1554.432478,-11547.212695,-76.609550
59343.248557,-3849.070898,-10732.986159,-1225.752797
59343.248867,-2738.761985,-11843.295072,-229.828649
59343.249176,-1258.350101,-10214.842000,459.657299
59343.249486,2368.659014,-7550.100608,2145.067394
59343.249796,5847.626942,-6513.812290,4213.525239
59343.250106,4737.318029,-4959.379811,4060.306139
59343.250416,3478.967927,-7994.224174,2374.896044
59343.250725,-1776.494261,-9548.656652,0.000000
59343.251035,-74.020594,-11843.295072,-1302.362347
59343.251345,-1776.494261,-10732.986159,-1225.752797
59343.251655,-3552.988522,-9844.739029,-1838.629195
59343.251965,-3478.967927,-12065.356855,-919.314598
59343.252274,-3404.947333,-12953.603985,0.000000
59343.252584,-1036.288319,-10288.862594,842.705048
59343.252894,3478.967927,-8882.471304,4213.525239
59343.253204,4145.153275,-4811.338623,4290.134789
59343.253514,4663.297435,-6513.812290,4826.401637
59343.253823,592.164754,-5995.668130,0.000000
59343.254133,-1184.329507,-10140.821405,2451.505594
59343.254443,-3404.947333,-8660.409521,0.000000
59343.254753,-3923.091493,-8142.265362,-1838.629195
59343.255063,-3182.885551,-9548.656652,-766.095498
59343.255372,-3923.091493,-11177.109724,-383.047749
59343.255682,-4811.338623,-11177.109724,-612.876398
59343.255992,-1480.411884,-10732.986159,689.485948
59343.256302,1924.535449,-7105.977043,2145.067394
59343.256612,5551.544565,-7105.977043,4826.401637
59343.256921,3775.050304,-5921.647536,2374.896044
59343.257231,0.000000,-7179.997637,1225.752797
59343.257541,-2368.659014,-7772.162391,0.000000
59343.257851,-1406.391290,-9326.594869,-919.314598
59343.258161,-1998.556043,-9622.677246,-689.485948
59343.258470,-2442.679609,-10214.842000,-842.705048
59343.258780,-3701.029710,-11991.336260,-612.876398
59343.259090,-2368.659014,-11325.150913,0.000000
59343.259400,-3552.988522,-7772.162391,0.000000
59343.259710,4293.194464,-8586.388927,4213.525239
59343.260019,4071.132681,-5329.482782,2374.896044
59343.260329,592.164754,-4811.338623,1532.190996
59343.260639,148.041188,-8142.265362,1225.752797
59343.260949,-1554.432478,-10362.883188,-76.609550
59343.261259,-2960.823768,-8734.430116,-1225.752797
59343.261568,-2738.761985,-8808.450710,-995.924147
59343.261878,-2738.761985,-9178.553681,-995.924147
59343.262188,-4145.153275,-9548.656652,-1072.533697
59343.262498,-4737.318029,-9548.656652,0.000000
59343.262808,1110.308913,-10362.883188,1455.581446
59343.263117,2886.803174,-7105.977043,1762.019645
59343.263427,2368.659014,-4811.338623,2451.505594
59343.263737,3478.967927,-6513.812290,842.705048
59343.264047,2294.638420,-10362.883188,1762.019645
59343.264357,-962.267725,-10436.903782,-842.705048
59343.264666,-1110.308913,-10658.965565,-919.314598
59343.264976,-666.185348,-10214.842000,-383.047749
59343.265286,-2368.659014,-9918.759623,-459.657299
59343.265596,-4441.235652,-10881.027347,-1225.752797
59343.265906,-1776.494261,-12509.480420,919.314598
59343.266215,1110.308913,-9474.636058,-76.609550
59343.266525,1184.329507,-4811.338623,2451.505594
59343.266835,5847.626942,-5921.647536,3294.210641
59343.267145,3478.967927,-7994.224174,3524.039291
59343.267455,-444.123565,-9548.656652,1149.143247
59343.267764,-2072.576638,-10214.842000,-153.219100
59343.268074,-2812.782580,-9992.780217,-1149.143247
59343.268384,-3627.009116,-9104.533087,-1302.362347
59343.268694,-3404.947333,-10436.903782,-612.876398
59343.269004,-4737.318029,-9844.739029,-1225.752797
59343.269313,-1776.494261,-11621.233289,2451.505594
59343.269623,2294.638420,-9474.636058,2374.896044
59343.269933,5847.626942,-7105.977043,3600.648841
59343.270243,4737.318029,-5921.647536,3830.477490
59343.270553,2664.741391,-6957.935855,2681.334243
59343.270862,222.061783,-9474.636058,842.705048
59343.271172,-1406.391290,-10288.862594,-919.314598
59343.271482,-1258.350101,-10362.883188,-76.609550
59343.271792,-1850.514855,-10584.944971,-1072.533697
59343.272102,-4219.173869,-10807.006753,-1302.362347
59343.272411,-4737.318029,-11917.315666,612.876398
59343.272721,-74.020594,-13027.624579,2068.457845
59343.273031,4367.215058,-9474.636058,4826.401637
59343.273341,4145.153275,-5403.503377,4443.353888
59343.273651,4811.338623,-5255.462188,4979.620737
59343.273960,1924.535449,-6735.874072,2604.724693
59343.274270,-1110.308913,-9474.636058,1072.533697
59343.274580,-1850.514855,-9474.636058,306.438199
59343.274890,-1258.350101,-10658.965565,-383.047749
59343.275200,-4737.318029,-8660.409521,-2145.067394
59343.275509,-3330.926739,-14211.954086,-76.609550
59343.275819,-5995.668130,-11251.130318,-2528.115143
59343.276129,-2960.823768,-11843.295072,1838.629195
59343.276439,0.000000,-7179.997637,1225.752797
59343.276749,3552.988522,-5995.668130,3140.991542
59343.277058,4589.276840,-5477.523971,3600.648841
59343.277368,3034.844362,-6661.853478,3064.381992
59343.277678,1850.514855,-9178.553681,612.876398
59343.277988,-592.164754,-8808.450710,-536.266849
59343.278298,-666.185348,-9030.512492,-1302.362347
59343.278607,-888.247130,-11399.171507,1532.190996
59343.278917,-3034.844362,-11251.130318,-2528.115143
59343.279227,-4737.318029,-13101.645173,0.000000
59343.279537,-2368.659014,-10436.903782,0.000000
59343.279847,2220.617826,-8068.244768,2451.505594
59343.280156,4367.215058,-5699.585753,3370.820191
59343.280466,3330.926739,-6439.791695,3064.381992
59343.280776,962.267725,-8142.265362,1762.019645
59343.281086,-1110.308913,-9844.739029,612.876398
59343.281396,-1258.350101,-10066.800811,-76.609550
59343.281705,-4737.318029,-7179.997637,0.000000
59343.282015,-1258.350101,-9474.636058,-383.047749
59343.282325,-5921.647536,-9548.656652,0.000000
59343.282635,-4663.297435,-10732.986159,-1455.581446
59343.282945,-1332.370696,-9548.656652,612.876398
59343.283254,2812.782580,-7698.141797,2451.505594
59343.283564,4663.297435,-5847.626942,3677.258390
59343.283874,3775.050304,-6587.832884,2757.943793
59343.284184,1332.370696,-8586.388927,1302.362347
59343.284494,814.226536,-11029.068536,1149.143247
59343.284804,-3552.988522,-7772.162391,-3370.820191
59343.285113,-592.164754,-10732.986159,153.219100
59343.285423,-4145.153275,-8364.327145,-2145.067394
59343.285733,-3034.844362,-11547.212695,-842.705048
59343.286043,-2664.741391,-11695.253884,0.000000
59343.286353,518.144159,-9770.718434,1532.190996
59343.286662,3849.070898,-6513.812290,3294.210641
59343.286972,4737.318029,-4737.318029,4826.401637
59343.287282,2368.659014,-5403.503377,3064.381992
59343.287592,2072.576638,-9918.759623,4826.401637
59343.287902,-2442.679609,-8438.347739,-1915.238745
59343.288211,-4145.153275,-9548.656652,0.000000
59343.288521,-4145.153275,-8438.347739,-2451.505594
59343.288831,-3034.844362,-10658.965565,-1302.362347
59343.289141,-4811.338623,-11547.212695,-842.705048
59343.289451,-4293.194464,-10881.027347,-153.219100
59343.289760,-1110.308913,-8438.347739,1072.533697
59343.290070,2886.803174,-6513.812290,4213.525239
59343.290380,3552.988522,-3182.885551,3370.820191
59343.290690,3552.988522,-5403.503377,4903.011187
59343.291000,3478.967927,-8882.471304,1762.019645
59343.291309,0.000000,-9548.656652,0.000000
59343.291619,-1258.350101,-10658.965565,-2834.553343
59343.291929,-1554.432478,-11103.089130,-1302.362347
59343.292239,-3108.864956,-11621.233289,-1838.629195
59343.292549,-3849.070898,-12805.562797,-689.485948
59343.292858,-2368.659014,-12361.439231,0.000000
59343.293168,1702.473667,-10066.800811,3447.429741
59343.293478,4441.235652,-6661.853478,3830.477490
59343.293788,4145.153275,-3627.009116,1225.752797
59343.294098,5847.626942,-8882.471304,6511.811733
59343.294407,-74.020594,-8882.471304,1149.143247
59343.294717,-1258.350101,-9474.636058,-76.609550
59343.295027,-3552.988522,-9548.656652,-1225.752797
59343.295337,-3330.926739,-9474.636058,-919.314598
59343.295647,-4441.235652,-10066.800811,-1455.581446
59343.295956,-5329.482782,-11251.130318,-1532.190996
59343.296266,-2442.679609,-12287.418637,-76.609550
59343.296576,-74.020594,-8290.306550,1149.143247
59343.296886,2738.761985,-3923.091493,536.266849
59343.297196,3552.988522,-4811.338623,4903.011187
59343.297505,4663.297435,-8290.306550,3600.648841
59343.297815,3478.967927,-10658.965565,2374.896044
59343.298125,0.000000,-10066.800811,0.000000
59343.298435,-740.205942,-10584.944971,-1302.362347
59343.298745,-1924.535449,-10214.842000,-1302.362347
59343.299054,-3404.947333,-11769.274478,-1378.971896
59343.299364,-3701.029710,-13101.645173,-1225.752797
59343.299674,-1554.432478,-12435.459826,-76.609550
59343.299984,296.082377,-7179.997637,0.000000
59343.300294,6809.894666,-7994.224174,6588.421283
59343.300603,6439.791695,-5625.565159,4826.401637
59343.300913,5107.421000,-8290.306550,6052.154434
59343.301223,0.000000,-8512.368333,1532.190996
59343.301533,-1702.473667,-9696.697840,0.000000
59343.301842,-2886.803174,-8956.491898,-1608.800546
59343.302152,-4367.215058,-9548.656652,-2145.067394
59343.302462,-7105.977043,-10140.821405,-2451.505594
59343.302772,-5403.503377,-13027.624579,-1455.581446
59343.303082,-4663.297435,-8364.327145,-3753.867940
59343.303391,0.000000,-7179.997637,2451.505594
59343.303701,5847.626942,-7105.977043,4826.401637
59343.304011,5033.400406,-5551.544565,5515.887586
59343.304321,2960.823768,-7179.997637,5209.449386
59343.304630,1184.329507,-8512.368333,1608.800546
59343.304940,0.000000,-9696.697840,0.000000
59343.305250,-1258.350101,-9474.636058,-1225.752797
59343.305560,-2146.597232,-10436.903782,-766.095498
59343.305869,-2738.761985,-13027.624579,-1302.362347
59343.306179,-6439.791695,-11917.315666,-2451.505594
59343.306489,-74.020594,-13915.871710,2987.772442
59343.306799,2886.803174,-8290.306550,1762.019645
59343.307108,5033.400406,-7402.059420,6588.421283
59343.307418,2368.659014,-5107.421000,4290.134789
59343.307728,1850.514855,-8882.471304,3753.867940
59343.308038,-518.144159,-10066.800811,1302.362347
59343.308348,-1776.494261,-9696.697840,229.828649
59343.308657,-1702.473667,-9104.533087,-1225.752797
59343.308967,-2442.679609,-10362.883188,-76.609550
59343.309277,-5847.626942,-9844.739029,-2221.676944
59343.309587,-4811.338623,-14211.954086,-76.609550
59343.309896,-2442.679609,-9474.636058,-689.485948
59343.310206,592.164754,-6291.750507,3370.820191
59343.310516,3552.988522,-4811.338623,3140.991542
59343.310826,3849.070898,-5699.585753,3753.867940
59343.311135,2146.597232,-8142.265362,1838.629195
59343.311445,370.102971,-9696.697840,995.924147
59343.311755,-592.164754,-9548.656652,-1762.019645
59343.312065,-296.082377,-10436.903782,-153.219100
59343.312375,-1850.514855,-10510.924376,-1608.800546
59343.312684,-5921.647536,-10732.986159,0.000000
59343.312994,-1850.514855,-14211.954086,-76.609550
59343.313304,-2368.659014,-8364.327145,0.000000
59343.313614,3478.967927,-6513.812290,1762.019645
59343.313923,5551.544565,-5551.544565,3907.087040
59343.314233,4589.276840,-6513.812290,4213.525239
59343.314543,1998.556043,-9474.636058,2757.943793
59343.314853,-740.205942,-10288.862594,76.609550
59343.315162,-1332.370696,-10436.903782,-383.047749
59343.315472,-1332.370696,-10362.883188,-76.609550
59343.315782,-5699.585753,-8364.327145,-3447.429741
59343.316092,-4737.318029,-11917.315666,-919.314598
59343.316401,-5921.647536,-9548.656652,-2298.286494
59343.316711,-74.020594,-8882.471304,1762.019645
59343.317021,1850.514855,-5181.441594,2911.162892
59343.317331,3849.070898,-4737.318029,3983.696590
59343.317641,4663.297435,-5847.626942,4136.915689
59343.317950,1110.308913,-8068.244768,2374.896044
59343.318260,-2368.659014,-8364.327145,0.000000
59343.318570,-1258.350101,-11251.130318,-689.485948
59343.318880,-5921.647536,-7179.997637,-4903.011187
59343.319189,-4145.153275,-11029.068536,-1225.752797
59343.319499,-5403.503377,-11325.150913,-3524.039291
59343.319809,-2442.679609,-12139.377449,-76.609550
59343.320119,1332.370696,-9326.594869,1685.410096
59343.320428,5107.421000,-6513.812290,3753.867940
59343.320738,6143.709319,-5107.421000,5209.449386
59343.321048,4515.256246,-6513.812290,6052.154434
59343.321358,666.185348,-8364.327145,1991.848295
59343.321668,-1184.329507,-8956.491898,0.000000
59343.321977,-74.020594,-11843.295072,-76.609550
59343.322287,-5921.647536,-8364.327145,-2451.505594
59343.322597,-4811.338623,-10658.965565,-3140.991542
59343.322907,-6809.894666,-12509.480420,-2451.505594
59343.323216,-4959.379811,-11695.253884,-1608.800546
59343.323526,-962.267725,-8660.409521,1149.143247
59343.323836,3182.885551,-5329.482782,3524.039291
59343.324146,5847.626942,-6513.812290,6665.030833
59343.324455,4071.132681,-5625.565159,3600.648841
59343.324765,1184.329507,-7179.997637,0.000000
59343.325075,2294.638420,-11547.212695,2911.162892
59343.325385,-74.020594,-9474.636058,-1302.362347
59343.325694,-74.020594,-10658.965565,-1608.800546
59343.326004,-4145.153275,-11325.150913,-1991.848295
59343.326314,-4367.215058,-12879.583391,-1915.238745
59343.326624,-2886.803174,-12731.542202,-995.924147
59343.326934,1480.411884,-9030.512492,1225.752797
59343.327243,6143.709319,-8142.265362,5286.058936
59343.327553,5255.462188,-6365.771101,5362.668486
59343.327863,2664.741391,-6809.894666,2374.896044
59343.328173,0.000000,-9548.656652,2451.505594
59343.328482,-74.020594,-10658.965565,1762.019645
59343.328792,-74.020594,-10658.965565,-76.609550
59343.329102,-3849.070898,-8364.327145,-1072.533697
59343.329412,-5699.585753,-9992.780217,-1608.800546
59343.329721,-5995.668130,-11103.089130,-1532.190996
59343.330031,-3627.009116,-10658.965565,-689.485948
59343.330341,1184.329507,-7772.162391,3064.381992
59343.330651,4145.153275,-5699.585753,3524.039291
59343.330960,5699.585753,-7698.141797,4826.401637
59343.331270,0.000000,-5995.668130,1225.752797
59343.331580,296.082377,-9548.656652,1225.752797
59343.331890,-148.041188,-11843.295072,1762.019645
59343.332200,-2220.617826,-8882.471304,-2068.457845
59343.332509,-2812.782580,-9770.718434,-1991.848295
59343.332819,-3775.050304,-11473.192101,-1532.190996
59343.333129,-4219.173869,-12213.398043,-995.924147
59343.333439,-2368.659014,-9548.656652,0.000000
59343.333748,3775.050304,-8882.471304,2911.162892
59343.334058,5847.626942,-7105.977043,4826.401637
59343.334368,2368.659014,-3627.009116,2451.505594
59343.334678,1924.535449,-9252.574275,3983.696590
59343.334987,0.000000,-11177.109724,2451.505594
59343.335297,-1554.432478,-9770.718434,-536.266849
59343.335607,-2220.617826,-9548.656652,-1072.533697
59343.335917,-4293.194464,-10288.862594,-1225.752797
59343.336227,-6069.688724,-11177.109724,-1532.190996
59343.336536,-7105.977043,-9844.739029,-3064.381992
59343.336846,-1776.494261,-8956.491898,1378.971896
59343.337156,4663.297435,-9474.636058,6665.030833
59343.337466,4663.297435,-3108.864956,2987.772442
59343.337775,2960.823768,-4811.338623,3677.258390
59343.338085,1184.329507,-7179.997637,2451.505594
59343.338395,518.144159,-10510.924376,842.705048
59343.338705,-1702.473667,-10362.883188,-995.924147
59343.339014,-2664.741391,-10066.800811,-2451.505594
59343.339324,-3923.091493,-11325.150913,-2374.896044
59343.339634,-5107.421000,-11621.233289,-3140.991542
59343.339944,-4145.153275,-11917.315666,0.000000
59343.340253,2664.741391,-12139.377449,4366.744339
59343.340563,5847.626942,-7105.977043,2987.772442
59343.340873,4737.318029,-3923.091493,4903.011187
59343.341183,4145.153275,-4811.338623,4366.744339
59343.341493,2294.638420,-9474.636058,2911.162892
59343.341802,-444.123565,-10362.883188,306.438199
59343.342112,-2294.638420,-9918.759623,-1072.533697
59343.342422,-2960.823768,-9622.677246,-1532.190996
59343.342732,-3923.091493,-9474.636058,-2528.115143
59343.343041,-7846.182985,-10732.986159,-3370.820191
59343.343351,-4145.153275,-13397.727550,1838.629195
59343.343661,-74.020594,-9474.636058,-76.609550
59343.343971,1776.494261,-4811.338623,2451.505594
59343.344280,4737.318029,-2738.761985,4903.011187
59343.344590,4441.235652,-6217.729913,4826.401637
59343.344900,2368.659014,-7624.121203,2374.896044
59343.345210,296.082377,-9400.615463,383.047749
59343.345520,-1480.411884,-9474.636058,-689.485948
59343.345829,-1258.350101,-10658.965565,-1915.238745
59343.346139,-5255.462188,-9770.718434,-3447.429741
59343.346449,-4441.235652,-14285.974681,-153.219100
59343.346759,-2442.679609,-13027.624579,-1915.238745
59343.347068,0.000000,-8660.409521,0.000000
59343.347378,4663.297435,-7105.977043,1225.752797
59343.347688,5551.544565,-6143.709319,4519.963438
59343.347998,4071.132681,-7624.121203,4366.744339
59343.348307,1924.535449,-9400.615463,2987.772442
59343.348617,74.020594,-9696.697840,2221.676944
59343.348927,814.226536,-10658.965565,1762.019645
59343.349237,-2442.679609,-8290.306550,-995.924147
59343.349546,-5921.647536,-9548.656652,0.000000
59343.349856,-4811.338623,-11843.295072,-2528.115143
59343.350166,-6661.853478,-9548.656652,-2451.505594
59343.350476,-74.020594,-8290.306550,-689.485948
59343.350786,2368.659014,-5995.668130,2451.505594
59343.351095,3182.885551,-5625.565159,3524.039291
59343.351405,1998.556043,-7179.997637,2987.772442
59343.351715,518.144159,-9326.594869,2528.115143
59343.352025,0.000000,-10140.821405,1838.629195
59343.352334,-74.020594,-9474.636058,-76.609550
59343.352644,-3330.926739,-6809.894666,-3600.648841
59343.352954,-2368.659014,-11325.150913,0.000000
59343.353264,-1850.514855,-12435.459826,-383.047749
59343.353573,-666.185348,-11473.192101,-76.609550
59343.353883,1776.494261,-8068.244768,1838.629195
59343.354193,4959.379811,-6217.729913,3447.429741
59343.354503,4959.379811,-6069.688724,4366.744339
59343.354813,2368.659014,-8512.368333,3064.381992
59343.355122,0.000000,-9548.656652,2451.505594
59343.355432,-148.041188,-11843.295072,-76.609550
59343.355742,-3034.844362,-8290.306550,-2834.553343
59343.356052,-4441.235652,-10140.821405,-919.314598
59343.356361,-5403.503377,-10658.965565,-2528.115143
59343.356671,-5329.482782,-11843.295072,-76.609550
59343.356981,-2294.638420,-9030.512492,612.876398
59343.357291,1924.535449,-6735.874072,3064.381992
59343.357600,4885.359217,-4589.276840,4366.744339
59343.357910,4737.318029,-4367.215058,3064.381992
59343.358220,1184.329507,-5403.503377,2451.505594
59343.358530,592.164754,-10140.821405,1225.752797
59343.358839,-74.020594,-11843.295072,-689.485948
59343.359149,-4441.235652,-9548.656652,-3064.381992
59343.359459,-1850.514855,-11547.212695,-1915.238745
59343.359769,-4145.153275,-13767.830521,-76.609550
59343.360079,-3256.906145,-12657.521608,-766.095498
59343.360388,-518.144159,-10658.965565,766.095498
59343.360698,3182.885551,-6735.874072,2528.115143
59343.361008,5033.400406,-4811.338623,2451.505594
59343.361318,3552.988522,-3775.050304,2451.505594
59343.361627,2368.659014,-7179.997637,2757.943793
59343.361937,3478.967927,-13027.624579,2374.896044
59343.362247,-3552.988522,-7179.997637,-2451.505594
59343.362557,-2220.617826,-11547.212695,-76.609550
59343.362866,-3849.070898,-11029.068536,-1225.752797
59343.363176,-5403.503377,-12435.459826,-1915.238745
59343.363486,-5847.626942,-12065.356855,-1685.410096
59343.363796,-2294.638420,-9770.718434,0.000000
59343.364105,2294.638420,-5921.647536,2374.896044
59343.364415,4071.132681,-3849.070898,2374.896044
59343.364725,2664.741391,-3034.844362,1378.971896
59343.365035,1184.329507,-7179.997637,3677.258390
59343.365345,1702.473667,-9474.636058,1149.143247
59343.365654,-2368.659014,-7772.162391,153.219100
59343.365964,-2886.803174,-9548.656652,-2451.505594
59343.366274,-3108.864956,-10658.965565,-1915.238745
59343.366584,-4737.318029,-12213.398043,-1838.629195
59343.366893,-3552.988522,-13101.645173,-1225.752797
59343.367203,-666.185348,-9474.636058,-76.609550
59343.367513,4663.297435,-7698.141797,1149.143247
59343.367823,4811.338623,-5329.482782,3600.648841
59343.368132,1184.329507,-4811.338623,2451.505594
59343.368442,3478.967927,-10955.047942,3600.648841
59343.368752,-370.102971,-9844.739029,612.876398
59343.369062,-2368.659014,-7772.162391,0.000000
59343.369372,-1776.494261,-9400.615463,-383.047749
59343.369681,-3552.988522,-9474.636058,-766.095498
59343.369991,-5403.503377,-11177.109724,-1378.971896
59343.370301,-4811.338623,-13027.624579,-689.485948
59343.370611,-74.020594,-10658.965565,-76.609550
59343.370920,3478.967927,-6513.812290,2987.772442
59343.371230,1184.329507,-2442.679609,2451.505594
59343.371540,4367.215058,-8290.306550,4826.401637
59343.371850,-592.164754,-8364.327145,0.000000
59343.372159,-2072.576638,-7846.182985,-1762.019645
59343.372469,-1480.411884,-9400.615463,-1225.752797
59343.372779,-1850.514855,-9178.553681,-1225.752797
59343.373089,-2664.741391,-10288.862594,-1225.752797
59343.373398,-2442.679609,-13397.727550,1149.143247
59343.373708,-74.020594,-14211.954086,2987.772442
59343.374018,1110.308913,-9178.553681,-76.609550
59343.374328,1184.329507,-5403.503377,2451.505594
59343.374638,6735.874072,-7698.141797,4826.401637
59343.374947,2146.597232,-6883.915261,1225.752797
59343.375257,518.144159,-9474.636058,536.266849
59343.375567,-888.247130,-10214.842000,0.000000
59343.375877,-888.247130,-9770.718434,-536.266849
59343.376186,-2368.659014,-9474.636058,-1072.533697
59343.376496,-4145.153275,-11325.150913,612.876398
59343.376806,-5625.565159,-13101.645173,995.924147
59343.377116,-962.267725,-13027.624579,2374.896044
59343.377425,1110.308913,-7105.977043,1149.143247
59343.377735,2368.659014,-4219.173869,3064.381992
59343.378045,4663.297435,-4589.276840,3294.210641
59343.378355,2886.803174,-8290.306550,3294.210641
59343.378665,-962.267725,-9474.636058,76.609550
59343.378974,-1480.411884,-10584.944971,-383.047749
59343.379284,-1998.556043,-9474.636058,-1302.362347
59343.379594,-3552.988522,-8660.409521,-1225.752797
59343.379904,-4737.318029,-10732.986159,306.438199
59343.380213,-666.185348,-15100.201217,2068.457845
59343.380523,-1258.350101,-9548.656652,-689.485948
59343.380833,1776.494261,-7179.997637,2451.505594
59343.381143,5551.544565,-6513.812290,4213.525239
59343.381452,6291.750507,-6809.894666,4826.401637
59343.381762,1998.556043,-7994.224174,2298.286494
59343.382072,0.000000,-10140.821405,229.828649
59343.382382,-1184.329507,-10436.903782,-536.266849
59343.382691,-2960.823768,-8660.409521,-2451.505594
59343.383001,-4145.153275,-7476.080014,0.000000
59343.383311,-4145.153275,-12509.480420,1838.629195
59343.383621,-3627.009116,-12435.459826,-689.485948
59343.383931,-3552.988522,-8660.409521,0.000000
59343.384240,3404.947333,-9474.636058,4826.401637
59343.384550,4663.297435,-5477.523971,4903.011187
59343.384860,3034.844362,-5921.647536,3447.429741
59343.385170,148.041188,-8142.265362,2145.067394
59343.385479,-1036.288319,-9770.718434,229.828649
59343.385789,-3478.967927,-8364.327145,-2681.334243
59343.386099,-4589.276840,-6291.750507,-3524.039291
59343.386409,-3552.988522,-9548.656652,0.000000
59343.386718,-1258.350101,-12435.459826,-76.609550
59343.387028,-3404.947333,-11029.068536,0.000000
59343.387338,1702.473667,-12435.459826,2987.772442
59343.387648,2960.823768,-7772.162391,2757.943793
59343.387958,5107.421000,-6513.812290,3600.648841
59343.388267,3923.091493,-6587.832884,3677.258390
59343.388577,1184.329507,-9252.574275,1991.848295
59343.388887,-74.020594,-10066.800811,-76.609550
59343.389197,-1554.432478,-8882.471304,-689.485948
59343.389506,-4737.318029,-7179.997637,-2451.505594
59343.389816,-1332.370696,-10955.047942,1455.581446
59343.390126,-4367.215058,-10658.965565,-1455.581446
59343.390436,-4145.153275,-11917.315666,919.314598
59343.390745,-2368.659014,-7772.162391,0.000000
59343.391055,2442.679609,-7031.956449,3217.601092
59343.391365,3775.050304,-5181.441594,3600.648841
59343.391675,1776.494261,-6513.812290,2911.162892
59343.391984,-74.020594,-9178.553681,-76.609550
59343.392294,-3034.844362,-9178.553681,-76.609550
59343.392604,-2442.679609,-7402.059420,-2528.115143
59343.392914,-2368.659014,-9548.656652,0.000000
59343.393224,-2812.782580,-9030.512492,-1302.362347
59343.393533,-2664.741391,-11917.315666,919.314598
59343.393843,-2960.823768,-10140.821405,0.000000
59343.394153,740.205942,-9474.636058,1225.752797
59343.394463,2886.803174,-7402.059420,2298.286494
59343.394772,4367.215058,-6439.791695,2834.553343
59343.395082,4071.132681,-8290.306550,3600.648841
59343.395392,-370.102971,-8586.388927,-76.609550
59343.395702,-3330.926739,-8660.409521,-2145.067394
59343.396011,-592.164754,-10584.944971,766.095498
59343.396321,-1554.432478,-9178.553681,-383.047749
59343.396631,-2146.597232,-10881.027347,1532.190996
59343.396941,-5921.647536,-10140.821405,0.000000
59343.397251,-2960.823768,-10732.986159,0.000000
59343.397560,518.144159,-8438.347739,1608.800546
59343.397870,2960.823768,-6069.688724,2911.162892
59343.398180,4663.297435,-4737.318029,3600.648841
59343.398490,1110.308913,-7105.977043,1762.019645
59343.398799,-3552.988522,-7179.997637,0.000000
59343.399109,-74.020594,-11843.295072,-76.609550
59343.399419,-4737.318029,-7772.162391,-2145.067394
59343.399729,-1776.494261,-9548.656652,1225.752797
59343.400038,-3552.988522,-8956.491898,-1685.410096
59343.400348,-1924.535449,-11843.295072,306.438199
59343.400658,-1702.473667,-11399.171507,76.609550
59343.400968,1332.370696,-8216.285956,995.924147
59343.401277,5551.544565,-8882.471304,4213.525239
59343.401587,7031.956449,-7105.977043,4826.401637
59343.401897,2294.638420,-6513.812290,536.266849
59343.402207,0.000000,-10140.821405,2451.505594
59343.402517,-74.020594,-11843.295072,-76.609550
59343.402826,-2368.659014,-9548.656652,0.000000
59343.403136,-2442.679609,-9178.553681,-995.924147
59343.403446,-3923.091493,-10732.986159,-459.657299
59343.403756,-4219.173869,-11991.336260,0.000000
59343.404066,-1554.432478,-10066.800811,995.924147
59343.404375,4071.132681,-9474.636058,5898.935335
59343.404685,6439.791695,-7698.141797,6052.154434
59343.404995,2368.659014,-4811.338623,3983.696590
59343.405305,2294.638420,-9178.553681,2987.772442
59343.405615,-3034.844362,-7772.162391,-3677.258390
59343.405924,-1554.432478,-10362.883188,-459.657299
59343.406234,-3034.844362,-8660.409521,-1302.362347
59343.406544,-1554.432478,-10214.842000,-76.609550
59343.406854,-2812.782580,-11103.089130,-842.705048
59343.407164,-2960.823768,-12065.356855,0.000000
59343.407473,222.061783,-11325.150913,1762.019645
59343.407783,5847.626942,-9474.636058,3600.648841
59343.408093,1184.329507,-3627.009116,1225.752797
59343.408403,5033.400406,-6291.750507,4903.011187
59343.408713,2886.803174,-9474.636058,2374.896044
59343.409023,-4737.318029,-7179.997637,0.000000
59343.409332,-370.102971,-10955.047942,-995.924147
59343.409642,-1184.329507,-9400.615463,-919.314598
59343.409952,-2442.679609,-10066.800811,-689.485948
59343.410262,-4219.173869,-11473.192101,-766.095498
59343.410572,-3552.988522,-12509.480420,1532.190996
59343.410881,296.082377,-11325.150913,612.876398
59343.411191,4367.215058,-9474.636058,4826.401637
59343.411501,4663.297435,-4737.318029,3907.087040
59343.411811,592.164754,-4811.338623,0.000000
59343.412121,-666.185348,-7179.997637,689.485948
59343.412430,-666.185348,-10658.965565,-76.609550
59343.412740,-2960.823768,-9030.512492,-919.314598
59343.413050,-2368.659014,-8808.450710,-1149.143247
59343.413360,-2368.659014,-9474.636058,-1072.533697
59343.413670,-4737.318029,-10140.821405,0.000000
59343.413980,-3552.988522,-10732.986159,0.000000
59343.414289,592.164754,-11399.171507,2451.505594
59343.414599,4663.297435,-8290.306550,2374.896044
59343.414909,3552.988522,-4811.338623,1225.752797
59343.415219,5551.544565,-6957.935855,4213.525239
59343.415529,3478.967927,-10658.965565,3294.210641
59343.415838,444.123565,-10510.924376,229.828649
59343.416148,-888.247130,-10214.842000,-995.924147
59343.416458,-1480.411884,-9770.718434,-995.924147
59343.416768,-4737.318029,-7179.997637,-2451.505594
59343.417078,-7105.977043,-9548.656652,-2374.896044
59343.417387,-4737.318029,-11917.315666,0.000000
59343.417697,-74.020594,-10658.965565,-76.609550
59343.418007,1332.370696,-5403.503377,0.000000
59343.418317,5847.626942,-6513.812290,4826.401637
59343.418627,2960.823768,-7920.203579,4443.353888
59343.418937,-148.041188,-8734.430116,1149.143247
59343.419246,-1554.432478,-9474.636058,-383.047749
59343.419556,-2294.638420,-9104.533087,-612.876398
59343.419866,-2886.803174,-7179.997637,-2834.553343
59343.420176,-4589.276840,-8290.306550,-1915.238745
59343.420486,-4737.318029,-9844.739029,0.000000
59343.420795,-370.102971,-13323.706956,1149.143247
59343.421105,222.061783,-8068.244768,-2221.676944
59343.421415,4663.297435,-8882.471304,4826.401637
59343.421725,4737.318029,-5403.503377,3064.381992
59343.422035,3627.009116,-7698.141797,3217.601092
59343.422344,1110.308913,-9696.697840,1455.581446
59343.422654,0.000000,-11029.068536,-306.438199
59343.422964,-74.020594,-9474.636058,-1302.362347
59343.423274,-1258.350101,-9474.636058,-689.485948
59343.423584,-4145.153275,-9844.739029,0.000000
59343.423893,-2442.679609,-12435.459826,-76.609550
59343.424203,-4145.153275,-9548.656652,0.000000
59343.424513,1776.494261,-9474.636058,4673.182538
59343.424823,1776.494261,-5107.421000,3064.381992
59343.425133,3478.967927,-5255.462188,3294.210641
59343.425443,1406.391290,-7550.100608,2834.553343
59343.425752,-1332.370696,-9252.574275,766.095498
59343.426062,-1258.350101,-9474.636058,-76.609550
59343.426372,-1258.350101,-11843.295072,-76.609550
59343.426682,-4589.276840,-6587.832884,-3064.381992
59343.426992,-2220.617826,-11473.192101,766.095498
59343.427301,-2442.679609,-11843.295072,-76.609550
59343.427611,-2368.659014,-9548.656652,1225.752797
59343.427921,888.247130,-7179.997637,1532.190996
59343.428231,4441.235652,-6069.688724,3600.648841
59343.428541,4367.215058,-5699.585753,3677.258390
59343.428850,2220.617826,-8364.327145,2604.724693
59343.429160,2294.638420,-11843.295072,2374.896044
59343.429470,-74.020594,-14211.954086,2374.896044
59343.429780,-74.020594,-10658.965565,-1302.362347
59343.430090,-4145.153275,-8660.409521,-1225.752797
59343.430400,-2442.679609,-14211.954086,-76.609550
59343.430709,-6513.812290,-10732.986159,0.000000
59343.431019,-2960.823768,-9178.553681,-689.485948
59343.431329,962.267725,-7402.059420,2451.505594
59343.431639,3775.050304,-5107.421000,3753.867940
59343.431949,3330.926739,-5403.503377,3524.039291
59343.432258,2294.638420,-9252.574275,3064.381992
59343.432568,-1184.329507,-9548.656652,1225.752797
59343.432878,-1258.350101,-11843.295072,-689.485948
59343.433188,-4737.318029,-7772.162391,-2451.505594
59343.433498,-666.185348,-11843.295072,-76.609550
59343.433807,-4737.318029,-9548.656652,-3064.381992
59343.434117,-2442.679609,-11843.295072,-76.609550
59343.434427,-592.164754,-10214.842000,842.705048
59343.434737,2664.741391,-7179.997637,2068.457845
59343.435047,4663.297435,-5403.503377,3524.039291
59343.435357,3552.988522,-5995.668130,3830.477490
59343.435666,0.000000,-7179.997637,1225.752797
59343.435976,1406.391290,-12435.459826,2068.457845
59343.436286,-1258.350101,-10066.800811,-1608.800546
59343.436596,-296.082377,-11325.150913,1685.410096
59343.436906,-2442.679609,-8808.450710,-2911.162892
59343.437215,-3627.009116,-11843.295072,-383.047749
59343.437525,-4293.194464,-12213.398043,-919.314598
59343.437835,-888.247130,-10436.903782,995.924147
59343.438145,2516.700203,-7476.080014,3064.381992
59343.438455,2368.659014,-3627.009116,2451.505594
59343.438764,592.164754,-3627.009116,1838.629195
59343.439074,1184.329507,-9474.636058,3370.820191
59343.439384,-1258.350101,-9474.636058,-76.609550
59343.439694,-2368.659014,-9844.739029,1225.752797
59343.440004,-666.185348,-8290.306550,-2528.115143
59343.440314,-1554.432478,-10288.862594,-229.828649
59343.440623,-3034.844362,-11103.089130,-689.485948
59343.440933,-3701.029710,-12509.480420,-536.266849
59343.441243,-370.102971,-9844.739029,229.828649
59343.441553,1480.411884,-4811.338623,0.000000
59343.441863,3775.050304,-3923.091493,2528.115143
59343.442172,2368.659014,-5403.503377,2451.505594
59343.442482,2368.659014,-10881.027347,4213.525239
59343.442792,-74.020594,-8882.471304,-1608.800546
59343.443102,1702.473667,-11843.295072,-76.609550
59343.443412,-888.247130,-10140.821405,-612.876398
59343.443721,-3552.988522,-10066.800811,-1149.143247
59343.444031,-4811.338623,-11399.171507,-1455.581446
59343.444341,-3627.009116,-12139.377449,-383.047749
59343.444651,-666.185348,-7994.224174,536.266849
59343.444961,3478.967927,-5921.647536,2374.896044
59343.445271,1924.535449,-3627.009116,3064.381992
59343.445580,1776.494261,-5995.668130,4903.011187
59343.445890,-74.020594,-9474.636058,2374.896044
59343.446200,-74.020594,-10658.965565,1762.019645
59343.446510,-2368.659014,-9548.656652,0.000000
59343.446820,-1776.494261,-8586.388927,-1378.971896
59343.447129,-3108.864956,-10288.862594,-766.095498
59343.447439,-3923.091493,-11843.295072,-383.047749
59343.447749,-1258.350101,-11843.295072,-76.609550
59343.448059,2294.638420,-10658.965565,-76.609550
59343.448369,1776.494261,-4811.338623,612.876398
59343.448678,4145.153275,-5107.421000,3677.258390
59343.448988,7031.956449,-9474.636058,4826.401637
59343.449298,1850.514855,-11325.150913,4443.353888
59343.449608,0.000000,-9844.739029,0.000000
59343.449918,-518.144159,-10807.006753,-766.095498
59343.450227,-1998.556043,-9474.636058,-1149.143247
59343.450537,-4367.215058,-10955.047942,-1149.143247
59343.450847,-3034.844362,-14063.912898,-229.828649
59343.451157,-666.185348,-13619.789333,1762.019645
59343.451467,518.144159,-6735.874072,842.705048
59343.451777,3552.988522,-5107.421000,4903.011187
59343.452086,7031.956449,-5921.647536,4826.401637
59343.452396,0.000000,-6587.832884,3677.258390
59343.452706,-2072.576638,-8808.450710,0.000000
59343.453016,-2516.700203,-10140.821405,-919.314598
59343.453326,-3182.885551,-9992.780217,-1838.629195
59343.453635,-2886.803174,-9844.739029,-1608.800546
59343.453945,-2442.679609,-12879.583391,-153.219100
59343.454255,-1702.473667,-15100.201217,2374.896044
59343.454565,-1850.514855,-9696.697840,-689.485948
59343.454875,592.164754,-7179.997637,1225.752797
59343.455184,7031.956449,-7105.977043,5822.325785
59343.455494,3552.988522,-3034.844362,3677.258390
59343.455804,2812.782580,-7105.977043,3217.601092
59343.456114,888.247130,-9548.656652,842.705048
59343.456424,-666.185348,-10881.027347,-536.266849
59343.456734,-2146.597232,-11177.109724,-995.924147
59343.457043,-2664.741391,-9844.739029,-1225.752797
59343.457353,-4737.318029,-11917.315666,0.000000
59343.457663,-3034.844362,-13619.789333,-76.609550
59343.457973,-2590.720797,-9474.636058,-1302.362347
59343.458283,0.000000,-5995.668130,2451.505594
59343.458592,2368.659014,-2738.761985,2451.505594
59343.458902,4071.132681,-5625.565159,4213.525239
59343.459212,1110.308913,-7772.162391,2528.115143
59343.459522,-888.247130,-9030.512492,1225.752797
59343.459832,-2368.659014,-9622.677246,-306.438199
59343.460141,-3552.988522,-8364.327145,-1225.752797
59343.460451,-4737.318029,-8364.327145,-1838.629195
59343.460761,-2960.823768,-12509.480420,306.438199
59343.461071,-1850.514855,-13027.624579,-76.609550
59343.461381,-3404.947333,-8364.327145,0.000000
59343.461691,1406.391290,-5995.668130,306.438199
59343.462000,5847.626942,-5921.647536,3907.087040
59343.462310,5033.400406,-6143.709319,4136.915689
59343.462620,2664.741391,-8734.430116,2757.943793
59343.462930,296.082377,-10658.965565,306.438199
59343.463240,-2368.659014,-9548.656652,-1532.190996
59343.463549,-3849.070898,-8364.327145,-2451.505594
59343.463859,-3552.988522,-9548.656652,-1225.752797
59343.464169,-4219.173869,-12435.459826,-1302.362347
59343.464479,-7105.977043,-10732.986159,0.000000
59343.464789,-74.020594,-10066.800811,-383.047749
59343.465098,3256.906145,-7624.121203,3370.820191
59343.465408,5403.503377,-4737.318029,4213.525239
59343.465718,4071.132681,-5699.585753,4596.572988
59343.466028,1406.391290,-8068.244768,2911.162892
59343.466338,-1258.350101,-8882.471304,536.266849
59343.466648,-2294.638420,-7772.162391,-1915.238745
59343.466957,-2960.823768,-8364.327145,0.000000
59343.467267,-2442.679609,-9474.636058,-1302.362347
59343.467577,-7105.977043,-10732.986159,-2451.505594
59343.467887,-3034.844362,-13619.789333,-1915.238745
59343.468197,-2368.659014,-10436.903782,0.000000
59343.468506,3478.967927,-6809.894666,2068.457845
59343.468816,5107.421000,-5477.523971,3753.867940
59343.469126,4441.235652,-5995.668130,4060.306139
59343.469436,2294.638420,-9474.636058,3600.648841
59343.469746,1110.308913,-9474.636058,-76.609550
59343.470055,-2368.659014,-9548.656652,0.000000
59343.470365,-666.185348,-13027.624579,-76.609550
59343.470675,-4811.338623,-9178.553681,-3294.210641
59343.470985,-3627.009116,-13619.789333,-76.609550
59343.471295,-4737.318029,-11621.233289,-1225.752797
59343.471604,-592.164754,-9326.594869,1455.581446
59343.471914,3330.926739,-6217.729913,3217.601092
59343.472224,4737.318029,-4959.379811,4596.572988
59343.472534,4663.297435,-7550.100608,6052.154434
59343.472844,-74.020594,-9474.636058,2374.896044
59343.473154,-2960.823768,-8364.327145,-1532.190996
59343.473463,-1184.329507,-11621.233289,1838.629195
59343.473773,-4219.173869,-7772.162391,-3447.429741
59343.474083,-4145.153275,-11843.295072,-76.609550
59343.474393,-5699.585753,-11917.315666,-1608.800546
59343.474703,-3701.029710,-11325.150913,-459.657299
59343.475012,222.061783,-8586.388927,1302.362347
59343.475322,4367.215058,-5995.668130,3830.477490
59343.475632,6587.832884,-4885.359217,5209.449386
59343.475942,6439.791695,-8290.306550,5439.278036
59343.476252,1702.473667,-8586.388927,1762.019645
59343.476561,0.000000,-11325.150913,2451.505594
59343.476871,-74.020594,-9474.636058,-1915.238745
59343.477181,-2960.823768,-10288.862594,0.000000
59343.477491,-4515.256246,-10658.965565,-2221.676944
59343.477801,-5033.400406,-12509.480420,-2068.457845
59343.478111,-3034.844362,-12583.501014,-229.828649
59343.478420,1184.329507,-8586.388927,1378.971896
59343.478730,3849.070898,-5995.668130,2757.943793
59343.479040,5033.400406,-7031.956449,5669.106685
59343.479350,3478.967927,-8290.306550,3600.648841
59343.479660,-3552.988522,-5995.668130,0.000000
59343.479969,592.164754,-10732.986159,1838.629195
59343.480279,-2294.638420,-8364.327145,0.000000
59343.480589,-1850.514855,-8882.471304,-919.314598
59343.480899,-3775.050304,-10732.986159,-1072.533697
59343.481209,-4737.318029,-12065.356855,-1378.971896
59343.481518,-3034.844362,-11177.109724,-76.609550
59343.481828,0.000000,-6587.832884,0.000000
59343.482138,2368.659014,-4811.338623,3064.381992
59343.482448,5699.585753,-6143.709319,6971.469032
59343.482758,2886.803174,-6513.812290,1762.019645
59343.483068,0.000000,-8364.327145,612.876398
59343.483377,-1184.329507,-9696.697840,-1991.848295
59343.483687,-962.267725,-10955.047942,-689.485948
59343.483997,-2812.782580,-9326.594869,-1991.848295
59343.484307,-4441.235652,-11547.212695,-1072.533697
59343.484617,-4663.297435,-11917.315666,-1225.752797
59343.484926,-2886.803174,-9178.553681,-536.266849
59343.485236,0.000000,-7179.997637,1225.752797
59343.485546,5625.565159,-6291.750507,5209.449386
59343.485856,4071.132681,-4737.318029,3600.648841
59343.486166,2368.659014,-8660.409521,4290.134789
59343.486475,-74.020594,-8068.244768,689.485948
59343.486785,-74.020594,-10658.965565,-76.609550
59343.487095,-2738.761985,-8956.491898,-919.314598
59343.487405,-3034.844362,-9400.615463,-1685.410096
59343.487715,-5181.441594,-11399.171507,-1608.800546
59343.488025,-6587.832884,-10955.047942,-1915.238745
59343.488334,-4441.235652,-9548.656652,0.000000
59343.488644,1184.329507,-7179.997637,2451.505594
59343.488954,8216.285956,-7105.977043,4826.401637
59343.489264,2368.659014,-3627.009116,2451.505594
59343.489574,2146.597232,-7328.038826,766.095498
59343.489883,592.164754,-9844.739029,766.095498
59343.490193,-222.061783,-10807.006753,-383.047749
59343.490503,-1850.514855,-9548.656652,-1608.800546
59343.490813,-3256.906145,-10288.862594,-1302.362347
59343.491123,-4811.338623,-11843.295072,-689.485948
59343.491432,-5921.647536,-10140.821405,-2451.505594
59343.491742,296.082377,-11177.109724,3064.381992
59343.492052,4663.297435,-9474.636058,3294.210641
59343.492362,2368.659014,-3034.844362,2451.505594
59343.492672,4367.215058,-7105.977043,3294.210641
59343.492982,814.226536,-8734.430116,3140.991542
59343.493291,-592.164754,-9326.594869,766.095498
59343.493601,-1998.556043,-9918.759623,-536.266849
59343.493911,-2072.576638,-9474.636058,-76.609550
59343.494221,-1258.350101,-11547.212695,-76.609550
59343.494531,-4811.338623,-10658.965565,-1915.238745
59343.494840,-5921.647536,-9548.656652,-3677.258390
59343.495150,-148.041188,-10732.986159,2757.943793
59343.495460,3478.967927,-7105.977043,2374.896044
59343.495770,6439.791695,-5255.462188,3600.648841
59343.496080,3849.070898,-5699.585753,4290.134789
59343.496389,2516.700203,-8512.368333,2528.115143
59343.496699,296.082377,-10066.800811,383.047749
59343.497009,-1554.432478,-9622.677246,-612.876398
59343.497319,-666.185348,-11399.171507,-76.609550
59343.497629,-2442.679609,-11251.130318,-1302.362347
59343.497938,-5773.606348,-10732.986159,-3677.258390
59343.498248,-666.185348,-14211.954086,-76.609550
59343.498558,-1480.411884,-7179.997637,0.000000
59343.498868,4663.297435,-7402.059420,4826.401637
59343.499178,3701.029710,-4219.173869,3677.258390
59343.499488,2516.700203,-6957.935855,3600.648841
59343.499797,222.061783,-9770.718434,2221.676944
59343.500107,-1406.391290,-9548.656652,0.000000
59343.500417,-1776.494261,-10436.903782,0.000000
59343.500727,-666.185348,-10658.965565,-383.047749
59343.501037,-4737.318029,-9548.656652,-4903.011187
59343.501346,-2960.823768,-13915.871710,1378.971896
59343.501656,-2442.679609,-11843.295072,-76.609550
59343.501966,592.164754,-9474.636058,4060.306139
59343.502276,3775.050304,-5921.647536,3600.648841
59343.502586,5181.441594,-4145.153275,4366.744339
59343.502895,4145.153275,-6735.874072,4290.134789
59343.503205,1184.329507,-8808.450710,1225.752797
59343.503515,-2368.659014,-9548.656652,0.000000
59343.503824,-1776.494261,-10955.047942,-306.438199
59343.504134,-1850.514855,-11843.295072,-1302.362347
59343.504444,-7105.977043,-10140.821405,-3677.258390
59343.504754,-3997.112087,-14211.954086,-76.609550
59343.505063,-3552.988522,-11621.233289,1072.533697
59343.505373,0.000000,-6587.832884,0.000000
59343.505683,4367.215058,-5551.544565,3600.648841
59343.505993,4441.235652,-4737.318029,4136.915689
59343.506302,2738.761985,-7179.997637,2451.505594
59343.506612,0.000000,-7772.162391,0.000000
59343.506922,-1480.411884,-9548.656652,306.438199
59343.507231,-74.020594,-9474.636058,-76.609550
59343.507541,-3552.988522,-8364.327145,-1225.752797
59343.507851,-2442.679609,-13027.624579,-689.485948
59343.508161,-5921.647536,-12805.562797,-612.876398
59343.508470,-2738.761985,-11843.295072,-383.047749
59343.508780,666.185348,-8142.265362,1608.800546
59343.509090,3997.112087,-6291.750507,3677.258390
59343.509400,5033.400406,-4515.256246,4060.306139
59343.509709,2368.659014,-5403.503377,1838.629195
59343.510019,1184.329507,-8956.491898,2451.505594
59343.510329,1998.556043,-11843.295072,-76.609550
59343.510638,-2368.659014,-7772.162391,0.000000
59343.510948,-1258.350101,-9474.636058,-76.609550
59343.511258,-5181.441594,-9548.656652,-2451.505594
59343.511568,-5403.503377,-13249.686362,-1762.019645
59343.511877,-2812.782580,-11473.192101,-612.876398
59343.512187,1628.453072,-8660.409521,1532.190996
59343.512497,4219.173869,-6513.812290,4213.525239
59343.512807,4367.215058,-5033.400406,2987.772442
59343.513116,592.164754,-7179.997637,2451.505594
59343.513426,1184.329507,-10732.986159,4596.572988
59343.513736,-666.185348,-8882.471304,-689.485948
59343.514045,-1776.494261,-8956.491898,1225.752797
59343.514355,-3552.988522,-8364.327145,-2068.457845
59343.514665,-5255.462188,-10881.027347,-1838.629195
59343.514975,-6587.832884,-12435.459826,-1991.848295
59343.515284,-2516.700203,-9548.656652,-229.828649
59343.515594,1998.556043,-8290.306550,2987.772442
59343.515904,5847.626942,-4737.318029,4213.525239
59343.516214,3034.844362,-5255.462188,3600.648841
59343.516523,0.000000,-5995.668130,1225.752797
59343.516833,2516.700203,-11547.212695,2451.505594
59343.517143,-1258.350101,-9548.656652,-1532.190996
59343.517452,-1628.453072,-8956.491898,-1225.752797
59343.517762,-3478.967927,-10658.965565,-1608.800546
59343.518072,-4293.194464,-11473.192101,-1915.238745
59343.518382,-3997.112087,-12435.459826,-766.095498
59343.518691,-74.020594,-10658.965565,2374.896044
59343.519001,4663.297435,-8290.306550,4213.525239
59343.519311,5255.462188,-4589.276840,3600.648841
59343.519621,0.000000,-3627.009116,2451.505594
59343.519930,3478.967927,-11251.130318,4213.525239
59343.520240,-1554.432478,-8216.285956,0.000000
59343.520550,-2294.638420,-9474.636058,-1608.800546
59343.520860,-2294.638420,-9992.780217,-1302.362347
59343.521169,-3478.967927,-10436.903782,-1838.629195
59343.521479,-5477.523971,-12509.480420,-1378.971896
59343.521789,-3034.844362,-12509.480420,-76.609550
59343.522098,1110.308913,-11251.130318,3600.648841
59343.522408,4367.215058,-5921.647536,3907.087040
59343.522718,3256.906145,-666.185348,1838.629195
59343.523028,5847.626942,-7550.100608,6205.373534
59343.523337,3478.967927,-7476.080014,536.266849
59343.523647,-74.020594,-10362.883188,-76.609550
59343.523957,-2072.576638,-10140.821405,-1838.629195
59343.524267,-2664.741391,-10214.842000,-2451.505594
59343.524576,-4367.215058,-11103.089130,-2757.943793
59343.524886,-5329.482782,-12509.480420,-1838.629195
59343.525196,-2812.782580,-14137.933492,1225.752797
59343.525505,2294.638420,-10658.965565,4213.525239
59343.525815,5847.626942,-7105.977043,3600.648841
59343.526125,3552.988522,-2442.679609,4903.011187
59343.526435,4441.235652,-6513.812290,4826.401637
59343.526744,4071.132681,-9474.636058,3447.429741
59343.527054,-370.102971,-8734.430116,383.047749
59343.527364,-1480.411884,-9770.718434,-689.485948
59343.527674,-2220.617826,-9252.574275,-1762.019645
59343.527983,-4737.318029,-9548.656652,-3677.258390
59343.528293,-5921.647536,-11917.315666,0.000000
59343.528603,-3701.029710,-13249.686362,-459.657299
59343.528912,-74.020594,-11843.295072,-76.609550
59343.529222,1184.329507,-4811.338623,1225.752797
59343.529532,4737.318029,-5921.647536,4826.401637
59343.529842,5181.441594,-8586.388927,5822.325785
59343.530151,1702.473667,-8216.285956,2298.286494
59343.530461,-296.082377,-9326.594869,229.828649
59343.530771,-962.267725,-9252.574275,-229.828649
59343.531081,-3552.988522,-7179.997637,-2451.505594
59343.531390,-6513.812290,-8364.327145,-2451.505594
59343.531700,-5773.606348,-11917.315666,0.000000
59343.532010,-74.020594,-13027.624579,-76.609550
59343.532319,0.000000,-7772.162391,612.876398
59343.532629,5255.462188,-8290.306550,5745.716235
59343.532939,2960.823768,-6587.832884,4903.011187
59343.533249,1110.308913,-8512.368333,2757.943793
59343.533558,-74.020594,-9844.739029,1762.019645
59343.533868,-592.164754,-9844.739029,383.047749
59343.534178,-962.267725,-7994.224174,-1302.362347
59343.534488,-4293.194464,-6587.832884,-3447.429741
59343.534797,-4737.318029,-10436.903782,0.000000
59343.535107,-2442.679609,-12435.459826,-1302.362347
59343.535417,-4737.318029,-9548.656652,0.000000
59343.535726,3182.885551,-10658.965565,4519.963438
59343.536036,2368.659014,-5403.503377,3064.381992
59343.536346,3997.112087,-6143.709319,3753.867940
59343.536656,1184.329507,-8586.388927,2681.334243
59343.536965,-148.041188,-9844.739029,689.485948
59343.537275,-74.020594,-9474.636058,-76.609550
59343.537585,-1258.350101,-7698.141797,-1608.800546
59343.537895,-2738.761985,-7179.997637,-4290.134789
59343.538204,-3552.988522,-11325.150913,306.438199
59343.538514,-3034.844362,-12731.542202,-689.485948
59343.538824,-2368.659014,-9548.656652,0.000000
59343.539134,0.000000,-7179.997637,306.438199
59343.539443,3923.091493,-6217.729913,2911.162892
59343.539753,2516.700203,-7105.977043,2911.162892
59343.540063,148.041188,-9326.594869,1991.848295
59343.540372,1702.473667,-12435.459826,2987.772442
59343.540682,-74.020594,-9474.636058,-76.609550
59343.540992,-740.205942,-7994.224174,-1302.362347
59343.541302,-2368.659014,-8364.327145,0.000000
59343.541611,-1850.514855,-12435.459826,-76.609550
59343.541921,-5921.647536,-10140.821405,-1838.629195
59343.542231,-3627.009116,-8956.491898,0.000000
59343.542541,2368.659014,-6291.750507,1991.848295
59343.542850,5107.421000,-4589.276840,4136.915689
59343.543160,3478.967927,-6143.709319,3370.820191
59343.543470,1998.556043,-11251.130318,4060.306139
59343.543779,-74.020594,-13027.624579,-76.609550
59343.544089,-1258.350101,-11251.130318,-689.485948
59343.544399,-4737.318029,-8364.327145,-2451.505594
59343.544709,-1258.350101,-10658.965565,-76.609550
59343.545018,-5921.647536,-9548.656652,-3064.381992
59343.545328,-2146.597232,-10658.965565,-153.219100
59343.545638,222.061783,-8956.491898,1072.533697
59343.545948,3404.947333,-6143.709319,2834.553343
59343.546257,4885.359217,-4811.338623,3830.477490
59343.546567,3552.988522,-7179.997637,5056.230287
59343.546877,2072.576638,-11251.130318,2987.772442
59343.547186,-370.102971,-11843.295072,-76.609550
59343.547496,-4145.153275,-8364.327145,-3064.381992
59343.547806,-148.041188,-11843.295072,-76.609550
59343.548116,-3034.844362,-8586.388927,-2068.457845
59343.548425,-3627.009116,-13471.748144,-76.609550
59343.548735,-3330.926739,-11769.274478,76.609550
59343.549045,74.020594,-8512.368333,1302.362347
59343.549355,2960.823768,-6217.729913,3294.210641
59343.549664,2368.659014,-3627.009116,4903.011187
59343.549974,2664.741391,-7179.997637,4903.011187
59343.550284,2294.638420,-11843.295072,3600.648841
59343.550593,-4441.235652,-8364.327145,0.000000
59343.550903,-666.185348,-10658.965565,-76.609550
59343.551213,-1850.514855,-8290.306550,-2528.115143
59343.551523,-2442.679609,-11251.130318,-229.828649
59343.551832,-4367.215058,-12213.398043,-919.314598
59343.552142,-2886.803174,-11399.171507,0.000000
59343.552452,962.267725,-8956.491898,1302.362347
59343.552762,1184.329507,-4811.338623,2451.505594
59343.553071,2960.823768,-4811.338623,3677.258390
59343.553381,3849.070898,-9770.718434,6128.763984
59343.553691,-74.020594,-7994.224174,-76.609550
59343.554000,-444.123565,-10732.986159,919.314598
59343.554310,-74.020594,-9474.636058,-76.609550
59343.554620,-444.123565,-9770.718434,229.828649
59343.554930,-2516.700203,-11325.150913,-153.219100
59343.555239,-3923.091493,-11991.336260,-995.924147
59343.555549,-2516.700203,-11177.109724,229.828649
59343.555859,0.000000,-6365.771101,0.000000
59343.556169,0.000000,-3627.009116,1225.752797
59343.556478,1184.329507,-3627.009116,2451.505594
59343.556788,4071.132681,-9474.636058,3600.648841
59343.557098,-2072.576638,-8364.327145,0.000000
59343.557408,-74.020594,-13027.624579,2374.896044
59343.557717,-1776.494261,-9548.656652,0.000000
59343.558027,-1628.453072,-8956.491898,-689.485948
59343.558337,-3478.967927,-10881.027347,-612.876398
59343.558646,-3404.947333,-11547.212695,-383.047749
59343.558956,-666.185348,-9474.636058,-1608.800546
59343.559266,740.205942,-5995.668130,536.266849
59343.559576,1184.329507,-3627.009116,1225.752797
59343.559885,5625.565159,-7772.162391,4903.011187
59343.560195,518.144159,-7550.100608,1149.143247
59343.560505,0.000000,-11029.068536,2757.943793
59343.560815,-2368.659014,-9548.656652,0.000000
59343.561124,-888.247130,-9770.718434,-536.266849
59343.561434,-1406.391290,-9622.677246,-995.924147
59343.561744,-3552.988522,-11769.274478,-536.266849
59343.562053,-2442.679609,-13027.624579,-76.609550
59343.562363,-1850.514855,-9474.636058,-76.609550
59343.562673,74.020594,-4885.359217,0.000000
59343.562983,2368.659014,-4811.338623,3677.258390
59343.563292,4663.297435,-6217.729913,4826.401637
59343.563602,0.000000,-7179.997637,2451.505594
59343.563912,-1924.535449,-8660.409521,0.000000
59343.564222,-2516.700203,-10288.862594,-766.095498
59343.564531,-2738.761985,-9474.636058,-1378.971896
59343.564841,-2738.761985,-9770.718434,-1378.971896
59343.565151,-2442.679609,-13027.624579,-76.609550
59343.565460,-2442.679609,-13027.624579,-76.609550
59343.565770,-74.020594,-10658.965565,-76.609550
59343.566080,1184.329507,-5995.668130,1838.629195
59343.566390,5847.626942,-5921.647536,4519.963438
59343.566699,592.164754,-3627.009116,2451.505594
59343.567009,0.000000,-8142.265362,995.924147
59343.567319,-1332.370696,-10140.821405,612.876398
59343.567629,-1702.473667,-10214.842000,-689.485948
59343.567938,-1258.350101,-9622.677246,-383.047749
59343.568248,-962.267725,-11843.295072,1762.019645
59343.568558,-1258.350101,-13027.624579,1149.143247
59343.568867,-1258.350101,-14211.954086,-76.609550
59343.569177,-3256.906145,-8068.244768,0.000000
59343.569487,2590.720797,-8586.388927,3600.648841
59343.569797,1258.350101,-2442.679609,1225.752797
59343.570106,2294.638420,-6661.853478,2681.334243
59343.570416,222.061783,-8808.450710,1455.581446
59343.570726,-1110.308913,-9474.636058,0.000000
59343.571036,-1554.432478,-9326.594869,0.000000
59343.571345,-1776.494261,-9548.656652,1225.752797
59343.571655,-1036.288319,-10436.903782,612.876398
59343.571965,-1258.350101,-13915.871710,-76.609550
59343.572274,-3034.844362,-9770.718434,-842.705048
59343.572584,0.000000,-8364.327145,0.000000
59343.572894,2294.638420,-6069.688724,229.828649
59343.573204,4663.297435,-6513.812290,2987.772442
59343.573513,2368.659014,-7179.997637,2374.896044
59343.573823,-148.041188,-9770.718434,383.047749
59343.574133,-1332.370696,-10881.027347,-995.924147
59343.574443,-2368.659014,-9548.656652,0.000000
59343.574752,0.000000,-9548.656652,0.000000
59343.575062,-74.020594,-13027.624579,-76.609550
59343.575372,-4737.318029,-10140.821405,0.000000
59343.575682,-1036.288319,-12509.480420,2145.067394
59343.575991,3478.967927,-8882.471304,-76.609550
59343.576301,5255.462188,-6439.791695,4136.915689
59343.576611,4071.132681,-4663.297435,3600.648841
59343.576920,1776.494261,-7254.018232,2451.505594
59343.577230,-740.205942,-10436.903782,1072.533697
59343.577540,-4737.318029,-8364.327145,0.000000
59343.577850,-4145.153275,-7772.162391,-3677.258390
59343.578159,-222.061783,-11251.130318,-76.609550
59343.578469,-4663.297435,-8734.430116,-2221.676944
59343.578779,-3701.029710,-12657.521608,842.705048
59343.579089,-74.020594,-11843.295072,-76.609550
59343.579398,1480.411884,-8512.368333,2451.505594
59343.579708,4293.194464,-5625.565159,3064.381992
59343.580018,3775.050304,-4959.379811,3294.210641
59343.580327,1406.391290,-7772.162391,2145.067394
59343.580637,-2294.638420,-8216.285956,-1762.019645
59343.580947,-3552.988522,-8956.491898,-1915.238745
59343.581257,-2368.659014,-9548.656652,0.000000
59343.581566,-74.020594,-11251.130318,-76.609550
59343.581876,-4145.153275,-10140.821405,0.000000
59343.582186,-814.226536,-15396.283594,2374.896044
59343.582496,-3256.906145,-10436.903782,383.047749
59343.582805,1480.411884,-8216.285956,2374.896044
59343.583115,3849.070898,-5773.606348,3677.258390
59343.583425,3849.070898,-5033.400406,3677.258390
59343.583734,1702.473667,-6809.894666,1149.143247
59343.584044,-2146.597232,-8882.471304,-76.609550
59343.584354,-4737.318029,-8364.327145,0.000000
59343.584664,-666.185348,-11103.089130,689.485948
59343.584973,-2442.679609,-7846.182985,-2528.115143
59343.585283,-4145.153275,-11917.315666,1225.752797
59343.585593,-4737.318029,-11325.150913,0.000000
59343.585903,-1258.350101,-10436.903782,612.876398
59343.586212,2294.638420,-7476.080014,2298.286494
59343.586522,4293.194464,-5329.482782,3447.429741
59343.586832,5847.626942,-5921.647536,4826.401637
59343.587141,2294.638420,-9474.636058,3600.648841
59343.587451,-2664.741391,-7179.997637,-1685.410096
59343.587761,-1776.494261,-11399.171507,306.438199
59343.588071,-370.102971,-8290.306550,-2528.115143
59343.588380,-2368.659014,-9548.656652,0.000000
59343.588690,-3701.029710,-11251.130318,-995.924147
59343.589000,-3849.070898,-11917.315666,-229.828649
59343.589310,-1184.329507,-10584.944971,689.485948
59343.589619,2146.597232,-7994.224174,2451.505594
59343.589929,5847.626942,-7105.977043,4826.401637
59343.590239,5847.626942,-9178.553681,6052.154434
59343.590549,1702.473667,-8882.471304,1762.019645
59343.590858,0.000000,-9548.656652,1225.752797
59343.591168,-1258.350101,-9474.636058,-76.609550
59343.591478,-3552.988522,-5995.668130,0.000000
59343.591787,-2146.597232,-8808.450710,-995.924147
59343.592097,-3404.947333,-10732.986159,-306.438199
59343.592407,-2960.823768,-10807.006753,-383.047749
59343.592717,-518.144159,-9770.718434,536.266849
59343.593026,4737.318029,-8956.491898,3064.381992
59343.593336,6365.771101,-7772.162391,5515.887586
59343.593646,4071.132681,-7105.977043,2374.896044
59343.593956,0.000000,-8364.327145,612.876398
59343.594265,-74.020594,-11843.295072,-76.609550
59343.594575,-3552.988522,-7772.162391,-2451.505594
59343.594885,-74.020594,-9474.636058,-76.609550
59343.595194,-1554.432478,-9844.739029,-612.876398
59343.595504,-2590.720797,-11695.253884,-306.438199
59343.595814,-3108.864956,-11843.295072,-229.828649
59343.596124,-1184.329507,-10436.903782,1225.752797
59343.596433,2368.659014,-5995.668130,3064.381992
59343.596743,6439.791695,-7105.977043,4826.401637
59343.597053,2442.679609,-5921.647536,2374.896044
59343.597363,296.082377,-10732.986159,3677.258390
59343.597672,-2442.679609,-8586.388927,-995.924147
59343.597982,-1258.350101,-10658.965565,-76.609550
59343.598292,-2220.617826,-8808.450710,-689.485948
59343.598601,-3108.864956,-9696.697840,-536.266849
59343.598911,-4219.173869,-11621.233289,-76.609550
59343.599221,-4737.318029,-9548.656652,0.000000
59343.599531,0.000000,-7179.997637,0.000000
59343.599840,3552.988522,-6883.915261,3983.696590
59343.600150,4663.297435,-5625.565159,2987.772442
59343.600460,1184.329507,-6587.832884,3677.258390
59343.600770,-74.020594,-9474.636058,-76.609550
59343.601079,-1776.494261,-10732.986159,-612.876398
59343.601389,-1628.453072,-10510.924376,-1302.362347
59343.601699,-1258.350101,-9696.697840,-766.095498
59343.602008,-2664.741391,-10362.883188,-689.485948
59343.602318,-4737.318029,-10732.986159,-1532.190996
59343.602628,-4737.318029,-9548.656652,0.000000
59343.602938,592.164754,-8364.327145,2757.943793
59343.603247,4663.297435,-6809.894666,3600.648841
59343.603557,4737.318029,-4811.338623,4903.011187
59343.603867,4663.297435,-9474.636058,3600.648841
59343.604177,-1184.329507,-8956.491898,919.314598
59343.604480,-2368.659014,-9770.718434,-919.314598
59343.604790,-2738.761985,-10362.883188,-1225.752797
59343.605099,-2664.741391,-9400.615463,-1302.362347
59343.605409,-4811.338623,-10066.800811,-2528.115143
59343.605719,-4811.338623,-11251.130318,-1915.238745
59343.606029,-1850.514855,-10362.883188,-689.485948
59343.606338,444.123565,-5995.668130,0.000000
59343.606648,5921.647536,-6883.915261,5669.106685
59343.606958,6439.791695,-5625.565159,3140.991542
59343.607267,2368.659014,-7402.059420,4213.525239
59343.607577,2294.638420,-9474.636058,-76.609550
59343.607887,-1776.494261,-9844.739029,0.000000
59343.608196,-1554.432478,-9918.759623,-919.314598
59343.608506,-3552.988522,-7179.997637,-2451.505594
59343.608816,-4737.318029,-8364.327145,-3370.820191
59343.609125,-3552.988522,-13101.645173,612.876398
59343.609435,-1258.350101,-11843.295072,-76.609550
59343.609745,0.000000,-5403.503377,0.000000
59343.610054,7031.956449,-7105.977043,3600.648841
59343.610364,4145.153275,-5403.503377,4290.134789
59343.610674,1702.473667,-8660.409521,2528.115143
59343.610983,-888.247130,-9548.656652,383.047749
59343.611293,-1850.514855,-10510.924376,-306.438199
59343.611603,-2442.679609,-7994.224174,-1915.238745
59343.611912,-2442.679609,-7994.224174,-1915.238745
59343.612222,-4737.318029,-10732.986159,0.000000
59343.612532,-2442.679609,-12435.459826,-76.609550
59343.612842,-4737.318029,-7772.162391,0.000000
59343.613151,4663.297435,-9474.636058,4213.525239
59343.613461,4737.318029,-5107.421000,3677.258390
59343.613771,4441.235652,-5403.503377,3677.258390
59343.614080,1406.391290,-7920.203579,2221.676944
59343.614390,-592.164754,-9474.636058,0.000000
59343.614700,-74.020594,-10658.965565,-76.609550
59343.615009,-74.020594,-9474.636058,-1608.800546
59343.615319,-4737.318029,-9548.656652,-1838.629195
59343.615629,-2442.679609,-13619.789333,-76.609550
59343.615938,-3627.009116,-11547.212695,-1915.238745
59343.616248,-1184.329507,-11547.212695,2374.896044
59343.616558,1998.556043,-7179.997637,1685.410096
59343.616867,4737.318029,-4811.338623,3600.648841
59343.617177,4737.318029,-5477.523971,4136.915689
59343.617487,2886.803174,-10362.883188,3600.648841
59343.617796,-74.020594,-11843.295072,2068.457845
59343.618106,-74.020594,-11843.295072,-76.609550
59343.618416,-3627.009116,-8142.265362,-1762.019645
59343.618725,-3404.947333,-9992.780217,-76.609550
59343.619035,-4811.338623,-9474.636058,-1915.238745
59343.619345,-4737.318029,-11917.315666,1225.752797
59343.619655,-1258.350101,-8882.471304,1149.143247
59343.619964,2442.679609,-6143.709319,2757.943793
59343.620274,4071.132681,-4367.215058,3447.429741
59343.620584,2960.823768,-5625.565159,2911.162892
59343.620893,2294.638420,-9474.636058,2681.334243
59343.621203,-74.020594,-12731.542202,2374.896044
59343.621513,-2516.700203,-9326.594869,-2221.676944
59343.621822,-1628.453072,-10140.821405,612.876398
59343.622132,-74.020594,-11843.295072,-1302.362347
59343.622442,-4737.318029,-11029.068536,-1225.752797
59343.622751,-3034.844362,-12731.542202,-229.828649
59343.623061,-296.082377,-10066.800811,1149.143247
59343.623371,3552.988522,-7402.059420,2681.334243
59343.623680,4737.318029,-5699.585753,4136.915689
59343.623990,3256.906145,-8068.244768,4290.134789
59343.624300,0.000000,-9548.656652,3677.258390
59343.624609,-74.020594,-10658.965565,1149.143247
59343.624919,-3256.906145,-8364.327145,0.000000
59343.625229,-74.020594,-10658.965565,1685.410096
59343.625538,-4737.318029,-8364.327145,-1762.019645
59343.625848,-4515.256246,-11843.295072,-689.485948
59343.626158,-3997.112087,-11029.068536,0.000000
59343.626468,-296.082377,-8290.306550,1532.190996
59343.626777,3256.906145,-5625.565159,2528.115143
59343.627087,4737.318029,-3627.009116,3064.381992
59343.627397,2368.659014,-5995.668130,3064.381992
59343.627706,2294.638420,-9474.636058,2068.457845
59343.628016,-1850.514855,-9548.656652,0.000000
59343.628326,-74.020594,-13027.624579,2068.457845
59343.628635,-1554.432478,-8142.265362,-1838.629195
59343.628945,-2146.597232,-10510.924376,-995.924147
59343.629255,-2812.782580,-12139.377449,-383.047749
59343.629564,-2368.659014,-11769.274478,-76.609550
59343.629874,518.144159,-9252.574275,1762.019645
59343.630184,2664.741391,-5107.421000,2221.676944
59343.630493,2368.659014,-3627.009116,1838.629195
59343.630803,4441.235652,-9326.594869,4826.401637
59343.631113,-74.020594,-8364.327145,-1838.629195
59343.631422,-74.020594,-12435.459826,1762.019645
59343.631732,-666.185348,-9474.636058,-2374.896044
59343.632042,-2368.659014,-9030.512492,-612.876398
59343.632351,-4515.256246,-10510.924376,-1608.800546
59343.632661,-5773.606348,-11843.295072,-1455.581446
59343.632971,-3552.988522,-10807.006753,-76.609550
59343.633281,0.000000,-7402.059420,2221.676944
59343.633590,2886.803174,-3330.926739,1608.800546
59343.633900,4737.318029,-4811.338623,4290.134789
59343.634210,4071.132681,-6513.812290,1762.019645
59343.634519,0.000000,-9548.656652,2451.505594
59343.634829,-74.020594,-11251.130318,-1302.362347
59343.635139,-2664.741391,-9548.656652,-1915.238745
59343.635448,-2368.659014,-9622.677246,-1915.238745
59343.635758,-3627.009116,-11695.253884,-1915.238745
59343.636068,-4219.173869,-11991.336260,-153.219100
59343.636377,-2442.679609,-11547.212695,-76.609550
59343.636687,1702.473667,-7994.224174,1149.143247
59343.636997,2960.823768,-4811.338623,2451.505594
59343.637306,7031.956449,-8290.306550,7277.907231
59343.637616,296.082377,-5403.503377,2451.505594
59343.637926,1702.473667,-10955.047942,2374.896044
59343.638235,-2294.638420,-9696.697840,-153.219100
59343.638545,-2516.700203,-9844.739029,-459.657299
59343.638855,-3404.947333,-9474.636058,-919.314598
59343.639164,-5477.523971,-10807.006753,-1838.629195
59343.639474,-3627.009116,-12953.603985,-76.609550
59343.639784,-666.185348,-11251.130318,-76.609550
59343.640094,740.205942,-5995.668130,1838.629195
59343.640403,6513.812290,-6735.874072,7354.516781
59343.640713,4367.215058,-4145.153275,2987.772442
59343.641023,1480.411884,-8290.306550,4519.963438
59343.641332,-1258.350101,-9696.697840,0.000000
59343.641642,-2368.659014,-11325.150913,-919.314598
59343.641952,-1998.556043,-9918.759623,-1302.362347
59343.642261,-2664.741391,-9548.656652,-3370.820191
59343.642571,-3034.844362,-12435.459826,-612.876398
59343.642881,-1850.514855,-14211.954086,-76.609550
59343.643190,-1850.514855,-9548.656652,-76.609550
59343.643500,0.000000,-5995.668130,2451.505594
59343.643810,7031.956449,-7105.977043,6052.154434
59343.644119,4441.235652,-7105.977043,6511.811733
59343.644429,1850.514855,-8586.388927,2834.553343
59343.644739,-962.267725,-9992.780217,536.266849
59343.645048,-2146.597232,-9548.656652,-612.876398
59343.645358,-2294.638420,-8956.491898,-2145.067394
59343.645668,-3849.070898,-8364.327145,-2451.505594
59343.645977,-4219.173869,-13027.624579,-76.609550
59343.646287,-4811.338623,-12435.459826,-689.485948
59343.646597,-4737.318029,-7179.997637,0.000000
59343.646907,4663.297435,-8882.471304,4826.401637
59343.647216,4145.153275,-5107.421000,4290.134789
59343.647526,4441.235652,-5921.647536,3600.648841
59343.647836,1998.556043,-7772.162391,1608.800546
59343.648145,0.000000,-10732.986159,536.266849
59343.648455,-740.205942,-9104.533087,-1608.800546
59343.648765,-2368.659014,-8364.327145,-3064.381992
59343.649074,-3552.988522,-10436.903782,-1225.752797
59343.649384,-2738.761985,-13619.789333,-1302.362347
59343.649694,-6513.812290,-9844.739029,-3677.258390
59343.650003,888.247130,-11769.274478,4060.306139
59343.650313,4145.153275,-5995.668130,3064.381992
59343.650623,6809.894666,-5921.647536,5286.058936
59343.650932,4811.338623,-6365.771101,4519.963438
59343.651242,2072.576638,-8734.430116,2757.943793
59343.651552,-222.061783,-10362.883188,1762.019645
59343.651861,-3256.906145,-7476.080014,-2681.334243
59343.652171,-4737.318029,-7772.162391,-1838.629195
59343.652481,-3627.009116,-10658.965565,-689.485948
59343.652790,-8438.347739,-9548.656652,-4903.011187
59343.653100,-5921.647536,-11029.068536,0.000000
59343.653410,-1776.494261,-7179.997637,612.876398
59343.653720,4367.215058,-6291.750507,4213.525239
59343.654029,5181.441594,-4737.318029,4826.401637
59343.654339,3627.009116,-6143.709319,3907.087040
59343.654649,2442.679609,-9474.636058,4213.525239
59343.654958,-444.123565,-9474.636058,-76.609550
59343.655268,-2960.823768,-8068.244768,-2145.067394
59343.655578,-1406.391290,-11251.130318,-76.609550
59343.655887,-4219.173869,-9178.553681,-4060.306139
59343.656197,-6513.812290,-11917.315666,0.000000
59343.656507,-4219.173869,-10881.027347,-1915.238745
59343.656816,0.000000,-9030.512492,612.876398
59343.657126,3701.029710,-7031.956449,2987.772442
59343.657436,4811.338623,-5551.544565,4673.182538
59343.657745,4367.215058,-9030.512492,6665.030833
59343.658055,1110.308913,-10658.965565,3600.648841
59343.658365,-1850.514855,-8882.471304,0.000000
59343.658674,-2072.576638,-8956.491898,1608.800546
59343.658984,-2442.679609,-8290.306550,-2528.115143
59343.659294,-7105.977043,-8364.327145,-4903.011187
59343.659603,-5403.503377,-11843.295072,-2221.676944
59343.659913,-4737.318029,-10510.924376,-919.314598
59343.660223,74.020594,-8142.265362,1991.848295
59343.660533,3775.050304,-5551.544565,3294.210641
59343.660842,4441.235652,-5403.503377,5515.887586
59343.661152,3478.967927,-9474.636058,4826.401637
59343.661462,1110.308913,-9474.636058,1149.143247
59343.661771,-2072.576638,-8956.491898,-3064.381992
59343.662081,-74.020594,-12435.459826,1608.800546
59343.662391,-2146.597232,-7179.997637,-3447.429741
59343.662700,-2442.679609,-11843.295072,-995.924147
59343.663010,-4293.194464,-11917.315666,-1225.752797
59343.663320,-1480.411884,-10955.047942,612.876398
59343.663629,2368.659014,-8142.265362,1991.848295
59343.663939,4737.318029,-4811.338623,3677.258390
59343.664249,6439.791695,-7179.997637,6128.763984
59343.664558,4663.297435,-9474.636058,3294.210641
59343.664868,-1184.329507,-9548.656652,0.000000
59343.665178,-74.020594,-13027.624579,-76.609550
59343.665487,-3552.988522,-7994.224174,-2528.115143
59343.665797,-2442.679609,-11251.130318,-383.047749
59343.666107,-5477.523971,-10881.027347,-2068.457845
59343.666416,-5773.606348,-11769.274478,-1378.971896
59343.666726,-2442.679609,-10140.821405,612.876398
59343.667036,296.082377,-4811.338623,612.876398
59343.667346,5329.482782,-3627.009116,5515.887586
59343.667655,7031.956449,-5921.647536,5439.278036
59343.667965,2516.700203,-5995.668130,0.000000
59343.668275,3478.967927,-11843.295072,2374.896044
59343.668584,-2368.659014,-9474.636058,-383.047749
59343.668894,-888.247130,-10658.965565,-76.609550
59343.669204,-1554.432478,-10362.883188,-2068.457845
59343.669513,-3701.029710,-12139.377449,-2221.676944
59343.669823,-4293.194464,-12953.603985,-1455.581446
59343.670133,-2886.803174,-9696.697840,-1302.362347
59343.670442,0.000000,-5995.668130,0.000000
59343.670752,5329.482782,-6291.750507,4903.011187
59343.671062,4663.297435,-7105.977043,3600.648841
59343.671371,1184.329507,-8956.491898,3983.696590
59343.671681,-74.020594,-13027.624579,2374.896044
59343.671991,-2072.576638,-9548.656652,306.438199
59343.672300,-2294.638420,-8734.430116,-229.828649
59343.672610,-3478.967927,-8808.450710,-995.924147
59343.672920,-4885.359217,-11177.109724,-1378.971896
59343.673229,-4219.173869,-11547.212695,-1302.362347
59343.673539,-4145.153275,-7772.162391,0.000000
59343.673849,1184.329507,-6587.832884,2451.505594
59343.674159,5773.606348,-7179.997637,6741.640382
59343.674468,1332.370696,-3627.009116,1532.190996
59343.674778,2664.741391,-9548.656652,3983.696590
59343.675088,-1776.494261,-9548.656652,0.000000
59343.675397,-2294.638420,-10066.800811,-1149.143247
59343.675707,-2590.720797,-9770.718434,-1915.238745
59343.676017,-3256.906145,-10066.800811,-1762.019645
59343.676326,-2442.679609,-13027.624579,-689.485948
59343.676636,-3182.885551,-10955.047942,-1608.800546
59343.676946,0.000000,-8660.409521,306.438199
59343.677255,5625.565159,-9104.533087,6128.763984
59343.677565,4663.297435,-4145.153275,3294.210641
59343.677875,2960.823768,-5995.668130,4903.011187
59343.678184,0.000000,-8956.491898,1838.629195
59343.678494,-592.164754,-10214.842000,919.314598
59343.678804,-1554.432478,-9918.759623,153.219100
59343.679113,-2812.782580,-9030.512492,-1072.533697
59343.679423,-3627.009116,-11843.295072,-76.609550
59343.679733,-4811.338623,-11843.295072,-2528.115143
59343.680042,-5921.647536,-10140.821405,-1838.629195
59343.680352,0.000000,-8364.327145,3677.258390
59343.680662,4071.132681,-4737.318029,2374.896044
59343.680972,1184.329507,-2442.679609,2451.505594
59343.681281,2738.761985,-6069.688724,2681.334243
59343.681591,740.205942,-8956.491898,1991.848295
59343.681901,-666.185348,-10288.862594,0.000000
59343.682210,-1554.432478,-9992.780217,-1532.190996
59343.682520,-1036.288319,-10658.965565,-76.609550
59343.682830,-1258.350101,-12435.459826,-689.485948
59343.683139,-4219.173869,-11843.295072,-2528.115143
59343.683449,-3552.988522,-10732.986159,0.000000
59343.683759,4071.132681,-11251.130318,2374.896044
59343.684068,2368.659014,-3627.009116,612.876398
59343.684378,7031.956449,-5329.482782,4519.963438
59343.684688,3849.070898,-7105.977043,3907.087040
59343.684997,1554.432478,-9918.759623,1915.238745
59343.685307,-888.247130,-10807.006753,153.219100
59343.685617,-2368.659014,-10140.821405,919.314598
59343.685926,-2220.617826,-11029.068536,-76.609550
59343.686236,-4811.338623,-10658.965565,-2528.115143
59343.686546,-9474.636058,-9548.656652,-4903.011187
59343.686855,-1850.514855,-13027.624579,1149.143247
59343.687165,1110.308913,-6809.894666,-76.609550
59343.687475,5699.585753,-5625.565159,4826.401637
59343.687785,4885.359217,-4293.194464,4596.572988
59343.688094,3330.926739,-6735.874072,3524.039291
59343.688404,962.267725,-9474.636058,1302.362347
59343.688714,-3552.988522,-9548.656652,0.000000
59343.689023,-1776.494261,-9548.656652,-919.314598
59343.689333,-666.185348,-11251.130318,-689.485948
59343.689643,-3627.009116,-9622.677246,-3907.087040
59343.689952,-4737.318029,-13693.809927,0.000000
59343.690262,-74.020594,-13027.624579,-76.609550
59343.690572,2294.638420,-9104.533087,2451.505594
59343.690881,4959.379811,-6957.935855,3524.039291
59343.691191,5995.668130,-5995.668130,4060.306139
59343.691501,3330.926739,-7994.224174,3677.258390
59343.691810,0.000000,-7772.162391,0.000000
59343.692120,-2368.659014,-9548.656652,0.000000
59343.692430,-148.041188,-10066.800811,1762.019645
59343.692739,-5551.544565,-6143.709319,-3064.381992
59343.693049,-4737.318029,-11473.192101,0.000000
59343.693359,-3627.009116,-14211.954086,-76.609550
59343.693668,-2960.823768,-10732.986159,919.314598
59343.693978,1702.473667,-7476.080014,2681.334243
59343.694288,4071.132681,-4959.379811,4060.306139
59343.694598,3256.906145,-5551.544565,3677.258390
59343.694907,1110.308913,-6809.894666,383.047749
59343.695217,-2960.823768,-7772.162391,0.000000
59343.695527,-2072.576638,-10732.986159,0.000000
59343.695836,-3182.885551,-7698.141797,-3140.991542
59343.696146,-3256.906145,-10881.027347,0.000000
59343.696456,-74.020594,-14211.954086,-76.609550
59343.696765,-4441.235652,-11325.150913,0.000000
59343.697075,-74.020594,-10288.862594,919.314598
59343.697385,3108.864956,-7698.141797,2374.896044
59343.697694,4737.318029,-5403.503377,3830.477490
59343.698004,4663.297435,-7105.977043,3294.210641
59343.698314,0.000000,-8216.285956,1302.362347
59343.698623,-1776.494261,-9548.656652,0.000000
59343.698933,-74.020594,-13027.624579,-76.609550
59343.699243,-3552.988522,-7179.997637,-2451.505594
59343.699552,-2960.823768,-9548.656652,1225.752797
59343.699862,-5773.606348,-9548.656652,-2451.505594
59343.700172,-4367.215058,-12213.398043,-612.876398
59343.700481,-1258.350101,-9770.718434,842.705048
59343.700791,1850.514855,-7254.018232,2451.505594
59343.701101,6439.791695,-6513.812290,3600.648841
59343.701411,3330.926739,-6365.771101,2374.896044
59343.701720,0.000000,-8364.327145,1532.190996
59343.702030,-74.020594,-9474.636058,-689.485948
59343.702340,-2072.576638,-9548.656652,612.876398
59343.702649,-74.020594,-8734.430116,766.095498
59343.702959,-3256.906145,-8068.244768,-1991.848295
59343.703269,-3404.947333,-11621.233289,-306.438199
59343.703578,-2442.679609,-11843.295072,0.000000
59343.703888,370.102971,-9474.636058,536.266849
59343.704198,4663.297435,-7698.141797,2987.772442
59343.704507,4663.297435,-4737.318029,2068.457845
59343.704817,1776.494261,-6587.832884,1225.752797
59343.705126,2294.638420,-11843.295072,1762.019645
59343.705436,-3552.988522,-10732.986159,0.000000
59343.705746,-74.020594,-12213.398043,1838.629195
59343.706055,-3552.988522,-8364.327145,-1838.629195
59343.706365,-3997.112087,-9918.759623,-919.314598
59343.706675,-4219.173869,-11843.295072,-229.828649
59343.706984,-2146.597232,-10955.047942,383.047749
59343.707294,1998.556043,-7254.018232,2298.286494
59343.707604,4663.297435,-5329.482782,3907.087040
59343.707913,5255.462188,-5773.606348,4826.401637
59343.708223,0.000000,-4811.338623,1225.752797
59343.708532,-74.020594,-10658.965565,1762.019645
59343.708842,-2442.679609,-10362.883188,-1302.362347
59343.709152,-1258.350101,-9474.636058,-1302.362347
59343.709461,-2960.823768,-8956.491898,-1838.629195
59343.709771,-2960.823768,-11325.150913,-842.705048
59343.710081,-3849.070898,-12139.377449,-995.924147
59343.710390,-2368.659014,-10732.986159,0.000000
59343.710700,2886.803174,-10214.842000,3370.820191
59343.711010,4663.297435,-5921.647536,3600.648841
59343.711319,3552.988522,-3627.009116,4903.011187
59343.711629,6439.791695,-8882.471304,4213.525239
59343.711938,148.041188,-7476.080014,229.828649
59343.712248,-74.020594,-12435.459826,1455.581446
59343.712558,-1702.473667,-10066.800811,-536.266849
59343.712867,-2664.741391,-9622.677246,-1225.752797
59343.713177,-4737.318029,-11547.212695,-1225.752797
59343.713487,-7105.977043,-10140.821405,0.000000
59343.713796,-3256.906145,-10732.986159,612.876398
59343.714106,2886.803174,-8290.306550,4826.401637
59343.714416,3478.967927,-2368.659014,1762.019645
59343.714725,2368.659014,-4811.338623,3830.477490
59343.715035,3478.967927,-9474.636058,2374.896044
59343.715344,-444.123565,-9844.739029,1225.752797
59343.715654,-2294.638420,-10288.862594,-612.876398
59343.715964,-2294.638420,-9030.512492,-1302.362347
59343.716273,-1036.288319,-9178.553681,-1455.581446
59343.716583,-4145.153275,-9104.533087,-3524.039291
59343.716893,-4737.318029,-11325.150913,0.000000
59343.717202,-592.164754,-11769.274478,1762.019645
59343.717512,222.061783,-6291.750507,0.000000
59343.717822,5477.523971,-7624.121203,4290.134789
59343.718131,5847.626942,-8290.306550,4826.401637
59343.718441,1776.494261,-8660.409521,2451.505594
59343.718750,-74.020594,-11029.068536,766.095498
59343.719060,-1480.411884,-10658.965565,76.609550
59343.719370,-2072.576638,-9474.636058,-153.219100
59343.719679,-1554.432478,-7994.224174,-2528.115143
59343.719989,-5329.482782,-9548.656652,-1838.629195
59343.720299,-4145.153275,-11917.315666,766.095498
59343.720608,-74.020594,-11251.130318,-76.609550
59343.720918,0.000000,-5699.585753,612.876398
59343.721228,4737.318029,-6291.750507,5822.325785
59343.721537,592.164754,-5995.668130,2145.067394
59343.721847,0.000000,-9474.636058,1378.971896
59343.722156,-1184.329507,-10436.903782,383.047749
59343.722466,-1258.350101,-9696.697840,0.000000
59343.722776,-74.020594,-9474.636058,-1302.362347
59343.723085,-1702.473667,-7550.100608,-1915.238745
59343.723395,-3552.988522,-10140.821405,0.000000
59343.723705,-74.020594,-14211.954086,-76.609550
59343.724014,-2146.597232,-8734.430116,-842.705048
59343.724324,2368.659014,-7179.997637,3677.258390
59343.724634,3849.070898,-4811.338623,2451.505594
59343.724943,4441.235652,-6809.894666,3370.820191
59343.725253,1480.411884,-9474.636058,2068.457845
59343.725562,-962.267725,-11103.089130,76.609550
59343.725872,-74.020594,-11843.295072,-76.609550
59343.726182,-1258.350101,-9474.636058,-689.485948
59343.726491,-4737.318029,-8364.327145,-4290.134789
59343.726801,-3256.906145,-12953.603985,1532.190996
59343.727111,-2442.679609,-11251.130318,-76.609550
59343.727420,-3552.988522,-7179.997637,0.000000
59343.727730,2590.720797,-5033.400406,2681.334243
59343.728040,4145.153275,-4219.173869,3677.258390
59343.728349,1998.556043,-5921.647536,2451.505594
59343.728659,-1036.288319,-9326.594869,1378.971896
59343.728968,-814.226536,-12879.583391,2374.896044
59343.729278,-666.185348,-11251.130318,-76.609550
59343.729588,-1998.556043,-7179.997637,-3294.210641
59343.729897,-1776.494261,-10732.986159,612.876398
59343.730207,-3182.885551,-11103.089130,-1302.362347
59343.730517,-5921.647536,-9548.656652,0.000000
59343.730826,814.226536,-9474.636058,995.924147
59343.731136,2738.761985,-5995.668130,1838.629195
59343.731446,4441.235652,-5477.523971,2987.772442
59343.731755,3552.988522,-6883.915261,2834.553343
59343.732065,1184.329507,-11029.068536,2604.724693
59343.732374,-74.020594,-11843.295072,1149.143247
59343.732684,-1258.350101,-9770.718434,-2528.115143
59343.732994,-2368.659014,-9548.656652,0.000000
59343.733303,-2442.679609,-11843.295072,-76.609550
59343.733613,-5995.668130,-10140.821405,-3064.381992
59343.733923,-2442.679609,-11547.212695,1149.143247
59343.734232,962.267725,-7920.203579,1838.629195
59343.734542,3627.009116,-5107.421000,3294.210641
59343.734852,3627.009116,-4737.318029,3370.820191
59343.735161,0.000000,-6587.832884,3677.258390
59343.735471,-592.164754,-9992.780217,1378.971896
59343.735780,-1554.432478,-11843.295072,-76.609550
59343.736090,-5921.647536,-7179.997637,-2451.505594
59343.736400,-666.185348,-10658.965565,-76.609550
59343.736709,-2442.679609,-8290.306550,-2528.115143
59343.737019,-3404.947333,-13619.789333,-229.828649
59343.737329,-2146.597232,-12139.377449,229.828649
59343.737638,1924.535449,-8364.327145,2145.067394
59343.737948,4737.318029,-6069.688724,3064.381992
59343.738258,2960.823768,-2442.679609,2451.505594
59343.738567,1184.329507,-7179.997637,2451.505594
59343.738877,1702.473667,-13619.789333,3600.648841
59343.739186,-4145.153275,-9548.656652,-2451.505594
59343.739496,-74.020594,-11843.295072,1072.533697
59343.739806,-74.020594,-9474.636058,-76.609550
59343.740115,-2516.700203,-11325.150913,0.000000
59343.740425,-3256.906145,-12213.398043,459.657299
59343.740735,-1702.473667,-10214.842000,766.095498
59343.741044,1850.514855,-7105.977043,2681.334243
59343.741354,1184.329507,-2738.761985,2451.505594
59343.741664,592.164754,-4811.338623,1991.848295
59343.741973,-74.020594,-11843.295072,4213.525239
59343.742283,-4737.318029,-7772.162391,-2145.067394
59343.742592,-1554.432478,-11399.171507,-76.609550
59343.742902,-74.020594,-9474.636058,-76.609550
59343.743212,-1776.494261,-8364.327145,0.000000
59343.743521,-1702.473667,-10510.924376,76.609550
59343.743831,-1850.514855,-12213.398043,383.047749
59343.744141,-296.082377,-11325.150913,1072.533697
59343.744450,1702.473667,-6217.729913,229.828649
59343.744760,3552.988522,-5403.503377,1991.848295
59343.745070,4737.318029,-7179.997637,4903.011187
59343.745379,1702.473667,-8586.388927,842.705048
59343.745689,-1184.329507,-10732.986159,306.438199
59343.745998,-2368.659014,-9548.656652,0.000000
59343.746308,-1258.350101,-8882.471304,-1149.143247
59343.746618,-3108.864956,-9548.656652,-919.314598
59343.746927,-3997.112087,-11103.089130,-995.924147
59343.747237,-4071.132681,-11547.212695,-306.438199
59343.747547,-444.123565,-11251.130318,3294.210641
59343.747856,4367.215058,-6809.894666,4826.401637
59343.748166,4071.132681,-2960.823768,1762.019645
59343.748476,1776.494261,-5403.503377,3064.381992
59343.748785,-74.020594,-9474.636058,1149.143247
59343.749095,-666.185348,-10658.965565,-76.609550
59343.749404,-2294.638420,-9992.780217,-306.438199
59343.749714,-1702.473667,-8586.388927,-995.924147
59343.750024,-1850.514855,-9474.636058,-689.485948
59343.750333,-2960.823768,-11399.171507,-459.657299
59343.750643,-3997.112087,-10732.986159,-2145.067394
59343.750953,-592.164754,-8364.327145,0.000000
59343.751262,2664.741391,-7179.997637,3064.381992
59343.751572,6439.791695,-7105.977043,3600.648841
59343.751882,2960.823768,-4811.338623,0.000000
59343.752191,0.000000,-8660.409521,2451.505594
59343.752501,-74.020594,-11695.253884,536.266849
59343.752810,-740.205942,-11029.068536,-612.876398
59343.753120,-2072.576638,-9992.780217,-766.095498
59343.753430,-3849.070898,-10362.883188,-1149.143247
59343.753739,-3701.029710,-12731.542202,1072.533697
59343.754049,-666.185348,-14211.954086,2987.772442
59343.754359,-74.020594,-7105.977043,536.266849
59343.754668,2368.659014,-5403.503377,3677.258390
59343.754978,3775.050304,-3923.091493,842.705048
59343.755288,1998.556043,-6513.812290,1838.629195
59343.755597,-1332.370696,-9030.512492,919.314598
59343.755907,-2664.741391,-10214.842000,-536.266849
59343.756216,-2812.782580,-9178.553681,-1072.533697
59343.756526,-1998.556043,-8586.388927,-76.609550
59343.756836,-2960.823768,-8586.388927,-1762.019645
59343.757145,-5921.647536,-9548.656652,-2451.505594
59343.757455,-2368.659014,-11917.315666,612.876398
59343.757765,2294.638420,-9474.636058,2374.896044
59343.758074,962.267725,-3627.009116,229.828649
59343.758384,4737.318029,-6217.729913,5209.449386
59343.758694,4071.132681,-7105.977043,3294.210641
59343.759003,1036.288319,-9918.759623,1302.362347
59343.759313,-814.226536,-11029.068536,-383.047749
59343.759622,-1776.494261,-9548.656652,-2145.067394
59343.759932,-1406.391290,-10362.883188,-76.609550
59343.760242,-1258.350101,-13027.624579,-76.609550
59343.760551,-5921.647536,-10732.986159,-1838.629195
59343.760861,-1554.432478,-12065.356855,2374.896044
59343.761171,0.000000,-5403.503377,0.000000
59343.761480,2072.576638,-3034.844362,1991.848295
59343.761790,3108.864956,-4885.359217,3370.820191
59343.762100,814.226536,-7550.100608,2145.067394
59343.762409,-1480.411884,-9548.656652,612.876398
59343.762719,-1258.350101,-11769.274478,1762.019645
59343.763028,-2368.659014,-7179.997637,-1608.800546
59343.763338,-3552.988522,-7179.997637,0.000000
59343.763648,-962.267725,-11547.212695,919.314598
59343.763957,-2590.720797,-11251.130318,-1302.362347
59343.764267,-3552.988522,-10732.986159,0.000000
59343.764577,2294.638420,-9474.636058,2374.896044
59343.764886,3923.091493,-5625.565159,2451.505594
59343.765196,4145.153275,-5847.626942,2911.162892
59343.765506,2368.659014,-7994.224174,1915.238745
59343.765815,-1332.370696,-9548.656652,0.000000
59343.766125,-74.020594,-11917.315666,459.657299
59343.766434,-74.020594,-11843.295072,-76.609550
59343.766744,-2442.679609,-8068.244768,-1149.143247
59343.767054,-1628.453072,-12657.521608,2987.772442
59343.767363,-2442.679609,-11547.212695,689.485948
59343.767673,-2368.659014,-8660.409521,0.000000
59343.767983,2442.679609,-8068.244768,3217.601092
59343.768292,4071.132681,-5477.523971,3447.429741
59343.768602,3108.864956,-5403.503377,3370.820191
59343.768912,1110.308913,-10658.965565,3600.648841
59343.769221,-3330.926739,-8956.491898,-536.266849
59343.769531,-4737.318029,-9548.656652,0.000000
59343.769840,-1850.514855,-9474.636058,-995.924147
59343.770150,-4441.235652,-7179.997637,0.000000
59343.770460,-1258.350101,-11843.295072,-76.609550
59343.770769,-2442.679609,-12583.501014,536.266849
59343.771079,-1480.411884,-10140.821405,459.657299
59343.771389,2368.659014,-6587.832884,1915.238745
59343.771698,4441.235652,-4811.338623,3140.991542
59343.772008,2368.659014,-3034.844362,1225.752797
59343.772318,2886.803174,-9770.718434,2757.943793
59343.772627,-74.020594,-12435.459826,-76.609550
59343.772937,-3182.885551,-10140.821405,-3677.258390
59343.773246,-74.020594,-13027.624579,-76.609550
59343.773556,-4737.318029,-9548.656652,0.000000
59343.773866,-5477.523971,-10732.986159,-1991.848295
59343.774175,-3552.988522,-12287.418637,0.000000
59343.774485,-296.082377,-9770.718434,1762.019645
59343.774795,2886.803174,-6587.832884,3294.210641
59343.775104,6439.791695,-5921.647536,6052.154434
59343.775414,1998.556043,-4219.173869,2681.334243
59343.775724,0.000000,-7772.162391,2451.505594
59343.776033,-666.185348,-10658.965565,-76.609550
59343.776343,-4737.318029,-7772.162391,0.000000
59343.776652,-74.020594,-9474.636058,-689.485948
59343.776962,-1850.514855,-10658.965565,-689.485948
59343.777272,-3849.070898,-11843.295072,-1302.362347
59343.777581,-3256.906145,-12213.398043,-306.438199
59343.777891,-370.102971,-9770.718434,459.657299
59343.778201,1184.329507,-4811.338623,1225.752797
59343.778510,5477.523971,-5921.647536,4136.915689
59343.778820,5255.462188,-6217.729913,3294.210641
59343.779130,1184.329507,-8364.327145,2451.505594
59343.779439,-74.020594,-11843.295072,-76.609550
59343.779749,-2368.659014,-11325.150913,0.000000
59343.780058,-2368.659014,-9622.677246,-1838.629195
59343.780368,-3552.988522,-10510.924376,-1149.143247
59343.780678,-4515.256246,-11695.253884,-766.095498
59343.780987,-2738.761985,-11843.295072,459.657299
59343.781297,3478.967927,-9474.636058,1762.019645
59343.781607,2960.823768,-5403.503377,3677.258390
59343.781916,4367.215058,-4885.359217,3677.258390
59343.782226,2072.576638,-6661.853478,2834.553343
59343.782536,-814.226536,-9252.574275,842.705048
59343.782845,-2516.700203,-10732.986159,612.876398
59343.783155,-3108.864956,-10436.903782,-76.609550
59343.783464,-3923.091493,-6291.750507,-3524.039291
59343.783774,-296.082377,-11251.130318,1149.143247
59343.784084,-3627.009116,-11251.130318,-842.705048
59343.784393,-666.185348,-11843.295072,-76.609550
59343.784703,-370.102971,-8586.388927,842.705048
59343.785013,2960.823768,-4811.338623,2451.505594
59343.785322,5847.626942,-7105.977043,3600.648841
59343.785632,1184.329507,-5403.503377,2451.505594
59343.785942,1110.308913,-9474.636058,459.657299
59343.786251,592.164754,-11029.068536,306.438199
59343.786561,-1036.288319,-10362.883188,-459.657299
59343.786870,-2072.576638,-9252.574275,-1225.752797
59343.787180,-3997.112087,-10510.924376,-1455.581446
59343.787490,-5625.565159,-11325.150913,-1072.533697
59343.787799,-2442.679609,-11843.295072,459.657299
59343.788109,1480.411884,-8808.450710,2374.896044
59343.788419,4145.153275,-5403.503377,3677.258390
59343.788728,3552.988522,-5329.482782,3524.039291
59343.789038,2294.638420,-7105.977043,2374.896044
59343.789348,-592.164754,-9474.636058,-76.609550
59343.789657,-3552.988522,-9548.656652,0.000000
59343.789967,-666.185348,-9474.636058,-76.609550
59343.790276,-3849.070898,-8364.327145,-1838.629195
59343.790586,-4293.194464,-9548.656652,-919.314598
59343.790896,-3034.844362,-12583.501014,-459.657299
59343.791205,-1998.556043,-11103.089130,153.219100
59343.791515,1702.473667,-7846.182985,1685.410096
59343.791825,4959.379811,-5477.523971,3370.820191
59343.792134,7624.121203,-6809.894666,4826.401637
59343.792444,3478.967927,-8290.306550,3600.648841
59343.792754,0.000000,-8364.327145,0.000000
59343.793063,-74.020594,-12435.459826,-76.609550
59343.793373,-3849.070898,-9696.697840,-1838.629195
59343.793682,-3330.926739,-8512.368333,-1838.629195
59343.793992,-3849.070898,-11325.150913,-536.266849
59343.794302,-3997.112087,-11917.315666,-766.095498
59343.794611,-1184.329507,-10807.006753,842.705048
59343.794921,2220.617826,-7624.121203,3524.039291
59343.795231,6365.771101,-6513.812290,4826.401637
59343.795540,3923.091493,-7105.977043,4826.401637
59343.795850,518.144159,-6513.812290,536.266849
59343.796160,-1776.494261,-9548.656652,1225.752797
59343.796469,-666.185348,-10955.047942,919.314598
59343.796779,-1258.350101,-8734.430116,-2374.896044
59343.797088,-2664.741391,-9548.656652,-689.485948
59343.797398,-4145.153275,-11547.212695,-766.095498
59343.797708,-4441.235652,-12139.377449,-995.924147
59343.798017,-1628.453072,-10436.903782,1149.143247
59343.798327,2664.741391,-7698.141797,3524.039291
59343.798637,6735.874072,-7550.100608,6052.154434
59343.798946,5255.462188,-4737.318029,2987.772442
59343.799256,1480.411884,-6587.832884,1838.629195
59343.799566,1702.473667,-11251.130318,1915.238745
59343.799875,-74.020594,-11695.253884,-1915.238745
59343.800185,-2368.659014,-9696.697840,-1532.190996
59343.800494,-3182.885551,-10658.965565,-1838.629195
59343.800804,-4663.297435,-11843.295072,-1378.971896
59343.801114,-4367.215058,-12213.398043,-76.609550
59343.801423,-1776.494261,-10140.821405,2451.505594
59343.801733,2960.823768,-7179.997637,4903.011187
59343.802043,6439.791695,-7105.977043,4826.401637
59343.802352,1850.514855,-4885.359217,2068.457845
59343.802662,0.000000,-7476.080014,1225.752797
59343.802972,-666.185348,-10881.027347,-76.609550
59343.803281,-2590.720797,-9030.512492,-1225.752797
59343.803591,-2664.741391,-8586.388927,-1149.143247
59343.803900,-3478.967927,-9548.656652,-1302.362347
59343.804210,-4589.276840,-11769.274478,-1838.629195
59343.804520,-4737.318029,-11325.150913,0.000000
59343.804829,0.000000,-9548.656652,1225.752797
59343.805139,4663.297435,-8290.306550,3907.087040
59343.805449,3627.009116,-3182.885551,2451.505594
59343.805758,4145.153275,-5995.668130,3370.820191
59343.806068,2812.782580,-9178.553681,4213.525239
59343.806377,444.123565,-10288.862594,536.266849
59343.806687,-740.205942,-10584.944971,-76.609550
59343.806997,-1554.432478,-9844.739029,-689.485948
59343.807306,-4441.235652,-9548.656652,-3677.258390
59343.807616,-5403.503377,-11769.274478,-919.314598
59343.807926,-2738.761985,-13619.789333,-76.609550
59343.808235,518.144159,-7624.121203,-995.924147
59343.808545,4145.153275,-7179.997637,4903.011187
59343.808855,6439.791695,-5921.647536,4519.963438
59343.809164,3775.050304,-7105.977043,4826.401637
59343.809474,74.020594,-8956.491898,1762.019645
59343.809783,-1332.370696,-10214.842000,306.438199
59343.810093,-2368.659014,-9696.697840,-1149.143247
59343.810403,-2812.782580,-9178.553681,-2451.505594
59343.810712,-5625.565159,-8364.327145,-2451.505594
59343.811022,-7105.977043,-10732.986159,-2451.505594
59343.811332,-666.185348,-13619.789333,-76.609550
59343.811641,222.061783,-7476.080014,919.314598
59343.811951,3552.988522,-4811.338623,2834.553343
59343.812260,4145.153275,-6513.812290,5439.278036
59343.812570,3478.967927,-6883.915261,2987.772442
59343.812880,1258.350101,-8808.450710,1685.410096
59343.813189,-888.247130,-10955.047942,306.438199
59343.813499,-1924.535449,-9548.656652,-2451.505594
59343.813809,-3775.050304,-9548.656652,-3677.258390
59343.814118,-7105.977043,-9548.656652,-3677.258390
59343.814428,-3034.844362,-14211.954086,-76.609550
59343.814738,-4367.215058,-10362.883188,0.000000
59343.815047,2368.659014,-8660.409521,3600.648841
59343.815357,4737.318029,-6735.874072,5209.449386
59343.815666,4663.297435,-5551.544565,4673.182538
59343.815976,1776.494261,-7105.977043,2757.943793
59343.816286,-296.082377,-9326.594869,1532.190996
59343.816595,-1480.411884,-8734.430116,-689.485948
59343.816905,-1258.350101,-9474.636058,-1302.362347
59343.817215,-5921.647536,-5995.668130,-3677.258390
59343.817524,-3849.070898,-11917.315666,0.000000
59343.817834,-4811.338623,-12435.459826,-1915.238745
59343.818143,-2960.823768,-11029.068536,1302.362347
59343.818453,1184.329507,-7772.162391,2451.505594
59343.818763,4737.318029,-5625.565159,3983.696590
59343.819072,4737.318029,-5255.462188,3370.820191
59343.819382,3034.844362,-7328.038826,2757.943793
59343.819692,666.185348,-9474.636058,1762.019645
59343.820001,-74.020594,-11251.130318,-76.609550
59343.820311,-2442.679609,-8290.306550,-2834.553343
59343.820621,-2368.659014,-10436.903782,-612.876398
59343.820930,-4515.256246,-10807.006753,-2681.334243
59343.821240,-4737.318029,-11473.192101,-612.876398
59343.821549,-2368.659014,-9548.656652,0.000000
59343.821859,3182.885551,-7772.162391,3140.991542
59343.822169,5477.523971,-5255.462188,3983.696590
59343.822478,4145.153275,-5625.565159,3677.258390
59343.822788,2516.700203,-9178.553681,3294.210641
59343.823098,-74.020594,-10658.965565,612.876398
59343.823407,-74.020594,-11843.295072,1149.143247
59343.823717,-2738.761985,-7772.162391,-2451.505594
59343.824026,-2368.659014,-10140.821405,-76.609550
59343.824336,-3923.091493,-11251.130318,-2451.505594
59343.824646,-5477.523971,-10732.986159,-2068.457845
59343.824955,-1332.370696,-10584.944971,766.095498
59343.825265,2368.659014,-6735.874072,2604.724693
59343.825575,4737.318029,-4145.153275,3753.867940
59343.825884,5551.544565,-7105.977043,5286.058936
59343.826194,4441.235652,-9474.636058,4290.134789
59343.826504,3478.967927,-13027.624579,2374.896044
59343.826813,-2738.761985,-9548.656652,-2068.457845
59343.827123,-2960.823768,-10140.821405,-1225.752797
59343.827432,-2738.761985,-10658.965565,-2451.505594
59343.827742,-5995.668130,-10955.047942,-2681.334243
59343.828052,-4737.318029,-12213.398043,-1072.533697
59343.828361,-888.247130,-10362.883188,1302.362347
59343.828671,3552.988522,-6883.915261,3677.258390
59343.828981,6587.832884,-5847.626942,5515.887586
59343.829290,4737.318029,-5995.668130,3677.258390
59343.829600,296.082377,-7772.162391,3064.381992
59343.829909,-74.020594,-11251.130318,1762.019645
59343.830219,-3552.988522,-8364.327145,-3677.258390
59343.830529,-2590.720797,-9548.656652,-2681.334243
59343.830838,-3034.844362,-10658.965565,-1915.238745
59343.831148,-6957.935855,-12435.459826,-2298.286494
59343.831458,-5255.462188,-12139.377449,-1149.143247
59343.831767,-1628.453072,-9178.553681,1149.143247
59343.832077,2368.659014,-4811.338623,3677.258390
59343.832387,4737.318029,-3923.091493,4826.401637
59343.832696,3552.988522,-5995.668130,4903.011187
59343.833006,4367.215058,-9474.636058,3600.648841
59343.833315,-1406.391290,-9548.656652,-2451.505594
59343.833625,-1924.535449,-9548.656652,-1302.362347
59343.833935,-74.020594,-10658.965565,-689.485948
59343.834244,-3627.009116,-10658.965565,-2221.676944
59343.834554,-4811.338623,-11917.315666,-1762.019645
59343.834864,-3627.009116,-12361.439231,-459.657299
59343.835173,0.000000,-8068.244768,76.609550
59343.835483,2368.659014,-5921.647536,3600.648841
59343.835792,2368.659014,-3627.009116,2757.943793
59343.836102,3552.988522,-7846.182985,4443.353888
59343.836412,1110.308913,-7698.141797,-76.609550
59343.836721,-2072.576638,-9474.636058,-76.609550
59343.837031,-444.123565,-11251.130318,-76.609550
59343.837341,-1554.432478,-8734.430116,-1225.752797
59343.837650,-3256.906145,-9844.739029,-1149.143247
59343.837960,-5033.400406,-12065.356855,-1302.362347
59343.838270,-4737.318029,-9844.739029,-995.924147
59343.838579,0.000000,-8882.471304,2451.505594
59343.838889,2368.659014,-4219.173869,2451.505594
59343.839198,6735.874072,-6661.853478,4826.401637
59343.839508,3478.967927,-5107.421000,383.047749
59343.839818,2072.576638,-10658.965565,2374.896044
59343.840127,592.164754,-11177.109724,919.314598
59343.840437,-1406.391290,-10288.862594,-1302.362347
59343.840747,-2960.823768,-9178.553681,-1838.629195
59343.841056,-4145.153275,-10584.944971,-2298.286494
59343.841366,-5107.421000,-11399.171507,-1915.238745
59343.841675,-2442.679609,-12731.542202,536.266849
59343.841985,74.020594,-7179.997637,536.266849
59343.842295,3552.988522,-5995.668130,3677.258390
59343.842604,5847.626942,-9474.636058,7277.907231
59343.842914,2886.803174,-8290.306550,4826.401637
59343.843224,0.000000,-8956.491898,2451.505594
59343.843533,-814.226536,-10214.842000,842.705048
59343.843843,-1628.453072,-8808.450710,-306.438199
59343.844153,-2812.782580,-9474.636058,-919.314598
59343.844462,-3627.009116,-10658.965565,-1915.238745
59343.844772,-4811.338623,-11621.233289,-1378.971896
59343.845081,-3034.844362,-10658.965565,-689.485948
59343.845391,0.000000,-6587.832884,1225.752797
59343.845701,6365.771101,-7624.121203,6511.811733
59343.846010,5403.503377,-5403.503377,4903.011187
59343.846320,1184.329507,-6143.709319,1991.848295
59343.846630,0.000000,-9918.759623,1225.752797
59343.846939,-1850.514855,-10732.986159,-919.314598
59343.847249,-2664.741391,-9548.656652,-1685.410096
59343.847558,-1406.391290,-10955.047942,-1302.362347
59343.847868,-3552.988522,-10732.986159,-1225.752797
59343.848178,-4515.256246,-10881.027347,-1915.238745
59343.848487,-1776.494261,-10140.821405,1225.752797
59343.848797,4071.132681,-8290.306550,3600.648841
59343.849107,4737.318029,-3627.009116,3677.258390
59343.849416,1924.535449,-4811.338623,3370.820191
59343.849726,888.247130,-8660.409521,1991.848295
59343.850036,-1036.288319,-11029.068536,306.438199
59343.850345,-1924.535449,-10732.986159,-459.657299
59343.850655,-370.102971,-11029.068536,-306.438199
59343.850964,-3552.988522,-9104.533087,-2451.505594
59343.851274,-2738.761985,-13915.871710,-383.047749
59343.851584,-5107.421000,-11103.089130,-1532.190996
59343.851893,-1776.494261,-9548.656652,2451.505594
59343.852203,2368.659014,-5403.503377,1225.752797
59343.852513,4959.379811,-2960.823768,3294.210641
59343.852822,5033.400406,-5255.462188,4060.306139
59343.853132,3256.906145,-8068.244768,2987.772442
59343.853441,-296.082377,-10362.883188,0.000000
59343.853751,-1480.411884,-11325.150913,0.000000
59343.854061,-2442.679609,-9548.656652,-2145.067394
59343.854370,-2294.638420,-11547.212695,-766.095498
59343.854680,-4811.338623,-11547.212695,-2681.334243
59343.854990,-4737.318029,-10732.986159,0.000000
59343.855299,-1184.329507,-9548.656652,-1225.752797
59343.855609,4071.132681,-7105.977043,2374.896044
59343.855919,4145.153275,-4811.338623,3524.039291
59343.856228,3182.885551,-6217.729913,3447.429741
59343.856538,1776.494261,-8438.347739,2451.505594
59343.856847,0.000000,-9548.656652,0.000000
59343.857157,-3256.906145,-8660.409521,0.000000
59343.857467,-370.102971,-10658.965565,766.095498
59343.857776,-3627.009116,-9400.615463,-2221.676944
59343.858086,-5329.482782,-11917.315666,0.000000
59343.858396,-4219.173869,-11251.130318,-1302.362347
59343.858705,-74.020594,-10658.965565,1762.019645
59343.859015,3404.947333,-5921.647536,3524.039291
59343.859324,4145.153275,-4145.153275,3600.648841
59343.859634,2738.761985,-6365.771101,3447.429741
59343.859944,296.082377,-7476.080014,306.438199
59343.860253,-2368.659014,-8364.327145,0.000000
59343.860563,-1776.494261,-10881.027347,306.438199
59343.860873,-2442.679609,-9474.636058,-1915.238745
59343.861182,-3478.967927,-12213.398043,-76.609550
59343.861492,-3034.844362,-11843.295072,-1302.362347
59343.861802,-1850.514855,-13027.624579,842.705048
59343.862111,592.164754,-9252.574275,1685.410096
59343.862421,4367.215058,-6291.750507,3677.258390
59343.862730,5181.441594,-5255.462188,4596.572988
59343.863040,1776.494261,-6069.688724,2987.772442
59343.863350,1110.308913,-9178.553681,2374.896044
59343.863659,-2368.659014,-8734.430116,0.000000
59343.863969,-1776.494261,-9548.656652,1225.752797
59343.864279,-1850.514855,-8290.306550,-2528.115143
59343.864588,-3923.091493,-11843.295072,-76.609550
59343.864898,-5625.565159,-12509.480420,-1149.143247
59343.865207,-4219.173869,-12361.439231,-689.485948
59343.865517,-666.185348,-9104.533087,1072.533697
59343.865827,3478.967927,-5995.668130,3370.820191
59343.866136,4959.379811,-4589.276840,4213.525239
59343.866446,4367.215058,-7550.100608,3600.648841
59343.866756,222.061783,-7846.182985,383.047749
59343.867065,-1480.411884,-10140.821405,612.876398
59343.867375,-74.020594,-10658.965565,-689.485948
59343.867685,-74.020594,-10658.965565,1149.143247
59343.867994,-2960.823768,-10140.821405,0.000000
59343.868304,-3330.926739,-11843.295072,-689.485948
59343.868613,-2294.638420,-11547.212695,0.000000
59343.868923,1036.288319,-8660.409521,1991.848295
59343.869233,4663.297435,-7105.977043,3294.210641
59343.869542,4663.297435,-7105.977043,4519.963438
59343.869852,1702.473667,-7105.977043,1455.581446
59343.870162,-1776.494261,-9548.656652,0.000000
59343.870471,-74.020594,-13027.624579,1762.019645
59343.870781,-1184.329507,-10140.821405,919.314598
59343.871090,-3552.988522,-8364.327145,-1838.629195
59343.871400,-3108.864956,-10436.903782,-1072.533697
59343.871710,-3701.029710,-12065.356855,-459.657299
