#time,accel_x,accel_y,accel_z
163463.231078,148.041188,-9252.574275,459.657299
163463.231398,814.226536,-9474.636058,766.095498
163463.231717,-1776.494261,-8068.244768,-1225.752797
163463.232037,-1036.288319,-8956.491898,-2451.505594
163463.232357,592.164754,-10436.903782,995.924147
163463.232676,-2368.659014,-7328.038826,-3064.381992
163463.232996,-74.020594,-9474.636058,-76.609550
163463.233316,-962.267725,-9326.594869,-459.657299
163463.233636,-740.205942,-9178.553681,-612.876398
163463.233955,-666.185348,-8808.450710,-383.047749
163463.234275,222.061783,-11251.130318,-76.609550
163463.234595,-74.020594,-9918.759623,-383.047749
163463.234914,-1184.329507,-8364.327145,-3677.258390
163463.235234,1332.370696,-10955.047942,-76.609550
163463.235554,222.061783,-9178.553681,-1302.362347
163463.235874,-1924.535449,-7476.080014,-3677.258390
163463.236193,222.061783,-9474.636058,306.438199
163463.236513,0.000000,-8882.471304,-153.219100
163463.236833,222.061783,-9474.636058,-229.828649
163463.237152,518.144159,-9474.636058,-76.609550
163463.237472,1110.308913,-10658.965565,-76.609550
163463.237792,592.164754,-10732.986159,2681.334243
163463.238112,-74.020594,-9474.636058,-76.609550
163463.238431,-592.164754,-8660.409521,0.000000
163463.238751,0.000000,-8364.327145,612.876398
163463.239071,-2146.597232,-7179.997637,-1225.752797
163463.239390,-296.082377,-9178.553681,-153.219100
163463.239710,-444.123565,-9622.677246,-153.219100
163463.240030,-518.144159,-9548.656652,-229.828649
163463.240349,-74.020594,-10658.965565,-76.609550
163463.240669,-666.185348,-8882.471304,-995.924147
163463.240989,0.000000,-10362.883188,612.876398
163463.241309,-222.061783,-9474.636058,-76.609550
163463.241628,-74.020594,-9474.636058,-1302.362347
163463.241948,-2368.659014,-8364.327145,0.000000
163463.242268,-814.226536,-9030.512492,-1455.581446
163463.242587,-370.102971,-9326.594869,-612.876398
163463.242907,0.000000,-9252.574275,-536.266849
163463.243227,0.000000,-9622.677246,-459.657299
163463.243547,1110.308913,-10066.800811,-689.485948
163463.243866,-370.102971,-8956.491898,-766.095498
163463.244186,0.000000,-8956.491898,0.000000
163463.244506,888.247130,-10807.006753,1225.752797
163463.244825,370.102971,-9474.636058,-689.485948
163463.245145,0.000000,-8364.327145,612.876398
163463.245465,0.000000,-9178.553681,0.000000
163463.245785,296.082377,-8882.471304,153.219100
163463.246104,370.102971,-8882.471304,0.000000
163463.246424,-814.226536,-7698.141797,-1608.800546
163463.246744,-666.185348,-8290.306550,-995.924147
163463.247063,-370.102971,-11843.295072,-76.609550
163463.247383,-2368.659014,-8438.347739,-1685.410096
163463.247703,-2072.576638,-8956.491898,0.000000
163463.248023,-74.020594,-11251.130318,-76.609550
163463.248342,-74.020594,-10658.965565,-76.609550
163463.248662,-888.247130,-8956.491898,-995.924147
163463.248982,-666.185348,-9252.574275,-612.876398
163463.249301,-962.267725,-9474.636058,-766.095498
163463.249621,-1776.494261,-9548.656652,306.438199
163463.249941,-2072.576638,-9548.656652,0.000000
163463.250261,0.000000,-9548.656652,0.000000
163463.250580,962.267725,-11251.130318,-76.609550
163463.250900,-74.020594,-9918.759623,-76.609550
163463.251220,-74.020594,-9178.553681,-1915.238745
163463.251539,1110.308913,-9474.636058,-76.609550
163463.251859,0.000000,-9030.512492,-383.047749
163463.252179,296.082377,-9178.553681,-612.876398
163463.252499,222.061783,-9548.656652,0.000000
163463.252818,0.000000,-7772.162391,0.000000
163463.253138,-74.020594,-8882.471304,-76.609550
163463.253458,0.000000,-7920.203579,0.000000
163463.253777,592.164754,-8512.368333,0.000000
163463.254097,2886.803174,-10362.883188,2068.457845
163463.254417,1110.308913,-7550.100608,-2528.115143
163463.254737,1036.288319,-8882.471304,-153.219100
163463.255056,370.102971,-9104.533087,-306.438199
163463.255376,888.247130,-9474.636058,-919.314598
163463.255696,1110.308913,-11103.089130,-76.609550
163463.256015,1406.391290,-10658.965565,-76.609550
163463.256335,2886.803174,-10362.883188,-383.047749
163463.256655,2294.638420,-9178.553681,-1302.362347
163463.256975,1776.494261,-7772.162391,306.438199
163463.257294,3330.926739,-9548.656652,0.000000
163463.257614,4663.297435,-9474.636058,-689.485948
163463.257934,4293.194464,-9548.656652,-383.047749
163463.258253,4811.338623,-8956.491898,153.219100
163463.258573,5699.585753,-9844.739029,-306.438199
163463.258893,6513.812290,-11547.212695,1455.581446
163463.259213,4293.194464,-9844.739029,-1225.752797
163463.259532,5329.482782,-11029.068536,383.047749
163463.259852,6439.791695,-10658.965565,-1302.362347
163463.260172,6439.791695,-9548.656652,-995.924147
163463.260491,5329.482782,-7179.997637,0.000000
163463.260811,9104.533087,-8882.471304,689.485948
163463.261131,8364.327145,-9030.512492,919.314598
163463.261451,7105.977043,-10214.842000,919.314598
163463.261770,4737.318029,-11103.089130,459.657299
163463.262090,4145.153275,-12879.583391,1225.752797
163463.262410,0.000000,-10140.821405,0.000000
163463.262729,2960.823768,-11621.233289,1608.800546
163463.263049,3775.050304,-8734.430116,2298.286494
163463.263369,4663.297435,-7550.100608,229.828649
163463.263689,4663.297435,-5921.647536,-383.047749
163463.264008,3552.988522,-4959.379811,-1915.238745
163463.264328,3108.864956,-5921.647536,-2451.505594
163463.264648,3552.988522,-7772.162391,-3294.210641
163463.264967,3997.112087,-11917.315666,-306.438199
163463.265287,3256.906145,-15026.180623,-612.876398
163463.265607,2886.803174,-17172.777854,1149.143247
163463.265927,1702.473667,-15988.448347,1762.019645
163463.266246,2590.720797,-11843.295072,1149.143247
163463.266566,4663.297435,-10658.965565,2987.772442
163463.266886,2368.659014,-5995.668130,229.828649
163463.267205,2220.617826,-4959.379811,-1302.362347
163463.267525,2590.720797,-6439.791695,-153.219100
163463.267845,3478.967927,-7476.080014,0.000000
163463.268165,0.000000,-5995.668130,0.000000
163463.268484,-1258.350101,-9326.594869,-76.609550
163463.268804,-1628.453072,-9770.718434,-153.219100
163463.269124,296.082377,-9400.615463,306.438199
163463.269443,1924.535449,-8882.471304,842.705048
163463.269763,2886.803174,-10658.965565,76.609550
163463.270083,1184.329507,-11917.315666,2451.505594
163463.270403,2590.720797,-11547.212695,2374.896044
163463.270722,2294.638420,-9474.636058,-76.609550
163463.271042,-1184.329507,-5995.668130,-3370.820191
163463.271362,-4145.153275,-6587.832884,-6741.640382
163463.271681,-1406.391290,-10955.047942,-3140.991542
163463.272001,1110.308913,-12139.377449,306.438199
163463.272321,1850.514855,-11547.212695,2298.286494
163463.272641,1998.556043,-10140.821405,2374.896044
163463.272960,-74.020594,-7402.059420,-76.609550
163463.273280,2294.638420,-8882.471304,536.266849
163463.273600,5255.462188,-11843.295072,2987.772442
163463.273919,5403.503377,-7179.997637,2757.943793
163463.274239,4737.318029,-7179.997637,3983.696590
163463.274559,814.226536,-5995.668130,-3370.820191
163463.274879,-2664.741391,-9474.636058,-7277.907231
163463.275198,-3330.926739,-12805.562797,-7124.688131
163463.275518,-1184.329507,-14508.036463,-4596.572988
163463.275838,518.144159,-12879.583391,-3140.991542
163463.276157,2072.576638,-11547.212695,-76.609550
163463.276477,5847.626942,-9770.718434,1072.533697
163463.276797,9474.636058,-7179.997637,5515.887586
163463.277117,14434.015869,-5921.647536,10035.851024
163463.277436,11843.295072,-1258.350101,9806.022374
163463.277756,7179.997637,-2368.659014,2834.553343
163463.278076,4367.215058,-6439.791695,-842.705048
163463.278395,1406.391290,-11695.253884,-1532.190996
163463.278715,-1036.288319,-11917.315666,-3064.381992
163463.279035,-2442.679609,-13619.789333,-5745.716235
163463.279354,-1258.350101,-15100.201217,-6205.373534
163463.279674,-1258.350101,-12287.418637,-6818.249932
163463.279994,666.185348,-10658.965565,-2528.115143
163463.280314,6143.709319,-11103.089130,2068.457845
163463.280633,4737.318029,-7476.080014,1838.629195
163463.280953,7476.080014,-6439.791695,2298.286494
163463.281273,7105.977043,-6069.688724,3447.429741
163463.281592,5995.668130,-6809.894666,3677.258390
163463.281912,5847.626942,-8586.388927,3294.210641
163463.282232,5921.647536,-7772.162391,3370.820191
163463.282552,6439.791695,-9326.594869,-76.609550
163463.282871,2886.803174,-11843.295072,-1608.800546
163463.283191,-1258.350101,-12139.377449,-5592.497135
163463.283511,-74.020594,-15396.283594,-2834.553343
163463.283830,-1406.391290,-12657.521608,-4749.792088
163463.284150,-962.267725,-12509.480420,-3064.381992
163463.284470,814.226536,-10288.862594,-1225.752797
163463.284790,2960.823768,-7476.080014,306.438199
163463.285109,4737.318029,-5551.544565,2451.505594
163463.285429,5921.647536,-5403.503377,3524.039291
163463.285749,5921.647536,-5995.668130,4903.011187
163463.286068,5847.626942,-7698.141797,3524.039291
163463.286388,1554.432478,-7698.141797,995.924147
163463.286708,-74.020594,-9474.636058,-2528.115143
163463.287028,-2146.597232,-10955.047942,-2987.772442
163463.287347,-2886.803174,-11251.130318,-3677.258390
163463.287667,-2516.700203,-11917.315666,-2528.115143
163463.287987,592.164754,-11917.315666,0.000000
163463.288306,2368.659014,-9844.739029,306.438199
163463.288626,2294.638420,-5625.565159,76.609550
163463.288946,2368.659014,-7179.997637,1532.190996
163463.289266,2886.803174,-7698.141797,2374.896044
163463.289585,518.144159,-6513.812290,-2221.676944
163463.289905,-74.020594,-10658.965565,-76.609550
163463.290225,-2664.741391,-11325.150913,-1685.410096
163463.290544,-3330.926739,-9844.739029,-3294.210641
163463.290864,-3478.967927,-9696.697840,-4673.182538
163463.291184,-4737.318029,-9548.656652,-3370.820191
163463.291504,-74.020594,-11843.295072,-689.485948
163463.291823,444.123565,-9548.656652,995.924147
163463.292143,3404.947333,-8956.491898,1225.752797
163463.292463,5699.585753,-9474.636058,6052.154434
163463.292782,1702.473667,-5699.585753,2221.676944
163463.293102,2368.659014,-8068.244768,4213.525239
163463.293422,-518.144159,-8808.450710,1072.533697
163463.293742,-3701.029710,-9104.533087,-842.705048
163463.294061,-6291.750507,-11251.130318,-2528.115143
163463.294381,-8290.306550,-10436.903782,-4826.401637
163463.294701,-8364.327145,-11547.212695,-6818.249932
163463.295020,-7179.997637,-13027.624579,-4979.620737
163463.295340,-4811.338623,-10955.047942,-2604.724693
163463.295660,-2368.659014,-7772.162391,0.000000
163463.295980,1998.556043,-7994.224174,2068.457845
163463.296299,2442.679609,-7698.141797,5515.887586
163463.296619,3775.050304,-6957.935855,5669.106685
163463.296939,4367.215058,-7105.977043,5056.230287
163463.297258,2738.761985,-9474.636058,4213.525239
163463.297578,-2146.597232,-9770.718434,76.609550
163463.297898,-4737.318029,-11325.150913,-2451.505594
163463.298218,-5551.544565,-11843.295072,-5592.497135
163463.298537,-7179.997637,-11325.150913,-8656.879127
163463.298857,-8290.306550,-9548.656652,-7354.516781
163463.299177,-962.267725,-11103.089130,-2451.505594
163463.299496,2886.803174,-8438.347739,1455.581446
163463.299816,5403.503377,-6957.935855,4596.572988
163463.300135,6217.729913,-6735.874072,6741.640382
163463.300455,8808.450710,-7994.224174,8810.098227
163463.300774,2368.659014,-4811.338623,3064.381992
163463.301094,1776.494261,-10140.821405,3677.258390
163463.301413,-1258.350101,-10510.924376,-76.609550
163463.301733,-3849.070898,-9992.780217,-3677.258390
163463.302052,-5995.668130,-9178.553681,-7737.564530
163463.302371,-6291.750507,-13027.624579,-7431.126331
163463.302691,-5107.421000,-10955.047942,-7660.954980
163463.303010,-888.247130,-11103.089130,-2298.286494
163463.303330,4663.297435,-11251.130318,-76.609550
163463.303649,5107.421000,-7772.162391,2681.334243
163463.303969,5551.544565,-7402.059420,4826.401637
163463.304288,7105.977043,-5403.503377,3830.477490
163463.304607,4737.318029,-7179.997637,4903.011187
163463.304927,4663.297435,-9474.636058,2374.896044
163463.305246,1036.288319,-11251.130318,842.705048
163463.305566,-2294.638420,-9474.636058,-3447.429741
163463.305885,-5403.503377,-10140.821405,-7354.516781
163463.306205,-6513.812290,-11917.315666,-8197.221829
163463.306524,-5921.647536,-10732.986159,-6741.640382
163463.306844,-370.102971,-11843.295072,-3140.991542
163463.307163,3182.885551,-8734.430116,919.314598
163463.307482,5699.585753,-7402.059420,3677.258390
163463.307802,7105.977043,-5995.668130,5209.449386
163463.308121,8216.285956,-5329.482782,6052.154434
163463.308441,7031.956449,-7105.977043,5745.716235
163463.308760,888.247130,-7920.203579,2757.943793
163463.309080,-1184.329507,-9548.656652,1225.752797
163463.309399,-3627.009116,-11547.212695,-1915.238745
163463.309719,-9178.553681,-9548.656652,-7354.516781
163463.310038,-8586.388927,-12879.583391,-7814.174080
163463.310357,-7031.956449,-11991.336260,-6205.373534
163463.310677,-2960.823768,-10362.883188,-3524.039291
163463.310996,666.185348,-8290.306550,-1072.533697
163463.311316,3404.947333,-7698.141797,2528.115143
163463.311635,5255.462188,-7105.977043,5439.278036
163463.311955,5255.462188,-5921.647536,4826.401637
163463.312274,1998.556043,-6735.874072,2681.334243
163463.312594,1702.473667,-11251.130318,4826.401637
163463.312913,-3552.988522,-9844.739029,0.000000
163463.313232,-6735.874072,-10807.006753,-4673.182538
163463.313552,-9696.697840,-11917.315666,-8350.440928
163463.313871,-8882.471304,-13101.645173,-7124.688131
163463.314191,-6809.894666,-10732.986159,-6741.640382
163463.314510,0.000000,-10214.842000,-1225.752797
163463.314830,2368.659014,-7179.997637,1225.752797
163463.315149,6365.771101,-7994.224174,6741.640382
163463.315468,9030.512492,-5773.606348,7584.345430
163463.315788,7846.182985,-9474.636058,8503.660028
163463.316107,2664.741391,-7772.162391,3064.381992
163463.316427,-1110.308913,-9400.615463,1532.190996
163463.316746,-4367.215058,-11769.274478,-612.876398
163463.317066,-10658.965565,-11325.150913,-6128.763984
163463.317385,-13619.789333,-10732.986159,-8580.269578
163463.317705,-11251.130318,-10732.986159,-7354.516781
163463.318024,-2812.782580,-10807.006753,-3140.991542
163463.318343,1110.308913,-7105.977043,-612.876398
163463.318663,4663.297435,-5921.647536,2068.457845
163463.318982,9104.533087,-7550.100608,7277.907231
163463.319302,7994.224174,-4293.194464,5745.716235
163463.319621,5033.400406,-6587.832884,4290.134789
163463.319941,888.247130,-10807.006753,2681.334243
163463.320260,0.000000,-9548.656652,0.000000
163463.320580,-1554.432478,-13027.624579,-2528.115143
163463.320899,-8586.388927,-11029.068536,-7354.516781
163463.321218,-8290.306550,-12805.562797,-9806.022374
163463.321538,-5625.565159,-12509.480420,-4903.011187
163463.321857,-74.020594,-10658.965565,-4366.744339
163463.322177,1998.556043,-8734.430116,689.485948
163463.322496,5477.523971,-4811.338623,3217.601092
163463.322816,9992.780217,-5033.400406,6818.249932
163463.323135,10881.027347,-4219.173869,8503.660028
163463.323455,7624.121203,-6513.812290,6665.030833
163463.323774,4663.297435,-10362.883188,5439.278036
163463.324093,1406.391290,-11251.130318,2374.896044
163463.324413,-4589.276840,-11325.150913,-4290.134789
163463.324732,-9474.636058,-13101.645173,-7354.516781
163463.325052,-9844.739029,-13027.624579,-9269.755526
163463.325371,-8142.265362,-13323.706956,-7354.516781
163463.325691,-2294.638420,-10436.903782,-4903.011187
163463.326010,814.226536,-8290.306550,-689.485948
163463.326329,4737.318029,-7698.141797,5745.716235
163463.326649,7846.182985,-4885.359217,7277.907231
163463.326968,10955.047942,-5403.503377,8733.488677
163463.327288,7031.956449,-7698.141797,5439.278036
163463.327607,1406.391290,-8956.491898,4519.963438
163463.327927,-2368.659014,-7772.162391,0.000000
163463.328246,-3627.009116,-13471.748144,-4979.620737
163463.328566,-10955.047942,-13101.645173,-8656.879127
163463.328885,-11917.315666,-14582.057057,-9116.536426
163463.329204,-6661.853478,-13397.727550,-7354.516781
163463.329524,-148.041188,-10732.986159,-2451.505594
163463.329843,0.000000,-6587.832884,0.000000
163463.330163,4737.318029,-5995.668130,4443.353888
163463.330482,8216.285956,-6439.791695,7967.393179
163463.330802,14137.933492,-5329.482782,9729.412825
163463.331121,4737.318029,-4219.173869,4903.011187
163463.331441,1702.473667,-7994.224174,5669.106685
163463.331760,-1184.329507,-8142.265362,1685.410096
163463.332079,-5329.482782,-11251.130318,-4136.915689
163463.332399,-12213.398043,-12435.459826,-7431.126331
163463.332718,-14063.912898,-14804.118840,-8044.002729
163463.333038,-11547.212695,-11917.315666,-9806.022374
163463.333357,-5181.441594,-8364.327145,-7354.516781
163463.333677,-592.164754,-9474.636058,1072.533697
163463.333996,5181.441594,-4737.318029,4290.134789
163463.334316,7105.977043,-3775.050304,5209.449386
163463.334635,11473.192101,-2738.761985,8503.660028
163463.334954,6217.729913,-8068.244768,6435.202183
163463.335274,2072.576638,-9992.780217,4749.792088
163463.335593,-74.020594,-9474.636058,-76.609550
163463.335913,-4219.173869,-12879.583391,-4673.182538
163463.336232,-10732.986159,-15396.283594,-7431.126331
163463.336552,-11769.274478,-13545.768739,-9806.022374
163463.336871,-5921.647536,-13101.645173,-6741.640382
163463.337190,-1776.494261,-10436.903782,-4290.134789
163463.337510,0.000000,-7772.162391,-1225.752797
163463.337829,2738.761985,-7550.100608,2604.724693
163463.338149,7772.162391,-5329.482782,6128.763984
163463.338468,11991.336260,-3627.009116,8503.660028
163463.338788,9400.615463,-7105.977043,9422.974625
163463.339107,3552.988522,-10140.821405,7967.393179
163463.339427,1110.308913,-9326.594869,1608.800546
163463.339746,-5329.482782,-10140.821405,-4290.134789
163463.340065,-12065.356855,-10732.986159,-9193.145976
163463.340385,-12361.439231,-13397.727550,-9806.022374
163463.340704,-6291.750507,-12953.603985,-6665.030833
163463.341024,-1998.556043,-10214.842000,-3907.087040
163463.341343,-444.123565,-8586.388927,-306.438199
163463.341663,5847.626942,-7105.977043,2987.772442
163463.341982,9548.656652,-5625.565159,7277.907231
163463.342302,8586.388927,-1850.514855,6435.202183
163463.342621,7105.977043,-6143.709319,4903.011187
163463.342940,6291.750507,-9474.636058,6665.030833
163463.343260,1110.308913,-7698.141797,-1149.143247
163463.343579,-3923.091493,-13027.624579,-5286.058936
163463.343899,-11991.336260,-14211.954086,-9729.412825
163463.344218,-11399.171507,-15248.242405,-10495.508323
163463.344538,-7328.038826,-13767.830521,-8503.660028
163463.344857,-2960.823768,-12213.398043,-2451.505594
163463.345177,1702.473667,-7698.141797,689.485948
163463.345496,7476.080014,-6217.729913,5822.325785
163463.345815,12361.439231,-3330.926739,9193.145976
163463.346135,13323.706956,-2294.638420,8580.269578
163463.346454,7328.038826,-4515.256246,7277.907231
163463.346774,4071.132681,-7698.141797,4213.525239
163463.347093,-1776.494261,-8660.409521,0.000000
163463.347413,-7254.018232,-13323.706956,-8580.269578
163463.347732,-12731.542202,-16580.613101,-9882.631924
163463.348051,-12731.542202,-14878.139434,-9806.022374
163463.348371,-8216.285956,-13323.706956,-7967.393179
163463.348690,-2812.782580,-9844.739029,-4366.744339
163463.349010,-370.102971,-8438.347739,-306.438199
163463.349329,3775.050304,-4737.318029,4596.572988
163463.349649,10807.006753,-3404.947333,7584.345430
163463.349968,11769.274478,-4145.153275,9729.412825
163463.350288,6217.729913,-6513.812290,9116.536426
163463.350607,1998.556043,-7031.956449,2681.334243
163463.350926,-74.020594,-11843.295072,-76.609550
163463.351246,-8882.471304,-13101.645173,-7354.516781
163463.351565,-14063.912898,-15988.448347,-11184.994271
163463.351885,-13397.727550,-15692.365970,-11644.651570
163463.352204,-7476.080014,-14656.077652,-7814.174080
163463.352524,-4145.153275,-9548.656652,-4903.011187
163463.352843,888.247130,-7254.018232,1072.533697
163463.353163,7105.977043,-5995.668130,7354.516781
163463.353482,14137.933492,-2368.659014,10342.289223
163463.353801,13915.871710,-2220.617826,10955.165621
163463.354121,8216.285956,-7105.977043,12180.918418
163463.354440,1850.514855,-8364.327145,4290.134789
163463.354760,-2072.576638,-10510.924376,-689.485948
163463.355079,-10732.986159,-14878.139434,-7737.564530
163463.355399,-14211.954086,-15470.304188,-9806.022374
163463.355718,-14211.954086,-14878.139434,-11031.775171
163463.356038,-9474.636058,-11917.315666,-7354.516781
163463.356357,-3552.988522,-9844.739029,-3677.258390
163463.356676,1998.556043,-8290.306550,2757.943793
163463.356996,8216.285956,-2664.741391,5132.839837
163463.357315,15914.427753,-4145.153275,12180.918418
163463.357635,10658.965565,-2442.679609,9729.412825
163463.357954,5255.462188,-6809.894666,7124.688131
163463.358274,1480.411884,-9030.512492,2604.724693
163463.358593,-4737.318029,-10732.986159,-4290.134789
163463.358912,-10288.862594,-14285.974681,-9039.926876
163463.359232,-13915.871710,-16654.633695,-9806.022374
163463.359551,-10214.842000,-15248.242405,-9499.584175
163463.359871,-3330.926739,-13027.624579,-6205.373534
163463.360190,-74.020594,-8734.430116,-4366.744339
163463.360510,4071.132681,-6883.915261,1685.410096
163463.360829,9400.615463,-5107.421000,6128.763984
163463.361149,14285.974681,-3034.844362,9882.631924
163463.361468,11473.192101,-3923.091493,10112.460574
163463.361787,7624.121203,-7550.100608,9729.412825
163463.362107,2886.803174,-9326.594869,2068.457845
163463.362426,-3478.967927,-11251.130318,-3140.991542
163463.362746,-11251.130318,-14285.974681,-9193.145976
163463.363065,-11991.336260,-16802.674883,-9806.022374
163463.363385,-9548.656652,-14804.118840,-9882.631924
163463.363704,-5181.441594,-12731.542202,-5439.278036
163463.364024,-962.267725,-7920.203579,-2451.505594
163463.364343,3108.864956,-6365.771101,1991.848295
163463.364662,9400.615463,-5921.647536,8503.660028
163463.364982,14434.015869,-4737.318029,10342.289223
163463.365301,10658.965565,-5995.668130,11568.042020
163463.365621,5847.626942,-7105.977043,6665.030833
163463.365940,-1628.453072,-8660.409521,1149.143247
163463.366260,-8290.306550,-10732.986159,-6128.763984
163463.366579,-11325.150913,-14730.098246,-10112.460574
163463.366899,-13915.871710,-17987.004391,-9729.412825
163463.367218,-10140.821405,-14656.077652,-9346.365076
163463.367537,-4811.338623,-11621.233289,-6358.592633
163463.367857,-74.020594,-10140.821405,-1072.533697
163463.368176,2368.659014,-3923.091493,612.876398
163463.368496,9622.677246,-2738.761985,7048.078582
163463.368815,14063.912898,-3849.070898,11797.870669
163463.369135,11769.274478,-4737.318029,12180.918418
163463.369454,2368.659014,-4811.338623,5515.887586
163463.369773,1554.432478,-8290.306550,2374.896044
163463.370093,-5699.585753,-10658.965565,-3907.087040
163463.370412,-10732.986159,-14804.118840,-8350.440928
163463.370732,-12953.603985,-16728.654289,-9269.755526
163463.371051,-10584.944971,-13767.830521,-7431.126331
163463.371371,-7105.977043,-10732.986159,-6128.763984
163463.371690,-1036.288319,-7772.162391,-4290.134789
163463.372010,3552.988522,-6587.832884,3064.381992
163463.372329,10584.944971,-3997.112087,7890.783629
163463.372648,9474.636058,-1554.432478,8580.269578
163463.372968,7476.080014,-3256.906145,9193.145976
163463.373287,2516.700203,-7550.100608,4673.182538
163463.373607,-1776.494261,-9696.697840,229.828649
163463.373926,-5995.668130,-11843.295072,-5592.497135
163463.374246,-10732.986159,-16284.530724,-8810.098227
163463.374565,-12805.562797,-17468.860231,-9882.631924
163463.374885,-11325.150913,-12731.542202,-9269.755526
163463.375204,-5921.647536,-11621.233289,-4903.011187
163463.375523,1184.329507,-8660.409521,1225.752797
163463.375843,5625.565159,-4811.338623,2757.943793
163463.376162,12213.398043,-4145.153275,8350.440928
163463.376482,14063.912898,-3182.885551,10801.946522
163463.376801,9696.697840,-5107.421000,9269.755526
163463.377121,5847.626942,-6809.894666,4826.401637
163463.377440,-74.020594,-12435.459826,2374.896044
163463.377760,-5995.668130,-13323.706956,-5056.230287
163463.378079,-11547.212695,-15470.304188,-8656.879127
163463.378398,-12361.439231,-14952.160028,-8427.050478
163463.378718,-11103.089130,-10732.986159,-9193.145976
163463.379037,-4071.132681,-9326.594869,-4749.792088
163463.379357,74.020594,-6439.791695,-1378.971896
163463.379676,5847.626942,-4441.235652,2834.553343
163463.379996,11177.109724,-4737.318029,6052.154434
163463.380315,10584.944971,-3034.844362,9806.022374
163463.380634,5921.647536,-3627.009116,6128.763984
163463.380954,2516.700203,-7179.997637,1225.752797
163463.381273,-2072.576638,-11029.068536,-689.485948
163463.381593,-7550.100608,-11917.315666,-8580.269578
163463.381912,-9548.656652,-17764.942608,-8656.879127
163463.382232,-10066.800811,-16876.695478,-9499.584175
163463.382551,-7772.162391,-14211.954086,-7507.735880
163463.382871,-3849.070898,-9992.780217,-4749.792088
163463.383190,2368.659014,-8068.244768,-612.876398
163463.383509,5625.565159,-5995.668130,3600.648841
163463.383829,11399.171507,-3034.844362,8044.002729
163463.384148,13027.624579,-3627.009116,10955.165621
163463.384468,9400.615463,-3923.091493,7967.393179
163463.384787,3182.885551,-4811.338623,2451.505594
163463.385107,-1850.514855,-8734.430116,-1302.362347
163463.385426,-8290.306550,-13101.645173,-5822.325785
163463.385746,-10732.986159,-16580.613101,-7431.126331
163463.386065,-12213.398043,-18357.107362,-8656.879127
163463.386384,-9178.553681,-14211.954086,-6281.983084
163463.386704,-5477.523971,-10288.862594,-4213.525239
163463.387023,148.041188,-6661.853478,-1378.971896
163463.387343,5477.523971,-6439.791695,3753.867940
163463.387662,7254.018232,-3034.844362,9193.145976
163463.387982,11399.171507,-2442.679609,10878.556072
163463.388301,8808.450710,-4145.153275,8197.221829
163463.388621,1702.473667,-9474.636058,4826.401637
163463.388940,-4515.256246,-9104.533087,-2987.772442
163463.389259,-7179.997637,-15396.283594,-6205.373534
163463.389579,-11843.295072,-17394.839637,-8810.098227
163463.389898,-11769.274478,-18431.127956,-9422.974625
163463.390218,-9548.656652,-13989.892304,-7584.345430
163463.390537,-5033.400406,-10140.821405,-4060.306139
163463.390857,0.000000,-6587.832884,306.438199
163463.391176,5921.647536,-3404.947333,3217.601092
163463.391496,12657.521608,-5625.565159,10955.165621
163463.391815,12361.439231,-2368.659014,10955.165621
163463.392134,8882.471304,-2294.638420,8273.831378
163463.392454,5847.626942,-8882.471304,4826.401637
163463.392773,-3256.906145,-10140.821405,-1685.410096
163463.393093,-6513.812290,-15618.345376,-5898.935335
163463.393412,-9622.677246,-17468.860231,-7660.954980
163463.393732,-9770.718434,-16654.633695,-6128.763984
163463.394051,-8882.471304,-14285.974681,-4903.011187
163463.394370,-7105.977043,-8364.327145,-4596.572988
163463.394690,1406.391290,-6587.832884,-76.609550
163463.395009,6883.915261,-2664.741391,4826.401637
163463.395329,8808.450710,-814.226536,6128.763984
163463.395648,12953.603985,-2368.659014,10955.165621
163463.395968,8290.306550,-3849.070898,7660.954980
163463.396287,814.226536,-8586.388927,2068.457845
163463.396607,-5329.482782,-10807.006753,-4136.915689
163463.396926,-8290.306550,-14582.057057,-7354.516781
163463.397245,-11843.295072,-16062.468941,-9806.022374
163463.397565,-8882.471304,-16654.633695,-7201.297681
163463.397884,-5329.482782,-14137.933492,-4826.401637
163463.398204,-666.185348,-10658.965565,-3753.867940
163463.398523,1554.432478,-3627.009116,-3600.648841
163463.398843,7031.956449,-5921.647536,4519.963438
163463.399162,10362.883188,-4145.153275,7967.393179
163463.399482,12879.583391,-3849.070898,10189.070123
163463.399801,9474.636058,-3552.988522,8273.831378
163463.400121,1258.350101,-9326.594869,3907.087040
163463.400440,-3627.009116,-10658.965565,-3064.381992
163463.400760,-7105.977043,-13323.706956,-7737.564530
163463.401079,-9474.636058,-14878.139434,-7354.516781
163463.401399,-8068.244768,-15618.345376,-6128.763984
163463.401718,-8808.450710,-10732.986159,-7354.516781
163463.402038,-3849.070898,-9992.780217,-3140.991542
163463.402358,1184.329507,-7105.977043,-459.657299
163463.402677,4589.276840,-5551.544565,4213.525239
163463.402997,11177.109724,-4737.318029,9422.974625
163463.403316,12953.603985,-4737.318029,9729.412825
163463.403636,6957.935855,-4737.318029,7277.907231
163463.403955,-1332.370696,-6883.915261,0.000000
163463.404275,-5625.565159,-10584.944971,-4290.134789
163463.404594,-8290.306550,-14285.974681,-5822.325785
163463.404914,-9696.697840,-16062.468941,-9269.755526
163463.405233,-9326.594869,-16950.716072,-7584.345430
163463.405553,-8586.388927,-14285.974681,-6818.249932
163463.405872,-5995.668130,-10066.800811,-4673.182538
163463.406192,2294.638420,-9474.636058,-76.609550
163463.406511,5921.647536,-4811.338623,6128.763984
163463.406831,12361.439231,-3849.070898,10342.289223
163463.407150,12879.583391,-2220.617826,11874.480219
163463.407470,9400.615463,-3849.070898,6665.030833
163463.407789,-2368.659014,-7179.997637,1225.752797
163463.408109,-4959.379811,-11621.233289,-4366.744339
163463.408429,-8142.265362,-15840.407159,-7354.516781
163463.408748,-10658.965565,-18135.045579,-7890.783629
163463.409068,-10658.965565,-16654.633695,-8580.269578
163463.409387,-8512.368333,-14285.974681,-6971.469032
163463.409707,-3997.112087,-9548.656652,-1072.533697
163463.410026,3627.009116,-5921.647536,2757.943793
163463.410346,9400.615463,-4145.153275,6971.469032
163463.410665,11769.274478,-3552.988522,10955.165621
163463.410985,9474.636058,-370.102971,10112.460574
163463.411304,5551.544565,-3701.029710,5286.058936
163463.411624,-2738.761985,-8882.471304,-1072.533697
163463.411943,-7624.121203,-12953.603985,-5898.935335
163463.412263,-9844.739029,-15544.324782,-10648.727422
163463.412582,-10732.986159,-18209.066173,-9269.755526
163463.412902,-11399.171507,-14285.974681,-9806.022374
163463.413221,-8290.306550,-13693.809927,-5515.887586
163463.413541,-1998.556043,-9474.636058,-1915.238745
163463.413860,5847.626942,-7994.224174,4826.401637
163463.414180,9474.636058,-2442.679609,7660.954980
163463.414500,14434.015869,-1628.453072,11261.603821
163463.414819,14063.912898,-666.185348,10265.679673
163463.415139,6587.832884,-5107.421000,6052.154434
163463.415458,-962.267725,-6883.915261,-2528.115143
163463.415778,-4811.338623,-15396.283594,-3753.867940
163463.416097,-8068.244768,-17838.963202,-8886.707777
163463.416417,-10732.986159,-18505.148550,-9039.926876
163463.416736,-11843.295072,-15470.304188,-7584.345430
163463.417056,-7105.977043,-11917.315666,-4903.011187
163463.417375,-592.164754,-7920.203579,-2068.457845
163463.417695,5033.400406,-3701.029710,2987.772442
163463.418014,10807.006753,-2442.679609,7507.735880
163463.418334,11769.274478,592.164754,9729.412825
163463.418653,9918.759623,-1258.350101,8733.488677
163463.418973,2664.741391,-6291.750507,3983.696590
163463.419292,-3034.844362,-10066.800811,-1378.971896
163463.419612,-4811.338623,-15988.448347,-4979.620737
163463.419931,-10658.965565,-15470.304188,-9806.022374
163463.420251,-9844.739029,-17542.880825,-9116.536426
163463.420571,-9474.636058,-16432.571912,-7431.126331
163463.420890,-5847.626942,-12509.480420,-5898.935335
163463.421210,-592.164754,-8364.327145,-2911.162892
163463.421529,6439.791695,-8290.306550,4826.401637
163463.421849,8882.471304,-3034.844362,6435.202183
163463.422168,11843.295072,-1702.473667,10035.851024
163463.422488,10807.006753,-1110.308913,9269.755526
163463.422807,3997.112087,-4959.379811,5209.449386
163463.423127,-2368.659014,-7179.997637,-1225.752797
163463.423446,-7105.977043,-11917.315666,-6128.763984
163463.423766,-6957.935855,-16950.716072,-4903.011187
163463.424085,-7772.162391,-17024.736666,-6281.983084
163463.424405,-10140.821405,-14804.118840,-6511.811733
163463.424724,-5403.503377,-14211.954086,-4979.620737
163463.425044,-2812.782580,-8438.347739,-2604.724693
163463.425363,2072.576638,-4219.173869,2604.724693
163463.425683,7624.121203,-2072.576638,5439.278036
163463.426002,7105.977043,-2738.761985,8963.317327
163463.426322,11325.150913,-1554.432478,8120.612279
163463.426642,2072.576638,-2590.720797,2451.505594
163463.426961,-4737.318029,-7476.080014,-5209.449386
163463.427281,-8882.471304,-14285.974681,-6128.763984
163463.427600,-7179.997637,-18949.272115,-8656.879127
163463.427920,-8364.327145,-19541.436869,-6971.469032
163463.428239,-10214.842000,-16654.633695,-6818.249932
163463.428559,-7476.080014,-12065.356855,-5362.668486
163463.428878,592.164754,-7772.162391,-1072.533697
163463.429198,6513.812290,-4219.173869,5745.716235
163463.429517,8882.471304,-2442.679609,7048.078582
163463.429837,10288.862594,-2368.659014,9729.412825
163463.430156,6217.729913,-74.020594,4903.011187
163463.430476,1628.453072,-6883.915261,2145.067394
163463.430795,-1554.432478,-10066.800811,-4979.620737
163463.431115,-5033.400406,-15322.262999,-3217.601092
163463.431434,-5995.668130,-16654.633695,-5286.058936
163463.431754,-6365.771101,-16358.551318,-6205.373534
163463.432073,-7179.997637,-16284.530724,-4366.744339
163463.432393,-4515.256246,-13175.665768,-842.705048
163463.432712,2294.638420,-9326.594869,2374.896044
163463.433032,6439.791695,-4737.318029,4060.306139
163463.433352,7920.203579,-2590.720797,7048.078582
163463.433671,7105.977043,-666.185348,6128.763984
163463.433991,7031.956449,-1480.411884,5439.278036
163463.434310,592.164754,-5699.585753,1149.143247
163463.434630,-2812.782580,-10288.862594,-3217.601092
163463.434949,-4515.256246,-15026.180623,-4443.353888
163463.435269,-3923.091493,-17246.798449,-3983.696590
163463.435588,-8290.306550,-15470.304188,-6741.640382
163463.435908,-7994.224174,-15618.345376,-4903.011187
163463.436227,-3182.885551,-11621.233289,-4596.572988
163463.436547,2294.638420,-9474.636058,-76.609550
163463.436866,2368.659014,-3627.009116,2451.505594
163463.437186,8660.409521,-3701.029710,5439.278036
163463.437505,8586.388927,-2442.679609,7124.688131
163463.437825,6291.750507,-2442.679609,4213.525239
163463.438144,2220.617826,-7031.956449,0.000000
163463.438464,-370.102971,-11399.171507,-1302.362347
163463.438783,-4145.153275,-13693.809927,-3370.820191
163463.439103,-4737.318029,-16062.468941,-6128.763984
163463.439423,-7105.977043,-15470.304188,-4596.572988
163463.439742,-6143.709319,-14952.160028,-1302.362347
163463.440062,-4737.318029,-9548.656652,-2451.505594
163463.440381,1110.308913,-7772.162391,229.828649
163463.440701,3923.091493,-4737.318029,4136.915689
163463.441020,6069.688724,-2146.597232,5745.716235
163463.441340,6735.874072,-1776.494261,4826.401637
163463.441659,4071.132681,-3552.988522,2374.896044
163463.441979,-370.102971,-7105.977043,-689.485948
163463.442298,-4515.256246,-10288.862594,-4903.011187
163463.442618,-4737.318029,-16062.468941,-3370.820191
163463.442937,-5625.565159,-17394.839637,-2604.724693
163463.443257,-9474.636058,-14878.139434,-6588.421283
163463.443576,-7179.997637,-14952.160028,-4596.572988
163463.443896,-2812.782580,-10436.903782,-2451.505594
163463.444215,1110.308913,-7624.121203,689.485948
163463.444535,5847.626942,-5921.647536,4213.525239
163463.444854,6809.894666,-3775.050304,6128.763984
163463.445174,5847.626942,-2368.659014,4519.963438
163463.445494,1628.453072,-3034.844362,766.095498
163463.445813,-2368.659014,-5995.668130,-2451.505594
163463.446133,-1184.329507,-13249.686362,306.438199
163463.446452,-2738.761985,-14211.954086,-2604.724693
163463.446772,-4145.153275,-15914.427753,-2911.162892
163463.447091,-5551.544565,-15544.324782,-3447.429741
163463.447411,-4737.318029,-12435.459826,-4290.134789
163463.447730,-1258.350101,-10066.800811,-3064.381992
163463.448050,2368.659014,-9030.512492,3140.991542
163463.448369,4071.132681,-5107.421000,3677.258390
163463.448689,7031.956449,-4737.318029,6665.030833
163463.449008,4663.297435,-3552.988522,4826.401637
163463.449328,2368.659014,-4811.338623,3370.820191
163463.449647,-74.020594,-8068.244768,-1149.143247
163463.449967,-1110.308913,-11621.233289,-1915.238745
163463.450286,-3182.885551,-14211.954086,-2681.334243
163463.450606,-7105.977043,-13101.645173,-6741.640382
163463.450925,-7476.080014,-15026.180623,-4596.572988
163463.451245,-4145.153275,-11325.150913,-4903.011187
163463.451565,-2368.659014,-9548.656652,-2451.505594
163463.451884,2072.576638,-9252.574275,2068.457845
163463.452204,5847.626942,-6513.812290,4213.525239
163463.452523,4737.318029,-3627.009116,4903.011187
163463.452843,4663.297435,-3552.988522,3294.210641
163463.453162,3034.844362,-5033.400406,459.657299
163463.453482,592.164754,-8734.430116,-995.924147
163463.453801,-2368.659014,-9548.656652,-2451.505594
163463.454121,-666.185348,-13619.789333,-1915.238745
163463.454440,-3775.050304,-13323.706956,-3370.820191
163463.454760,-4441.235652,-13989.892304,-2681.334243
163463.455079,-4737.318029,-9548.656652,-3064.381992
163463.455399,-1776.494261,-10881.027347,919.314598
163463.455718,296.082377,-8364.327145,1608.800546
163463.456038,1406.391290,-4737.318029,2604.724693
163463.456357,3775.050304,-3997.112087,3600.648841
163463.456677,1184.329507,-1258.350101,0.000000
163463.456996,592.164754,-4219.173869,0.000000
163463.457316,0.000000,-9252.574275,-229.828649
163463.457636,518.144159,-11621.233289,-76.609550
163463.457955,-74.020594,-14211.954086,-1915.238745
163463.458275,-5625.565159,-12213.398043,-3064.381992
163463.458594,-6735.874072,-13397.727550,-4903.011187
163463.458914,-2960.823768,-12435.459826,-1762.019645
163463.459233,-518.144159,-10214.842000,-459.657299
163463.459553,592.164754,-8364.327145,1455.581446
163463.459872,3478.967927,-7105.977043,2374.896044
163463.460192,2072.576638,-4515.256246,2145.067394
163463.460511,1332.370696,-4071.132681,0.000000
163463.460831,370.102971,-6143.709319,-1455.581446
163463.461150,-518.144159,-9326.594869,-76.609550
163463.461470,0.000000,-11325.150913,0.000000
163463.461789,0.000000,-11325.150913,0.000000
163463.462109,-370.102971,-14211.954086,-689.485948
163463.462428,-3330.926739,-13101.645173,-842.705048
163463.462748,-1776.494261,-10140.821405,-2451.505594
163463.463067,-74.020594,-11251.130318,-76.609550
163463.463387,-592.164754,-7920.203579,2451.505594
163463.463707,222.061783,-5625.565159,1838.629195
163463.464026,888.247130,-3997.112087,612.876398
163463.464346,0.000000,-3923.091493,-2451.505594
163463.464665,-740.205942,-8290.306550,-1608.800546
163463.464985,-2368.659014,-9548.656652,-1838.629195
163463.465304,-222.061783,-11695.253884,0.000000
163463.465624,-592.164754,-13249.686362,-995.924147
163463.465943,-3923.091493,-11177.109724,-3600.648841
163463.466263,-1258.350101,-13471.748144,-689.485948
163463.466582,0.000000,-10288.862594,0.000000
163463.466902,1480.411884,-9326.594869,1072.533697
163463.467221,592.164754,-7920.203579,1838.629195
163463.467541,1480.411884,-7698.141797,3447.429741
163463.467860,740.205942,-5403.503377,76.609550
163463.468180,0.000000,-5329.482782,-4060.306139
163463.468499,0.000000,-9548.656652,-1532.190996
163463.468819,1110.308913,-11843.295072,-689.485948
163463.469138,1702.473667,-10362.883188,-2451.505594
163463.469458,1554.432478,-11991.336260,-153.219100
163463.469778,-888.247130,-11547.212695,306.438199
163463.470097,-1036.288319,-10955.047942,-153.219100
163463.470417,444.123565,-11251.130318,2374.896044
163463.470736,1998.556043,-11843.295072,4826.401637
163463.471056,0.000000,-7772.162391,4290.134789
163463.471375,-74.020594,-6513.812290,1762.019645
163463.471695,-1628.453072,-3701.029710,0.000000
163463.472014,-2368.659014,-4811.338623,-3677.258390
163463.472334,-3182.885551,-7254.018232,-3600.648841
163463.472653,-1258.350101,-10584.944971,-1915.238745
163463.472973,-1184.329507,-11917.315666,-2528.115143
163463.473292,-1184.329507,-12953.603985,-2145.067394
163463.473612,-74.020594,-14211.954086,-76.609550
163463.473931,0.000000,-11325.150913,612.876398
163463.474251,1924.535449,-10658.965565,2145.067394
163463.474570,2886.803174,-9178.553681,4826.401637
163463.474890,3182.885551,-6217.729913,2068.457845
163463.475209,1184.329507,-4219.173869,3064.381992
163463.475529,518.144159,-4293.194464,-766.095498
163463.475849,-1332.370696,-7105.977043,-3600.648841
163463.476168,-1998.556043,-10658.965565,-3294.210641
163463.476488,-1702.473667,-11177.109724,-2451.505594
163463.476807,-74.020594,-11547.212695,-2145.067394
163463.477127,-1628.453072,-10732.986159,-1532.190996
163463.477446,0.000000,-11325.150913,0.000000
163463.477766,2664.741391,-11843.295072,2757.943793
163463.478085,2886.803174,-9474.636058,1762.019645
163463.478405,0.000000,-7772.162391,3064.381992
163463.478724,370.102971,-7550.100608,2298.286494
163463.479044,0.000000,-6735.874072,1149.143247
163463.479363,-1110.308913,-5921.647536,-2298.286494
163463.479683,-3330.926739,-6735.874072,-4673.182538
163463.480002,-2442.679609,-8586.388927,-3447.429741
163463.480322,-2146.597232,-10658.965565,-1302.362347
163463.480641,-296.082377,-9770.718434,-2451.505594
163463.480961,0.000000,-10732.986159,0.000000
163463.481280,1924.535449,-12361.439231,3600.648841
163463.481600,0.000000,-8660.409521,1225.752797
163463.481920,1924.535449,-9992.780217,1302.362347
163463.482239,-370.102971,-9326.594869,1685.410096
163463.482559,-1480.411884,-8068.244768,383.047749
163463.482878,-3034.844362,-6217.729913,-2528.115143
163463.483198,-1406.391290,-9474.636058,-1915.238745
163463.483517,-3034.844362,-8290.306550,-4979.620737
163463.483837,-2960.823768,-8956.491898,-2298.286494
163463.484156,0.000000,-7772.162391,-1838.629195
163463.484476,3923.091493,-11843.295072,3294.210641
163463.484795,888.247130,-9622.677246,1378.971896
163463.485115,2220.617826,-10066.800811,2528.115143
163463.485434,1184.329507,-9770.718434,1838.629195
163463.485754,666.185348,-10436.903782,1838.629195
163463.486073,1110.308913,-9400.615463,2451.505594
163463.486393,-888.247130,-9474.636058,1838.629195
163463.486712,-2886.803174,-8142.265362,-383.047749
163463.487032,-3034.844362,-8290.306550,-4979.620737
163463.487351,-5255.462188,-8290.306550,-4366.744339
163463.487671,-1258.350101,-11251.130318,-1302.362347
163463.487990,-592.164754,-9178.553681,-919.314598
163463.488310,1110.308913,-9696.697840,536.266849
163463.488630,2516.700203,-9844.739029,2834.553343
163463.488949,592.164754,-7179.997637,2451.505594
163463.489269,814.226536,-7920.203579,1532.190996
163463.489588,1110.308913,-10140.821405,1838.629195
163463.489908,-74.020594,-11843.295072,2068.457845
163463.490227,-3849.070898,-9548.656652,-2451.505594
163463.490547,-4811.338623,-9474.636058,-4060.306139
163463.490866,-6217.729913,-9992.780217,-6128.763984
163463.491186,-4293.194464,-10288.862594,-4903.011187
163463.491505,-962.267725,-9918.759623,-2681.334243
163463.491825,1702.473667,-8882.471304,919.314598
163463.492144,2368.659014,-4811.338623,1225.752797
163463.492464,5847.626942,-6735.874072,2987.772442
163463.492783,4737.318029,-5995.668130,4903.011187
163463.493103,4663.297435,-10066.800811,4213.525239
163463.493422,1406.391290,-11843.295072,4213.525239
163463.493742,-1480.411884,-11843.295072,2604.724693
163463.494061,-2368.659014,-11029.068536,-1225.752797
163463.494381,-5551.544565,-9770.718434,-4826.401637
163463.494701,-6957.935855,-8586.388927,-6588.421283
163463.495020,-5921.647536,-9548.656652,-6741.640382
163463.495340,-74.020594,-9844.739029,-1532.190996
163463.495659,4293.194464,-8882.471304,-76.609550
163463.495979,4071.132681,-7698.141797,2528.115143
163463.496298,2664.741391,-5995.668130,1838.629195
163463.496618,7105.977043,-7772.162391,6741.640382
163463.496937,2368.659014,-8956.491898,3830.477490
163463.497257,1110.308913,-10214.842000,2604.724693
163463.497576,-1406.391290,-10510.924376,76.609550
163463.497896,-4515.256246,-10658.965565,-3064.381992
163463.498215,-7179.997637,-9326.594869,-7737.564530
163463.498535,-9104.533087,-11547.212695,-7431.126331
163463.498854,-5847.626942,-10584.944971,-6435.202183
163463.499174,-1850.514855,-9992.780217,-3217.601092
163463.499493,2812.782580,-7994.224174,1302.362347
163463.499813,6217.729913,-8660.409521,6052.154434
163463.500132,7698.141797,-7179.997637,6741.640382
163463.500452,9400.615463,-7994.224174,7277.907231
163463.500772,4367.215058,-8808.450710,4060.306139
163463.501092,592.164754,-10140.821405,2451.505594
163463.501412,-1258.350101,-10658.965565,-689.485948
163463.501732,-5921.647536,-11991.336260,-3140.991542
163463.502051,-9474.636058,-10955.047942,-6741.640382
163463.502371,-8882.471304,-9992.780217,-6971.469032
163463.502691,-2442.679609,-10584.944971,-3830.477490
163463.503010,1110.308913,-8882.471304,-689.485948
163463.503330,3182.885551,-5255.462188,459.657299
163463.503650,5033.400406,-4811.338623,2298.286494
163463.503969,5921.647536,-5403.503377,5209.449386
163463.504289,2960.823768,-4811.338623,2451.505594
163463.504609,296.082377,-10658.965565,3600.648841
163463.504928,-2294.638420,-10732.986159,536.266849
163463.505248,-3404.947333,-11325.150913,-1762.019645
163463.505568,-8512.368333,-12509.480420,-6128.763984
163463.505887,-10436.903782,-11103.089130,-8733.488677
163463.506207,-8438.347739,-11917.315666,-7431.126331
163463.506527,-3849.070898,-9548.656652,-6741.640382
163463.506846,0.000000,-8956.491898,-1225.752797
163463.507166,4145.153275,-7402.059420,3370.820191
163463.507486,7105.977043,-4811.338623,7354.516781
163463.507805,10288.862594,-5477.523971,7354.516781
163463.508125,6809.894666,-5625.565159,5515.887586
163463.508445,3256.906145,-10955.047942,4749.792088
163463.508764,370.102971,-10732.986159,1225.752797
163463.509084,-2738.761985,-11547.212695,-2068.457845
163463.509404,-8290.306550,-10140.821405,-7737.564530
163463.509723,-13027.624579,-10881.027347,-8886.707777
163463.510043,-8882.471304,-11621.233289,-6741.640382
163463.510363,-1850.514855,-11251.130318,-1915.238745
163463.510682,0.000000,-6291.750507,612.876398
163463.511002,2590.720797,-4219.173869,2145.067394
163463.511322,5921.647536,-2664.741391,4826.401637
163463.511641,8290.306550,-5329.482782,6894.859482
163463.511961,3404.947333,-3330.926739,2374.896044
163463.512281,1702.473667,-13619.789333,4213.525239
163463.512600,-370.102971,-10955.047942,229.828649
163463.512920,-4737.318029,-11917.315666,-3677.258390
163463.513240,-12139.377449,-11029.068536,-9806.022374
163463.513559,-11917.315666,-15988.448347,-9882.631924
163463.513879,-9178.553681,-13101.645173,-9193.145976
163463.514199,0.000000,-10881.027347,-4290.134789
163463.514518,3849.070898,-8586.388927,766.095498
163463.514838,7402.059420,-5403.503377,5209.449386
163463.515158,11177.109724,-4737.318029,8580.269578
163463.515477,15322.262999,-4145.153275,9576.193725
163463.515797,9400.615463,-6513.812290,6052.154434
163463.516117,0.000000,-7846.182985,2451.505594
163463.516436,-2960.823768,-10732.986159,919.314598
163463.516756,-1850.514855,-15988.448347,-76.609550
163463.517076,-11695.253884,-13397.727550,-8503.660028
163463.517395,-13767.830521,-13249.686362,-9729.412825
163463.517715,-11325.150913,-11843.295072,-8963.317327
163463.518035,-5329.482782,-7772.162391,-6128.763984
163463.518354,0.000000,-4811.338623,0.000000
163463.518674,5699.585753,-3034.844362,2451.505594
163463.518994,9474.636058,-4959.379811,9346.365076
163463.519313,14137.933492,-4441.235652,8503.660028
163463.519633,8216.285956,-7994.224174,6052.154434
163463.519953,3627.009116,-12213.398043,5439.278036
163463.520272,-1850.514855,-11621.233289,-76.609550
163463.520592,-4885.359217,-13841.851115,-4443.353888
163463.520912,-12657.521608,-13027.624579,-10418.898773
163463.521231,-14211.954086,-13101.645173,-11031.775171
163463.521551,-8142.265362,-12287.418637,-8656.879127
163463.521871,-1702.473667,-7254.018232,-5209.449386
163463.522191,1776.494261,-6735.874072,153.219100
163463.522510,6513.812290,-5403.503377,6588.421283
163463.522830,11769.274478,-3552.988522,7277.907231
163463.523150,13915.871710,-3627.009116,9346.365076
163463.523469,7550.100608,-7254.018232,7048.078582
163463.523789,740.205942,-11103.089130,4979.620737
163463.524109,-1924.535449,-11251.130318,536.266849
163463.524428,-7105.977043,-13397.727550,-5132.839837
163463.524748,-12509.480420,-14211.954086,-10495.508323
163463.525068,-15544.324782,-14137.933492,-11721.261119
163463.525387,-11621.233289,-11325.150913,-9193.145976
163463.525707,-2368.659014,-7476.080014,-4290.134789
163463.526027,4663.297435,-4737.318029,842.705048
163463.526346,5033.400406,-3627.009116,5898.935335
163463.526666,11695.253884,-1776.494261,9193.145976
163463.526986,12953.603985,-2442.679609,9269.755526
163463.527305,7624.121203,-7920.203579,11261.603821
163463.527625,592.164754,-11325.150913,4903.011187
163463.527945,-2886.803174,-11843.295072,-1072.533697
163463.528264,-7179.997637,-16284.530724,-6205.373534
163463.528584,-14878.139434,-13915.871710,-13253.452115
163463.528904,-16802.674883,-13101.645173,-14709.033562
163463.529223,-8364.327145,-13323.706956,-9269.755526
163463.529543,-1332.370696,-9104.533087,-4366.744339
163463.529863,2590.720797,-5551.544565,2298.286494
163463.530182,8364.327145,-3478.967927,6511.811733
163463.530502,16876.695478,-4737.318029,14632.424012
163463.530822,16284.530724,-888.247130,7967.393179
163463.531141,9474.636058,-9030.512492,11031.775171
163463.531461,2812.782580,-12435.459826,4826.401637
163463.531781,-74.020594,-14211.954086,-76.609550
163463.532100,-5995.668130,-17172.777854,-7431.126331
163463.532420,-15840.407159,-14508.036463,-11568.042020
163463.532740,-15026.180623,-15544.324782,-11644.651570
163463.533059,-9696.697840,-12583.501014,-8656.879127
163463.533379,-888.247130,-8068.244768,-2911.162892
163463.533699,2220.617826,-4441.235652,2374.896044
163463.534018,8216.285956,-4737.318029,6665.030833
163463.534338,13841.851115,-1480.411884,11874.480219
163463.534658,13545.768739,-1110.308913,7124.688131
163463.534977,7476.080014,-9474.636058,9729.412825
163463.535297,592.164754,-12213.398043,3447.429741
163463.535617,-3330.926739,-13323.706956,-2911.162892
163463.535936,-10140.821405,-16580.613101,-8963.317327
163463.536256,-15840.407159,-15248.242405,-13253.452115
163463.536576,-15692.365970,-14878.139434,-14096.157163
163463.536895,-6291.750507,-12879.583391,-7584.345430
163463.537215,592.164754,-7476.080014,-3140.991542
163463.537535,3701.029710,-4367.215058,2681.334243
163463.537854,10362.883188,-1554.432478,6665.030833
163463.538174,19763.498651,-2368.659014,13406.671215
163463.538494,14137.933492,-3552.988522,11568.042020
163463.538813,6143.709319,-7846.182985,7890.783629
163463.539133,0.000000,-10288.862594,2604.724693
163463.539453,-4737.318029,-14285.974681,-2145.067394
163463.539772,-13619.789333,-13397.727550,-11031.775171
163463.540092,-16358.551318,-16210.510130,-12793.794817
163463.540412,-14285.974681,-16802.674883,-11031.775171
163463.540731,-7179.997637,-12065.356855,-7431.126331
163463.541051,-74.020594,-8142.265362,-1915.238745
163463.541371,4367.215058,-3552.988522,3447.429741
163463.541690,8290.306550,-2442.679609,7660.954980
163463.542010,18505.148550,2146.597232,12257.527968
163463.542330,15100.201217,-3034.844362,12563.966167
163463.542649,4737.318029,-7179.997637,11338.213370
163463.542969,-1776.494261,-11029.068536,0.000000
163463.543289,-5477.523971,-14211.954086,-4213.525239
163463.543608,-14359.995275,-16654.633695,-10955.165621
163463.543928,-16802.674883,-16876.695478,-13253.452115
163463.544248,-13397.727550,-17172.777854,-12334.137518
163463.544567,-6883.915261,-11843.295072,-7660.954980
163463.544887,-2664.741391,-5403.503377,-4903.011187
163463.545207,592.164754,-3627.009116,2451.505594
163463.545526,10436.903782,-2368.659014,6435.202183
163463.545846,16580.613101,-1258.350101,14709.033562
163463.546166,13249.686362,-1776.494261,10725.336972
163463.546485,7920.203579,-7846.182985,11108.384721
163463.546805,1924.535449,-9326.594869,3064.381992
163463.547125,-4441.235652,-12213.398043,-3677.258390
163463.547444,-12213.398043,-14434.015869,-12334.137518
163463.547764,-16580.613101,-16358.551318,-12640.575717
163463.548084,-14211.954086,-18061.024985,-9269.755526
163463.548403,-7105.977043,-11917.315666,-7354.516781
163463.548723,-2368.659014,-8364.327145,-1838.629195
163463.549043,3552.988522,-3923.091493,4136.915689
163463.549362,11177.109724,-1850.514855,7048.078582
163463.549682,18135.045579,74.020594,12793.794817
163463.550002,13619.789333,-1258.350101,10955.165621
163463.550321,4737.318029,-5107.421000,8580.269578
163463.550641,-74.020594,-11843.295072,2374.896044
163463.550961,-4811.338623,-14211.954086,-3753.867940
163463.551280,-13545.768739,-15100.201217,-11184.994271
163463.551600,-16950.716072,-16136.489536,-13942.938064
163463.551920,-11917.315666,-18949.272115,-9882.631924
163463.552239,-7105.977043,-11917.315666,-7967.393179
163463.552559,-1332.370696,-7105.977043,-2374.896044
163463.552879,4071.132681,-3478.967927,2528.115143
163463.553198,11843.295072,-1850.514855,6588.421283
163463.553518,18875.251521,592.164754,12563.966167
163463.553838,15100.201217,-4145.153275,11568.042020
163463.554158,7920.203579,-8660.409521,9729.412825
163463.554477,-74.020594,-11251.130318,-383.047749
163463.554797,-8142.265362,-15766.386565,-4903.011187
163463.555117,-11029.068536,-18949.272115,-9882.631924
163463.555436,-15248.242405,-17542.880825,-11721.261119
163463.555756,-11177.109724,-16432.571912,-8580.269578
163463.556076,-4589.276840,-10436.903782,-4749.792088
163463.556395,0.000000,-4811.338623,1225.752797
163463.556715,5921.647536,-74.020594,4903.011187
163463.557035,12139.377449,-2516.700203,7354.516781
163463.557354,17764.942608,-666.185348,13866.328514
163463.557674,11769.274478,-5551.544565,10955.165621
163463.557994,2886.803174,-8142.265362,4826.401637
163463.558313,-2738.761985,-14211.954086,-1608.800546
163463.558633,-11029.068536,-16506.592507,-8350.440928
163463.558953,-17468.860231,-17246.798449,-12947.013916
163463.559272,-17320.819043,-18727.210333,-12180.918418
163463.559592,-11843.295072,-14582.057057,-8580.269578
163463.559912,-3552.988522,-8512.368333,-4366.744339
163463.560231,0.000000,-2442.679609,0.000000
163463.560551,7254.018232,-1998.556043,4979.620737
163463.560871,16210.510130,-4737.318029,11874.480219
163463.561190,18875.251521,1332.370696,11568.042020
163463.561510,12139.377449,-5995.668130,11568.042020
163463.561830,2738.761985,-10362.883188,3983.696590
163463.562149,-2664.741391,-13545.768739,-3140.991542
163463.562469,-10510.924376,-17468.860231,-8273.831378
163463.562789,-17616.901420,-16728.654289,-13253.452115
163463.563108,-13397.727550,-18949.272115,-11108.384721
163463.563428,-8068.244768,-13767.830521,-6511.811733
163463.563748,-2442.679609,-5773.606348,-3370.820191
163463.564067,2368.659014,-3034.844362,3064.381992
163463.564387,11177.109724,0.000000,4826.401637
163463.564707,14804.118840,-2146.597232,12104.308868
163463.565026,14730.098246,1258.350101,12257.527968
163463.565346,7550.100608,-7179.997637,9652.803275
163463.565666,1628.453072,-11843.295072,3600.648841
163463.565985,-5033.400406,-14211.954086,-2911.162892
163463.566305,-11473.192101,-18209.066173,-9422.974625
163463.566625,-14285.974681,-18949.272115,-11721.261119
163463.566944,-12805.562797,-18949.272115,-11338.213370
163463.567264,-11251.130318,-12213.398043,-8580.269578
163463.567584,-2442.679609,-6809.894666,-4366.744339
163463.567903,2664.741391,-4811.338623,1762.019645
163463.568223,10066.800811,-3182.885551,7354.516781
163463.568543,16284.530724,-666.185348,11568.042020
163463.568862,17690.922014,-4737.318029,14019.547613
163463.569182,9178.553681,-6587.832884,10418.898773
163463.569502,3478.967927,-11251.130318,2374.896044
163463.569821,-4219.173869,-13175.665768,-4826.401637
163463.570141,-11843.295072,-17616.901420,-9882.631924
163463.570461,-13101.645173,-18949.272115,-12640.575717
163463.570780,-12287.418637,-19393.395680,-10725.336972
163463.571100,-6883.915261,-13693.809927,-6205.373534
163463.571420,-1776.494261,-7994.224174,-1532.190996
163463.571739,4071.132681,-4441.235652,4826.401637
163463.572059,8290.306550,-1036.288319,8197.221829
163463.572379,17394.839637,3849.070898,11568.042020
163463.572698,16062.468941,222.061783,13866.328514
163463.573018,4737.318029,-2442.679609,8580.269578
163463.573338,-444.123565,-11103.089130,-76.609550
163463.573657,-6587.832884,-14211.954086,-5132.839837
163463.573977,-13767.830521,-18431.127956,-12334.137518
163463.574297,-16728.654289,-18727.210333,-13942.938064
163463.574616,-14285.974681,-19245.354492,-11721.261119
163463.574936,-11251.130318,-11917.315666,-7354.516781
163463.575256,-2664.741391,-7476.080014,-2451.505594
163463.575575,3256.906145,-3034.844362,1225.752797
163463.575895,12065.356855,-2886.803174,8350.440928
163463.576215,17394.839637,0.000000,13406.671215
163463.576534,14211.954086,-1850.514855,13176.842566
163463.576854,7550.100608,-5773.606348,7967.393179
163463.577174,1184.329507,-10066.800811,995.924147
163463.577493,-5329.482782,-15692.365970,-3753.867940
163463.577813,-11547.212695,-17468.860231,-11031.775171
163463.578133,-14285.974681,-18653.189738,-12640.575717
163463.578452,-12361.439231,-18283.086767,-9499.584175
163463.578772,-6661.853478,-12657.521608,-5822.325785
163463.579092,-1258.350101,-7550.100608,-153.219100
163463.579411,4071.132681,-2886.803174,4519.963438
163463.579731,9474.636058,-74.020594,7967.393179
163463.580051,13619.789333,-1702.473667,12870.404366
163463.580370,13471.748144,0.000000,13176.842566
163463.580690,6661.853478,-7698.141797,9269.755526
163463.581010,-4737.318029,-8364.327145,0.000000
163463.581329,-9030.512492,-14582.057057,-6894.859482
163463.581649,-13249.686362,-17542.880825,-11108.384721
163463.581969,-15396.283594,-18949.272115,-12487.356617
163463.582288,-12509.480420,-18875.251521,-9882.631924
163463.582608,-6291.750507,-12731.542202,-6665.030833
163463.582928,-1480.411884,-7772.162391,-1532.190996
163463.583247,5329.482782,-2738.761985,1225.752797
163463.583567,11843.295072,-2590.720797,8580.269578
163463.583887,17024.736666,0.000000,12793.794817
163463.584206,13619.789333,-1258.350101,11951.089769
163463.584526,6217.729913,-6291.750507,5745.716235
163463.584846,296.082377,-11621.233289,383.047749
163463.585165,-5551.544565,-15988.448347,-4979.620737
163463.585485,-9104.533087,-17838.963202,-9806.022374
163463.585805,-12065.356855,-17838.963202,-12257.527968
163463.586125,-9474.636058,-15470.304188,-9806.022374
163463.586444,-5921.647536,-11917.315666,-4903.011187
163463.586764,518.144159,-7994.224174,459.657299
163463.587084,4367.215058,-2368.659014,3600.648841
163463.587403,11843.295072,-666.185348,8273.831378
163463.587723,14137.933492,-1628.453072,11414.822920
163463.588043,12953.603985,-296.082377,11031.775171
163463.588362,5107.421000,-7476.080014,6358.592633
163463.588682,-3256.906145,-8364.327145,-2451.505594
163463.589002,-7772.162391,-14804.118840,-6205.373534
163463.589321,-7772.162391,-17616.901420,-10495.508323
163463.589641,-11695.253884,-18505.148550,-11031.775171
163463.589961,-11769.274478,-15470.304188,-9193.145976
163463.590280,-3034.844362,-14211.954086,-3753.867940
163463.590600,-1776.494261,-7624.121203,-1072.533697
163463.590920,3997.112087,-2664.741391,1225.752797
163463.591239,8808.450710,-2220.617826,6971.469032
163463.591559,12213.398043,-1628.453072,10418.898773
163463.591879,12139.377449,-740.205942,10725.336972
163463.592198,6143.709319,-7846.182985,6052.154434
163463.592518,-962.267725,-10658.965565,1762.019645
163463.592838,-5403.503377,-13545.768739,-4979.620737
163463.593157,-9252.574275,-15618.345376,-8733.488677
163463.593477,-9548.656652,-18949.272115,-9882.631924
163463.593797,-11843.295072,-16062.468941,-7584.345430
163463.594116,-7994.224174,-11991.336260,-5822.325785
163463.594436,-4145.153275,-7179.997637,-1455.581446
163463.594756,1184.329507,-3330.926739,2451.505594
163463.595075,7105.977043,-666.185348,6741.640382
163463.595395,13027.624579,-1850.514855,11031.775171
163463.595715,12879.583391,-2368.659014,13023.623466
163463.596034,4663.297435,-6365.771101,5745.716235
163463.596354,-4811.338623,-8882.471304,-3447.429741
163463.596674,-7179.997637,-15100.201217,-6205.373534
163463.596993,-11399.171507,-16284.530724,-9499.584175
163463.597313,-11695.253884,-18579.169144,-9882.631924
163463.597633,-10066.800811,-17246.798449,-6511.811733
163463.597952,-6809.894666,-11917.315666,-4290.134789
163463.598272,-2368.659014,-4959.379811,-2068.457845
163463.598592,2368.659014,-1850.514855,919.314598
163463.598911,8586.388927,-1554.432478,5822.325785
163463.599231,11843.295072,-2442.679609,10418.898773
163463.599551,9992.780217,296.082377,5439.278036
163463.599870,4293.194464,-8068.244768,4213.525239
163463.600190,-1850.514855,-11325.150913,-459.657299
163463.600510,-5995.668130,-14211.954086,-6052.154434
163463.600829,-8068.244768,-17912.983796,-8044.002729
163463.601149,-11251.130318,-17838.963202,-8963.317327
163463.601468,-7772.162391,-16136.489536,-7124.688131
163463.601788,-6069.688724,-11325.150913,-3677.258390
163463.602108,0.000000,-4811.338623,0.000000
163463.602427,5033.400406,-1850.514855,4903.011187
163463.602747,9400.615463,-74.020594,6971.469032
163463.603066,13915.871710,-444.123565,10801.946522
163463.603386,11843.295072,-1332.370696,9039.926876
163463.603706,3627.009116,-7105.977043,4213.525239
163463.604025,-666.185348,-12731.542202,-76.609550
163463.604345,-7624.121203,-15396.283594,-7201.297681
163463.604664,-11251.130318,-16950.716072,-11721.261119
163463.604984,-11843.295072,-19023.292709,-9806.022374
163463.605304,-7254.018232,-16802.674883,-4979.620737
163463.605623,-5921.647536,-8956.491898,-4290.134789
163463.605943,1110.308913,-5329.482782,0.000000
163463.606263,6513.812290,-2738.761985,4443.353888
163463.606582,10732.986159,-962.267725,7967.393179
163463.606902,13249.686362,-1332.370696,9576.193725
163463.607221,11473.192101,-4737.318029,9729.412825
163463.607541,2738.761985,-8290.306550,3677.258390
163463.607861,-74.020594,-12731.542202,-1915.238745
163463.608180,-6587.832884,-14952.160028,-8273.831378
163463.608500,-10066.800811,-18283.086767,-9882.631924
163463.608819,-9548.656652,-18357.107362,-10495.508323
163463.609139,-7031.956449,-15840.407159,-5286.058936
163463.609459,-3627.009116,-10732.986159,-2068.457845
163463.609778,1554.432478,-6069.688724,1378.971896
163463.610098,5847.626942,-3256.906145,6052.154434
163463.610417,9474.636058,-74.020594,9422.974625
163463.610737,10881.027347,1110.308913,8656.879127
163463.611057,7105.977043,-2738.761985,7354.516781
163463.611376,0.000000,-9252.574275,3064.381992
163463.611696,-4811.338623,-11695.253884,-5592.497135
163463.612015,-9548.656652,-18357.107362,-8350.440928
163463.612335,-12805.562797,-20133.601622,-10112.460574
163463.612655,-12213.398043,-18949.272115,-9116.536426
163463.612974,-9622.677246,-15544.324782,-5209.449386
163463.613294,-7105.977043,-9548.656652,0.000000
163463.613614,666.185348,-5255.462188,2145.067394
163463.613933,7031.956449,-888.247130,7354.516781
163463.614253,13841.851115,-1776.494261,12180.918418
163463.614572,11473.192101,814.226536,8963.317327
163463.614892,8290.306550,-4737.318029,9193.145976
163463.615212,-2220.617826,-7772.162391,153.219100
163463.615531,-6661.853478,-12953.603985,-5898.935335
163463.615851,-10140.821405,-18061.024985,-9729.412825
163463.616170,-11473.192101,-19985.560434,-9806.022374
163463.616490,-11917.315666,-16580.613101,-9729.412825
163463.616810,-6587.832884,-14434.015869,-3907.087040
163463.617129,-1850.514855,-8882.471304,0.000000
163463.617449,3182.885551,-4219.173869,4213.525239
163463.617768,9400.615463,0.000000,8810.098227
163463.618088,11843.295072,1702.473667,11031.775171
163463.618408,11621.233289,-740.205942,10342.289223
163463.618727,7624.121203,-4737.318029,7277.907231
163463.619047,-74.020594,-9474.636058,-383.047749
163463.619366,-9178.553681,-12509.480420,-6741.640382
163463.619686,-10732.986159,-18357.107362,-11184.994271
163463.620006,-11251.130318,-20133.601622,-9729.412825
163463.620325,-9400.615463,-18061.024985,-7967.393179
163463.620645,-6587.832884,-14285.974681,-4826.401637
163463.620965,-1628.453072,-9770.718434,-76.609550
163463.621284,4367.215058,-4589.276840,3294.210641
163463.621604,8290.306550,-74.020594,5209.449386
163463.621923,10658.965565,1110.308913,10418.898773
163463.622243,10881.027347,-1998.556043,9422.974625
163463.622563,2368.659014,-3627.009116,5515.887586
163463.622882,-74.020594,-8808.450710,-1532.190996
163463.623202,-5403.503377,-14730.098246,-6741.640382
163463.623521,-7994.224174,-18431.127956,-8273.831378
163463.623841,-8068.244768,-17838.963202,-9269.755526
163463.624161,-5995.668130,-17764.942608,-7431.126331
163463.624480,-2442.679609,-15396.283594,-2528.115143
163463.624800,222.061783,-8290.306550,-766.095498
163463.625119,4737.318029,-4219.173869,4903.011187
163463.625439,11103.089130,-3478.967927,9729.412825
163463.625759,9474.636058,-74.020594,8580.269578
163463.626078,10288.862594,-592.164754,8120.612279
163463.626398,5847.626942,-4885.359217,4979.620737
163463.626717,296.082377,-8364.327145,-1149.143247
163463.627037,-3627.009116,-14211.954086,-5286.058936
163463.627357,-5995.668130,-19541.436869,-6818.249932
163463.627676,-7179.997637,-18949.272115,-8656.879127
163463.627996,-7698.141797,-16432.571912,-6665.030833
163463.628316,-6143.709319,-11547.212695,-5975.544884
163463.628635,-1776.494261,-10584.944971,-76.609550
163463.628955,888.247130,-4811.338623,1532.190996
163463.629274,6439.791695,-3256.906145,4903.011187
163463.629594,8364.327145,-2146.597232,7584.345430
163463.629914,7698.141797,-1998.556043,6741.640382
163463.630233,2664.741391,-4071.132681,2145.067394
163463.630553,-444.123565,-8808.450710,-919.314598
163463.630872,-1998.556043,-14211.954086,-2528.115143
163463.631192,-3034.844362,-17764.942608,-5592.497135
163463.631512,-6439.791695,-16876.695478,-6588.421283
163463.631831,-6661.853478,-17764.942608,-2528.115143
163463.632151,-5477.523971,-13175.665768,-3677.258390
163463.632470,-1554.432478,-9326.594869,-536.266849
163463.632790,2812.782580,-5995.668130,3447.429741
163463.633110,3849.070898,-1554.432478,4903.011187
163463.633429,4737.318029,-74.020594,5515.887586
163463.633749,5773.606348,-1258.350101,3983.696590
163463.634069,1184.329507,-4811.338623,3677.258390
163463.634388,-222.061783,-9326.594869,-536.266849
163463.634708,-2738.761985,-13619.789333,-2528.115143
163463.635027,-5773.606348,-17172.777854,-3294.210641
163463.635347,-8142.265362,-16358.551318,-6205.373534
163463.635667,-10436.903782,-14804.118840,-6128.763984
163463.635986,-8364.327145,-13175.665768,-5056.230287
163463.636306,-7105.977043,-7476.080014,-4596.572988
163463.636625,0.000000,-8290.306550,2374.896044
163463.636945,3182.885551,-3256.906145,3294.210641
163463.637265,4737.318029,-1850.514855,5669.106685
163463.637584,3552.988522,-1850.514855,4903.011187
163463.637904,4663.297435,-6513.812290,2374.896044
163463.638223,-1406.391290,-8956.491898,-1838.629195
163463.638543,-1924.535449,-13101.645173,-2145.067394
163463.638863,-1554.432478,-15396.283594,-2068.457845
163463.639182,-3627.009116,-15174.221811,-1915.238745
163463.639502,-4811.338623,-13841.851115,-2834.553343
163463.639821,-3034.844362,-13027.624579,-3140.991542
163463.640141,-888.247130,-9252.574275,-1608.800546
163463.640461,0.000000,-5403.503377,1225.752797
163463.640780,3849.070898,-4811.338623,3677.258390
163463.641100,7624.121203,-4145.153275,6665.030833
163463.641420,3849.070898,-2442.679609,3677.258390
163463.641739,2368.659014,-4811.338623,459.657299
163463.642059,222.061783,-7550.100608,-2451.505594
163463.642378,-1184.329507,-13101.645173,153.219100
163463.642698,-2368.659014,-14285.974681,-3064.381992
163463.643018,-3034.844362,-15988.448347,-3677.258390
163463.643337,-3182.885551,-16284.530724,-2834.553343
163463.643657,-3627.009116,-12731.542202,-3294.210641
163463.643976,-2146.597232,-7550.100608,-4673.182538
163463.644296,2294.638420,-8290.306550,-76.609550
163463.644616,3256.906145,-5255.462188,2451.505594
163463.644935,4811.338623,-4219.173869,4366.744339
163463.645255,5329.482782,-3923.091493,2681.334243
163463.645574,3849.070898,-5255.462188,2145.067394
163463.645894,1480.411884,-7772.162391,-4290.134789
163463.646214,2146.597232,-14211.954086,-153.219100
163463.646533,-962.267725,-13989.892304,-2987.772442
163463.646853,-2886.803174,-15988.448347,-1915.238745
163463.647172,-1258.350101,-16580.613101,-1302.362347
163463.647492,-2072.576638,-11917.315666,-2221.676944
163463.647812,518.144159,-10436.903782,-536.266849
163463.648131,2294.638420,-8290.306550,2757.943793
163463.648451,2368.659014,-5403.503377,4596.572988
163463.648771,2294.638420,-3923.091493,5132.839837
163463.649090,4071.132681,-4441.235652,2374.896044
163463.649410,518.144159,-5033.400406,-76.609550
163463.649729,-1258.350101,-7105.977043,-2911.162892
163463.650049,-962.267725,-12731.542202,-76.609550
163463.650369,-3256.906145,-13101.645173,-1838.629195
163463.650688,-4367.215058,-14063.912898,-3217.601092
163463.651008,-5847.626942,-14211.954086,-3294.210641
163463.651327,-4959.379811,-12213.398043,-3064.381992
163463.651647,-2590.720797,-8512.368333,-4136.915689
163463.651967,-370.102971,-8808.450710,1149.143247
163463.652286,148.041188,-5551.544565,2068.457845
163463.652606,1480.411884,-4145.153275,2451.505594
163463.652925,1184.329507,-4515.256246,536.266849
163463.653245,1110.308913,-8882.471304,-76.609550
163463.653565,-74.020594,-11843.295072,-76.609550
163463.653884,-666.185348,-11251.130318,-1302.362347
163463.654204,-1184.329507,-12213.398043,-1225.752797
163463.654523,-1924.535449,-13397.727550,0.000000
163463.654843,-4219.173869,-11473.192101,-2451.505594
163463.655163,-1184.329507,-11399.171507,-612.876398
163463.655482,-666.185348,-9400.615463,536.266849
163463.655802,-444.123565,-8142.265362,1532.190996
163463.656122,2294.638420,-7105.977043,3294.210641
163463.656441,1998.556043,-4737.318029,2374.896044
163463.656761,592.164754,-3034.844362,612.876398
163463.657080,296.082377,-6587.832884,0.000000
163463.657400,-74.020594,-11251.130318,-76.609550
163463.657720,-2368.659014,-10140.821405,-1838.629195
163463.658039,-1850.514855,-12435.459826,-3217.601092
163463.658359,-3997.112087,-14952.160028,-2298.286494
163463.658678,-3775.050304,-13989.892304,-1302.362347
163463.658998,-1554.432478,-10436.903782,-766.095498
163463.659318,370.102971,-8364.327145,-229.828649
163463.659637,740.205942,-7624.121203,1762.019645
163463.659957,1776.494261,-3627.009116,842.705048
163463.660276,2960.823768,-3627.009116,2604.724693
163463.660596,2590.720797,-5551.544565,-995.924147
163463.660916,-2368.659014,-7476.080014,-3370.820191
163463.661235,-1850.514855,-11695.253884,-2834.553343
163463.661555,-518.144159,-13323.706956,-1991.848295
163463.661875,-296.082377,-13841.851115,-1915.238745
163463.662194,-740.205942,-12509.480420,-2221.676944
163463.662514,-74.020594,-11251.130318,-689.485948
163463.662833,1924.535449,-9474.636058,2374.896044
163463.663153,2294.638420,-7698.141797,1455.581446
163463.663473,592.164754,-7179.997637,2451.505594
163463.663792,1998.556043,-7105.977043,4749.792088
163463.664112,0.000000,-4811.338623,2451.505594
163463.664431,-814.226536,-4737.318029,-1762.019645
163463.664751,-2960.823768,-7772.162391,-2681.334243
163463.665071,-3108.864956,-10362.883188,-2451.505594
163463.665390,-666.185348,-10066.800811,-2834.553343
163463.665710,-74.020594,-14211.954086,-689.485948
163463.666029,-666.185348,-14211.954086,-76.609550
163463.666349,-370.102971,-11769.274478,2374.896044
163463.666669,2294.638420,-9178.553681,995.924147
163463.666988,2368.659014,-9474.636058,4213.525239
163463.667308,-2220.617826,-6587.832884,612.876398
163463.667627,-296.082377,-5995.668130,1149.143247
163463.667947,148.041188,-5995.668130,-842.705048
163463.668267,-1554.432478,-7105.977043,-3677.258390
163463.668586,-2738.761985,-10140.821405,-3983.696590
163463.668906,-666.185348,-11843.295072,-2145.067394
163463.669226,2590.720797,-11843.295072,-766.095498
163463.669545,4663.297435,-13027.624579,-76.609550
163463.669865,1554.432478,-11843.295072,306.438199
163463.670184,2886.803174,-13619.789333,4213.525239
163463.670504,2072.576638,-8290.306550,1225.752797
163463.670824,1332.370696,-8586.388927,1378.971896
163463.671143,-666.185348,-9030.512492,1608.800546
163463.671463,-2368.659014,-5403.503377,0.000000
163463.671782,-3552.988522,-4811.338623,-3677.258390
163463.672102,-3182.885551,-5995.668130,-6741.640382
163463.672422,-3404.947333,-9548.656652,-3064.381992
163463.672741,814.226536,-11251.130318,-76.609550
163463.673061,4071.132681,-10658.965565,-76.609550
163463.673380,4589.276840,-12139.377449,3140.991542
163463.673700,1184.329507,-11843.295072,2451.505594
163463.674020,740.205942,-10510.924376,2757.943793
163463.674339,1850.514855,-8734.430116,1991.848295
163463.674659,0.000000,-7179.997637,0.000000
163463.674978,-3330.926739,-8882.471304,-76.609550
163463.675298,-4737.318029,-6291.750507,-1838.629195
163463.675618,-2368.659014,-7920.203579,-1915.238745
163463.675937,-1258.350101,-9474.636058,-3140.991542
163463.676257,-1258.350101,-9474.636058,-3140.991542
163463.676577,-1406.391290,-9622.677246,-1225.752797
163463.676896,1184.329507,-10140.821405,-459.657299
163463.677216,1554.432478,-9770.718434,1225.752797
163463.677535,222.061783,-11547.212695,3294.210641
163463.677855,-666.185348,-8808.450710,2374.896044
163463.678175,2886.803174,-9474.636058,2068.457845
163463.678494,-1628.453072,-9252.574275,306.438199
163463.678814,-4145.153275,-8364.327145,612.876398
163463.679133,-3256.906145,-7772.162391,0.000000
163463.679453,-2442.679609,-7105.977043,-2528.115143
163463.679773,-3997.112087,-8364.327145,-4136.915689
163463.680092,-3034.844362,-9770.718434,-1838.629195
163463.680412,592.164754,-9178.553681,-229.828649
163463.680731,3997.112087,-10732.986159,3907.087040
163463.681051,2960.823768,-10732.986159,3217.601092
163463.681371,1406.391290,-10658.965565,3907.087040
163463.681690,2294.638420,-10658.965565,2374.896044
163463.682010,-1776.494261,-8364.327145,0.000000
163463.682329,-3849.070898,-8364.327145,0.000000
163463.682649,-2442.679609,-10214.842000,-383.047749
163463.682969,-4737.318029,-7994.224174,-2451.505594
163463.683288,-5033.400406,-8068.244768,-4903.011187
163463.683608,-5033.400406,-9104.533087,-5056.230287
163463.683928,-1776.494261,-11325.150913,-1378.971896
163463.684247,1036.288319,-8956.491898,-3677.258390
163463.684567,3552.988522,-9548.656652,2451.505594
163463.684886,5625.565159,-10807.006753,4366.744339
163463.685206,6439.791695,-11843.295072,4826.401637
163463.685526,7031.956449,-9474.636058,4826.401637
163463.685845,2812.782580,-9844.739029,2298.286494
163463.686165,-1036.288319,-10362.883188,612.876398
163463.686484,-1924.535449,-9844.739029,-383.047749
163463.686804,-1924.535449,-8364.327145,-1225.752797
163463.687124,-5107.421000,-8290.306550,-4979.620737
163463.687443,-3034.844362,-9474.636058,-4979.620737
163463.687763,-2960.823768,-8956.491898,-3753.867940
163463.688082,0.000000,-7179.997637,0.000000
163463.688402,4367.215058,-10362.883188,3600.648841
163463.688722,3552.988522,-8660.409521,3677.258390
163463.689041,4441.235652,-8882.471304,3830.477490
163463.689361,4367.215058,-8660.409521,3677.258390
163463.689680,2590.720797,-9326.594869,2834.553343
163463.690000,-2664.741391,-8956.491898,-2145.067394
163463.690320,-4515.256246,-10955.047942,-2834.553343
163463.690639,-7698.141797,-9844.739029,-6665.030833
163463.690959,-8068.244768,-10362.883188,-7660.954980
163463.691279,-5995.668130,-11177.109724,-6128.763984
163463.691598,-74.020594,-12435.459826,-689.485948
163463.691918,2960.823768,-10436.903782,2451.505594
163463.692237,7031.956449,-7994.224174,3447.429741
163463.692557,7476.080014,-6069.688724,5515.887586
163463.692877,7105.977043,-7476.080014,6128.763984
163463.693196,3108.864956,-5995.668130,1838.629195
163463.693516,962.267725,-10584.944971,2451.505594
163463.693835,-3478.967927,-11473.192101,-536.266849
163463.694155,-7179.997637,-10955.047942,-4673.182538
163463.694475,-8068.244768,-11547.212695,-6205.373534
163463.694794,-8882.471304,-11029.068536,-6741.640382
163463.695114,-5329.482782,-9992.780217,-3677.258390
163463.695433,-1110.308913,-5995.668130,0.000000
163463.695753,5255.462188,-8586.388927,3294.210641
163463.696073,4737.318029,-6587.832884,5209.449386
163463.696392,6143.709319,-5181.441594,4903.011187
163463.696712,4885.359217,-8808.450710,5592.497135
163463.697032,2220.617826,-9326.594869,3370.820191
163463.697351,-962.267725,-10658.965565,1762.019645
163463.697671,-3997.112087,-11843.295072,-1608.800546
163463.697990,-7254.018232,-10584.944971,-5592.497135
163463.698310,-9474.636058,-11473.192101,-9806.022374
163463.698630,-8290.306550,-11325.150913,-6435.202183
163463.698949,-4367.215058,-10510.924376,-4060.306139
163463.699269,-2368.659014,-7772.162391,-2145.067394
163463.699588,3182.885551,-6365.771101,1149.143247
163463.699908,7105.977043,-7179.997637,5975.544884
163463.700228,7994.224174,-5625.565159,6588.421283
163463.700547,6365.771101,-6587.832884,3677.258390
163463.700867,2886.803174,-7994.224174,1149.143247
163463.701186,-962.267725,-10362.883188,-76.609550
163463.701506,-5921.647536,-10732.986159,-2451.505594
163463.701826,-7105.977043,-12213.398043,-5362.668486
163463.702145,-7328.038826,-14211.954086,-6205.373534
163463.702465,-8290.306550,-10732.986159,-6741.640382
163463.702784,-2960.823768,-9844.739029,-3524.039291
163463.703104,2072.576638,-6587.832884,-536.266849
163463.703423,4515.256246,-6735.874072,2834.553343
163463.703743,8808.450710,-2072.576638,4213.525239
163463.704062,11769.274478,-7105.977043,8503.660028
163463.704382,6217.729913,-7179.997637,8120.612279
163463.704701,4071.132681,-10362.883188,4826.401637
163463.705021,-666.185348,-11843.295072,-76.609550
163463.705340,-7105.977043,-13397.727550,-2757.943793
163463.705660,-9474.636058,-11029.068536,-9806.022374
163463.705979,-13027.624579,-11917.315666,-9806.022374
163463.706299,-9252.574275,-11177.109724,-8810.098227
163463.706618,-4737.318029,-9696.697840,-6205.373534
163463.706938,1406.391290,-7328.038826,-2145.067394
163463.707257,6439.791695,-7550.100608,2834.553343
163463.707577,9400.615463,-7105.977043,7354.516781
163463.707896,11769.274478,-8290.306550,8197.221829
163463.708216,8808.450710,-6365.771101,5898.935335
163463.708535,7624.121203,-11843.295072,7277.907231
163463.708855,888.247130,-11325.150913,2451.505594
163463.709174,-2368.659014,-12583.501014,-1225.752797
163463.709494,-6439.791695,-11843.295072,-6205.373534
163463.709813,-8882.471304,-11325.150913,-9193.145976
163463.710133,-9474.636058,-11917.315666,-7967.393179
163463.710452,-4441.235652,-10140.821405,-5822.325785
163463.710772,4071.132681,-9474.636058,-76.609550
163463.711091,4663.297435,-6809.894666,2681.334243
163463.711411,8068.244768,-3108.864956,6052.154434
163463.711730,11177.109724,-5921.647536,8197.221829
163463.712050,5995.668130,-6957.935855,6741.640382
163463.712369,2146.597232,-9326.594869,4903.011187
163463.712689,-2368.659014,-10510.924376,1302.362347
163463.713008,-6513.812290,-11917.315666,-2451.505594
163463.713328,-10658.965565,-11103.089130,-8350.440928
163463.713647,-14211.954086,-11917.315666,-10725.336972
163463.713967,-11103.089130,-13249.686362,-8810.098227
163463.714286,-4959.379811,-11325.150913,-5209.449386
163463.714606,-74.020594,-7698.141797,-3753.867940
163463.714925,2442.679609,-8512.368333,2911.162892
163463.715245,7624.121203,-6439.791695,6511.811733
163463.715564,11177.109724,-4663.297435,8810.098227
163463.715884,10140.821405,-6957.935855,9729.412825
163463.716203,4737.318029,-8956.491898,6971.469032
163463.716523,1702.473667,-10362.883188,3600.648841
163463.716842,-4145.153275,-10732.986159,0.000000
163463.717162,-11843.295072,-9548.656652,-7967.393179
163463.717481,-11843.295072,-12509.480420,-9806.022374
163463.717801,-11325.150913,-11547.212695,-10495.508323
163463.718120,-7179.997637,-11103.089130,-6818.249932
163463.718440,-2590.720797,-8512.368333,-2374.896044
163463.718759,1406.391290,-8364.327145,1838.629195
163463.719079,8216.285956,-8882.471304,9116.536426
163463.719398,10658.965565,-2812.782580,7890.783629
163463.719718,9104.533087,-7402.059420,9499.584175
163463.720037,4663.297435,-8882.471304,6665.030833
163463.720357,0.000000,-8660.409521,2145.067394
163463.720676,-6513.812290,-9548.656652,-3677.258390
163463.720996,-10140.821405,-11547.212695,-9422.974625
163463.721315,-12065.356855,-12509.480420,-10572.117872
163463.721635,-10732.986159,-13619.789333,-9039.926876
163463.721955,-4367.215058,-10140.821405,-6741.640382
163463.722274,2294.638420,-11843.295072,-76.609550
163463.722594,4441.235652,-8364.327145,2451.505594
163463.722913,11991.336260,-6143.709319,8044.002729
163463.723233,11177.109724,-4737.318029,7890.783629
163463.723552,8882.471304,-5329.482782,6665.030833
163463.723872,7031.956449,-8882.471304,4826.401637
163463.724191,592.164754,-10436.903782,2681.334243
163463.724511,-4737.318029,-11029.068536,-2528.115143
163463.724830,-8882.471304,-11769.274478,-7737.564530
163463.725150,-9548.656652,-13915.871710,-8656.879127
163463.725469,-9030.512492,-13027.624579,-6818.249932
163463.725789,-3034.844362,-10362.883188,-6205.373534
163463.726108,-1036.288319,-7772.162391,-2757.943793
163463.726428,1184.329507,-5995.668130,0.000000
163463.726747,10807.006753,-6809.894666,6665.030833
163463.727067,12435.459826,-5181.441594,9116.536426
163463.727386,9178.553681,-6735.874072,9039.926876
163463.727706,5625.565159,-9252.574275,5975.544884
163463.728025,1184.329507,-9104.533087,1455.581446
163463.728345,-8290.306550,-9548.656652,-4290.134789
163463.728664,-11177.109724,-11029.068536,-9499.584175
163463.728984,-11769.274478,-14285.974681,-11031.775171
163463.729303,-9030.512492,-15470.304188,-7814.174080
163463.729623,-3923.091493,-11547.212695,-6665.030833
163463.729942,-1184.329507,-10140.821405,-153.219100
163463.730262,3775.050304,-6587.832884,1608.800546
163463.730581,9622.677246,-5551.544565,6665.030833
163463.730901,10288.862594,-4367.215058,7737.564530
163463.731220,8808.450710,-5403.503377,7354.516781
163463.731540,7031.956449,-8290.306550,6052.154434
163463.731859,1998.556043,-10066.800811,3600.648841
163463.732179,-5181.441594,-11843.295072,-2374.896044
163463.732498,-11325.150913,-11621.233289,-7890.783629
163463.732818,-11399.171507,-14211.954086,-9806.022374
163463.733137,-9844.739029,-14508.036463,-7584.345430
163463.733457,-7105.977043,-9548.656652,-6128.763984
163463.733776,-1184.329507,-7698.141797,0.000000
163463.734096,4145.153275,-5403.503377,3677.258390
163463.734415,9474.636058,-3034.844362,6128.763984
163463.734735,10288.862594,-3849.070898,9116.536426
163463.735054,6513.812290,-6735.874072,8886.707777
163463.735374,1924.535449,-9326.594869,4519.963438
163463.735693,-3627.009116,-10140.821405,-612.876398
163463.736013,-9400.615463,-12435.459826,-5286.058936
163463.736332,-12805.562797,-13323.706956,-9729.412825
163463.736652,-13027.624579,-12509.480420,-12257.527968
163463.736971,-10658.965565,-13101.645173,-8427.050478
163463.737291,-3552.988522,-9252.574275,-4290.134789
163463.737610,0.000000,-4811.338623,0.000000
163463.737930,7920.203579,-6513.812290,4366.744339
163463.738249,11843.295072,-4441.235652,7584.345430
163463.738569,11547.212695,-4589.276840,8580.269578
163463.738888,9474.636058,-7105.977043,9422.974625
163463.739208,5847.626942,-9178.553681,4826.401637
163463.739527,-74.020594,-13619.789333,2374.896044
163463.739847,-8956.491898,-11473.192101,-7584.345430
163463.740166,-12879.583391,-12805.562797,-10418.898773
163463.740486,-10658.965565,-16210.510130,-8273.831378
163463.740805,-9474.636058,-10732.986159,-7967.393179
163463.741125,-2590.720797,-9400.615463,-4060.306139
163463.741444,1998.556043,-6587.832884,1991.848295
163463.741764,10807.006753,-3182.885551,4903.011187
163463.742083,15322.262999,-3552.988522,9729.412825
163463.742403,12361.439231,-4811.338623,10801.946522
163463.742722,7624.121203,-7994.224174,6971.469032
163463.743042,1332.370696,-8660.409521,1991.848295
163463.743361,-3552.988522,-10732.986159,0.000000
163463.743681,-9474.636058,-13693.809927,-4903.011187
163463.744000,-12879.583391,-13693.809927,-11491.432470
163463.744320,-11103.089130,-16802.674883,-10342.289223
163463.744639,-8364.327145,-13841.851115,-7277.907231
163463.744959,-4441.235652,-8808.450710,-4213.525239
163463.745278,2516.700203,-5995.668130,0.000000
163463.745598,9474.636058,-5107.421000,5362.668486
163463.745917,13915.871710,-1406.391290,6128.763984
163463.746237,10510.924376,-6735.874072,11184.994271
163463.746556,7179.997637,-7846.182985,9116.536426
163463.746876,1776.494261,-9548.656652,3064.381992
163463.747195,-4959.379811,-12435.459826,-2145.067394
163463.747515,-11769.274478,-13471.748144,-8427.050478
163463.747834,-12435.459826,-14359.995275,-9729.412825
163463.748154,-11547.212695,-14878.139434,-9806.022374
163463.748473,-7846.182985,-9770.718434,-7354.516781
163463.748793,-3552.988522,-8290.306550,-1608.800546
163463.749112,2294.638420,-4885.359217,919.314598
163463.749432,8290.306550,-4219.173869,6281.983084
163463.749751,14730.098246,0.000000,10955.165621
163463.750071,9770.718434,-5551.544565,11951.089769
163463.750390,6439.791695,-6291.750507,8733.488677
163463.750710,1258.350101,-9548.656652,1685.410096
163463.751029,-6143.709319,-11843.295072,-3677.258390
163463.751349,-14730.098246,-13101.645173,-11568.042020
163463.751668,-13101.645173,-18357.107362,-10189.070123
163463.751988,-9548.656652,-17764.942608,-9269.755526
163463.752307,-7105.977043,-10881.027347,-7048.078582
163463.752627,-2368.659014,-7179.997637,-1838.629195
163463.752946,7031.956449,-7105.977043,4213.525239
163463.753266,10955.047942,-3627.009116,6052.154434
163463.753585,12065.356855,-2368.659014,8733.488677
163463.753905,9030.512492,-4811.338623,9422.974625
163463.754224,6661.853478,-6883.915261,7048.078582
163463.754544,2294.638420,-9474.636058,2068.457845
163463.754863,-4219.173869,-14730.098246,-1915.238745
163463.755183,-9844.739029,-14211.954086,-7431.126331
163463.755502,-9548.656652,-16580.613101,-9882.631924
163463.755822,-9104.533087,-13101.645173,-9806.022374
163463.756141,-2442.679609,-13619.789333,-3753.867940
163463.756461,-1702.473667,-7254.018232,-919.314598
163463.756780,5551.544565,-5773.606348,2834.553343
163463.757100,11843.295072,-4589.276840,8120.612279
163463.757419,13027.624579,-1258.350101,11031.775171
163463.757739,8882.471304,-4811.338623,11031.775171
163463.758058,6883.915261,-7476.080014,6128.763984
163463.758378,4071.132681,-11251.130318,3600.648841
163463.758697,-5995.668130,-11843.295072,-3294.210641
163463.759017,-11621.233289,-11991.336260,-9652.803275
163463.759336,-11325.150913,-16506.592507,-10189.070123
163463.759656,-11399.171507,-14952.160028,-9422.974625
163463.759975,-8216.285956,-11251.130318,-7048.078582
163463.760295,-3923.091493,-7772.162391,-2911.162892
163463.760614,1184.329507,-6587.832884,0.000000
163463.760934,8956.491898,-2738.761985,3370.820191
163463.761253,9474.636058,-3627.009116,8580.269578
163463.761573,9400.615463,-6365.771101,10342.289223
163463.761893,7031.956449,-9178.553681,7277.907231
163463.762212,2220.617826,-12435.459826,3600.648841
163463.762532,-6439.791695,-13175.665768,-3677.258390
163463.762851,-9474.636058,-14434.015869,-7431.126331
163463.763171,-8586.388927,-15248.242405,-7354.516781
163463.763490,-7105.977043,-12805.562797,-6128.763984
163463.763810,-3034.844362,-11547.212695,-3370.820191
163463.764129,1110.308913,-8290.306550,-76.609550
163463.764449,4663.297435,-4737.318029,1762.019645
163463.764768,6513.812290,-2442.679609,3677.258390
163463.765088,9770.718434,-7550.100608,9729.412825
163463.765407,4737.318029,-5995.668130,8886.707777
163463.765727,4071.132681,-6883.915261,4366.744339
163463.766046,-2664.741391,-9548.656652,-536.266849
163463.766366,-9400.615463,-11399.171507,-5056.230287
163463.766685,-10436.903782,-11917.315666,-9116.536426
163463.767005,-9104.533087,-14211.954086,-7354.516781
163463.767324,-8734.430116,-13545.768739,-6741.640382
163463.767644,-7328.038826,-10214.842000,-5745.716235
163463.767963,-3108.864956,-7402.059420,-2221.676944
163463.768283,4441.235652,-8290.306550,2604.724693
163463.768602,9474.636058,-5699.585753,7354.516781
163463.768922,10584.944971,-5921.647536,8503.660028
163463.769241,7920.203579,-5403.503377,7124.688131
163463.769561,5921.647536,-8068.244768,4903.011187
163463.769880,-1258.350101,-8438.347739,-1915.238745
163463.770200,-7550.100608,-13397.727550,-4443.353888
163463.770519,-9548.656652,-14063.912898,-7967.393179
163463.770839,-9030.512492,-15174.221811,-8120.612279
163463.771158,-4811.338623,-14656.077652,-3524.039291
163463.771478,-4145.153275,-9104.533087,-2911.162892
163463.771797,0.000000,-5995.668130,612.876398
163463.772117,6439.791695,-5329.482782,3064.381992
163463.772436,10658.965565,-3849.070898,7277.907231
163463.772756,5921.647536,-3627.009116,8580.269578
163463.773075,6957.935855,-4737.318029,7431.126331
163463.773395,5033.400406,-8956.491898,4519.963438
163463.773714,-1406.391290,-10510.924376,-459.657299
163463.774034,-8142.265362,-12509.480420,-5286.058936
163463.774353,-9548.656652,-14508.036463,-7431.126331
163463.774673,-8956.491898,-16580.613101,-8350.440928
163463.774992,-8290.306550,-12805.562797,-7584.345430
163463.775312,-6809.894666,-9844.739029,-4290.134789
163463.775631,74.020594,-7698.141797,306.438199
163463.775951,4737.318029,-3627.009116,2451.505594
163463.776270,11177.109724,-4071.132681,7277.907231
163463.776590,9992.780217,-3182.885551,9193.145976
163463.776909,7476.080014,-5033.400406,7124.688131
163463.777229,4145.153275,-6957.935855,2528.115143
163463.777548,-666.185348,-11547.212695,-2528.115143
163463.777868,-7698.141797,-13619.789333,-5592.497135
163463.778187,-11251.130318,-14285.974681,-9806.022374
163463.778507,-8290.306550,-15766.386565,-8273.831378
163463.778826,-4811.338623,-15988.448347,-3753.867940
163463.779146,-6513.812290,-9548.656652,-3677.258390
163463.779465,1480.411884,-6809.894666,-76.609550
163463.779785,6069.688724,-4737.318029,4290.134789
163463.780104,12435.459826,-1850.514855,8350.440928
163463.780424,12953.603985,-3552.988522,10955.165621
163463.780743,9992.780217,-4663.297435,11184.994271
163463.781063,5551.544565,-8290.306550,4826.401637
163463.781382,-3330.926739,-9548.656652,-3830.477490
163463.781702,-11843.295072,-11917.315666,-9039.926876
163463.782021,-11843.295072,-16654.633695,-9346.365076
163463.782341,-12731.542202,-16654.633695,-9806.022374
163463.782660,-9326.594869,-14211.954086,-7354.516781
163463.782980,-5625.565159,-10732.986159,-4443.353888
163463.783299,-888.247130,-7105.977043,-612.876398
163463.783619,7031.956449,-4071.132681,2451.505594
163463.783938,9474.636058,-2590.720797,8273.831378
163463.784258,11103.089130,-2664.741391,10572.117872
163463.784577,10584.944971,-4737.318029,8503.660028
163463.784897,4367.215058,-7994.224174,3294.210641
163463.785216,-2960.823768,-11843.295072,-383.047749
163463.785536,-8216.285956,-14952.160028,-6665.030833
163463.785855,-10510.924376,-16950.716072,-10035.851024
163463.786175,-9918.759623,-17246.798449,-9116.536426
163463.786494,-9474.636058,-14285.974681,-7354.516781
163463.786814,-6513.812290,-8364.327145,-4596.572988
163463.787133,0.000000,-5995.668130,0.000000
163463.787453,5921.647536,-3034.844362,5515.887586
163463.787772,11399.171507,-3849.070898,10342.289223
163463.788092,11473.192101,-3552.988522,11568.042020
163463.788411,10066.800811,-4219.173869,9269.755526
163463.788731,1702.473667,-7402.059420,3370.820191
163463.789050,-6143.709319,-9992.780217,-4290.134789
163463.789370,-11103.089130,-14804.118840,-7660.954980
163463.789689,-14211.954086,-15470.304188,-11338.213370
163463.790009,-10436.903782,-18949.272115,-7431.126331
163463.790328,-7772.162391,-16284.530724,-5286.058936
163463.790648,-5551.544565,-8364.327145,-3370.820191
163463.790967,0.000000,-4811.338623,0.000000
163463.791287,9400.615463,-4737.318029,6052.154434
163463.791606,11399.171507,-1924.535449,9193.145976
163463.791926,11769.274478,-1776.494261,9806.022374
163463.792245,9770.718434,-3034.844362,7277.907231
163463.792565,2886.803174,-8142.265362,2451.505594
163463.792884,-4219.173869,-11177.109724,-3447.429741
163463.793204,-6291.750507,-17764.942608,-6818.249932
163463.793523,-8068.244768,-17542.880825,-8503.660028
163463.793843,-8068.244768,-14582.057057,-9499.584175
163463.794162,-7105.977043,-11917.315666,-7048.078582
163463.794482,-74.020594,-11251.130318,-2528.115143
163463.794801,2516.700203,-5995.668130,612.876398
163463.795121,7179.997637,-3849.070898,5362.668486
163463.795440,11177.109724,-2960.823768,9116.536426
163463.795760,10066.800811,-3627.009116,10418.898773
163463.796079,7105.977043,-3034.844362,7354.516781
163463.796399,2294.638420,-7179.997637,2451.505594
163463.796718,-2442.679609,-11843.295072,-4060.306139
163463.797038,-7772.162391,-15100.201217,-7890.783629
163463.797357,-9400.615463,-15766.386565,-10495.508323
163463.797677,-6587.832884,-17764.942608,-7660.954980
163463.797996,-7920.203579,-14952.160028,-5745.716235
163463.798316,-4441.235652,-10436.903782,-3064.381992
163463.798635,1776.494261,-6735.874072,76.609550
163463.798955,7105.977043,-3775.050304,6741.640382
163463.799274,11103.089130,-1850.514855,6128.763984
163463.799594,10066.800811,-1554.432478,9806.022374
163463.799913,8660.409521,-3775.050304,7890.783629
163463.800233,1702.473667,-9474.636058,2068.457845
163463.800552,-2442.679609,-13027.624579,-2528.115143
163463.800872,-7698.141797,-15470.304188,-7354.516781
163463.801191,-9030.512492,-17246.798449,-7737.564530
163463.801511,-8364.327145,-16802.674883,-7431.126331
163463.801831,-7994.224174,-13989.892304,-3677.258390
163463.802150,-4811.338623,-9918.759623,-3064.381992
163463.802470,2294.638420,-6809.894666,-76.609550
163463.802789,5921.647536,-2442.679609,4826.401637
163463.803109,7105.977043,-74.020594,7660.954980
163463.803428,10066.800811,-4071.132681,10648.727422
163463.803748,3849.070898,-3627.009116,5515.887586
163463.804067,-814.226536,-8142.265362,-306.438199
163463.804387,-4959.379811,-11991.336260,-4749.792088
163463.804706,-7698.141797,-17098.757260,-5898.935335
163463.805026,-8660.409521,-15470.304188,-8503.660028
163463.805346,-7031.956449,-16284.530724,-5822.325785
163463.805665,-6439.791695,-12805.562797,-3294.210641
163463.805985,-3256.906145,-8734.430116,-2298.286494
163463.806304,666.185348,-5921.647536,383.047749
163463.806624,6883.915261,-5921.647536,6052.154434
163463.806943,8808.450710,-4737.318029,8503.660028
163463.807263,7031.956449,-3478.967927,5898.935335
163463.807582,2664.741391,-4219.173869,3677.258390
163463.807902,-1184.329507,-7994.224174,0.000000
163463.808221,-5995.668130,-9844.739029,-6435.202183
163463.808541,-5403.503377,-15396.283594,-4749.792088
163463.808860,-6513.812290,-15618.345376,-5669.106685
163463.809180,-6217.729913,-15840.407159,-5056.230287
163463.809500,-3627.009116,-14211.954086,-2681.334243
163463.809819,-1406.391290,-9918.759623,-1915.238745
163463.810139,1776.494261,-6291.750507,2451.505594
163463.810458,7254.018232,-3627.009116,4903.011187
163463.810778,10066.800811,-4737.318029,9116.536426
163463.811097,7105.977043,-2442.679609,7354.516781
163463.811417,4071.132681,-3849.070898,2834.553343
163463.811736,-74.020594,-8364.327145,-1149.143247
163463.812056,-3108.864956,-12435.459826,-3370.820191
163463.812375,-4811.338623,-16062.468941,-4673.182538
163463.812695,-5995.668130,-14656.077652,-5898.935335
163463.813015,-6883.915261,-14582.057057,-5056.230287
163463.813334,-5477.523971,-11917.315666,-4903.011187
163463.813654,-1776.494261,-8660.409521,-1225.752797
163463.813973,2294.638420,-6661.853478,2374.896044
163463.814293,2960.823768,-2442.679609,3677.258390
163463.814612,6957.935855,-3404.947333,4749.792088
163463.814932,6513.812290,-4293.194464,4903.011187
163463.815251,2960.823768,-5477.523971,1762.019645
163463.815571,-1628.453072,-8364.327145,-4060.306139
163463.815890,-3034.844362,-13175.665768,-5592.497135
163463.816210,-4071.132681,-15840.407159,-4979.620737
163463.816529,-5921.647536,-14285.974681,-4903.011187
163463.816849,-4589.276840,-14582.057057,-3064.381992
163463.817169,-1554.432478,-13619.789333,-76.609550
163463.817488,0.000000,-7179.997637,306.438199
163463.817808,4589.276840,-5181.441594,3677.258390
163463.818127,5995.668130,-2812.782580,5515.887586
163463.818447,7031.956449,-3034.844362,6128.763984
163463.818766,5551.544565,-2072.576638,4213.525239
163463.819086,2886.803174,-7105.977043,2068.457845
163463.819405,-2442.679609,-10066.800811,-4060.306139
163463.819725,-6661.853478,-13101.645173,-6128.763984
163463.820044,-8882.471304,-15470.304188,-7048.078582
163463.820364,-6513.812290,-17764.942608,-3140.991542
163463.820684,-10362.883188,-13989.892304,-4903.011187
163463.821003,-7476.080014,-11843.295072,-2528.115143
163463.821323,-3627.009116,-7920.203579,-383.047749
163463.821642,0.000000,-5107.421000,3677.258390
163463.821962,1702.473667,-2664.741391,5669.106685
163463.822281,4145.153275,-3108.864956,7890.783629
163463.822601,1406.391290,-2368.659014,5745.716235
163463.822920,-3330.926739,-3256.906145,0.000000
163463.823240,-8290.306550,-8364.327145,-4749.792088
163463.823559,-8882.471304,-15396.283594,-3753.867940
163463.823879,-11251.130318,-16654.633695,-7201.297681
163463.824198,-11547.212695,-17394.839637,-5362.668486
163463.824518,-10881.027347,-15766.386565,-4060.306139
163463.824838,-9474.636058,-10881.027347,-2451.505594
163463.825157,-8290.306550,-5995.668130,0.000000
163463.825477,-2072.576638,-4367.215058,2451.505594
163463.825796,1184.329507,-3478.967927,7507.735880
163463.826116,2294.638420,-2368.659014,7277.907231
163463.826435,1702.473667,-3552.988522,5745.716235
163463.826755,296.082377,-6957.935855,4213.525239
163463.827074,-4959.379811,-9104.533087,0.000000
163463.827394,-8808.450710,-11103.089130,-3753.867940
163463.827713,-12139.377449,-14285.974681,-7048.078582
163463.828033,-15396.283594,-14285.974681,-9499.584175
163463.828353,-13545.768739,-15396.283594,-6818.249932
163463.828672,-11843.295072,-12509.480420,-3677.258390
163463.828992,-6957.935855,-9548.656652,0.000000
163463.829311,-1184.329507,-5995.668130,4903.011187
163463.829631,2294.638420,-1776.494261,4213.525239
163463.829950,1480.411884,-888.247130,4903.011187
163463.830270,0.000000,-3849.070898,2757.943793
163463.830589,-74.020594,-7550.100608,1915.238745
163463.830909,-2368.659014,-9548.656652,-76.609550
163463.831228,-6143.709319,-11325.150913,-2221.676944
163463.831548,-5107.421000,-15100.201217,-4979.620737
163463.831867,-5551.544565,-15396.283594,-5592.497135
163463.832187,-6513.812290,-12509.480420,-4290.134789
163463.832507,-2590.720797,-11621.233289,-2298.286494
163463.832826,-1850.514855,-8290.306550,-2528.115143
163463.833146,-1480.411884,-7105.977043,-459.657299
163463.833465,2294.638420,-6587.832884,2068.457845
163463.833785,3923.091493,-6365.771101,5822.325785
163463.834104,3478.967927,-6883.915261,8503.660028
163463.834424,592.164754,-5995.668130,3830.477490
163463.834743,-74.020594,-8586.388927,1149.143247
163463.835063,-666.185348,-10658.965565,-689.485948
163463.835382,-2960.823768,-11917.315666,0.000000
163463.835702,-4737.318029,-9548.656652,-3677.258390
163463.836021,-4811.338623,-8290.306550,-4979.620737
163463.836341,-6069.688724,-8216.285956,-7354.516781
163463.836661,-4515.256246,-10881.027347,-6205.373534
163463.836980,-2442.679609,-11621.233289,-2757.943793
163463.837300,-888.247130,-13027.624579,4749.792088
163463.837619,-2146.597232,-8512.368333,2451.505594
163463.837939,-888.247130,-8364.327145,2451.505594
163463.838258,-74.020594,-7698.141797,1149.143247
163463.838578,888.247130,-7105.977043,2987.772442
163463.838897,4663.297435,-9474.636058,4826.401637
163463.839217,0.000000,-8734.430116,3370.820191
163463.839536,-3627.009116,-8216.285956,-459.657299
163463.839856,-5625.565159,-8586.388927,-3677.258390
163463.840176,-4219.173869,-9252.574275,-4596.572988
163463.840495,-6513.812290,-10955.047942,-5898.935335
163463.840815,-4811.338623,-13027.624579,-4979.620737
163463.841134,-5625.565159,-13101.645173,-2451.505594
163463.841454,-7105.977043,-11917.315666,0.000000
163463.841773,-2738.761985,-13027.624579,4826.401637
163463.842093,-2960.823768,-9104.533087,3983.696590
163463.842412,-2664.741391,-5625.565159,2068.457845
163463.842732,-1998.556043,-4515.256246,1915.238745
163463.843051,-2220.617826,-5625.565159,2757.943793
163463.843371,-4737.318029,-5107.421000,0.000000
163463.843690,-3627.009116,-10066.800811,842.705048
163463.844010,-7105.977043,-10881.027347,-2145.067394
163463.844330,-9548.656652,-11103.089130,-4673.182538
163463.844649,-10362.883188,-11473.192101,-5132.839837
163463.844969,-7476.080014,-11843.295072,-3753.867940
163463.845288,-5699.585753,-10658.965565,-2528.115143
163463.845608,-5033.400406,-7179.997637,-3064.381992
163463.845927,-3552.988522,-7772.162391,-1608.800546
163463.846247,-3775.050304,-9992.780217,1149.143247
163463.846566,-7994.224174,-7179.997637,0.000000
163463.846886,-4811.338623,-12435.459826,1455.581446
163463.847205,-3627.009116,-11917.315666,3907.087040
163463.847525,-740.205942,-9400.615463,5056.230287
163463.847845,2294.638420,-7105.977043,5286.058936
163463.848164,2294.638420,-4441.235652,2911.162892
163463.848484,1110.308913,-5181.441594,1149.143247
163463.848803,-2442.679609,-5329.482782,-2528.115143
163463.849123,-4811.338623,-9474.636058,-4979.620737
163463.849442,-8660.409521,-11843.295072,-6358.592633
163463.849762,-8290.306550,-14285.974681,-3983.696590
163463.850081,-5625.565159,-13471.748144,-3447.429741
163463.850401,-3330.926739,-11769.274478,-536.266849
163463.850720,-1332.370696,-10214.842000,1225.752797
163463.851040,370.102971,-8438.347739,2604.724693
163463.851359,1332.370696,-7476.080014,3677.258390
163463.851679,2294.638420,-7698.141797,3907.087040
163463.851999,0.000000,-7105.977043,2374.896044
163463.852318,-2960.823768,-6587.832884,0.000000
163463.852638,-1258.350101,-10658.965565,-76.609550
163463.852957,-5625.565159,-9844.739029,-2451.505594
163463.853277,-4959.379811,-11547.212695,-3677.258390
163463.853596,-3923.091493,-11399.171507,-3217.601092
163463.853916,-3108.864956,-10955.047942,-1991.848295
163463.854235,-2960.823768,-9548.656652,0.000000
163463.854555,-1036.288319,-9548.656652,612.876398
163463.854874,1184.329507,-8956.491898,3677.258390
163463.855194,3478.967927,-9474.636058,4213.525239
163463.855514,2294.638420,-7920.203579,4826.401637
163463.855833,4071.132681,-9474.636058,4826.401637
163463.856153,2368.659014,-8068.244768,3677.258390
163463.856472,2738.761985,-8142.265362,3217.601092
163463.856792,2294.638420,-9252.574275,2451.505594
163463.857111,1776.494261,-10436.903782,2757.943793
163463.857431,0.000000,-10732.986159,1225.752797
163463.857750,-3552.988522,-10140.821405,0.000000
163463.858070,-2812.782580,-11621.233289,1685.410096
163463.858389,-666.185348,-10658.965565,3064.381992
163463.858709,1110.308913,-7105.977043,3294.210641
163463.859028,4071.132681,-8882.471304,7277.907231
163463.859348,2146.597232,-7105.977043,7201.297681
163463.859668,1480.411884,-7179.997637,6588.421283
163463.859987,-666.185348,-7550.100608,5439.278036
163463.860307,-4737.318029,-7772.162391,2757.943793
163463.860626,-3034.844362,-10955.047942,2681.334243
163463.860946,-3552.988522,-12509.480420,3064.381992
163463.861265,-666.185348,-13027.624579,6665.030833
163463.861585,-74.020594,-11547.212695,4826.401637
163463.861904,-74.020594,-5921.647536,3600.648841
163463.862224,1184.329507,-6587.832884,4519.963438
163463.862543,1258.350101,-5773.606348,4060.306139
163463.862863,1036.288319,-6883.915261,3907.087040
163463.863183,1258.350101,-9474.636058,5822.325785
163463.863502,1110.308913,-13101.645173,7277.907231
163463.863822,1406.391290,-14211.954086,8503.660028
163463.864141,0.000000,-12065.356855,7277.907231
163463.864461,-2368.659014,-12213.398043,10418.898773
163463.864780,-1924.535449,-8660.409521,9806.022374
163463.865100,-1850.514855,-3256.906145,5439.278036
163463.865419,-1406.391290,-2368.659014,4903.011187
163463.865739,-370.102971,-3627.009116,3447.429741
163463.866058,-296.082377,-6513.812290,3447.429741
163463.866378,-74.020594,-11843.295072,6665.030833
163463.866697,-1110.308913,-12435.459826,5745.716235
163463.867017,-2886.803174,-13249.686362,6588.421283
163463.867337,-1258.350101,-11843.295072,4826.401637
163463.867656,-3108.864956,-9104.533087,3217.601092
163463.867976,-4145.153275,-7179.997637,2451.505594
163463.868295,1702.473667,-8882.471304,4673.182538
163463.868615,3182.885551,-10584.944971,5898.935335
163463.868934,1702.473667,-10955.047942,5592.497135
163463.869254,-2146.597232,-10362.883188,3294.210641
163463.869573,-2442.679609,-10584.944971,2221.676944
163463.869893,-4737.318029,-5995.668130,0.000000
163463.870212,-444.123565,-8808.450710,1302.362347
163463.870532,2294.638420,-8290.306550,3140.991542
163463.870852,6143.709319,-9474.636058,5286.058936
163463.871171,1184.329507,-7179.997637,0.000000
163463.871491,962.267725,-11029.068536,1072.533697
163463.871810,-2738.761985,-12065.356855,919.314598
163463.872130,-2072.576638,-11843.295072,2145.067394
163463.872449,-370.102971,-9770.718434,1455.581446
163463.872769,0.000000,-8364.327145,2068.457845
163463.873088,-1480.411884,-8068.244768,153.219100
163463.873408,592.164754,-8512.368333,842.705048
163463.873727,0.000000,-7179.997637,1225.752797
163463.874047,1554.432478,-7402.059420,2068.457845
163463.874366,-2368.659014,-5403.503377,-2451.505594
163463.874686,1554.432478,-9844.739029,-76.609550
163463.875006,3034.844362,-10066.800811,2451.505594
163463.875325,2294.638420,-9104.533087,2528.115143
163463.875645,-370.102971,-8290.306550,-1302.362347
163463.875964,-4811.338623,-10955.047942,-4673.182538
163463.876284,-6143.709319,-13915.871710,-3753.867940
163463.876603,-4737.318029,-11917.315666,0.000000
163463.876923,-888.247130,-10658.965565,2757.943793
163463.877242,296.082377,-8956.491898,3447.429741
163463.877562,0.000000,-4811.338623,-919.314598
163463.877881,1924.535449,-5477.523971,-153.219100
163463.878201,1332.370696,-6513.812290,-383.047749
163463.878520,370.102971,-8882.471304,-306.438199
163463.878840,2294.638420,-11251.130318,-76.609550
163463.879160,2294.638420,-12879.583391,3600.648841
163463.879479,-74.020594,-11251.130318,1149.143247
163463.879799,-2220.617826,-10807.006753,1302.362347
163463.880118,-1776.494261,-7772.162391,612.876398
163463.880438,-1776.494261,-5699.585753,0.000000
163463.880757,-1258.350101,-7476.080014,842.705048
163463.881077,-2072.576638,-8364.327145,153.219100
163463.881396,444.123565,-9844.739029,2221.676944
163463.881716,2294.638420,-9474.636058,3600.648841
163463.882035,370.102971,-8290.306550,2528.115143
163463.882355,-1924.535449,-7920.203579,306.438199
163463.882675,-1480.411884,-8364.327145,-1685.410096
163463.882994,-1776.494261,-10732.986159,2451.505594
163463.883314,-3108.864956,-9548.656652,76.609550
163463.883633,-666.185348,-11843.295072,2374.896044
163463.883953,-2072.576638,-10214.842000,1991.848295
163463.884272,-740.205942,-8734.430116,1302.362347
163463.884592,-888.247130,-8364.327145,2298.286494
163463.884911,0.000000,-9252.574275,6128.763984
163463.885231,0.000000,-8290.306550,5439.278036
163463.885550,2072.576638,-7550.100608,4979.620737
163463.885870,3627.009116,-8364.327145,6052.154434
163463.886189,3330.926739,-8660.409521,4903.011187
163463.886509,518.144159,-8068.244768,3677.258390
163463.886829,-74.020594,-10955.047942,2374.896044
163463.887148,-3552.988522,-12657.521608,3064.381992
163463.887468,-1850.514855,-12139.377449,3064.381992
163463.887787,-2442.679609,-11251.130318,4213.525239
163463.888107,-2368.659014,-8956.491898,4366.744339
163463.888426,-2072.576638,-6291.750507,2374.896044
163463.888746,-740.205942,-5107.421000,3217.601092
163463.889065,444.123565,-5033.400406,3217.601092
163463.889385,0.000000,-5403.503377,3983.696590
163463.889704,148.041188,-7920.203579,3983.696590
163463.890024,1998.556043,-9178.553681,2374.896044
163463.890344,592.164754,-10140.821405,1225.752797
163463.890663,-1184.329507,-12509.480420,3677.258390
163463.890983,-666.185348,-14211.954086,2374.896044
163463.891302,-3552.988522,-12361.439231,1532.190996
163463.891622,-3404.947333,-11251.130318,995.924147
163463.891941,-2294.638420,-8956.491898,-459.657299
163463.892261,-2960.823768,-6809.894666,-1838.629195
163463.892580,-2368.659014,-5995.668130,-1225.752797
163463.892900,0.000000,-5403.503377,-3370.820191
163463.893219,2072.576638,-9178.553681,-76.609550
163463.893539,2294.638420,-8882.471304,-383.047749
163463.893858,2368.659014,-9104.533087,-766.095498
163463.894178,5847.626942,-14211.954086,2374.896044
163463.894498,1480.411884,-12213.398043,1378.971896
163463.894817,-370.102971,-12657.521608,229.828649
163463.895137,-1332.370696,-11325.150913,-536.266849
163463.895456,-1480.411884,-11325.150913,1225.752797
163463.895776,-1628.453072,-9548.656652,-2451.505594
163463.896095,-4737.318029,-5995.668130,-4903.011187
163463.896415,-2072.576638,-7031.956449,-3983.696590
163463.896734,-74.020594,-6513.812290,-4290.134789
163463.897054,518.144159,-6513.812290,-6818.249932
163463.897373,3478.967927,-10362.883188,-1915.238745
163463.897693,1776.494261,-9844.739029,-2604.724693
163463.898013,2368.659014,-11621.233289,-1762.019645
163463.898332,-962.267725,-12953.603985,-2374.896044
163463.898652,-2368.659014,-13101.645173,-1838.629195
163463.898971,-1850.514855,-11843.295072,-1915.238745
163463.899291,-2220.617826,-9548.656652,-2451.505594
163463.899610,-1998.556043,-6069.688724,-6052.154434
163463.899930,-4145.153275,-4811.338623,-4903.011187
163463.900249,-1850.514855,-3182.885551,-7967.393179
163463.900569,-74.020594,-4737.318029,-6894.859482
163463.900888,666.185348,-7624.121203,-6511.811733
163463.901208,2220.617826,-10584.944971,-4136.915689
163463.901527,3330.926739,-12731.542202,-1915.238745
163463.901847,2738.761985,-15988.448347,-76.609550
163463.902167,-370.102971,-14804.118840,-383.047749
163463.902486,-666.185348,-15396.283594,1762.019645
163463.902806,-74.020594,-8882.471304,-153.219100
163463.903125,0.000000,-7476.080014,0.000000
163463.903445,-2146.597232,-4811.338623,-2681.334243
163463.903764,-1110.308913,-5329.482782,-1378.971896
163463.904084,-1776.494261,-4589.276840,-3753.867940
163463.904403,-2294.638420,-5107.421000,-5975.544884
163463.904723,-74.020594,-9474.636058,-4366.744339
163463.905042,2294.638420,-10955.047942,-2528.115143
163463.905362,2960.823768,-12805.562797,-76.609550
163463.905682,2368.659014,-13693.809927,1838.629195
163463.906001,-296.082377,-14878.139434,1225.752797
163463.906321,-2294.638420,-13101.645173,4136.915689
163463.906640,-592.164754,-9918.759623,3217.601092
163463.906960,-1924.535449,-7105.977043,1149.143247
163463.907279,-2072.576638,-5921.647536,0.000000
163463.907599,-666.185348,-5033.400406,229.828649
163463.907918,-74.020594,-4145.153275,-1302.362347
163463.908238,518.144159,-7179.997637,-766.095498
163463.908557,-74.020594,-10066.800811,-1378.971896
163463.908877,1406.391290,-9474.636058,-1302.362347
163463.909197,3478.967927,-13027.624579,-383.047749
163463.909516,2368.659014,-15396.283594,5439.278036
163463.909836,-1332.370696,-15470.304188,2911.162892
163463.910155,-444.123565,-12065.356855,5439.278036
163463.910475,74.020594,-8512.368333,5439.278036
163463.910794,518.144159,-7328.038826,4903.011187
163463.911114,-666.185348,-5181.441594,1838.629195
163463.911433,-1480.411884,-4811.338623,3600.648841
163463.911753,-1258.350101,-3849.070898,-76.609550
163463.912073,-74.020594,-6513.812290,-2528.115143
163463.912392,-74.020594,-8290.306550,-1302.362347
163463.912712,2960.823768,-12361.439231,1991.848295
163463.913031,222.061783,-13175.665768,0.000000
163463.913351,518.144159,-15618.345376,2451.505594
163463.913670,-1850.514855,-14804.118840,3064.381992
163463.913990,-2368.659014,-10732.986159,4903.011187
163463.914309,-1480.411884,-7328.038826,4443.353888
163463.914629,0.000000,-5995.668130,2681.334243
163463.914948,-2960.823768,-4811.338623,3064.381992
163463.915268,-1258.350101,-4737.318029,2374.896044
163463.915588,-74.020594,-5921.647536,-689.485948
163463.915907,-888.247130,-6291.750507,-1608.800546
163463.916227,-740.205942,-9252.574275,-2221.676944
163463.916546,592.164754,-10436.903782,-689.485948
163463.916866,1554.432478,-12065.356855,-536.266849
163463.917185,0.000000,-13101.645173,1225.752797
163463.917505,592.164754,-12435.459826,1608.800546
163463.917824,-2368.659014,-12509.480420,5209.449386
163463.918144,-74.020594,-10658.965565,4826.401637
163463.918463,518.144159,-7105.977043,3600.648841
163463.918783,-1184.329507,-7476.080014,5056.230287
163463.919103,-3108.864956,-3849.070898,459.657299
163463.919422,-2294.638420,-4515.256246,-2145.067394
163463.919742,-592.164754,-6513.812290,-2451.505594
163463.920061,0.000000,-7179.997637,-4290.134789
163463.920381,296.082377,-9104.533087,-2298.286494
163463.920700,0.000000,-14285.974681,-1225.752797
163463.921020,2886.803174,-15988.448347,919.314598
163463.921339,2294.638420,-14063.912898,-76.609550
163463.921659,-2664.741391,-11917.315666,2451.505594
163463.921979,-3552.988522,-8660.409521,0.000000
163463.922298,-518.144159,-8586.388927,-612.876398
163463.922618,-3330.926739,-7772.162391,-1072.533697
163463.922937,-4737.318029,-4367.215058,-3294.210641
163463.923257,-666.185348,-5921.647536,-4979.620737
163463.923576,1184.329507,-5699.585753,-4366.744339
163463.923896,2220.617826,-8216.285956,-4213.525239
163463.924215,1480.411884,-9992.780217,-3140.991542
163463.924535,2146.597232,-14582.057057,-1302.362347
163463.924854,4145.153275,-15618.345376,2451.505594
163463.925174,0.000000,-10732.986159,0.000000
163463.925494,-74.020594,-13619.789333,2374.896044
163463.925813,-1258.350101,-9474.636058,-995.924147
163463.926133,296.082377,-7772.162391,-2451.505594
163463.926452,-74.020594,-7105.977043,-1302.362347
163463.926772,-4293.194464,-4293.194464,-3294.210641
163463.927091,-3478.967927,-6439.791695,-4596.572988
163463.927411,74.020594,-5625.565159,-4213.525239
163463.927730,2368.659014,-7846.182985,-3677.258390
163463.928050,148.041188,-8956.491898,-3064.381992
163463.928369,1184.329507,-14285.974681,-2145.067394
163463.928689,3552.988522,-13101.645173,0.000000
163463.929009,0.000000,-12213.398043,766.095498
163463.929328,-1998.556043,-10732.986159,0.000000
163463.929648,-222.061783,-11547.212695,-153.219100
163463.929967,-2220.617826,-9770.718434,-1378.971896
163463.930287,-5477.523971,-6883.915261,-2834.553343
163463.930606,-5033.400406,-4589.276840,-4443.353888
163463.930926,-1924.535449,-7105.977043,-2528.115143
163463.931245,1480.411884,-4811.338623,-2451.505594
163463.931565,1924.535449,-4811.338623,-2681.334243
163463.931885,0.000000,-8364.327145,-1838.629195
163463.932204,4959.379811,-15322.262999,919.314598
163463.932524,3849.070898,-10732.986159,0.000000
163463.932843,1406.391290,-12287.418637,3294.210641
163463.933163,-1998.556043,-11325.150913,1608.800546
163463.933482,-888.247130,-9844.739029,-536.266849
163463.933802,-74.020594,-9474.636058,1149.143247
163463.934121,-1850.514855,-8882.471304,-76.609550
163463.934441,-4737.318029,-7920.203579,-459.657299
163463.934760,-2738.761985,-8882.471304,-1608.800546
163463.935080,-296.082377,-5921.647536,-1302.362347
163463.935400,0.000000,-4811.338623,0.000000
163463.935719,-1480.411884,-6883.915261,-1225.752797
163463.936039,4441.235652,-11843.295072,2221.676944
163463.936358,6365.771101,-11695.253884,4749.792088
163463.936678,444.123565,-10140.821405,4136.915689
163463.936997,-74.020594,-13323.706956,3294.210641
163463.937317,-3849.070898,-9548.656652,612.876398
163463.937636,-1702.473667,-10955.047942,-76.609550
163463.937956,-5107.421000,-8586.388927,-383.047749
163463.938275,-4811.338623,-9474.636058,-2528.115143
163463.938595,-4737.318029,-5995.668130,0.000000
163463.938915,2146.597232,-5107.421000,-612.876398
163463.939234,2442.679609,-5773.606348,-153.219100
163463.939554,3849.070898,-9326.594869,1378.971896
163463.939873,4293.194464,-12435.459826,3983.696590
163463.940193,8364.327145,-10140.821405,5209.449386
163463.940512,2960.823768,-8956.491898,5209.449386
163463.940832,-1258.350101,-11325.150913,1532.190996
163463.941151,-3404.947333,-9548.656652,1838.629195
163463.941471,-1480.411884,-9770.718434,536.266849
163463.941791,-6809.894666,-9548.656652,0.000000
163463.942110,-7698.141797,-8068.244768,-3753.867940
163463.942430,-4959.379811,-7105.977043,-1838.629195
163463.942749,222.061783,-5477.523971,-536.266849
163463.943069,814.226536,-3034.844362,-2298.286494
163463.943388,1110.308913,-6809.894666,76.609550
163463.943708,3478.967927,-11843.295072,4213.525239
163463.944027,5033.400406,-9548.656652,3677.258390
163463.944347,2960.823768,-10140.821405,5822.325785
163463.944666,-148.041188,-14211.954086,3600.648841
163463.944986,-4737.318029,-11325.150913,612.876398
163463.945306,-4811.338623,-10214.842000,-2528.115143
163463.945625,-6809.894666,-10732.986159,-4136.915689
163463.945945,-8364.327145,-8586.388927,-5056.230287
163463.946264,-4515.256246,-5625.565159,-4060.306139
163463.946584,3478.967927,-7698.141797,-76.609550
163463.946903,4663.297435,-5921.647536,-1302.362347
163463.947223,2886.803174,-8882.471304,1685.410096
163463.947542,3330.926739,-8660.409521,2221.676944
163463.947862,9104.533087,-11843.295072,6665.030833
163463.948181,5551.544565,-9918.759623,3983.696590
163463.948501,-296.082377,-12213.398043,1608.800546
163463.948821,-2294.638420,-12287.418637,153.219100
163463.949140,-4145.153275,-11621.233289,-2451.505594
163463.949460,-5551.544565,-11251.130318,-4596.572988
163463.949779,-8290.306550,-9696.697840,-5439.278036
163463.950099,-3627.009116,-7105.977043,-3983.696590
163463.950418,4663.297435,-7105.977043,-76.609550
163463.950738,4367.215058,-4737.318029,-1302.362347
163463.951057,6439.791695,-8882.471304,2987.772442
163463.951377,4885.359217,-9252.574275,2987.772442
163463.951697,6217.729913,-9326.594869,3753.867940
163463.952016,3552.988522,-10288.862594,2374.896044
163463.952336,-4737.318029,-10732.986159,0.000000
163463.952655,-7105.977043,-11917.315666,-2145.067394
163463.952975,-5625.565159,-10732.986159,-7354.516781
163463.953294,-7105.977043,-11029.068536,-6741.640382
163463.953614,-7179.997637,-9918.759623,-6511.811733
163463.953933,-1258.350101,-6809.894666,-4979.620737
163463.954253,2960.823768,-6513.812290,-1762.019645
163463.954572,3108.864956,-6069.688724,-2451.505594
163463.954892,4885.359217,-8660.409521,842.705048
163463.955212,6957.935855,-8660.409521,2374.896044
163463.955531,7105.977043,-8364.327145,4903.011187
163463.955851,3701.029710,-10658.965565,1149.143247
163463.956170,-3552.988522,-14285.974681,612.876398
163463.956490,-3627.009116,-15248.242405,-1149.143247
163463.956809,-4515.256246,-13101.645173,-2604.724693
163463.957129,-6809.894666,-13027.624579,-3140.991542
163463.957448,-7698.141797,-7179.997637,-5209.449386
163463.957768,-962.267725,-4441.235652,-2451.505594
163463.958087,2294.638420,-2960.823768,-689.485948
163463.958407,2368.659014,-4219.173869,0.000000
163463.958727,5625.565159,-5699.585753,2604.724693
163463.959046,6809.894666,-10362.883188,5745.716235
163463.959366,5847.626942,-10362.883188,6052.154434
163463.959685,0.000000,-8660.409521,612.876398
163463.960005,-4737.318029,-13101.645173,1532.190996
163463.960324,-7105.977043,-10732.986159,-3064.381992
163463.960644,-5403.503377,-10510.924376,-4979.620737
163463.960963,-7476.080014,-12065.356855,-5286.058936
163463.961283,-7105.977043,-10362.883188,-3524.039291
163463.961603,-74.020594,-7105.977043,-2834.553343
163463.961922,2368.659014,-5107.421000,229.828649
163463.962242,3627.009116,-5329.482782,766.095498
163463.962561,4737.318029,-7476.080014,3600.648841
163463.962881,7550.100608,-7031.956449,5439.278036
163463.963200,8882.471304,-11917.315666,7967.393179
163463.963520,2368.659014,-11325.150913,3983.696590
163463.963839,-2442.679609,-15692.365970,2068.457845
163463.964159,-5995.668130,-14508.036463,-383.047749
163463.964478,-8364.327145,-11917.315666,-5515.887586
163463.964798,-5995.668130,-11251.130318,-6205.373534
163463.965118,-6957.935855,-7846.182985,-3064.381992
163463.965437,-814.226536,-3923.091493,-1532.190996
163463.965757,2960.823768,-4219.173869,536.266849
163463.966076,5033.400406,-6735.874072,2451.505594
163463.966396,6143.709319,-7994.224174,4826.401637
163463.966715,2960.823768,-9548.656652,3983.696590
163463.967035,5551.544565,-11843.295072,5975.544884
