#time,accel_x,accel_y,accel_z
163324.053693,1702.473667,-10658.965565,1149.143247
163324.054012,-74.020594,-9474.636058,-229.828649
163324.054330,-814.226536,-8364.327145,0.000000
163324.054649,-74.020594,-7994.224174,-229.828649
163324.054968,-666.185348,-9548.656652,0.000000
163324.055287,-296.082377,-9918.759623,0.000000
163324.055606,-962.267725,-9400.615463,76.609550
163324.055924,-74.020594,-9474.636058,1225.752797
163324.056243,-222.061783,-9474.636058,-383.047749
163324.056562,-1480.411884,-9548.656652,0.000000
163324.056881,-444.123565,-9474.636058,-229.828649
163324.057199,-2960.823768,-7476.080014,-1991.848295
163324.057518,-2368.659014,-7772.162391,0.000000
163324.057837,-666.185348,-8882.471304,-1455.581446
163324.058156,-888.247130,-9252.574275,-842.705048
163324.058475,-592.164754,-9326.594869,-612.876398
163324.058793,0.000000,-9548.656652,-842.705048
163324.059112,518.144159,-9400.615463,-689.485948
163324.059431,-222.061783,-9474.636058,-536.266849
163324.059750,0.000000,-7179.997637,-2451.505594
163324.060068,296.082377,-10436.903782,919.314598
163324.060387,-74.020594,-9326.594869,-229.828649
163324.060706,0.000000,-9548.656652,1838.629195
163324.061025,-148.041188,-8586.388927,0.000000
163324.061344,0.000000,-9252.574275,0.000000
163324.061662,148.041188,-9104.533087,0.000000
163324.061981,0.000000,-8808.450710,0.000000
163324.062300,-666.185348,-7328.038826,-1838.629195
163324.062619,-74.020594,-9474.636058,-76.609550
163324.062937,-2368.659014,-8364.327145,-1838.629195
163324.063256,-1184.329507,-9400.615463,0.000000
163324.063575,-74.020594,-9474.636058,-76.609550
163324.063894,0.000000,-10288.862594,919.314598
163324.064213,-740.205942,-9326.594869,-612.876398
163324.064531,-814.226536,-9696.697840,-153.219100
163324.064850,-888.247130,-9548.656652,-995.924147
163324.065169,-3552.988522,-8364.327145,-2145.067394
163324.065488,-1258.350101,-10658.965565,-76.609550
163324.065806,-2368.659014,-7846.182985,-2068.457845
163324.066125,-74.020594,-10658.965565,-76.609550
163324.066444,-296.082377,-9474.636058,-689.485948
163324.066763,1702.473667,-9474.636058,-76.609550
163324.067082,518.144159,-10510.924376,536.266849
163324.067400,0.000000,-9104.533087,-306.438199
163324.067719,0.000000,-9178.553681,0.000000
163324.068038,444.123565,-9400.615463,229.828649
163324.068357,-1702.473667,-8956.491898,-229.828649
163324.068675,-74.020594,-9918.759623,689.485948
163324.068994,-370.102971,-8438.347739,-76.609550
163324.069313,-74.020594,-7994.224174,-995.924147
163324.069632,0.000000,-8956.491898,153.219100
163324.069951,-74.020594,-8142.265362,-2221.676944
163324.070269,-370.102971,-8808.450710,689.485948
163324.070588,-666.185348,-9030.512492,0.000000
163324.070907,-518.144159,-9178.553681,0.000000
163324.071226,-666.185348,-11251.130318,-76.609550
163324.071544,-74.020594,-11843.295072,1762.019645
163324.071863,-370.102971,-10066.800811,-76.609550
163324.072182,-4145.153275,-7179.997637,-2451.505594
163324.072501,-148.041188,-10584.944971,-229.828649
163324.072820,0.000000,-8660.409521,306.438199
163324.073138,-2146.597232,-7772.162391,-2145.067394
163324.073457,-592.164754,-9918.759623,-306.438199
163324.073776,-740.205942,-9548.656652,-919.314598
163324.074095,0.000000,-8882.471304,-306.438199
163324.074413,1702.473667,-9474.636058,-1302.362347
163324.074732,1110.308913,-10362.883188,0.000000
163324.075051,2220.617826,-11251.130318,-76.609550
163324.075370,-74.020594,-8586.388927,-459.657299
163324.075689,0.000000,-7254.018232,-1915.238745
163324.076007,592.164754,-9548.656652,2451.505594
163324.076326,0.000000,-8142.265362,919.314598
163324.076645,444.123565,-8290.306550,689.485948
163324.076964,1406.391290,-8808.450710,459.657299
163324.077282,1776.494261,-8660.409521,306.438199
163324.077601,3182.885551,-9474.636058,-76.609550
163324.077920,0.000000,-7476.080014,0.000000
163324.078239,1628.453072,-9548.656652,536.266849
163324.078558,4663.297435,-11843.295072,2374.896044
163324.078876,3478.967927,-9474.636058,-383.047749
163324.079195,3256.906145,-10436.903782,2451.505594
163324.079514,3478.967927,-9178.553681,76.609550
163324.079833,4441.235652,-9400.615463,76.609550
163324.080151,4515.256246,-8808.450710,0.000000
163324.080470,3552.988522,-7179.997637,0.000000
163324.080789,3849.070898,-8364.327145,0.000000
163324.081108,4885.359217,-10288.862594,0.000000
163324.081427,4663.297435,-11843.295072,-76.609550
163324.081745,2368.659014,-7772.162391,-2451.505594
163324.082064,5551.544565,-8660.409521,-2145.067394
163324.082383,8216.285956,-10658.965565,-76.609550
163324.082702,6661.853478,-8660.409521,-612.876398
163324.083020,7920.203579,-8808.450710,-76.609550
163324.083339,7772.162391,-9474.636058,0.000000
163324.083658,7920.203579,-11251.130318,995.924147
163324.083977,6439.791695,-12583.501014,-76.609550
163324.084296,4145.153275,-13101.645173,1685.410096
163324.084614,2886.803174,-12139.377449,-76.609550
163324.084933,2664.741391,-10732.986159,1225.752797
163324.085252,2368.659014,-7179.997637,1225.752797
163324.085571,4145.153275,-5551.544565,1225.752797
163324.085889,4959.379811,-4515.256246,383.047749
163324.086208,4737.318029,-4441.235652,-612.876398
163324.086527,4663.297435,-5403.503377,-1455.581446
163324.086846,5847.626942,-7698.141797,-689.485948
163324.087165,2368.659014,-9548.656652,-2451.505594
163324.087483,4071.132681,-14211.954086,-1915.238745
163324.087802,1406.391290,-15396.283594,-689.485948
163324.088121,2294.638420,-15100.201217,306.438199
163324.088440,0.000000,-11325.150913,153.219100
163324.088758,2590.720797,-10066.800811,2068.457845
163324.089077,814.226536,-5847.626942,-536.266849
163324.089396,518.144159,-4071.132681,-1685.410096
163324.089715,2294.638420,-5921.647536,-1302.362347
163324.090034,1628.453072,-7402.059420,-1072.533697
163324.090352,0.000000,-7476.080014,0.000000
163324.090671,-2294.638420,-7772.162391,-2451.505594
163324.090990,-4737.318029,-9844.739029,0.000000
163324.091309,-3849.070898,-8364.327145,-2451.505594
163324.091627,-1258.350101,-10362.883188,-689.485948
163324.091946,-2368.659014,-10140.821405,-459.657299
163324.092265,-2368.659014,-11621.233289,536.266849
163324.092584,-2072.576638,-12065.356855,1915.238745
163324.092903,-74.020594,-12731.542202,4826.401637
163324.093221,-2886.803174,-6143.709319,153.219100
163324.093540,-4219.173869,-4515.256246,-2221.676944
163324.093859,-3775.050304,-5551.544565,-3294.210641
163324.094178,-3034.844362,-7624.121203,-1838.629195
163324.094496,-3552.988522,-9548.656652,0.000000
163324.094815,-3034.844362,-12731.542202,-383.047749
163324.095134,-7105.977043,-12509.480420,0.000000
163324.095453,-7476.080014,-12509.480420,0.000000
163324.095772,-7105.977043,-8364.327145,-2834.553343
163324.096090,-2442.679609,-9474.636058,-1302.362347
163324.096409,-3552.988522,-7179.997637,306.438199
163324.096728,-1258.350101,-7920.203579,2681.334243
163324.097047,444.123565,-8364.327145,3524.039291
163324.097365,0.000000,-7031.956449,2451.505594
163324.097684,-1406.391290,-6217.729913,-1455.581446
163324.098003,-4219.173869,-6365.771101,-3907.087040
163324.098322,-3330.926739,-8290.306550,-3753.867940
163324.098641,-1998.556043,-9548.656652,-3677.258390
163324.098959,518.144159,-11917.315666,-3677.258390
163324.099278,1110.308913,-15396.283594,-76.609550
163324.099597,-1702.473667,-14730.098246,1072.533697
163324.099916,-370.102971,-12213.398043,1991.848295
163324.100234,814.226536,-8290.306550,2451.505594
163324.100553,1850.514855,-5921.647536,3600.648841
163324.100872,2664.741391,-4663.297435,2911.162892
163324.101191,4071.132681,-4737.318029,2987.772442
163324.101509,4737.318029,-6587.832884,4903.011187
163324.101828,4589.276840,-8142.265362,2911.162892
163324.102147,-3552.988522,-5403.503377,-2451.505594
163324.102466,-4367.215058,-8882.471304,-5286.058936
163324.102785,-3330.926739,-9548.656652,-5822.325785
163324.103103,444.123565,-11621.233289,-4673.182538
163324.103422,2960.823768,-11325.150913,-3140.991542
163324.103741,3478.967927,-13915.871710,-2528.115143
163324.104060,1554.432478,-14211.954086,-76.609550
163324.104378,2294.638420,-12731.542202,1149.143247
163324.104697,2368.659014,-9844.739029,2451.505594
163324.105016,4663.297435,-9178.553681,3294.210641
163324.105335,1184.329507,-4811.338623,0.000000
163324.105654,4071.132681,-6587.832884,1072.533697
163324.105972,5699.585753,-8364.327145,1532.190996
163324.106291,4367.215058,-9252.574275,1608.800546
163324.106610,74.020594,-8290.306550,-2528.115143
163324.106929,-3552.988522,-8956.491898,-3677.258390
163324.107247,-1924.535449,-10658.965565,-3753.867940
163324.107566,-1258.350101,-9474.636058,-1915.238745
163324.107885,2294.638420,-11251.130318,-2528.115143
163324.108204,1702.473667,-13915.871710,-76.609550
163324.108523,0.000000,-12805.562797,2451.505594
163324.108841,962.267725,-11399.171507,3677.258390
163324.109160,888.247130,-8734.430116,2987.772442
163324.109479,-296.082377,-4811.338623,842.705048
163324.109798,-888.247130,-3478.967927,-536.266849
163324.110116,444.123565,-6661.853478,919.314598
163324.110435,2294.638420,-9104.533087,2374.896044
163324.110754,-666.185348,-9030.512492,0.000000
163324.111073,-5329.482782,-9844.739029,-1532.190996
163324.111392,-5403.503377,-10066.800811,-2528.115143
163324.111710,-7846.182985,-8956.491898,-4749.792088
163324.112029,-4737.318029,-9178.553681,-3447.429741
163324.112348,-2368.659014,-9178.553681,-1532.190996
163324.112667,-518.144159,-10732.986159,2145.067394
163324.112985,-1554.432478,-11325.150913,3677.258390
163324.113304,-814.226536,-9992.780217,2451.505594
163324.113623,-74.020594,-9474.636058,2374.896044
163324.113942,-2886.803174,-5699.585753,-1302.362347
163324.114261,-4737.318029,-4811.338623,-4290.134789
163324.114579,1110.308913,-9474.636058,-1302.362347
163324.114898,2294.638420,-11251.130318,76.609550
163324.115217,1776.494261,-12509.480420,842.705048
163324.115536,-1776.494261,-12657.521608,0.000000
163324.115854,-1850.514855,-13841.851115,-76.609550
163324.116173,-2590.720797,-8364.327145,-3677.258390
163324.116492,-2368.659014,-6883.915261,0.000000
163324.116811,1110.308913,-7994.224174,1455.581446
163324.117130,2294.638420,-10658.965565,3600.648841
163324.117448,0.000000,-7179.997637,2451.505594
163324.117767,2294.638420,-9104.533087,3294.210641
163324.118086,0.000000,-7920.203579,1838.629195
163324.118405,-2516.700203,-6217.729913,-1072.533697
163324.118723,-2738.761985,-5847.626942,-2911.162892
163324.119042,1332.370696,-9252.574275,-2145.067394
163324.119361,0.000000,-9548.656652,-2145.067394
163324.119680,1924.535449,-12805.562797,-766.095498
163324.119999,-1184.329507,-12213.398043,0.000000
163324.120317,-1554.432478,-12657.521608,-1302.362347
163324.120636,-2368.659014,-9548.656652,0.000000
163324.120955,666.185348,-8290.306550,-1762.019645
163324.121274,2516.700203,-7402.059420,-536.266849
163324.121593,3701.029710,-8290.306550,1685.410096
163324.121912,2368.659014,-8660.409521,995.924147
163324.122231,2886.803174,-10214.842000,3064.381992
163324.122550,0.000000,-8364.327145,1838.629195
163324.122869,-2368.659014,-5403.503377,0.000000
163324.123188,296.082377,-7105.977043,-842.705048
163324.123507,3478.967927,-9474.636058,-689.485948
163324.123826,1776.494261,-9252.574275,-1532.190996
163324.124145,888.247130,-11103.089130,-1378.971896
163324.124464,-1480.411884,-13101.645173,-1915.238745
163324.124783,-2738.761985,-14211.954086,-2145.067394
163324.125102,-4737.318029,-10140.821405,-2451.505594
163324.125421,-2072.576638,-7994.224174,-1685.410096
163324.125739,0.000000,-6587.832884,0.000000
163324.126058,2960.823768,-8586.388927,1838.629195
163324.126377,3182.885551,-8142.265362,2374.896044
163324.126696,5847.626942,-10658.965565,4826.401637
163324.127015,296.082377,-8956.491898,2451.505594
163324.127334,-2738.761985,-7920.203579,153.219100
163324.127653,-4515.256246,-6439.791695,-2145.067394
163324.127972,-3330.926739,-6809.894666,-2528.115143
163324.128291,-3552.988522,-7179.997637,-4290.134789
163324.128610,-1258.350101,-10362.883188,-2834.553343
163324.128929,-4145.153275,-11399.171507,-1838.629195
163324.129248,-3330.926739,-12953.603985,-612.876398
163324.129567,-2442.679609,-11843.295072,-1302.362347
163324.129886,-518.144159,-10584.944971,-76.609550
163324.130205,-1258.350101,-6439.791695,-1455.581446
163324.130524,1702.473667,-7179.997637,689.485948
163324.130843,3330.926739,-9252.574275,3140.991542
163324.131162,1184.329507,-8660.409521,4903.011187
163324.131481,1184.329507,-10436.903782,5056.230287
163324.131800,-666.185348,-9474.636058,2834.553343
163324.132119,-1258.350101,-9178.553681,1608.800546
163324.132438,-222.061783,-7698.141797,-1608.800546
163324.132757,-74.020594,-9474.636058,-76.609550
163324.133076,-2368.659014,-9548.656652,-1225.752797
163324.133395,-1628.453072,-11843.295072,-1302.362347
163324.133714,-3256.906145,-12805.562797,-1915.238745
163324.134033,-4145.153275,-11473.192101,-2221.676944
163324.134352,-5921.647536,-7179.997637,-4903.011187
163324.134671,-1628.453072,-7920.203579,-1915.238745
163324.134990,0.000000,-7402.059420,-1378.971896
163324.135309,2442.679609,-9326.594869,459.657299
163324.135628,3552.988522,-10362.883188,2374.896044
163324.135947,4663.297435,-11843.295072,3294.210641
163324.136266,2886.803174,-11843.295072,4213.525239
163324.136585,-666.185348,-7920.203579,-229.828649
163324.136904,-1184.329507,-5403.503377,-3830.477490
163324.137223,2442.679609,-8882.471304,-76.609550
163324.137541,0.000000,-7772.162391,0.000000
163324.137860,2738.761985,-11325.150913,995.924147
163324.138179,1184.329507,-11473.192101,536.266849
163324.138498,-1628.453072,-10140.821405,-1302.362347
163324.138817,-3034.844362,-8586.388927,-3447.429741
163324.139136,-2960.823768,-6661.853478,-3370.820191
163324.139455,1702.473667,-7994.224174,-689.485948
163324.139774,4071.132681,-11251.130318,2374.896044
163324.140093,3478.967927,-9770.718434,1455.581446
163324.140412,3478.967927,-13619.789333,6052.154434
163324.140731,0.000000,-10140.821405,2451.505594
163324.141050,-888.247130,-8364.327145,689.485948
163324.141369,-1332.370696,-6883.915261,-1915.238745
163324.141688,-148.041188,-7402.059420,-2221.676944
163324.142007,0.000000,-8364.327145,-1225.752797
163324.142326,962.267725,-10584.944971,-919.314598
163324.142645,1702.473667,-14211.954086,-76.609550
163324.142964,-2442.679609,-11547.212695,-3140.991542
163324.143283,-5107.421000,-9548.656652,-4903.011187
163324.143602,-666.185348,-9474.636058,-2528.115143
163324.143921,-1036.288319,-7846.182985,-2145.067394
163324.144240,2368.659014,-9474.636058,0.000000
163324.144559,3330.926739,-10362.883188,1991.848295
163324.144878,3404.947333,-11843.295072,4290.134789
163324.145197,0.000000,-10140.821405,4903.011187
163324.145516,-3552.988522,-7179.997637,612.876398
163324.145835,-1184.329507,-7698.141797,612.876398
163324.146154,-74.020594,-6365.771101,-306.438199
163324.146473,0.000000,-5995.668130,0.000000
163324.146792,2294.638420,-10658.965565,995.924147
163324.147111,0.000000,-10658.965565,459.657299
163324.147430,-3478.967927,-10584.944971,-689.485948
163324.147749,-5773.606348,-9474.636058,-2911.162892
163324.148068,-3627.009116,-8660.409521,-1225.752797
163324.148387,-2442.679609,-5995.668130,-2298.286494
163324.148706,1184.329507,-7476.080014,1225.752797
163324.149024,2590.720797,-9474.636058,2374.896044
163324.149343,-74.020594,-9548.656652,1149.143247
163324.149662,-3552.988522,-9548.656652,1225.752797
163324.149981,-3330.926739,-8882.471304,76.609550
163324.150300,-3404.947333,-7846.182985,-1302.362347
163324.150619,-2368.659014,-6587.832884,-2145.067394
163324.150938,0.000000,-7920.203579,-1608.800546
163324.151257,2368.659014,-9622.677246,-383.047749
163324.151576,592.164754,-10732.986159,0.000000
163324.151895,-592.164754,-12065.356855,-1225.752797
163324.152214,-2368.659014,-12435.459826,-1378.971896
163324.152533,-2442.679609,-10362.883188,-2068.457845
163324.152852,-2368.659014,-7772.162391,0.000000
163324.153171,2294.638420,-8882.471304,-76.609550
163324.153490,3552.988522,-9696.697840,1685.410096
163324.153809,3330.926739,-10436.903782,3217.601092
163324.154128,1184.329507,-9548.656652,1378.971896
163324.154447,0.000000,-8364.327145,1225.752797
163324.154766,0.000000,-5995.668130,-1762.019645
163324.155085,0.000000,-5995.668130,0.000000
163324.155404,1406.391290,-8290.306550,-536.266849
163324.155723,2886.803174,-9474.636058,-76.609550
163324.156042,1480.411884,-11621.233289,1072.533697
163324.156361,-888.247130,-11695.253884,-689.485948
163324.156680,-3775.050304,-10807.006753,-1991.848295
163324.156999,-4959.379811,-8956.491898,-2987.772442
163324.157318,-4737.318029,-4811.338623,-4290.134789
163324.157637,0.000000,-5921.647536,-2528.115143
163324.157956,296.082377,-7476.080014,0.000000
163324.158275,2368.659014,-11029.068536,2987.772442
163324.158594,2294.638420,-13027.624579,4826.401637
163324.158913,-74.020594,-9474.636058,1149.143247
163324.159232,-1628.453072,-8734.430116,153.219100
163324.159551,-1850.514855,-6587.832884,-2068.457845
163324.159870,-444.123565,-7179.997637,-2374.896044
163324.160189,1554.432478,-8734.430116,-612.876398
163324.160507,0.000000,-11325.150913,-536.266849
163324.160826,-74.020594,-13471.748144,-689.485948
163324.161145,-3478.967927,-11695.253884,-2451.505594
163324.161464,-6513.812290,-9548.656652,-4290.134789
163324.161783,-814.226536,-10066.800811,-1225.752797
163324.162102,-1258.350101,-5995.668130,-2681.334243
163324.162421,2664.741391,-8734.430116,1532.190996
163324.162740,2886.803174,-9622.677246,3064.381992
163324.163059,2516.700203,-10881.027347,4213.525239
163324.163378,2294.638420,-11843.295072,4826.401637
163324.163697,-74.020594,-8734.430116,2374.896044
163324.164016,-1554.432478,-6513.812290,-76.609550
163324.164335,-74.020594,-5329.482782,-2528.115143
163324.164654,-1184.329507,-6587.832884,-1838.629195
163324.164973,0.000000,-10140.821405,612.876398
163324.165292,-3034.844362,-10732.986159,-2298.286494
163324.165611,-4515.256246,-12435.459826,-2528.115143
163324.165930,-6069.688724,-11547.212695,-3370.820191
163324.166249,-5625.565159,-8660.409521,-4136.915689
163324.166568,-1258.350101,-8290.306550,-3753.867940
163324.166887,1184.329507,-7772.162391,-76.609550
163324.167206,2886.803174,-7994.224174,536.266849
163324.167525,2368.659014,-10288.862594,4290.134789
163324.167844,2294.638420,-10584.944971,4903.011187
163324.168163,-2368.659014,-7179.997637,1225.752797
163324.168482,-74.020594,-7105.977043,689.485948
163324.168801,148.041188,-6365.771101,-1072.533697
163324.169120,1332.370696,-7772.162391,-995.924147
163324.169439,1776.494261,-9548.656652,-1915.238745
163324.169758,1036.288319,-13323.706956,-1072.533697
163324.170077,-4145.153275,-11917.315666,-2451.505594
163324.170396,-3182.885551,-13323.706956,-2145.067394
163324.170715,-3034.844362,-11843.295072,-1608.800546
163324.171034,-3552.988522,-7179.997637,-3677.258390
163324.171353,370.102971,-6291.750507,-1915.238745
163324.171672,2812.782580,-7994.224174,1762.019645
163324.171991,4145.153275,-9400.615463,3907.087040
163324.172309,3330.926739,-9548.656652,4673.182538
163324.172628,2886.803174,-9474.636058,4826.401637
163324.172947,-370.102971,-7105.977043,536.266849
163324.173266,-1924.535449,-6069.688724,-2298.286494
163324.173585,-2146.597232,-5995.668130,-4826.401637
163324.173904,-1776.494261,-9548.656652,-2911.162892
163324.174223,-1850.514855,-11325.150913,-4290.134789
163324.174542,-1998.556043,-13619.789333,-2221.676944
163324.174861,-4441.235652,-11917.315666,-3447.429741
163324.175180,-4367.215058,-9548.656652,-3447.429741
163324.175499,-2368.659014,-7328.038826,-2834.553343
163324.175818,1480.411884,-7994.224174,-76.609550
163324.176137,4219.173869,-7179.997637,1455.581446
163324.176456,5403.503377,-9548.656652,4213.525239
163324.176775,3775.050304,-10066.800811,4903.011187
163324.177094,0.000000,-8364.327145,3983.696590
163324.177413,-2368.659014,-7476.080014,1838.629195
163324.177732,-1998.556043,-5995.668130,-2145.067394
163324.178051,0.000000,-7772.162391,-2145.067394
163324.178370,0.000000,-8364.327145,-1838.629195
163324.178689,-74.020594,-11251.130318,-2528.115143
163324.179008,-74.020594,-14211.954086,-689.485948
163324.179327,-4219.173869,-12657.521608,-2987.772442
163324.179646,-4145.153275,-10066.800811,-2987.772442
163324.179965,-3478.967927,-7698.141797,-2374.896044
163324.180284,-1776.494261,-7179.997637,-76.609550
163324.180603,2072.576638,-7624.121203,766.095498
163324.180922,2220.617826,-7772.162391,1991.848295
163324.181241,0.000000,-8364.327145,2451.505594
163324.181560,0.000000,-10140.821405,3753.867940
163324.181879,-1850.514855,-6661.853478,0.000000
163324.182198,-1258.350101,-7846.182985,-995.924147
163324.182517,-2146.597232,-7179.997637,-2911.162892
163324.182836,-592.164754,-9474.636058,-2681.334243
163324.183155,0.000000,-11177.109724,-1225.752797
163324.183474,-74.020594,-13027.624579,-76.609550
163324.183792,-3404.947333,-11621.233289,-1991.848295
163324.184111,-3627.009116,-10510.924376,-2834.553343
163324.184430,-4737.318029,-6883.915261,-2757.943793
163324.184749,-740.205942,-5847.626942,766.095498
163324.185068,0.000000,-4811.338623,0.000000
163324.185387,5107.421000,-8512.368333,3600.648841
163324.185706,3701.029710,-9548.656652,4826.401637
163324.186025,1554.432478,-10066.800811,4979.620737
163324.186344,-74.020594,-8290.306550,2374.896044
163324.186663,-666.185348,-8290.306550,-306.438199
163324.186982,-74.020594,-8882.471304,-1302.362347
163324.187301,-1850.514855,-6809.894666,-2834.553343
163324.187620,-814.226536,-9548.656652,-3677.258390
163324.187939,-74.020594,-13397.727550,-76.609550
163324.188258,-4737.318029,-11917.315666,-2451.505594
163324.188577,-4589.276840,-11325.150913,-3600.648841
163324.188896,-4959.379811,-9474.636058,-3983.696590
163324.189215,-2294.638420,-8142.265362,-2987.772442
163324.189534,1406.391290,-7105.977043,-1915.238745
163324.189853,4663.297435,-10066.800811,2604.724693
163324.190172,4959.379811,-10658.965565,3140.991542
163324.190491,2812.782580,-9548.656652,1838.629195
163324.190810,0.000000,-9548.656652,3217.601092
163324.191129,1702.473667,-9474.636058,2374.896044
163324.191448,-1184.329507,-6291.750507,-2145.067394
163324.191767,518.144159,-8068.244768,-2145.067394
163324.192086,1258.350101,-10140.821405,-919.314598
163324.192405,1332.370696,-11325.150913,1072.533697
163324.192724,-740.205942,-11917.315666,-459.657299
163324.193043,-2664.741391,-11843.295072,-1532.190996
163324.193362,-2812.782580,-10362.883188,-689.485948
163324.193681,-74.020594,-8290.306550,-76.609550
163324.194000,148.041188,-5403.503377,-2451.505594
163324.194319,6439.791695,-9178.553681,2374.896044
163324.194638,3849.070898,-9252.574275,3753.867940
163324.194957,2368.659014,-10288.862594,4519.963438
163324.195276,-296.082377,-9474.636058,3217.601092
163324.195594,-962.267725,-9474.636058,2757.943793
163324.195913,-2368.659014,-7550.100608,-536.266849
163324.196232,-1776.494261,-7179.997637,-1838.629195
163324.196551,296.082377,-10732.986159,-1225.752797
163324.196870,1110.308913,-12953.603985,-1149.143247
163324.197189,-3256.906145,-10732.986159,-3677.258390
163324.197508,-3034.844362,-12435.459826,-3140.991542
163324.197827,-4145.153275,-10732.986159,-4060.306139
163324.198146,-3552.988522,-8586.388927,-3140.991542
163324.198465,-370.102971,-7550.100608,-1608.800546
163324.198784,4367.215058,-9474.636058,1762.019645
163324.199103,1184.329507,-9548.656652,1838.629195
163324.199422,4663.297435,-12287.418637,4826.401637
163324.199741,1924.535449,-10362.883188,4596.572988
163324.200060,-370.102971,-6735.874072,1608.800546
163324.200379,0.000000,-5403.503377,0.000000
163324.200698,-74.020594,-6513.812290,-1455.581446
163324.201017,74.020594,-8290.306550,-1685.410096
163324.201336,370.102971,-10881.027347,-306.438199
163324.201655,-592.164754,-11917.315666,-1838.629195
163324.201974,-3404.947333,-12213.398043,-3370.820191
163324.202293,-7105.977043,-9548.656652,-3064.381992
163324.202612,-5255.462188,-7698.141797,-4903.011187
163324.202931,-74.020594,-8290.306550,-76.609550
163324.203250,3034.844362,-7994.224174,-76.609550
163324.203569,3552.988522,-8068.244768,4903.011187
163324.203888,2812.782580,-9548.656652,4443.353888
163324.204207,1184.329507,-9992.780217,4136.915689
163324.204526,-814.226536,-9622.677246,1991.848295
163324.204845,-4737.318029,-5995.668130,-3677.258390
163324.205164,-3182.885551,-7179.997637,-3677.258390
163324.205483,-1184.329507,-8364.327145,-4903.011187
163324.205802,0.000000,-11029.068536,-2145.067394
163324.206121,-74.020594,-13915.871710,-1302.362347
163324.206440,-74.020594,-14211.954086,-2528.115143
163324.206759,-3701.029710,-12065.356855,-2528.115143
163324.207077,-3775.050304,-9474.636058,-3294.210641
163324.207396,-1184.329507,-7402.059420,-2451.505594
163324.207715,1998.556043,-7402.059420,0.000000
163324.208034,3552.988522,-6587.832884,3064.381992
163324.208353,5625.565159,-8438.347739,3447.429741
163324.208672,2368.659014,-9548.656652,5515.887586
163324.208991,2146.597232,-10436.903782,4673.182538
163324.209310,-222.061783,-8882.471304,-76.609550
163324.209629,74.020594,-9474.636058,-76.609550
163324.209948,-962.267725,-7550.100608,-2451.505594
163324.210267,0.000000,-10066.800811,-1838.629195
163324.210586,-370.102971,-11547.212695,-1225.752797
163324.210905,-2368.659014,-11325.150913,0.000000
163324.211224,-4811.338623,-11695.253884,-2528.115143
163324.211543,-3627.009116,-10362.883188,-2834.553343
163324.211862,-4219.173869,-5699.585753,-3600.648841
163324.212181,0.000000,-5995.668130,612.876398
163324.212500,5847.626942,-9474.636058,4826.401637
163324.212819,2960.823768,-8660.409521,4903.011187
163324.213138,3330.926739,-9918.759623,4673.182538
163324.213457,888.247130,-9696.697840,3294.210641
163324.213776,-1554.432478,-8734.430116,153.219100
163324.214095,-4071.132681,-5995.668130,-4903.011187
163324.214414,-666.185348,-8290.306550,-2757.943793
163324.214733,-740.205942,-9474.636058,-2451.505594
163324.215052,666.185348,-12213.398043,-1838.629195
163324.215371,148.041188,-13471.748144,-1225.752797
163324.215690,-74.020594,-14211.954086,-76.609550
163324.216009,-2368.659014,-11843.295072,-689.485948
163324.216328,-3478.967927,-6291.750507,-3294.210641
163324.216647,0.000000,-6291.750507,0.000000
163324.216966,3478.967927,-7994.224174,2374.896044
163324.217285,2368.659014,-7179.997637,3677.258390
163324.217604,4145.153275,-11029.068536,5439.278036
163324.217923,2072.576638,-10436.903782,4903.011187
163324.218242,-148.041188,-8364.327145,1991.848295
163324.218560,-2442.679609,-5921.647536,-1302.362347
163324.218879,-666.185348,-8882.471304,-1302.362347
163324.219198,-1554.432478,-8290.306550,-3753.867940
163324.219517,-2368.659014,-10732.986159,-2145.067394
163324.219836,-3552.988522,-11325.150913,-2451.505594
163324.220155,-1850.514855,-14211.954086,-76.609550
163324.220474,-7105.977043,-9696.697840,-2911.162892
163324.220793,-4589.276840,-7698.141797,-3370.820191
163324.221112,-1702.473667,-6291.750507,-2374.896044
163324.221431,1924.535449,-6883.915261,-76.609550
163324.221750,3775.050304,-7772.162391,2757.943793
163324.222069,3330.926739,-9030.512492,4903.011187
163324.222388,2738.761985,-10066.800811,4519.963438
163324.222707,-2368.659014,-7179.997637,0.000000
163324.223026,-2368.659014,-6883.915261,0.000000
163324.223345,-74.020594,-8290.306550,-689.485948
163324.223664,0.000000,-8068.244768,-1991.848295
163324.223983,1406.391290,-10955.047942,-1225.752797
163324.224302,222.061783,-12731.542202,-612.876398
163324.224621,-1776.494261,-12657.521608,-689.485948
163324.224940,-3849.070898,-11399.171507,-1532.190996
163324.225259,-4737.318029,-8882.471304,-3677.258390
163324.225578,-4145.153275,-6291.750507,-2451.505594
163324.225897,1110.308913,-7624.121203,-76.609550
163324.226216,4441.235652,-9992.780217,3677.258390
163324.226535,2886.803174,-9030.512492,2757.943793
163324.226854,1776.494261,-9548.656652,4903.011187
163324.227173,296.082377,-9474.636058,3447.429741
163324.227492,-1998.556043,-7772.162391,-536.266849
163324.227811,-1554.432478,-8290.306550,-1915.238745
163324.228130,-74.020594,-9474.636058,-2528.115143
163324.228449,-74.020594,-11843.295072,-2528.115143
163324.228768,-370.102971,-11399.171507,-2221.676944
163324.229087,-2220.617826,-11029.068536,-3140.991542
163324.229406,-3552.988522,-11917.315666,-2298.286494
163324.229725,-5773.606348,-7179.997637,-4290.134789
163324.230044,-2146.597232,-7031.956449,-2298.286494
163324.230363,1628.453072,-6291.750507,-229.828649
163324.230682,4589.276840,-7179.997637,2528.115143
163324.231001,7031.956449,-9474.636058,4826.401637
163324.231320,4293.194464,-10510.924376,6894.859482
163324.231639,1998.556043,-9474.636058,4519.963438
163324.231958,-1998.556043,-7105.977043,-76.609550
163324.232277,-3552.988522,-5403.503377,-1838.629195
163324.232596,-296.082377,-9474.636058,-153.219100
163324.232915,-666.185348,-9474.636058,-1838.629195
163324.233234,148.041188,-11769.274478,-1608.800546
163324.233553,-1036.288319,-13175.665768,-1225.752797
163324.233872,-4071.132681,-12583.501014,-2451.505594
163324.234191,-5921.647536,-10140.821405,-3677.258390
163324.234510,-4145.153275,-8512.368333,-2604.724693
163324.234829,-74.020594,-8882.471304,-76.609550
163324.235148,1554.432478,-6365.771101,-1225.752797
163324.235467,3256.906145,-7772.162391,2068.457845
163324.235786,7031.956449,-12435.459826,6052.154434
163324.236105,1924.535449,-10881.027347,4213.525239
163324.236424,0.000000,-9326.594869,1838.629195
163324.236743,-1850.514855,-7920.203579,-1532.190996
163324.237062,-2368.659014,-7476.080014,-2451.505594
163324.237381,0.000000,-8660.409521,-3370.820191
163324.237700,0.000000,-10732.986159,0.000000
163324.238019,592.164754,-13841.851115,-306.438199
163324.238338,-2442.679609,-12435.459826,-76.609550
163324.238657,-5107.421000,-8364.327145,-4903.011187
163324.238976,-2442.679609,-7550.100608,-2528.115143
163324.239295,-1184.329507,-5551.544565,-842.705048
163324.239614,2886.803174,-6587.832884,1455.581446
163324.239933,5329.482782,-7846.182985,4519.963438
163324.240252,5921.647536,-9844.739029,7354.516781
163324.240571,0.000000,-9548.656652,4903.011187
163324.240890,-592.164754,-9400.615463,3677.258390
163324.241209,-1850.514855,-8586.388927,766.095498
163324.241528,-1258.350101,-7698.141797,-3140.991542
163324.241847,-4441.235652,-5995.668130,-4290.134789
163324.242166,-74.020594,-11399.171507,-1915.238745
163324.242485,-592.164754,-12953.603985,-2068.457845
163324.242804,-2072.576638,-13101.645173,-2145.067394
163324.243123,-4145.153275,-10140.821405,-4060.306139
163324.243442,-4885.359217,-8512.368333,-4060.306139
163324.243761,-4145.153275,-5995.668130,-3370.820191
163324.244080,1184.329507,-6587.832884,-2451.505594
163324.244399,6439.791695,-9474.636058,3447.429741
163324.244718,5847.626942,-11843.295072,6052.154434
163324.245037,1184.329507,-10732.986159,4903.011187
163324.245356,518.144159,-10066.800811,2604.724693
163324.245675,-1110.308913,-8734.430116,536.266849
163324.245994,-1702.473667,-7402.059420,-2374.896044
163324.246313,-1850.514855,-6735.874072,-4826.401637
163324.246632,222.061783,-9548.656652,-1915.238745
163324.246951,222.061783,-11251.130318,-689.485948
163324.247270,-2072.576638,-10436.903782,0.000000
163324.247589,-3552.988522,-10584.944971,-1149.143247
163324.247908,-1850.514855,-9474.636058,-689.485948
163324.248227,-3552.988522,-5995.668130,-1532.190996
163324.248546,0.000000,-5921.647536,-229.828649
163324.248865,2886.803174,-7550.100608,2145.067394
163324.249184,4293.194464,-9030.512492,4979.620737
163324.249503,0.000000,-7772.162391,3677.258390
163324.249822,-666.185348,-9474.636058,2987.772442
163324.250140,-4737.318029,-6587.832884,0.000000
163324.250459,-3256.906145,-7550.100608,-1072.533697
163324.250778,-2960.823768,-7179.997637,-3677.258390
163324.251097,-1184.329507,-11547.212695,-1608.800546
163324.251416,-962.267725,-11991.336260,-2757.943793
163324.251735,-1406.391290,-12879.583391,-1685.410096
163324.252054,-3404.947333,-11917.315666,-3064.381992
163324.252373,-5625.565159,-8660.409521,-4596.572988
163324.252692,-1850.514855,-8364.327145,-2451.505594
163324.253011,1702.473667,-7994.224174,-689.485948
163324.253330,2442.679609,-7254.018232,0.000000
163324.253649,4737.318029,-9548.656652,3677.258390
163324.253968,7031.956449,-13027.624579,7277.907231
163324.254287,1184.329507,-9844.739029,4903.011187
163324.254606,1110.308913,-9474.636058,2374.896044
163324.254925,0.000000,-7476.080014,-459.657299
163324.255244,-518.144159,-7105.977043,-1915.238745
163324.255563,-370.102971,-6587.832884,-4443.353888
163324.255882,1628.453072,-11547.212695,-612.876398
163324.256201,148.041188,-12509.480420,-842.705048
163324.256520,-2368.659014,-11695.253884,-1072.533697
163324.256839,-4515.256246,-9474.636058,-2221.676944
163324.257158,-3034.844362,-8290.306550,-1302.362347
163324.257477,-1184.329507,-7179.997637,-229.828649
163324.257796,3182.885551,-7105.977043,-76.609550
163324.258115,2442.679609,-7476.080014,1991.848295
163324.258434,3256.906145,-10140.821405,5439.278036
163324.258753,0.000000,-8364.327145,1225.752797
163324.259072,-1406.391290,-9474.636058,1838.629195
163324.259391,-2886.803174,-7624.121203,-1072.533697
163324.259710,-1776.494261,-7179.997637,-2604.724693
163324.260029,-74.020594,-9178.553681,-3140.991542
163324.260348,518.144159,-10066.800811,-2374.896044
163324.260667,1406.391290,-13619.789333,-229.828649
163324.260986,-1258.350101,-14063.912898,-383.047749
163324.261305,-1850.514855,-13915.871710,-1915.238745
163324.261624,-3256.906145,-9844.739029,-1532.190996
163324.261943,-3552.988522,-6587.832884,-2451.505594
163324.262262,1776.494261,-7031.956449,-689.485948
163324.262581,3923.091493,-8734.430116,2145.067394
163324.262900,5255.462188,-10881.027347,4519.963438
163324.263219,3552.988522,-11029.068536,3983.696590
163324.263538,740.205942,-9992.780217,3370.820191
163324.263857,-74.020594,-8586.388927,2987.772442
163324.264176,-1850.514855,-6513.812290,-2681.334243
163324.264495,-3552.988522,-7179.997637,-3064.381992
163324.264814,-74.020594,-11843.295072,-76.609550
163324.265133,-1480.411884,-11917.315666,-995.924147
163324.265452,-2294.638420,-11843.295072,-612.876398
163324.265771,-4959.379811,-10436.903782,-2451.505594
163324.266090,-5625.565159,-7994.224174,-2911.162892
163324.266409,-4441.235652,-5995.668130,-2451.505594
163324.266728,-1480.411884,-5995.668130,-2451.505594
163324.267047,2072.576638,-8512.368333,1838.629195
163324.267366,4071.132681,-10066.800811,3600.648841
163324.267685,2294.638420,-10584.944971,2451.505594
163324.268004,-74.020594,-11251.130318,3600.648841
163324.268323,-1924.535449,-8438.347739,842.705048
163324.268642,-1702.473667,-7328.038826,-1378.971896
163324.268961,-666.185348,-7254.018232,-2145.067394
163324.269280,2220.617826,-10066.800811,1149.143247
163324.269599,2368.659014,-11917.315666,0.000000
163324.269918,296.082377,-13101.645173,0.000000
163324.270237,-1258.350101,-12879.583391,-1302.362347
163324.270556,-3034.844362,-11843.295072,-1302.362347
163324.270875,-5921.647536,-5995.668130,-4903.011187
163324.271194,-666.185348,-7105.977043,-2221.676944
163324.271513,2664.741391,-8364.327145,536.266849
163324.271832,4515.256246,-9696.697840,3447.429741
163324.272151,4145.153275,-10584.944971,4826.401637
163324.272470,3182.885551,-10362.883188,5439.278036
163324.272789,0.000000,-8068.244768,1838.629195
163324.273108,-2072.576638,-7328.038826,-612.876398
163324.273427,-1776.494261,-7179.997637,-1838.629195
163324.273746,-74.020594,-9474.636058,-2528.115143
163324.274065,0.000000,-10732.986159,-1838.629195
163324.274384,-370.102971,-12435.459826,-1302.362347
163324.274703,-2738.761985,-11917.315666,-1762.019645
163324.275022,-4515.256246,-9696.697840,-3447.429741
163324.275341,-4441.235652,-6883.915261,-4903.011187
163324.275660,-1258.350101,-5995.668130,-3217.601092
163324.275979,2368.659014,-6291.750507,0.000000
163324.276298,2368.659014,-7179.997637,2757.943793
163324.276617,5255.462188,-11325.150913,6052.154434
163324.276936,2886.803174,-11843.295072,6052.154434
163324.277255,0.000000,-9548.656652,3983.696590
163324.277574,-1332.370696,-7254.018232,0.000000
163324.277893,-1628.453072,-6365.771101,-1915.238745
163324.278212,0.000000,-7550.100608,-1991.848295
163324.278531,0.000000,-8364.327145,-2451.505594
163324.278850,0.000000,-9844.739029,-612.876398
163324.279169,-1258.350101,-11843.295072,-2221.676944
163324.279488,-5921.647536,-9844.739029,-3217.601092
163324.279807,-5921.647536,-8956.491898,-6128.763984
163324.280126,-1258.350101,-8290.306550,-1915.238745
163324.280445,888.247130,-7550.100608,-76.609550
163324.280764,2442.679609,-8290.306550,1608.800546
163324.281083,2886.803174,-10066.800811,3217.601092
163324.281402,2442.679609,-10955.047942,4290.134789
163324.281721,0.000000,-9548.656652,1532.190996
163324.282040,-666.185348,-8290.306550,-229.828649
163324.282359,-4145.153275,-5995.668130,-2451.505594
163324.282678,-1628.453072,-7772.162391,-3064.381992
163324.282997,888.247130,-11251.130318,-1149.143247
163324.283316,1110.308913,-11547.212695,-3753.867940
163324.283635,-1184.329507,-12657.521608,-306.438199
163324.283954,-3923.091493,-11103.089130,-2068.457845
163324.284273,-4441.235652,-8734.430116,-3217.601092
163324.284592,-1776.494261,-8290.306550,-1302.362347
163324.284911,1036.288319,-7698.141797,1149.143247
163324.285230,5255.462188,-7105.977043,2221.676944
163324.285549,4737.318029,-8956.491898,2451.505594
163324.285868,4737.318029,-11399.171507,7048.078582
163324.286187,592.164754,-9844.739029,4903.011187
163324.286506,-3182.885551,-6587.832884,0.000000
163324.286825,-3034.844362,-7254.018232,-2451.505594
163324.287144,-2146.597232,-7105.977043,-2834.553343
163324.287463,370.102971,-9252.574275,-1915.238745
163324.287782,3182.885551,-11843.295072,-76.609550
163324.288101,-74.020594,-12731.542202,-536.266849
163324.288420,-2442.679609,-13619.789333,-76.609550
163324.288739,-5107.421000,-8882.471304,-4060.306139
163324.289058,-4589.276840,-7772.162391,-3677.258390
163324.289377,0.000000,-7772.162391,306.438199
163324.289696,1036.288319,-7772.162391,0.000000
163324.290015,3997.112087,-10066.800811,2757.943793
163324.290334,3997.112087,-10807.006753,3983.696590
163324.290653,2368.659014,-11473.192101,3294.210641
163324.290972,-74.020594,-9474.636058,-76.609550
163324.291291,-888.247130,-9474.636058,-76.609550
163324.291610,-1850.514855,-7105.977043,-3753.867940
163324.291929,-1776.494261,-8364.327145,-3677.258390
163324.292248,0.000000,-9696.697840,-1302.362347
163324.292567,0.000000,-9548.656652,0.000000
163324.292886,-1628.453072,-11843.295072,-842.705048
163324.293205,-3701.029710,-9548.656652,-2068.457845
163324.293524,-2738.761985,-7476.080014,-2221.676944
163324.293843,814.226536,-5329.482782,-1302.362347
163324.294162,2442.679609,-5995.668130,1072.533697
163324.294481,2960.823768,-8364.327145,3370.820191
163324.294800,3701.029710,-11473.192101,5209.449386
163324.295118,3182.885551,-12731.542202,4826.401637
163324.295437,-4737.318029,-7179.997637,1225.752797
163324.295756,-4811.338623,-7105.977043,-2298.286494
163324.296075,-3108.864956,-7179.997637,-2911.162892
163324.296394,-1036.288319,-7772.162391,-2681.334243
163324.296713,1258.350101,-9548.656652,-842.705048
163324.297032,2886.803174,-13027.624579,-76.609550
163324.297351,-2368.659014,-12213.398043,-1685.410096
163324.297670,-4811.338623,-10584.944971,-3064.381992
163324.297989,-4515.256246,-9030.512492,-3140.991542
163324.298308,-1998.556043,-7698.141797,-1302.362347
163324.298627,1184.329507,-7179.997637,306.438199
163324.298946,1184.329507,-7179.997637,0.000000
163324.299265,4737.318029,-10436.903782,3677.258390
163324.299584,3849.070898,-12361.439231,3677.258390
163324.299903,1406.391290,-11399.171507,766.095498
163324.300222,-74.020594,-8882.471304,-383.047749
163324.300541,-2072.576638,-7179.997637,-2068.457845
163324.300860,-592.164754,-7920.203579,-2528.115143
163324.301179,1110.308913,-9474.636058,-995.924147
163324.301498,3256.906145,-11251.130318,1225.752797
163324.301817,1702.473667,-11843.295072,1149.143247
163324.302136,-2960.823768,-10732.986159,0.000000
163324.302455,-3034.844362,-8364.327145,-2451.505594
163324.302774,-1554.432478,-7402.059420,-1072.533697
163324.303093,-2368.659014,-4811.338623,-2451.505594
163324.303412,1998.556043,-7994.224174,459.657299
163324.303731,2072.576638,-10510.924376,3370.820191
163324.304050,592.164754,-11695.253884,3600.648841
163324.304369,-2146.597232,-10362.883188,2298.286494
163324.304688,-3627.009116,-7994.224174,-383.047749
163324.305007,-3627.009116,-7031.956449,-1838.629195
163324.305326,-2368.659014,-5403.503377,-4903.011187
163324.305645,592.164754,-8364.327145,0.000000
163324.305964,2886.803174,-11695.253884,842.705048
163324.306283,0.000000,-11917.315666,0.000000
163324.306602,-3034.844362,-11991.336260,-2145.067394
163324.306921,-5033.400406,-10214.842000,-3753.867940
163324.307240,-4441.235652,-8956.491898,-4060.306139
163324.307559,-1110.308913,-8364.327145,-3983.696590
163324.307878,1406.391290,-7698.141797,-2451.505594
163324.308197,3849.070898,-8364.327145,306.438199
163324.308516,3552.988522,-9548.656652,3983.696590
163324.308835,3997.112087,-11769.274478,4519.963438
163324.309154,1554.432478,-9474.636058,3294.210641
163324.309473,0.000000,-7179.997637,1225.752797
163324.309792,-518.144159,-6439.791695,-1838.629195
163324.310111,666.185348,-8660.409521,-1302.362347
163324.310430,370.102971,-10658.965565,-306.438199
163324.310749,-2368.659014,-10436.903782,-1225.752797
163324.311068,-3775.050304,-12435.459826,-689.485948
163324.311387,-5477.523971,-8808.450710,-4213.525239
163324.311706,-5921.647536,-7254.018232,-3677.258390
163324.312025,-4737.318029,-4811.338623,-3677.258390
163324.312344,2294.638420,-8290.306550,-689.485948
163324.312663,3256.906145,-10214.842000,2757.943793
163324.312982,2368.659014,-10288.862594,3677.258390
163324.313301,592.164754,-10510.924376,3907.087040
163324.313620,-888.247130,-8586.388927,2145.067394
163324.313939,-3256.906145,-5699.585753,-612.876398
163324.314258,-222.061783,-6809.894666,-1915.238745
163324.314577,0.000000,-7179.997637,-2528.115143
163324.314896,0.000000,-7772.162391,-2451.505594
163324.315215,888.247130,-11917.315666,-1072.533697
163324.315534,-666.185348,-11843.295072,-3753.867940
163324.315853,-3701.029710,-12139.377449,-2834.553343
163324.316172,-4515.256246,-9474.636058,-3217.601092
163324.316491,-2442.679609,-7402.059420,-2528.115143
163324.316810,1554.432478,-8290.306550,-76.609550
163324.317129,5255.462188,-10658.965565,3600.648841
163324.317448,5551.544565,-9918.759623,4826.401637
163324.317767,4663.297435,-11251.130318,4826.401637
163324.318086,222.061783,-8438.347739,2757.943793
163324.318405,-2368.659014,-7179.997637,612.876398
163324.318724,-3478.967927,-4811.338623,-3140.991542
163324.319043,-2368.659014,-7476.080014,-2834.553343
163324.319362,-888.247130,-10140.821405,-2221.676944
163324.319681,-592.164754,-12361.439231,-1608.800546
163324.320000,-74.020594,-14211.954086,-76.609550
163324.320319,-3034.844362,-11843.295072,-1532.190996
163324.320638,-3627.009116,-10658.965565,-2528.115143
163324.320957,-3627.009116,-6809.894666,-3753.867940
163324.321276,0.000000,-4811.338623,-1915.238745
163324.321595,3849.070898,-8364.327145,3983.696590
163324.321914,3849.070898,-8956.491898,3677.258390
163324.322233,3182.885551,-11177.109724,4903.011187
163324.322552,-518.144159,-9992.780217,3140.991542
163324.322871,-3775.050304,-8586.388927,-306.438199
163324.323190,-2442.679609,-8290.306550,-2528.115143
163324.323509,-2368.659014,-7920.203579,-2451.505594
163324.323828,1554.432478,-9918.759623,-1302.362347
163324.324147,2886.803174,-13027.624579,-76.609550
163324.324466,1702.473667,-11843.295072,-76.609550
163324.324785,-1776.494261,-13027.624579,1149.143247
163324.325104,-3849.070898,-7994.224174,-1838.629195
163324.325427,-2812.782580,-7031.956449,-2221.676944
163324.325746,148.041188,-6291.750507,-459.657299
163324.326065,2368.659014,-6587.832884,612.876398
163324.326384,5551.544565,-9474.636058,2451.505594
163324.326703,3256.906145,-11621.233289,4060.306139
163324.327021,1110.308913,-12879.583391,3677.258390
163324.327340,-74.020594,-11251.130318,-689.485948
163324.327659,-4219.173869,-7105.977043,-3907.087040
163324.327978,-1258.350101,-7698.141797,-6205.373534
163324.328297,-2960.823768,-8660.409521,-3370.820191
163324.328616,888.247130,-11177.109724,-689.485948
163324.328935,814.226536,-11251.130318,459.657299
163324.329254,148.041188,-11769.274478,2145.067394
163324.329573,-2812.782580,-9400.615463,-612.876398
163324.329891,-1924.535449,-7402.059420,-1685.410096
163324.330210,-74.020594,-7105.977043,-1302.362347
163324.330529,1480.411884,-6587.832884,0.000000
163324.330848,1776.494261,-8364.327145,0.000000
163324.331167,3182.885551,-11843.295072,3600.648841
163324.331486,-296.082377,-11917.315666,2834.553343
163324.331805,-2738.761985,-9992.780217,689.485948
163324.332124,-3182.885551,-7920.203579,-1455.581446
163324.332442,-74.020594,-8586.388927,-76.609550
163324.332761,1554.432478,-6735.874072,0.000000
163324.333080,4663.297435,-10214.842000,2374.896044
163324.333399,3478.967927,-11251.130318,1149.143247
163324.333718,-74.020594,-13027.624579,-76.609550
163324.334037,-3034.844362,-9474.636058,-3140.991542
163324.334356,-4737.318029,-8882.471304,-2451.505594
163324.334675,-3256.906145,-7772.162391,-2604.724693
163324.334993,-444.123565,-8142.265362,-1685.410096
163324.335312,2294.638420,-10955.047942,1762.019645
163324.335631,1480.411884,-10732.986159,2145.067394
163324.335950,0.000000,-11029.068536,1225.752797
163324.336269,-1776.494261,-10140.821405,919.314598
163324.336588,-2368.659014,-7179.997637,306.438199
163324.336907,-1258.350101,-6513.812290,-2834.553343
163324.337226,-74.020594,-8882.471304,-1302.362347
163324.337544,666.185348,-9326.594869,-919.314598
163324.337863,1554.432478,-11325.150913,229.828649
163324.338182,-518.144159,-12361.439231,0.000000
163324.338501,-2368.659014,-11917.315666,612.876398
163324.338820,-3330.926739,-9474.636058,-2528.115143
163324.339139,-1554.432478,-7624.121203,-1302.362347
163324.339458,2294.638420,-8290.306550,-1302.362347
163324.339777,1924.535449,-7772.162391,383.047749
163324.340095,5551.544565,-11251.130318,4213.525239
163324.340414,1628.453072,-11029.068536,5209.449386
163324.340733,-518.144159,-9622.677246,3140.991542
163324.341052,-2368.659014,-7476.080014,689.485948
163324.341371,-2368.659014,-5403.503377,-689.485948
163324.341690,-2368.659014,-3627.009116,0.000000
163324.342009,1554.432478,-7698.141797,-459.657299
163324.342328,1554.432478,-10436.903782,383.047749
163324.342646,-592.164754,-11917.315666,-229.828649
163324.342965,-4219.173869,-10955.047942,-2528.115143
163324.343284,-4811.338623,-9548.656652,-3983.696590
163324.343603,-3627.009116,-8882.471304,-3753.867940
163324.343922,-2590.720797,-7179.997637,-3447.429741
163324.344241,0.000000,-6587.832884,-2221.676944
163324.344560,5699.585753,-11843.295072,3600.648841
163324.344879,2664.741391,-11621.233289,3370.820191
163324.345197,1998.556043,-11547.212695,2834.553343
163324.345516,0.000000,-9696.697840,1378.971896
163324.345835,-814.226536,-7772.162391,-1302.362347
163324.346154,-740.205942,-6587.832884,-1225.752797
163324.346473,0.000000,-5995.668130,-2451.505594
163324.346792,2886.803174,-11473.192101,-76.609550
163324.347111,2294.638420,-11843.295072,-76.609550
163324.347430,-2072.576638,-11473.192101,-1072.533697
163324.347748,-666.185348,-11843.295072,-1302.362347
163324.348067,-3182.885551,-8068.244768,-2221.676944
163324.348386,-814.226536,-7179.997637,-1915.238745
163324.348705,1554.432478,-7476.080014,-153.219100
163324.349024,2886.803174,-9252.574275,2374.896044
163324.349343,2664.741391,-11325.150913,6052.154434
163324.349662,1628.453072,-10510.924376,4903.011187
163324.349981,-74.020594,-10362.883188,3600.648841
163324.350300,-3775.050304,-6217.729913,-1455.581446
163324.350618,-3849.070898,-5107.421000,-3677.258390
163324.350937,-74.020594,-6513.812290,-2528.115143
163324.351256,1480.411884,-9548.656652,-842.705048
163324.351575,444.123565,-11843.295072,153.219100
163324.351894,-2442.679609,-12509.480420,-1302.362347
163324.352213,-3034.844362,-13027.624579,-76.609550
163324.352532,-2812.782580,-10140.821405,-4903.011187
163324.352851,-3552.988522,-7179.997637,-3064.381992
163324.353169,1332.370696,-8956.491898,-689.485948
163324.353488,4663.297435,-10732.986159,2757.943793
163324.353807,2368.659014,-9548.656652,3064.381992
163324.354126,2738.761985,-11399.171507,2987.772442
163324.354445,1184.329507,-10881.027347,2681.334243
163324.354764,-666.185348,-8290.306550,612.876398
163324.355083,-1258.350101,-6513.812290,-1225.752797
163324.355402,-74.020594,-8290.306550,-1302.362347
163324.355720,296.082377,-9548.656652,0.000000
163324.356039,1184.329507,-11029.068536,0.000000
163324.356358,-74.020594,-14211.954086,2221.676944
163324.356677,-3034.844362,-11843.295072,-1915.238745
163324.356996,-5625.565159,-8956.491898,-1838.629195
163324.357315,-3404.947333,-6809.894666,-2681.334243
163324.357634,-888.247130,-6883.915261,-1915.238745
163324.357953,1998.556043,-8512.368333,1149.143247
163324.358271,2590.720797,-9992.780217,2451.505594
163324.358590,592.164754,-9548.656652,1838.629195
163324.358909,-1480.411884,-9548.656652,2757.943793
163324.359228,-4145.153275,-7179.997637,0.000000
163324.359547,-2442.679609,-7698.141797,-1608.800546
163324.359866,-1554.432478,-5921.647536,-3140.991542
163324.360185,2072.576638,-9474.636058,536.266849
163324.360504,2146.597232,-11029.068536,-383.047749
163324.360822,592.164754,-12213.398043,-153.219100
163324.361141,-2146.597232,-12065.356855,-1302.362347
163324.361460,-5921.647536,-8364.327145,-2451.505594
163324.361779,-4737.318029,-7179.997637,-3677.258390
163324.362098,-2960.823768,-4811.338623,-3677.258390
163324.362417,2368.659014,-7772.162391,306.438199
163324.362736,5551.544565,-10658.965565,4213.525239
163324.363055,5847.626942,-11251.130318,2374.896044
163324.363373,3923.091493,-11991.336260,4826.401637
163324.363692,296.082377,-8364.327145,1991.848295
163324.364011,-1554.432478,-7772.162391,-995.924147
163324.364330,-1554.432478,-7179.997637,-2681.334243
163324.364649,0.000000,-7179.997637,-2451.505594
163324.364968,1998.556043,-10658.965565,-689.485948
163324.365287,0.000000,-11251.130318,0.000000
163324.365606,-1776.494261,-11917.315666,-3064.381992
163324.365924,-3552.988522,-11029.068536,-919.314598
163324.366243,-5921.647536,-5995.668130,-6128.763984
163324.366562,-2368.659014,-7254.018232,-3447.429741
163324.366881,592.164754,-8068.244768,-995.924147
163324.367200,2664.741391,-9548.656652,2298.286494
163324.367519,3256.906145,-11251.130318,4826.401637
163324.367838,1332.370696,-10732.986159,4826.401637
163324.368157,-2664.741391,-7920.203579,1072.533697
163324.368476,-3552.988522,-6291.750507,-2451.505594
163324.368794,-666.185348,-7550.100608,-995.924147
163324.369113,1702.473667,-8882.471304,-995.924147
163324.369432,0.000000,-8364.327145,0.000000
163324.369751,1998.556043,-11843.295072,689.485948
163324.370070,-888.247130,-12139.377449,0.000000
163324.370389,-3701.029710,-11029.068536,-2221.676944
163324.370708,-3627.009116,-8290.306550,-4979.620737
163324.371027,-2442.679609,-7105.977043,-3140.991542
163324.371345,0.000000,-4811.338623,-2681.334243
163324.371664,2368.659014,-7772.162391,1225.752797
163324.371983,5403.503377,-12065.356855,4826.401637
163324.372302,4663.297435,-13619.789333,7277.907231
163324.372621,-1184.329507,-9548.656652,2451.505594
163324.372940,-1776.494261,-8290.306550,-153.219100
163324.373259,-2812.782580,-6735.874072,-2145.067394
163324.373578,-1628.453072,-7920.203579,-2528.115143
163324.373896,-1184.329507,-7179.997637,-2911.162892
163324.374215,1406.391290,-14211.954086,-76.609550
163324.374534,-370.102971,-12435.459826,-1455.581446
163324.374853,-4737.318029,-10732.986159,-2451.505594
163324.375172,-5329.482782,-8660.409521,-3370.820191
163324.375491,-2664.741391,-9178.553681,-2068.457845
163324.375810,-1628.453072,-5403.503377,-4826.401637
163324.376129,2146.597232,-8882.471304,383.047749
163324.376447,3478.967927,-10955.047942,2834.553343
163324.376766,1184.329507,-10732.986159,4290.134789
163324.377085,-74.020594,-10732.986159,3907.087040
163324.377404,-666.185348,-9474.636058,1455.581446
163324.377723,-1554.432478,-5847.626942,-689.485948
163324.378042,1110.308913,-5329.482782,-1915.238745
163324.378361,3330.926739,-8290.306550,1762.019645
163324.378680,3997.112087,-11325.150913,1991.848295
163324.378998,1480.411884,-12065.356855,383.047749
163324.379317,-2516.700203,-12213.398043,-995.924147
163324.379636,-5107.421000,-10732.986159,-2681.334243
163324.379955,-7105.977043,-7179.997637,-4290.134789
163324.380274,-2368.659014,-6809.894666,-3064.381992
163324.380593,2072.576638,-7328.038826,0.000000
163324.380912,5181.441594,-11547.212695,3907.087040
163324.381231,4071.132681,-11843.295072,3907.087040
163324.381549,2146.597232,-12435.459826,4519.963438
163324.381868,-1924.535449,-8216.285956,1225.752797
163324.382187,-2738.761985,-6735.874072,-1455.581446
163324.382506,-2368.659014,-6291.750507,-2145.067394
163324.382825,518.144159,-7994.224174,-76.609550
163324.383144,0.000000,-7476.080014,0.000000
163324.383463,1776.494261,-12435.459826,-76.609550
163324.383782,-2368.659014,-12509.480420,-1838.629195
163324.384100,-4367.215058,-11473.192101,-3753.867940
163324.384419,-3923.091493,-9474.636058,-4673.182538
163324.384738,-2442.679609,-7328.038826,-4749.792088
163324.385057,2220.617826,-9474.636058,-689.485948
163324.385376,3182.885551,-9474.636058,1762.019645
163324.385695,4663.297435,-10658.965565,4213.525239
163324.386014,3478.967927,-10584.944971,7277.907231
163324.386333,0.000000,-7179.997637,3677.258390
163324.386652,-518.144159,-6291.750507,842.705048
163324.386970,74.020594,-4811.338623,76.609550
163324.387289,1480.411884,-6291.750507,-459.657299
163324.387608,2146.597232,-8586.388927,0.000000
163324.387927,962.267725,-12435.459826,-76.609550
163324.388246,-2442.679609,-13027.624579,-1302.362347
163324.388565,-4811.338623,-13027.624579,-3753.867940
163324.388884,-7179.997637,-9918.759623,-5592.497135
163324.389203,-3182.885551,-9474.636058,-2528.115143
163324.389521,-1776.494261,-6587.832884,-2681.334243
163324.389840,2368.659014,-8068.244768,306.438199
163324.390159,3849.070898,-10140.821405,3140.991542
163324.390478,3256.906145,-10584.944971,5439.278036
163324.390797,0.000000,-8660.409521,3677.258390
163324.391116,-962.267725,-7772.162391,1225.752797
163324.391435,-74.020594,-8290.306550,-76.609550
163324.391754,-74.020594,-6513.812290,-2221.676944
163324.392072,592.164754,-8364.327145,-2451.505594
163324.392391,3478.967927,-13027.624579,-1302.362347
163324.392710,-888.247130,-13767.830521,-1685.410096
163324.393029,-2738.761985,-13101.645173,-2681.334243
163324.393348,-4071.132681,-10584.944971,-3600.648841
163324.393667,-2072.576638,-8660.409521,-1302.362347
163324.393986,1184.329507,-7772.162391,-2451.505594
163324.394305,2960.823768,-8660.409521,2451.505594
163324.394623,5699.585753,-9474.636058,4213.525239
163324.394942,3775.050304,-11843.295072,6665.030833
163324.395261,0.000000,-7772.162391,4903.011187
163324.395580,-666.185348,-6513.812290,1762.019645
163324.395899,-1628.453072,-5329.482782,153.219100
163324.396218,0.000000,-5625.565159,-1838.629195
163324.396537,1036.288319,-7698.141797,-919.314598
163324.396856,1554.432478,-11621.233289,-76.609550
163324.397174,-2368.659014,-11769.274478,-1838.629195
163324.397493,-4737.318029,-13101.645173,-3064.381992
163324.397812,-9474.636058,-10140.821405,-4903.011187
163324.398131,-5995.668130,-10436.903782,-4443.353888
163324.398450,-4737.318029,-5995.668130,-3370.820191
163324.398769,1776.494261,-7772.162391,-1608.800546
163324.399088,5107.421000,-9178.553681,2374.896044
163324.399407,5255.462188,-10288.862594,4443.353888
163324.399725,3330.926739,-9844.739029,2757.943793
163324.400044,518.144159,-7772.162391,306.438199
163324.400363,-1776.494261,-7179.997637,0.000000
163324.400682,-1776.494261,-6587.832884,0.000000
163324.401001,1628.453072,-9252.574275,-229.828649
163324.401320,2886.803174,-11843.295072,-76.609550
163324.401639,1776.494261,-13397.727550,1225.752797
163324.401958,-1554.432478,-12435.459826,-1608.800546
163324.402276,-3552.988522,-11029.068536,-2528.115143
163324.402595,-4441.235652,-8956.491898,-4060.306139
163324.402914,-4737.318029,-5107.421000,-4903.011187
163324.403233,-2072.576638,-5403.503377,-2145.067394
163324.403552,444.123565,-7179.997637,612.876398
163324.403871,2960.823768,-9844.739029,4903.011187
163324.404190,2886.803174,-10658.965565,8350.440928
163324.404509,-74.020594,-8882.471304,4213.525239
163324.404827,-2368.659014,-7031.956449,1149.143247
163324.405146,-2590.720797,-5699.585753,-2451.505594
163324.405465,-444.123565,-7624.121203,-1838.629195
163324.405784,222.061783,-9474.636058,-919.314598
163324.406103,-2368.659014,-10140.821405,0.000000
163324.406422,-1554.432478,-13619.789333,-3140.991542
163324.406741,-6809.894666,-11325.150913,-4903.011187
163324.407060,-7105.977043,-9548.656652,-7354.516781
163324.407379,-3404.947333,-8882.471304,-2528.115143
163324.407697,-74.020594,-6439.791695,-4519.963438
163324.408016,4811.338623,-9030.512492,2298.286494
163324.408335,5847.626942,-9918.759623,4366.744339
163324.408654,4885.359217,-10362.883188,6052.154434
163324.408973,3182.885551,-10362.883188,5745.716235
163324.409292,-592.164754,-8290.306550,2374.896044
163324.409611,-1850.514855,-6217.729913,-1455.581446
163324.409930,-1184.329507,-5403.503377,-3524.039291
163324.410248,0.000000,-9548.656652,0.000000
163324.410567,1776.494261,-11917.315666,1225.752797
163324.410886,-2516.700203,-11029.068536,-2451.505594
163324.411205,-3775.050304,-12879.583391,-2757.943793
163324.411524,-4811.338623,-10584.944971,-4060.306139
163324.411843,-4145.153275,-8586.388927,-3753.867940
163324.412162,-74.020594,-7105.977043,-2528.115143
163324.412481,2294.638420,-8290.306550,842.705048
163324.412799,3478.967927,-11547.212695,4826.401637
163324.413118,3182.885551,-10066.800811,4826.401637
163324.413437,0.000000,-8808.450710,3753.867940
163324.413756,-2368.659014,-8364.327145,3677.258390
163324.414075,-3849.070898,-5255.462188,-2068.457845
163324.414394,-1332.370696,-6365.771101,-2451.505594
163324.414713,1184.329507,-9104.533087,-1455.581446
163324.415032,1406.391290,-11473.192101,-612.876398
163324.415350,-74.020594,-13027.624579,-2681.334243
163324.415669,-3627.009116,-15988.448347,-689.485948
163324.415988,-5403.503377,-11103.089130,-4673.182538
163324.416307,-6365.771101,-8660.409521,-4136.915689
163324.416626,-592.164754,-7772.162391,-76.609550
163324.416945,1184.329507,-4811.338623,1225.752797
163324.417264,6439.791695,-8734.430116,3753.867940
163324.417583,5921.647536,-9770.718434,5975.544884
163324.417901,4071.132681,-9474.636058,5669.106685
163324.418220,518.144159,-7254.018232,1455.581446
163324.418539,-1184.329507,-6883.915261,0.000000
163324.418858,-2368.659014,-6587.832884,-1532.190996
163324.419177,222.061783,-9030.512492,-1225.752797
163324.419496,2442.679609,-11843.295072,-76.609550
163324.419815,0.000000,-11917.315666,-1838.629195
163324.420134,-2812.782580,-12583.501014,-3294.210641
163324.420452,-4885.359217,-11843.295072,-3753.867940
163324.420771,-5625.565159,-9104.533087,-4749.792088
163324.421090,-3627.009116,-7402.059420,-4443.353888
163324.421409,-74.020594,-8882.471304,-1302.362347
163324.421728,2368.659014,-8660.409521,1838.629195
163324.422047,4367.215058,-9844.739029,5056.230287
163324.422366,2812.782580,-10140.821405,5822.325785
163324.422685,0.000000,-8290.306550,4519.963438
163324.423003,-2368.659014,-6143.709319,1685.410096
163324.423322,-2368.659014,-4811.338623,-1838.629195
163324.423641,2294.638420,-8882.471304,-842.705048
163324.423960,888.247130,-9548.656652,-1225.752797
163324.424279,592.164754,-12213.398043,0.000000
163324.424598,-1258.350101,-13619.789333,-2528.115143
163324.424917,-4737.318029,-12583.501014,-2604.724693
163324.425236,-5921.647536,-9622.677246,-3983.696590
163324.425554,-4071.132681,-7179.997637,-3140.991542
163324.425873,1110.308913,-7698.141797,-229.828649
163324.426192,4663.297435,-8142.265362,2374.896044
163324.426511,4737.318029,-8364.327145,5056.230287
163324.426830,3552.988522,-7328.038826,4519.963438
163324.427149,0.000000,-7772.162391,3677.258390
163324.427467,-2368.659014,-7179.997637,1838.629195
163324.427786,-3034.844362,-8290.306550,-383.047749
163324.428105,-2442.679609,-7105.977043,-3447.429741
163324.428424,-1184.329507,-10214.842000,-1991.848295
163324.428743,370.102971,-12509.480420,-1915.238745
163324.429062,-1554.432478,-12657.521608,-3983.696590
163324.429381,-4071.132681,-11769.274478,-3677.258390
163324.429699,-4515.256246,-11029.068536,-3677.258390
163324.430018,-2442.679609,-9474.636058,-3140.991542
163324.430337,-1332.370696,-6513.812290,-3753.867940
163324.430656,3404.947333,-9474.636058,2221.676944
163324.430975,4145.153275,-8956.491898,3983.696590
163324.431294,4959.379811,-10066.800811,6511.811733
163324.431612,2886.803174,-8808.450710,5515.887586
163324.431931,666.185348,-6809.894666,3677.258390
163324.432250,0.000000,-4811.338623,0.000000
163324.432569,592.164754,-7105.977043,-1225.752797
163324.432888,2886.803174,-9474.636058,-689.485948
163324.433207,74.020594,-10955.047942,-1915.238745
163324.433526,-1184.329507,-11917.315666,-3447.429741
163324.433844,-1258.350101,-15988.448347,-1915.238745
163324.434163,-6365.771101,-11917.315666,-4366.744339
163324.434482,-6365.771101,-8512.368333,-4136.915689
163324.434801,-2664.741391,-6365.771101,-3140.991542
163324.435120,2960.823768,-6587.832884,306.438199
163324.435439,4737.318029,-5995.668130,1838.629195
163324.435757,5329.482782,-8956.491898,6741.640382
163324.436076,4663.297435,-10658.965565,6358.592633
163324.436395,370.102971,-8290.306550,2068.457845
163324.436714,-3552.988522,-5403.503377,-2451.505594
163324.437033,-1850.514855,-7698.141797,-2528.115143
163324.437352,-1924.535449,-8734.430116,-3294.210641
163324.437671,-222.061783,-11399.171507,-2298.286494
163324.437989,0.000000,-13323.706956,-1838.629195
163324.438308,-1776.494261,-13397.727550,-1072.533697
163324.438627,-4145.153275,-10732.986159,-3677.258390
163324.438946,-5329.482782,-8364.327145,-4290.134789
163324.439265,-3552.988522,-5995.668130,-3064.381992
163324.439584,2664.741391,-7772.162391,766.095498
163324.439903,2368.659014,-5403.503377,2451.505594
163324.440221,6587.832884,-9844.739029,6741.640382
163324.440540,3849.070898,-9548.656652,6971.469032
163324.440859,888.247130,-8512.368333,4596.572988
163324.441178,-1554.432478,-5847.626942,-383.047749
163324.441497,-1850.514855,-6513.812290,-2528.115143
163324.441816,-2368.659014,-7550.100608,-3294.210641
163324.442134,-3256.906145,-8364.327145,-2451.505594
163324.442453,-1036.288319,-13397.727550,-689.485948
163324.442772,-1258.350101,-15396.283594,-76.609550
163324.443091,-7105.977043,-10732.986159,-2451.505594
163324.443410,-6587.832884,-8808.450710,-4060.306139
163324.443729,-4663.297435,-6735.874072,-3830.477490
163324.444048,0.000000,-6143.709319,-1532.190996
163324.444366,3478.967927,-5625.565159,0.000000
163324.444685,5255.462188,-7994.224174,4366.744339
163324.445004,1998.556043,-8512.368333,3064.381992
163324.445323,0.000000,-10140.821405,2757.943793
163324.445642,-1776.494261,-9548.656652,0.000000
163324.445961,-1554.432478,-9474.636058,-76.609550
163324.446279,-2960.823768,-8660.409521,-3524.039291
163324.446598,-518.144159,-10362.883188,-2374.896044
163324.446917,814.226536,-11769.274478,-842.705048
163324.447236,592.164754,-12435.459826,-536.266849
163324.447555,-2960.823768,-9844.739029,-2145.067394
163324.447874,-1850.514855,-9474.636058,-2528.115143
163324.448193,-3627.009116,-5921.647536,-3830.477490
163324.448511,-1628.453072,-4219.173869,-4366.744339
163324.448830,1184.329507,-7179.997637,612.876398
163324.449149,5847.626942,-11843.295072,3600.648841
163324.449468,2220.617826,-11177.109724,5822.325785
163324.449787,222.061783,-9992.780217,4596.572988
163324.450106,-1258.350101,-8364.327145,1378.971896
163324.450424,-666.185348,-7698.141797,-76.609550
163324.450743,-1406.391290,-7476.080014,-1149.143247
163324.451062,-74.020594,-8882.471304,-1915.238745
163324.451381,2294.638420,-13027.624579,-76.609550
163324.451700,-74.020594,-13027.624579,-1302.362347
163324.452019,-5329.482782,-10732.986159,-4903.011187
163324.452338,-5995.668130,-9474.636058,-4213.525239
163324.452656,-6143.709319,-7772.162391,-4673.182538
163324.452975,-2886.803174,-7031.956449,-3677.258390
163324.453294,2294.638420,-7920.203579,-612.876398
163324.453613,7624.121203,-11843.295072,4213.525239
163324.453932,6439.791695,-11695.253884,4903.011187
163324.454251,4663.297435,-13027.624579,7201.297681
163324.454569,-74.020594,-9474.636058,2374.896044
163324.454888,-1998.556043,-7179.997637,-766.095498
163324.455207,-2368.659014,-4811.338623,0.000000
163324.455526,888.247130,-7550.100608,-1608.800546
163324.455845,2738.761985,-10214.842000,612.876398
163324.456164,2220.617826,-12139.377449,76.609550
163324.456483,-296.082377,-12657.521608,-1149.143247
163324.456801,-1258.350101,-13027.624579,-1302.362347
163324.457120,-3849.070898,-10436.903782,-1762.019645
163324.457439,-2442.679609,-7994.224174,-4060.306139
163324.457758,-962.267725,-7179.997637,-1762.019645
163324.458077,0.000000,-7179.997637,1225.752797
163324.458396,1998.556043,-7772.162391,3677.258390
163324.458715,2960.823768,-10658.965565,6052.154434
163324.459033,-74.020594,-8068.244768,3140.991542
163324.459352,-2368.659014,-6809.894666,153.219100
163324.459671,-1554.432478,-6513.812290,-1915.238745
163324.459990,-2294.638420,-6587.832884,-3600.648841
163324.460309,-1184.329507,-9548.656652,-2451.505594
163324.460628,0.000000,-12805.562797,-3677.258390
163324.460946,-2960.823768,-14285.974681,-612.876398
163324.461265,-6291.750507,-10732.986159,-4903.011187
163324.461584,-5995.668130,-9474.636058,-4366.744339
163324.461903,-4293.194464,-7402.059420,-3830.477490
163324.462222,666.185348,-6957.935855,-1225.752797
163324.462541,5181.441594,-7698.141797,2145.067394
163324.462860,9326.594869,-11251.130318,7277.907231
163324.463178,5329.482782,-9548.656652,6205.373534
163324.463497,2442.679609,-9030.512492,5056.230287
163324.463816,-444.123565,-7550.100608,1225.752797
163324.464135,-1628.453072,-6217.729913,-229.828649
163324.464454,-2368.659014,-5995.668130,-1838.629195
163324.464773,-2368.659014,-7476.080014,-3064.381992
163324.465091,0.000000,-11917.315666,-612.876398
163324.465410,-518.144159,-13619.789333,-76.609550
163324.465729,-3627.009116,-11029.068536,-4673.182538
163324.466048,-3034.844362,-11251.130318,-3753.867940
163324.466367,-5625.565159,-7402.059420,-4673.182538
163324.466686,-2368.659014,-6661.853478,-2987.772442
163324.467005,1554.432478,-7550.100608,306.438199
163324.467323,3552.988522,-9104.533087,3524.039291
163324.467642,4589.276840,-10955.047942,6052.154434
163324.467961,888.247130,-9548.656652,5515.887586
163324.468280,518.144159,-8586.388927,2451.505594
163324.468599,-74.020594,-8290.306550,-76.609550
163324.468918,-2812.782580,-4811.338623,-4903.011187
163324.469236,-74.020594,-9474.636058,-2528.115143
163324.469555,148.041188,-11991.336260,-1915.238745
163324.469874,-296.082377,-14285.974681,-1302.362347
163324.470193,-2812.782580,-13841.851115,-2987.772442
163324.470512,-5255.462188,-10658.965565,-3140.991542
163324.470831,-4293.194464,-7994.224174,-3140.991542
163324.471150,-1554.432478,-5921.647536,-2528.115143
163324.471468,2368.659014,-4811.338623,0.000000
163324.471787,6513.812290,-7772.162391,5209.449386
163324.472106,4737.318029,-8364.327145,7354.516781
163324.472425,4071.132681,-9770.718434,6052.154434
163324.472744,148.041188,-8438.347739,2528.115143
163324.473063,-2442.679609,-6957.935855,-306.438199
163324.473382,-3034.844362,-5403.503377,-4519.963438
163324.473700,-1554.432478,-8290.306550,-4366.744339
163324.474019,0.000000,-10140.821405,-3753.867940
163324.474338,0.000000,-12509.480420,0.000000
163324.474657,-1258.350101,-13915.871710,-1302.362347
163324.474976,-3627.009116,-13027.624579,-2528.115143
163324.475295,-5921.647536,-8364.327145,-4290.134789
163324.475613,-2960.823768,-6365.771101,-3753.867940
163324.475932,666.185348,-7179.997637,-1225.752797
163324.476251,4663.297435,-8660.409521,2451.505594
163324.476570,4737.318029,-7772.162391,4213.525239
163324.476889,3182.885551,-11251.130318,6052.154434
163324.477208,-962.267725,-8364.327145,1455.581446
163324.477527,-1776.494261,-8956.491898,-459.657299
163324.477845,-2368.659014,-6587.832884,-2451.505594
163324.478164,-74.020594,-9474.636058,-2528.115143
163324.478483,888.247130,-11029.068536,-612.876398
163324.478802,962.267725,-12731.542202,-612.876398
163324.479121,-1406.391290,-13323.706956,-842.705048
163324.479440,-4145.153275,-10510.924376,-2298.286494
163324.479758,-5107.421000,-8068.244768,-3370.820191
163324.480077,-2738.761985,-7105.977043,-2834.553343
163324.480396,-222.061783,-5921.647536,-1302.362347
163324.480715,1184.329507,-4811.338623,612.876398
163324.481034,4737.318029,-8956.491898,5286.058936
163324.481353,4663.297435,-9474.636058,4826.401637
163324.481672,296.082377,-9548.656652,3753.867940
163324.481990,-2590.720797,-8068.244768,689.485948
163324.482309,-3108.864956,-7179.997637,-2298.286494
163324.482628,-1850.514855,-8882.471304,-1608.800546
163324.482947,-74.020594,-11103.089130,-689.485948
163324.483266,518.144159,-11251.130318,-919.314598
163324.483585,-74.020594,-14211.954086,-76.609550
163324.483903,-2442.679609,-12731.542202,-3140.991542
163324.484222,-7105.977043,-8660.409521,-4903.011187
163324.484541,-4811.338623,-6069.688724,-4979.620737
163324.484860,-1702.473667,-7254.018232,-2757.943793
163324.485179,2812.782580,-8438.347739,459.657299
163324.485498,5033.400406,-9326.594869,4136.915689
163324.485817,7031.956449,-11843.295072,7890.783629
163324.486135,4071.132681,-11251.130318,6741.640382
163324.486454,1110.308913,-9474.636058,3600.648841
163324.486773,-962.267725,-6809.894666,-689.485948
163324.487092,-1258.350101,-6809.894666,-1915.238745
163324.487411,0.000000,-8364.327145,-1225.752797
163324.487730,444.123565,-11325.150913,-1608.800546
163324.488049,-888.247130,-13545.768739,-689.485948
163324.488367,-3849.070898,-13249.686362,-2528.115143
163324.488686,-5773.606348,-10807.006753,-3370.820191
163324.489005,-3923.091493,-9474.636058,-3830.477490
163324.489324,-2368.659014,-6587.832884,-1685.410096
163324.489643,3182.885551,-7105.977043,-76.609550
163324.489962,4145.153275,-7624.121203,2987.772442
163324.490280,2960.823768,-8512.368333,4290.134789
163324.490599,2960.823768,-11843.295072,8197.221829
163324.490918,-1332.370696,-8734.430116,2145.067394
163324.491237,-2960.823768,-7254.018232,-1072.533697
163324.491556,-2664.741391,-6957.935855,-3600.648841
163324.491875,-2368.659014,-7179.997637,-4903.011187
163324.492194,0.000000,-9548.656652,-3370.820191
163324.492512,1036.288319,-13693.809927,-689.485948
163324.492831,-592.164754,-13693.809927,-612.876398
163324.493150,-1850.514855,-12435.459826,-2068.457845
163324.493469,-3627.009116,-8290.306550,-4366.744339
163324.493788,-666.185348,-7105.977043,-2528.115143
163324.494107,2368.659014,-6439.791695,0.000000
163324.494425,5921.647536,-8290.306550,3677.258390
163324.494744,6365.771101,-9918.759623,6281.983084
163324.495063,3552.988522,-10140.821405,7354.516781
163324.495382,0.000000,-8734.430116,2911.162892
163324.495701,-2368.659014,-7179.997637,612.876398
163324.496020,-666.185348,-8734.430116,-1302.362347
163324.496339,-1258.350101,-8142.265362,-1915.238745
163324.496657,-666.185348,-8660.409521,-3983.696590
163324.496976,740.205942,-13397.727550,-383.047749
163324.497295,-2442.679609,-13471.748144,-1838.629195
163324.497614,-5255.462188,-11399.171507,-2834.553343
163324.497933,-5551.544565,-8882.471304,-3983.696590
163324.498252,-3552.988522,-7476.080014,-3447.429741
163324.498570,0.000000,-4811.338623,0.000000
163324.498889,5847.626942,-9178.553681,2987.772442
163324.499208,5847.626942,-8882.471304,4366.744339
163324.499527,4663.297435,-10658.965565,3677.258390
163324.499846,2294.638420,-10658.965565,2987.772442
163324.500165,-2368.659014,-8438.347739,0.000000
163324.500484,-3923.091493,-7179.997637,-2834.553343
163324.500802,-2368.659014,-7550.100608,-3370.820191
163324.501121,2294.638420,-11251.130318,-76.609550
163324.501440,2886.803174,-11695.253884,-76.609550
163324.501759,1406.391290,-11843.295072,-842.705048
163324.502078,-2738.761985,-10955.047942,-2528.115143
163324.502397,-4737.318029,-9548.656652,-2451.505594
163324.502715,-2442.679609,-7698.141797,-3753.867940
163324.503034,-148.041188,-8216.285956,-1302.362347
163324.503353,1702.473667,-8290.306550,1225.752797
163324.503672,3404.947333,-9918.759623,4290.134789
163324.503991,2886.803174,-9992.780217,5515.887586
163324.504310,296.082377,-10732.986159,6128.763984
163324.504629,-1702.473667,-7846.182985,1532.190996
163324.504947,-3034.844362,-6143.709319,-1915.238745
163324.505266,-2368.659014,-6291.750507,-2834.553343
163324.505585,-592.164754,-8216.285956,-3677.258390
163324.505904,0.000000,-9696.697840,-2834.553343
163324.506223,-74.020594,-13027.624579,-1915.238745
163324.506542,-4737.318029,-11917.315666,-3064.381992
163324.506861,-6069.688724,-10881.027347,-6128.763984
163324.507179,-4811.338623,-9474.636058,-3753.867940
163324.507498,-1184.329507,-8364.327145,-1838.629195
163324.507817,2368.659014,-7031.956449,306.438199
163324.508136,5255.462188,-8660.409521,3524.039291
163324.508455,6217.729913,-10732.986159,5975.544884
163324.508774,2960.823768,-8956.491898,5362.668486
163324.509092,592.164754,-7994.224174,3064.381992
163324.509411,-2146.597232,-5995.668130,-536.266849
163324.509730,-2664.741391,-4811.338623,-4366.744339
163324.510049,-2368.659014,-7179.997637,-3064.381992
163324.510368,2294.638420,-10362.883188,-1302.362347
163324.510687,1702.473667,-13619.789333,-76.609550
163324.511006,-1998.556043,-13175.665768,-1608.800546
163324.511324,-4145.153275,-11473.192101,-3140.991542
163324.511643,-4959.379811,-8216.285956,-3677.258390
163324.511962,-1924.535449,-8142.265362,-2221.676944
163324.512281,888.247130,-7254.018232,-1378.971896
163324.512600,3552.988522,-7698.141797,1762.019645
163324.512919,2960.823768,-8364.327145,4903.011187
163324.513237,2960.823768,-10140.821405,4903.011187
163324.513556,222.061783,-8142.265362,689.485948
163324.513875,-1924.535449,-7994.224174,-536.266849
163324.514194,-2516.700203,-6513.812290,-3447.429741
163324.514513,-1258.350101,-8586.388927,-3294.210641
163324.514832,518.144159,-11843.295072,-1915.238745
163324.515151,1110.308913,-14211.954086,-76.609550
163324.515469,-888.247130,-15396.283594,-76.609550
163324.515788,-3627.009116,-12879.583391,-2528.115143
163324.516107,-4811.338623,-8808.450710,-3140.991542
163324.516426,-2368.659014,-5995.668130,-1838.629195
163324.516745,0.000000,-3627.009116,-1685.410096
163324.517064,5329.482782,-7105.977043,2757.943793
163324.517382,6291.750507,-9178.553681,5515.887586
163324.517701,4663.297435,-10807.006753,6052.154434
163324.518020,3478.967927,-9474.636058,4826.401637
163324.518339,-74.020594,-9918.759623,2374.896044
163324.518658,-1554.432478,-8290.306550,-1915.238745
163324.518977,-2590.720797,-6809.894666,-2528.115143
163324.519296,-74.020594,-8290.306550,-2528.115143
163324.519614,1776.494261,-11917.315666,1532.190996
163324.519933,-1184.329507,-11917.315666,-1072.533697
163324.520252,-3627.009116,-11917.315666,-1915.238745
163324.520571,-5551.544565,-9474.636058,-3140.991542
163324.520890,-4811.338623,-7994.224174,-3983.696590
163324.521209,-1480.411884,-7105.977043,-3064.381992
163324.521528,2368.659014,-8660.409521,766.095498
163324.521846,3478.967927,-10066.800811,4213.525239
163324.522165,2294.638420,-9474.636058,2681.334243
163324.522484,0.000000,-9696.697840,3064.381992
163324.522803,-74.020594,-11843.295072,2374.896044
163324.523122,-3775.050304,-7179.997637,-2757.943793
163324.523441,-2072.576638,-7402.059420,-3677.258390
163324.523759,296.082377,-9474.636058,-2298.286494
163324.524078,1776.494261,-11325.150913,612.876398
163324.524397,0.000000,-11917.315666,612.876398
163324.524716,-1850.514855,-12509.480420,-1838.629195
163324.525035,-3552.988522,-11029.068536,-1532.190996
163324.525354,-2516.700203,-8290.306550,-2834.553343
163324.525673,-2146.597232,-4811.338623,-3677.258390
163324.525991,4663.297435,-8290.306550,1762.019645
163324.526310,4663.297435,-8956.491898,3524.039291
163324.526629,4663.297435,-10436.903782,5362.668486
163324.526948,2664.741391,-10732.986159,4596.572988
163324.527267,0.000000,-9548.656652,4290.134789
163324.527586,-2368.659014,-7179.997637,0.000000
163324.527905,-2368.659014,-6587.832884,-459.657299
163324.528223,-74.020594,-8290.306550,-1302.362347
163324.528542,0.000000,-9252.574275,-1225.752797
163324.528861,0.000000,-9622.677246,0.000000
163324.529180,-3256.906145,-11029.068536,-2298.286494
163324.529499,-4219.173869,-11251.130318,-3753.867940
163324.529818,-5699.585753,-9104.533087,-4673.182538
163324.530136,-3478.967927,-7550.100608,-4136.915689
163324.530455,2886.803174,-9474.636058,-689.485948
163324.530774,5033.400406,-10140.821405,3370.820191
163324.531093,6439.791695,-10955.047942,4519.963438
163324.531412,2886.803174,-11547.212695,4366.744339
163324.531731,-1628.453072,-8512.368333,1532.190996
163324.532050,0.000000,-7772.162391,919.314598
163324.532368,-962.267725,-6143.709319,-1762.019645
163324.532687,740.205942,-7179.997637,-1838.629195
163324.533006,2072.576638,-10214.842000,76.609550
163324.533325,2368.659014,-11917.315666,0.000000
163324.533644,-74.020594,-12435.459826,-1532.190996
163324.533963,-3552.988522,-12287.418637,-1149.143247
163324.534282,-4293.194464,-9918.759623,-2911.162892
163324.534600,-1850.514855,-8882.471304,-2068.457845
163324.534919,-74.020594,-7105.977043,-1302.362347
163324.535238,4589.276840,-10066.800811,2987.772442
163324.535557,3404.947333,-10288.862594,3447.429741
163324.535876,1998.556043,-11029.068536,4519.963438
163324.536195,-666.185348,-9326.594869,3524.039291
163324.536514,-5921.647536,-5403.503377,0.000000
163324.536832,-4737.318029,-5403.503377,-2298.286494
163324.537151,-1258.350101,-7105.977043,-2145.067394
163324.537470,3478.967927,-9474.636058,-689.485948
163324.537789,1036.288319,-9696.697840,0.000000
163324.538108,1110.308913,-11843.295072,-1302.362347
163324.538427,-1850.514855,-12731.542202,-1378.971896
163324.538746,-5255.462188,-9474.636058,-3830.477490
163324.539064,-4441.235652,-8364.327145,-4443.353888
163324.539383,-666.185348,-8142.265362,-2298.286494
163324.539702,2368.659014,-8364.327145,2451.505594
163324.540021,4441.235652,-9548.656652,1838.629195
163324.540340,2960.823768,-10732.986159,5209.449386
163324.540659,2886.803174,-11251.130318,4519.963438
163324.540978,-74.020594,-9474.636058,2374.896044
163324.541296,-74.020594,-7105.977043,-76.609550
163324.541615,-1480.411884,-6291.750507,-2298.286494
163324.541934,592.164754,-8956.491898,-1762.019645
163324.542253,1184.329507,-11103.089130,-306.438199
163324.542572,444.123565,-13175.665768,1991.848295
163324.542891,-4293.194464,-12139.377449,-919.314598
163324.543210,-4811.338623,-10658.965565,-3753.867940
163324.543528,-5921.647536,-7476.080014,-4596.572988
163324.543847,-4737.318029,-4811.338623,-3677.258390
163324.544166,4663.297435,-9474.636058,-76.609550
163324.544485,4885.359217,-10362.883188,3753.867940
163324.544804,3775.050304,-10584.944971,4443.353888
163324.545123,1332.370696,-9992.780217,3983.696590
163324.545442,-1184.329507,-8364.327145,1072.533697
163324.545760,-4737.318029,-5107.421000,-2451.505594
163324.546079,-2664.741391,-6291.750507,-2528.115143
163324.546398,-74.020594,-9474.636058,-1838.629195
163324.546717,3182.885551,-11843.295072,-76.609550
163324.547036,1110.308913,-11843.295072,-1302.362347
163324.547355,-592.164754,-13619.789333,2068.457845
163324.547673,-4145.153275,-9992.780217,-2757.943793
163324.547992,-3552.988522,-8438.347739,-3064.381992
163324.548311,-1554.432478,-7031.956449,-2145.067394
163324.548630,1480.411884,-7179.997637,0.000000
163324.548949,2294.638420,-7179.997637,612.876398
163324.549268,4441.235652,-10955.047942,4826.401637
163324.549587,2590.720797,-11177.109724,4519.963438
163324.549905,-296.082377,-9548.656652,2451.505594
163324.550224,-666.185348,-8290.306550,-76.609550
163324.550543,-1776.494261,-6587.832884,-1225.752797
163324.550862,-74.020594,-8734.430116,-1608.800546
163324.551181,1110.308913,-10066.800811,-383.047749
163324.551500,1110.308913,-11547.212695,-76.609550
163324.551819,-2368.659014,-13101.645173,0.000000
163324.552137,-6069.688724,-10436.903782,-3524.039291
163324.552456,-5625.565159,-9548.656652,-3907.087040
163324.552775,-4219.173869,-7105.977043,-3217.601092
163324.553094,-444.123565,-7328.038826,-1915.238745
163324.553413,3034.844362,-8364.327145,0.000000
163324.553732,4367.215058,-10436.903782,3600.648841
163324.554051,4071.132681,-11251.130318,4826.401637
163324.554369,1110.308913,-9474.636058,2068.457845
163324.554688,-2960.823768,-7476.080014,0.000000
163324.555007,-2220.617826,-8364.327145,-153.219100
163324.555326,-1480.411884,-5995.668130,-2451.505594
163324.555645,1850.514855,-8512.368333,-536.266849
163324.555964,3552.988522,-10732.986159,766.095498
163324.556283,1554.432478,-11843.295072,0.000000
163324.556601,-4145.153275,-9548.656652,-2451.505594
163324.556920,-4441.235652,-9548.656652,-4903.011187
163324.557239,-4145.153275,-7772.162391,-2451.505594
163324.557558,-74.020594,-7994.224174,-1302.362347
163324.557877,2886.803174,-7402.059420,-76.609550
163324.558196,7031.956449,-11843.295072,4826.401637
163324.558515,3256.906145,-10510.924376,4749.792088
163324.558833,962.267725,-10288.862594,3830.477490
163324.559152,-1628.453072,-8068.244768,689.485948
163324.559471,-3552.988522,-5403.503377,0.000000
163324.559790,-3552.988522,-5699.585753,-3753.867940
163324.560109,0.000000,-7179.997637,-3370.820191
163324.560428,296.082377,-11695.253884,-612.876398
163324.560747,-666.185348,-15396.283594,-76.609550
163324.561065,-3627.009116,-11029.068536,-4366.744339
163324.561384,-3997.112087,-11843.295072,-3753.867940
163324.561703,-4737.318029,-8216.285956,-3983.696590
163324.562022,-1332.370696,-7254.018232,-2987.772442
163324.562341,2590.720797,-8216.285956,153.219100
163324.562660,4737.318029,-8956.491898,2987.772442
163324.562979,3552.988522,-9548.656652,3907.087040
163324.563297,2368.659014,-9696.697840,4903.011187
163324.563616,0.000000,-8364.327145,3064.381992
163324.563935,-74.020594,-7994.224174,995.924147
163324.564254,-3552.988522,-3923.091493,-4290.134789
163324.564573,740.205942,-7550.100608,-1608.800546
163324.564892,1406.391290,-9770.718434,-842.705048
163324.565211,1036.288319,-12361.439231,-383.047749
163324.565529,-2072.576638,-12435.459826,-1302.362347
163324.565848,-4515.256246,-10658.965565,-1302.362347
163324.566167,-5773.606348,-8956.491898,-3064.381992
163324.566486,-2442.679609,-6365.771101,-3447.429741
163324.566805,0.000000,-7179.997637,0.000000
163324.567124,5255.462188,-10066.800811,4213.525239
163324.567442,592.164754,-9548.656652,3064.381992
163324.567761,1628.453072,-10955.047942,4290.134789
163324.568080,-962.267725,-9474.636058,1608.800546
163324.568399,-2590.720797,-7105.977043,-766.095498
163324.568718,-2442.679609,-5329.482782,-4366.744339
163324.569037,-74.020594,-8290.306550,-1302.362347
163324.569356,2886.803174,-11251.130318,-1608.800546
163324.569674,0.000000,-11251.130318,-1455.581446
163324.569993,-2368.659014,-11917.315666,-2528.115143
163324.570312,-2442.679609,-14063.912898,-76.609550
163324.570631,-4737.318029,-9548.656652,-3064.381992
163324.570950,-1184.329507,-7179.997637,-1685.410096
163324.571269,1924.535449,-6587.832884,0.000000
163324.571588,4441.235652,-7920.203579,2374.896044
163324.571906,4663.297435,-8882.471304,3600.648841
163324.572225,5847.626942,-11695.253884,6052.154434
163324.572544,1184.329507,-8586.388927,3140.991542
163324.572863,-1776.494261,-7179.997637,0.000000
163324.573182,-4589.276840,-4811.338623,-2451.505594
163324.573501,-74.020594,-7994.224174,-1302.362347
163324.573820,0.000000,-8956.491898,-1838.629195
163324.574138,888.247130,-11325.150913,-1915.238745
163324.574457,-1184.329507,-12509.480420,-1378.971896
163324.574776,-2960.823768,-12139.377449,-612.876398
163324.575095,-5403.503377,-9844.739029,-2757.943793
163324.575414,-2738.761985,-8586.388927,-2528.115143
163324.575733,-962.267725,-5921.647536,-2528.115143
163324.576052,1184.329507,-5995.668130,0.000000
163324.576370,3552.988522,-8956.491898,1838.629195
163324.576689,4663.297435,-11843.295072,4213.525239
163324.577008,814.226536,-10584.944971,3677.258390
163324.577327,-2146.597232,-8660.409521,0.000000
163324.577646,-3627.009116,-7698.141797,-2757.943793
163324.577965,-1036.288319,-9178.553681,-2528.115143
163324.578284,592.164754,-9400.615463,-2221.676944
163324.578602,2664.741391,-12361.439231,1149.143247
163324.578921,2146.597232,-14211.954086,842.705048
163324.579240,-1628.453072,-12435.459826,-383.047749
163324.579559,-6513.812290,-7179.997637,-2451.505594
163324.579878,-2442.679609,-6217.729913,-2145.067394
163324.580197,0.000000,-6735.874072,-612.876398
163324.580516,2960.823768,-7179.997637,1149.143247
163324.580834,4737.318029,-9326.594869,3907.087040
163324.581153,6439.791695,-13027.624579,6052.154434
163324.581472,1184.329507,-10732.986159,4903.011187
163324.581791,-74.020594,-10658.965565,2068.457845
163324.582110,-5107.421000,-6291.750507,-1991.848295
163324.582429,-3627.009116,-5033.400406,-4596.572988
163324.582748,-2442.679609,-6291.750507,-4290.134789
163324.583066,2220.617826,-10732.986159,153.219100
163324.583385,1554.432478,-11103.089130,306.438199
163324.583704,-1258.350101,-11177.109724,-229.828649
163324.584023,-2442.679609,-11843.295072,-1302.362347
163324.584342,-4811.338623,-8290.306550,-3983.696590
163324.584661,-4145.153275,-6587.832884,-3677.258390
163324.584980,1258.350101,-8216.285956,-1225.752797
163324.585298,4293.194464,-11695.253884,2681.334243
163324.585617,2886.803174,-10955.047942,1225.752797
163324.585936,2886.803174,-11843.295072,4519.963438
163324.586255,-370.102971,-9474.636058,1838.629195
163324.586574,-1702.473667,-7031.956449,-306.438199
163324.586893,-1110.308913,-6069.688724,-2374.896044
163324.587211,1332.370696,-8882.471304,-76.609550
163324.587530,2368.659014,-8956.491898,0.000000
163324.587849,2368.659014,-11991.336260,1072.533697
163324.588168,-592.164754,-12953.603985,-76.609550
163324.588487,-4145.153275,-11695.253884,-2451.505594
163324.588806,-7105.977043,-7179.997637,-4903.011187
163324.589125,-5329.482782,-4811.338623,-4290.134789
163324.589443,592.164754,-7476.080014,-612.876398
163324.589762,3923.091493,-9474.636058,2298.286494
163324.590081,3552.988522,-9326.594869,2987.772442
163324.590400,4367.215058,-13027.624579,5898.935335
163324.590719,-1480.411884,-9252.574275,2451.505594
163324.591038,-3256.906145,-7254.018232,-306.438199
163324.591357,-3849.070898,-5625.565159,-2451.505594
163324.591675,-2960.823768,-5995.668130,-3677.258390
163324.591994,1628.453072,-9252.574275,-459.657299
163324.592313,666.185348,-10140.821405,-1225.752797
163324.592632,-444.123565,-12509.480420,-3677.258390
163324.592951,-4441.235652,-12065.356855,-2451.505594
163324.593270,-5995.668130,-8734.430116,-6205.373534
163324.593589,-2738.761985,-9474.636058,-3753.867940
163324.593907,-1036.288319,-7476.080014,-2145.067394
163324.594226,3108.864956,-8068.244768,689.485948
163324.594545,4737.318029,-9696.697840,4136.915689
163324.594864,4663.297435,-11843.295072,6052.154434
163324.595183,1628.453072,-9548.656652,4290.134789
163324.595502,0.000000,-5995.668130,0.000000
163324.595821,-2368.659014,-6291.750507,0.000000
163324.596139,-148.041188,-7402.059420,-2221.676944
163324.596458,0.000000,-6587.832884,-3677.258390
163324.596777,1776.494261,-11769.274478,-153.219100
163324.597096,-888.247130,-12879.583391,-689.485948
163324.597415,-3627.009116,-13323.706956,-1838.629195
163324.597734,-5403.503377,-10362.883188,-3140.991542
163324.598053,-3627.009116,-7698.141797,-3140.991542
163324.598371,-1258.350101,-9474.636058,-689.485948
163324.598690,1702.473667,-6365.771101,-1762.019645
163324.599009,2664.741391,-9548.656652,2451.505594
163324.599328,5551.544565,-11843.295072,6435.202183
163324.599647,0.000000,-9548.656652,3677.258390
163324.599966,-814.226536,-9474.636058,1915.238745
163324.600285,-2368.659014,-7105.977043,-1149.143247
163324.600603,-1850.514855,-6365.771101,-2145.067394
163324.600922,-74.020594,-6513.812290,-1915.238745
163324.601241,3478.967927,-11843.295072,-76.609550
163324.601560,2294.638420,-12435.459826,-76.609550
163324.601879,-1258.350101,-11547.212695,-995.924147
163324.602198,-2442.679609,-11251.130318,-2834.553343
163324.602517,-1406.391290,-11547.212695,-153.219100
163324.602835,-2368.659014,-6883.915261,-2451.505594
163324.603154,1110.308913,-6661.853478,-383.047749
163324.603473,3923.091493,-8882.471304,2068.457845
163324.603792,4515.256246,-10807.006753,4749.792088
163324.604111,2516.700203,-10510.924376,5209.449386
163324.604430,1110.308913,-9474.636058,3294.210641
163324.604748,-2590.720797,-6587.832884,-153.219100
163324.605067,-3404.947333,-4219.173869,-3907.087040
163324.605386,-1776.494261,-5995.668130,-2298.286494
163324.605705,3478.967927,-9474.636058,-76.609550
163324.606024,148.041188,-11769.274478,-612.876398
163324.606343,-2442.679609,-13397.727550,-1685.410096
163324.606662,-5625.565159,-12139.377449,-3370.820191
163324.606980,-5107.421000,-10881.027347,-3600.648841
163324.607299,-4737.318029,-8956.491898,-2298.286494
163324.607618,-74.020594,-8216.285956,-1838.629195
163324.607937,4663.297435,-10658.965565,1762.019645
163324.608256,4663.297435,-9474.636058,3524.039291
163324.608575,1480.411884,-9548.656652,2451.505594
163324.608894,2294.638420,-10658.965565,3600.648841
163324.609212,-1036.288319,-7476.080014,1378.971896
163324.609531,-1406.391290,-5847.626942,-1225.752797
163324.609850,-444.123565,-6513.812290,-1838.629195
163324.610169,2886.803174,-11251.130318,-76.609550
163324.610488,2590.720797,-11695.253884,0.000000
163324.610807,296.082377,-12805.562797,306.438199
163324.611126,-2442.679609,-13027.624579,-1608.800546
163324.611444,-4811.338623,-13027.624579,-1915.238745
163324.611763,-7105.977043,-5403.503377,-4903.011187
163324.612082,-1258.350101,-6365.771101,-2528.115143
163324.612401,2072.576638,-7698.141797,766.095498
163324.612720,4367.215058,-9474.636058,3677.258390
163324.613039,3552.988522,-10510.924376,5822.325785
163324.613358,2664.741391,-11251.130318,5209.449386
163324.613676,-3552.988522,-7476.080014,1225.752797
163324.613995,-2294.638420,-7698.141797,-1608.800546
163324.614314,-666.185348,-8882.471304,-1302.362347
163324.614633,-74.020594,-8882.471304,-2528.115143
163324.614952,0.000000,-11325.150913,1225.752797
163324.615271,-370.102971,-13027.624579,-919.314598
163324.615590,-2960.823768,-12731.542202,-1838.629195
163324.615908,-4515.256246,-10510.924376,-2911.162892
163324.616227,-5181.441594,-7179.997637,-5745.716235
163324.616546,-2294.638420,-6069.688724,-3064.381992
163324.616865,1776.494261,-7179.997637,0.000000
163324.617184,5625.565159,-10140.821405,4903.011187
163324.617503,5847.626942,-11843.295072,5439.278036
163324.617822,4663.297435,-13027.624579,4826.401637
163324.618140,0.000000,-9548.656652,3677.258390
163324.618459,-1776.494261,-6735.874072,0.000000
163324.618778,-1406.391290,-6143.709319,-2068.457845
163324.619097,370.102971,-7328.038826,-1378.971896
163324.619416,0.000000,-7179.997637,0.000000
163324.619735,592.164754,-10732.986159,-842.705048
163324.620054,-2442.679609,-10807.006753,-2911.162892
163324.620372,-5625.565159,-11029.068536,-3064.381992
163324.620691,-5107.421000,-9770.718434,-3677.258390
163324.621010,-2442.679609,-7698.141797,-4060.306139
163324.621329,-962.267725,-7476.080014,-2068.457845
163324.621648,2442.679609,-9548.656652,1149.143247
163324.621967,3775.050304,-10881.027347,3600.648841
163324.622286,1850.514855,-10807.006753,5132.839837
163324.622604,0.000000,-8364.327145,1838.629195
163324.622923,-2738.761985,-5699.585753,-1915.238745
163324.623242,-3552.988522,-5403.503377,-3370.820191
163324.623561,740.205942,-7994.224174,-2145.067394
163324.623880,2738.761985,-9844.739029,-76.609550
163324.624199,4071.132681,-14211.954086,-76.609550
163324.624517,-740.205942,-13101.645173,-689.485948
163324.624836,-3182.885551,-11843.295072,-1915.238745
163324.625155,-4071.132681,-9400.615463,-3140.991542
163324.625474,-3552.988522,-6883.915261,-2451.505594
163324.625793,-444.123565,-7476.080014,-1378.971896
163324.626112,2590.720797,-8882.471304,229.828649
163324.626431,3182.885551,-10658.965565,3600.648841
163324.626749,1924.535449,-9844.739029,4290.134789
163324.627068,3182.885551,-11251.130318,7277.907231
163324.627387,-1184.329507,-6587.832884,2451.505594
163324.627706,-888.247130,-4885.359217,0.000000
163324.628025,0.000000,-5181.441594,-1149.143247
163324.628344,888.247130,-7476.080014,-995.924147
163324.628662,0.000000,-8364.327145,0.000000
163324.628981,-370.102971,-12731.542202,-766.095498
163324.629300,-4441.235652,-12953.603985,-3370.820191
163324.629619,-6809.894666,-11103.089130,-4673.182538
163324.629938,-6513.812290,-8438.347739,-5592.497135
163324.630257,-1850.514855,-8882.471304,-4979.620737
163324.630576,3478.967927,-9474.636058,-76.609550
163324.630894,4071.132681,-9326.594869,2911.162892
163324.631213,4145.153275,-8364.327145,3370.820191
163324.631532,4071.132681,-10955.047942,7277.907231
163324.631851,-2368.659014,-5995.668130,1532.190996
163324.632170,-1554.432478,-6069.688724,-1149.143247
163324.632489,-740.205942,-6365.771101,-2221.676944
163324.632807,1702.473667,-8660.409521,-842.705048
163324.633126,1998.556043,-11547.212695,-919.314598
163324.633445,1702.473667,-14211.954086,-766.095498
163324.633764,-2442.679609,-14211.954086,-1915.238745
163324.634083,-4737.318029,-11843.295072,-3753.867940
163324.634402,-5403.503377,-8216.285956,-5439.278036
163324.634721,-74.020594,-9474.636058,-1302.362347
163324.635039,592.164754,-7772.162391,-766.095498
163324.635358,4589.276840,-8586.388927,2987.772442
163324.635677,5181.441594,-9474.636058,6128.763984
163324.635996,4293.194464,-9252.574275,6358.592633
163324.636315,888.247130,-6587.832884,4903.011187
163324.636634,-1702.473667,-5107.421000,1225.752797
163324.636952,-74.020594,-7698.141797,-76.609550
163324.637271,-74.020594,-8586.388927,-1915.238745
163324.637590,222.061783,-10510.924376,-2221.676944
163324.637909,-74.020594,-13027.624579,-1915.238745
163324.638228,-3404.947333,-13397.727550,-2451.505594
163324.638547,-5107.421000,-12953.603985,-4673.182538
163324.638866,-6365.771101,-9918.759623,-5286.058936
163324.639184,-2738.761985,-9178.553681,-2528.115143
163324.639503,0.000000,-9252.574275,-306.438199
163324.639822,5329.482782,-9474.636058,4136.915689
163324.640141,7031.956449,-8882.471304,5439.278036
163324.640460,4737.318029,-8808.450710,7354.516781
163324.640779,1184.329507,-6587.832884,3677.258390
163324.641097,-74.020594,-6513.812290,842.705048
163324.641416,-1406.391290,-6439.791695,-1608.800546
163324.641735,-888.247130,-7254.018232,-2221.676944
163324.642054,0.000000,-10807.006753,-1225.752797
163324.642373,2294.638420,-14878.139434,-76.609550
163324.642692,-3552.988522,-12657.521608,-2451.505594
163324.643010,-3997.112087,-13397.727550,-2298.286494
163324.643329,-4219.173869,-10807.006753,-3064.381992
163324.643648,-1258.350101,-9474.636058,-2528.115143
163324.643967,0.000000,-4811.338623,0.000000
163324.644286,2812.782580,-7105.977043,689.485948
163324.644605,4737.318029,-9696.697840,4366.744339
163324.644924,4071.132681,-10362.883188,6052.154434
163324.645242,1258.350101,-9474.636058,4673.182538
163324.645561,-666.185348,-7179.997637,1762.019645
163324.645880,-3552.988522,-6587.832884,-1225.752797
163324.646199,-2368.659014,-7179.997637,-3677.258390
163324.646518,-74.020594,-10510.924376,-1302.362347
163324.646837,1110.308913,-11695.253884,-1302.362347
163324.647155,444.123565,-14804.118840,-1608.800546
163324.647474,-3997.112087,-12953.603985,-3064.381992
163324.647793,-5625.565159,-11325.150913,-3753.867940
163324.648112,-4811.338623,-7772.162391,-3830.477490
163324.648431,-2368.659014,-5995.668130,-2451.505594
163324.648750,2368.659014,-5995.668130,1225.752797
163324.649069,5329.482782,-8364.327145,3677.258390
163324.649387,6217.729913,-11325.150913,8503.660028
163324.649706,3775.050304,-10362.883188,5898.935335
163324.650025,-74.020594,-6069.688724,1455.581446
163324.650344,-370.102971,-8290.306550,-76.609550
163324.650663,-1924.535449,-6291.750507,-1915.238745
163324.650982,0.000000,-7920.203579,-1455.581446
163324.651300,814.226536,-10732.986159,-1149.143247
163324.651619,0.000000,-13101.645173,0.000000
163324.651938,-4145.153275,-11917.315666,-4290.134789
163324.652257,-7105.977043,-10881.027347,-4596.572988
163324.652576,-5625.565159,-10140.821405,-4366.744339
163324.652895,-2442.679609,-9326.594869,-3753.867940
163324.653214,-1850.514855,-5995.668130,-4290.134789
163324.653532,4071.132681,-10658.965565,1915.238745
163324.653851,4811.338623,-10881.027347,4903.011187
163324.654170,3330.926739,-10584.944971,5975.544884
163324.654489,1036.288319,-7994.224174,3677.258390
163324.654808,-1776.494261,-5995.668130,383.047749
163324.655127,-1554.432478,-5033.400406,-2451.505594
163324.655445,0.000000,-7031.956449,-2451.505594
163324.655764,0.000000,-9548.656652,0.000000
163324.656083,740.205942,-13471.748144,-76.609550
163324.656402,-4737.318029,-11325.150913,-3677.258390
163324.656721,-5255.462188,-12953.603985,-3294.210641
163324.657040,-6291.750507,-9992.780217,-4519.963438
163324.657358,-3997.112087,-7402.059420,-3217.601092
163324.657677,1110.308913,-6513.812290,-1302.362347
163324.657996,5551.544565,-7105.977043,3294.210641
163324.658315,4737.318029,-7772.162391,6205.373534
163324.658634,1184.329507,-7179.997637,6128.763984
163324.658953,1480.411884,-8586.388927,5669.106685
163324.659272,-370.102971,-7994.224174,2834.553343
163324.659590,-4737.318029,-5403.503377,-2451.505594
163324.659909,-2664.741391,-7994.224174,-3140.991542
163324.660228,-1110.308913,-11325.150913,-2757.943793
163324.660547,-740.205942,-13175.665768,-2528.115143
163324.660866,-2516.700203,-13323.706956,-4903.011187
163324.661185,-4737.318029,-12879.583391,-4060.306139
163324.661503,-5995.668130,-8586.388927,-5822.325785
163324.661822,-4737.318029,-6587.832884,-4596.572988
163324.662141,1480.411884,-6587.832884,-919.314598
163324.662460,3552.988522,-6587.832884,919.314598
163324.662779,6883.915261,-9474.636058,5056.230287
163324.663098,5921.647536,-9992.780217,6588.421283
163324.663417,2812.782580,-9770.718434,4979.620737
163324.663735,296.082377,-8364.327145,153.219100
163324.664054,-74.020594,-9474.636058,-1838.629195
163324.664373,666.185348,-9474.636058,-1302.362347
163324.664692,962.267725,-10510.924376,-1915.238745
163324.665011,1184.329507,-13027.624579,-76.609550
163324.665330,-74.020594,-13249.686362,-536.266849
163324.665648,-4737.318029,-10732.986159,-3677.258390
163324.665967,-5181.441594,-10288.862594,-2987.772442
163324.666286,-4441.235652,-7476.080014,-2528.115143
163324.666605,-888.247130,-5477.523971,-1378.971896
163324.666924,4663.297435,-5921.647536,2068.457845
163324.667243,4959.379811,-7550.100608,4213.525239
163324.667562,3552.988522,-9104.533087,5515.887586
163324.667880,2368.659014,-10732.986159,6128.763984
163324.668199,-666.185348,-10362.883188,1762.019645
163324.668518,-7031.956449,-5403.503377,-4903.011187
163324.668837,-2738.761985,-7550.100608,-4213.525239
163324.669156,-1850.514855,-8808.450710,-3140.991542
163324.669475,518.144159,-11547.212695,-1915.238745
163324.669793,370.102971,-12879.583391,-1378.971896
163324.670112,-74.020594,-14211.954086,-76.609550
163324.670431,-4663.297435,-10436.903782,-3294.210641
163324.670750,-3923.091493,-7550.100608,-3140.991542
163324.671069,-1480.411884,-6217.729913,-2528.115143
163324.671388,2368.659014,-6291.750507,0.000000
163324.671707,3552.988522,-9252.574275,4903.011187
163324.672025,3997.112087,-9622.677246,4903.011187
163324.672344,2960.823768,-11029.068536,6435.202183
163324.672663,0.000000,-8364.327145,3677.258390
163324.672982,-2368.659014,-6365.771101,-2221.676944
163324.673301,-370.102971,-8290.306550,-2528.115143
163324.673620,-1776.494261,-7994.224174,-3064.381992
163324.673938,0.000000,-10362.883188,-1302.362347
163324.674257,296.082377,-12805.562797,-1302.362347
163324.674576,-2368.659014,-13545.768739,-76.609550
163324.674895,-4737.318029,-11843.295072,-2298.286494
163324.675214,-7105.977043,-7328.038826,-4136.915689
163324.675533,-6513.812290,-4811.338623,-4903.011187
163324.675851,2072.576638,-7105.977043,-76.609550
163324.676170,1184.329507,-5107.421000,0.000000
163324.676489,5255.462188,-9918.759623,6052.154434
163324.676808,1776.494261,-10362.883188,5286.058936
163324.677127,-296.082377,-9696.697840,2681.334243
163324.677446,-2294.638420,-7994.224174,-689.485948
163324.677765,-2442.679609,-7105.977043,-2528.115143
163324.678083,-2664.741391,-7328.038826,-4060.306139
163324.678402,-740.205942,-9548.656652,-4290.134789
163324.678721,0.000000,-11917.315666,-1608.800546
163324.679040,-74.020594,-13323.706956,-76.609550
163324.679359,-4737.318029,-9548.656652,-3677.258390
163324.679678,-2442.679609,-9474.636058,-2374.896044
163324.679996,-1998.556043,-6291.750507,-2145.067394
163324.680315,1554.432478,-5625.565159,-612.876398
163324.680634,5699.585753,-6587.832884,1608.800546
163324.680953,7031.956449,-9474.636058,4826.401637
163324.681272,5847.626942,-11547.212695,5745.716235
163324.681591,296.082377,-9104.533087,3294.210641
163324.681910,-1776.494261,-7476.080014,0.000000
163324.682228,-740.205942,-9326.594869,-76.609550
163324.682547,-4145.153275,-7179.997637,-3677.258390
163324.682866,-740.205942,-9178.553681,-2528.115143
163324.683185,148.041188,-11991.336260,-1991.848295
163324.683504,-1776.494261,-13767.830521,-1225.752797
163324.683823,-4737.318029,-11325.150913,-3370.820191
163324.684141,-6957.935855,-8956.491898,-2604.724693
163324.684460,-4811.338623,-7105.977043,-4979.620737
163324.684779,-2294.638420,-5477.523971,-2757.943793
163324.685098,2368.659014,-5995.668130,0.000000
163324.685417,7031.956449,-8882.471304,4213.525239
163324.685736,5033.400406,-10658.965565,6435.202183
163324.686055,1702.473667,-10288.862594,4213.525239
163324.686373,-1406.391290,-8734.430116,1149.143247
163324.686692,-2738.761985,-7254.018232,-1608.800546
163324.687011,-1702.473667,-8142.265362,-2451.505594
163324.687330,-74.020594,-9474.636058,-2681.334243
163324.687649,0.000000,-10732.986159,-1915.238745
163324.687968,0.000000,-11325.150913,-1838.629195
163324.688286,-1628.453072,-13323.706956,-1225.752797
163324.688605,-4959.379811,-8364.327145,-4213.525239
163324.688924,-4589.276840,-7698.141797,-2911.162892
163324.689243,-2220.617826,-5773.606348,-1991.848295
163324.689562,1924.535449,-6735.874072,153.219100
163324.689881,5847.626942,-10658.965565,4826.401637
163324.690199,7031.956449,-12731.542202,7277.907231
163324.690518,3182.885551,-13027.624579,7890.783629
163324.690837,-1258.350101,-9178.553681,1455.581446
163324.691156,-4737.318029,-7254.018232,-1838.629195
163324.691475,-5329.482782,-6587.832884,-3064.381992
163324.691794,-3849.070898,-7476.080014,-4903.011187
163324.692113,-74.020594,-10955.047942,-2145.067394
163324.692431,-74.020594,-12509.480420,-1762.019645
163324.692750,-2590.720797,-12731.542202,-1838.629195
163324.693069,-3627.009116,-11843.295072,-2528.115143
163324.693388,-4737.318029,-8364.327145,-3064.381992
163324.693707,-1258.350101,-7994.224174,-1608.800546
163324.694026,2442.679609,-5921.647536,536.266849
163324.694344,6439.791695,-6809.894666,2834.553343
163324.694663,7105.977043,-10436.903782,8273.831378
163324.694982,3701.029710,-9918.759623,5822.325785
163324.695301,592.164754,-9622.677246,3447.429741
163324.695620,-2294.638420,-8586.388927,76.609550
163324.695939,-2442.679609,-7254.018232,-3677.258390
163324.696258,-222.061783,-7994.224174,-3677.258390
163324.696576,888.247130,-10288.862594,-612.876398
163324.696895,1998.556043,-12805.562797,0.000000
163324.697214,2294.638420,-14211.954086,-76.609550
163324.697533,-2442.679609,-11251.130318,-1915.238745
163324.697852,-3182.885551,-11251.130318,-1149.143247
163324.698171,-3849.070898,-6587.832884,-3294.210641
163324.698489,0.000000,-5921.647536,-1685.410096
163324.698808,3552.988522,-7772.162391,1302.362347
163324.699127,3552.988522,-9548.656652,3677.258390
163324.699446,2960.823768,-11621.233289,4903.011187
163324.699765,1776.494261,-11103.089130,2451.505594
163324.700084,-148.041188,-9474.636058,1991.848295
163324.700403,-2146.597232,-7994.224174,-2528.115143
163324.700721,-2442.679609,-6661.853478,-5592.497135
163324.701040,1702.473667,-10955.047942,-2528.115143
163324.701359,1480.411884,-12065.356855,-1225.752797
163324.701678,74.020594,-12953.603985,-995.924147
163324.701997,-2886.803174,-12509.480420,-2221.676944
163324.702316,-4737.318029,-9548.656652,-2451.505594
163324.702634,-4071.132681,-6735.874072,-4903.011187
163324.702953,1480.411884,-7994.224174,995.924147
163324.703272,3775.050304,-7105.977043,1762.019645
163324.703591,4145.153275,-6365.771101,3447.429741
163324.703910,6439.791695,-11251.130318,7277.907231
163324.704229,1628.453072,-9844.739029,5132.839837
163324.704548,-1554.432478,-7994.224174,2451.505594
163324.704866,-3182.885551,-6439.791695,-1072.533697
163324.705185,-1924.535449,-7105.977043,-1608.800546
163324.705504,-1776.494261,-8142.265362,-1915.238745
163324.705823,1110.308913,-10658.965565,-1302.362347
163324.706142,-1184.329507,-11917.315666,-1225.752797
163324.706461,-5921.647536,-11029.068536,-3677.258390
163324.706779,-4811.338623,-12435.459826,-2528.115143
163324.707098,-5625.565159,-9696.697840,-3983.696590
163324.707417,-3849.070898,-6957.935855,-3983.696590
163324.707736,-370.102971,-7994.224174,-1378.971896
163324.708055,3034.844362,-9844.739029,2221.676944
163324.708374,2960.823768,-9548.656652,4903.011187
163324.708692,3923.091493,-10658.965565,6665.030833
163324.709011,1184.329507,-8808.450710,1225.752797
163324.709330,-2072.576638,-7476.080014,612.876398
163324.709649,-1258.350101,-7105.977043,-2834.553343
163324.709968,1406.391290,-9474.636058,-842.705048
163324.710287,740.205942,-10732.986159,-1685.410096
163324.710606,814.226536,-13619.789333,-919.314598
163324.710924,-1924.535449,-13841.851115,-2221.676944
163324.711243,-4663.297435,-11917.315666,-2451.505594
163324.711562,-6587.832884,-7550.100608,-6128.763984
163324.711881,-2590.720797,-6809.894666,-2298.286494
163324.712200,1258.350101,-5921.647536,612.876398
163324.712519,5329.482782,-6587.832884,4213.525239
163324.712837,7624.121203,-9326.594869,6971.469032
163324.713156,5107.421000,-9400.615463,7584.345430
163324.713475,1628.453072,-8660.409521,5592.497135
163324.713794,-1850.514855,-6957.935855,1149.143247
163324.714113,-2442.679609,-6809.894666,-3753.867940
163324.714432,-2368.659014,-8364.327145,-3677.258390
163324.714751,-1776.494261,-9548.656652,-4290.134789
163324.715069,-370.102971,-12805.562797,-2145.067394
163324.715388,-2516.700203,-14582.057057,-2911.162892
163324.715707,-5181.441594,-13397.727550,-4366.744339
163324.716026,-5995.668130,-9548.656652,-6281.983084
163324.716345,-3034.844362,-7698.141797,-3140.991542
163324.716664,1406.391290,-6661.853478,-229.828649
163324.716982,5847.626942,-7105.977043,1762.019645
163324.717301,6661.853478,-7772.162391,5209.449386
163324.717620,8882.471304,-12213.398043,10955.165621
163324.717939,3775.050304,-9548.656652,5209.449386
163324.718258,666.185348,-9030.512492,1455.581446
163324.718577,-1998.556043,-7772.162391,-2221.676944
163324.718896,-1628.453072,-8068.244768,-4290.134789
163324.719214,-1776.494261,-9548.656652,-4903.011187
163324.719533,-370.102971,-11917.315666,-4903.011187
163324.719852,-2960.823768,-13397.727550,-2451.505594
163324.720171,-3552.988522,-12805.562797,-1532.190996
163324.720490,-5033.400406,-9030.512492,-3753.867940
163324.720809,-2442.679609,-9474.636058,-1302.362347
163324.721127,-1332.370696,-4293.194464,-995.924147
163324.721446,3182.885551,-4737.318029,2451.505594
163324.721765,5403.503377,-7402.059420,5669.106685
163324.722084,3849.070898,-9548.656652,7354.516781
163324.722403,0.000000,-8882.471304,4519.963438
163324.722722,-4737.318029,-7476.080014,0.000000
163324.723041,-5625.565159,-8364.327145,-3064.381992
163324.723359,-5921.647536,-7179.997637,-4903.011187
163324.723678,-2442.679609,-8586.388927,-6205.373534
163324.723997,1110.308913,-11843.295072,-2221.676944
163324.724316,-740.205942,-13397.727550,-1608.800546
163324.724635,-2294.638420,-12953.603985,-1838.629195
163324.724954,-4367.215058,-9770.718434,-3217.601092
163324.725272,-4441.235652,-7328.038826,-2528.115143
163324.725591,-962.267725,-4811.338623,-2451.505594
163324.725910,2664.741391,-5995.668130,766.095498
163324.726229,6217.729913,-8364.327145,6128.763984
163324.726548,7031.956449,-11251.130318,6665.030833
163324.726867,592.164754,-9548.656652,3677.258390
163324.727186,-74.020594,-10658.965565,2834.553343
163324.727505,-3627.009116,-8808.450710,-1991.848295
163324.727823,-4515.256246,-7846.182985,-4366.744339
163324.728142,-2442.679609,-8290.306550,-4979.620737
163324.728461,-74.020594,-10214.842000,-1915.238745
163324.728780,0.000000,-11621.233289,0.000000
163324.729099,-74.020594,-14211.954086,-76.609550
163324.729418,-3034.844362,-11547.212695,-1302.362347
163324.729737,-3627.009116,-9252.574275,-229.828649
163324.730056,-1998.556043,-5625.565159,-1302.362347
163324.730375,1332.370696,-5995.668130,612.876398
163324.730694,5107.421000,-7846.182985,3064.381992
163324.731013,5107.421000,-9992.780217,5056.230287
163324.731332,0.000000,-9548.656652,2451.505594
163324.731651,-2812.782580,-9548.656652,1225.752797
163324.731970,-3627.009116,-7846.182985,-3140.991542
163324.732289,-4737.318029,-6587.832884,-4826.401637
163324.732608,-1110.308913,-7994.224174,-1302.362347
163324.732927,2886.803174,-10658.965565,-1302.362347
163324.733246,3330.926739,-11843.295072,766.095498
163324.733565,814.226536,-12065.356855,0.000000
163324.733884,-2368.659014,-11103.089130,-919.314598
163324.734203,-3849.070898,-8734.430116,-2451.505594
163324.734522,-4737.318029,-5403.503377,-3677.258390
163324.734840,2294.638420,-7105.977043,-689.485948
163324.735159,3404.947333,-7179.997637,1378.971896
163324.735478,4441.235652,-9548.656652,1838.629195
163324.735797,2368.659014,-11325.150913,4903.011187
163324.736116,-74.020594,-10362.883188,536.266849
163324.736435,-1924.535449,-9844.739029,612.876398
163324.736754,-3627.009116,-7624.121203,-2757.943793
163324.737073,-2146.597232,-6957.935855,-3294.210641
163324.737392,518.144159,-10658.965565,-1302.362347
163324.737711,1702.473667,-12879.583391,-76.609550
163324.738030,-74.020594,-12065.356855,-995.924147
163324.738349,-4145.153275,-10140.821405,-3983.696590
163324.738668,-5921.647536,-9548.656652,-2451.505594
163324.738987,-4737.318029,-6587.832884,-2451.505594
163324.739306,-2146.597232,-4589.276840,-2757.943793
163324.739625,2812.782580,-7031.956449,995.924147
163324.739944,4293.194464,-8808.450710,3983.696590
163324.740263,2886.803174,-10436.903782,4903.011187
163324.740582,1110.308913,-11843.295072,3600.648841
163324.740901,-2442.679609,-9326.594869,536.266849
163324.741220,-3627.009116,-9474.636058,-1302.362347
163324.741538,-1850.514855,-7105.977043,-2834.553343
163324.741857,0.000000,-6883.915261,-2298.286494
163324.742176,2368.659014,-9844.739029,2451.505594
163324.742495,0.000000,-10732.986159,0.000000
163324.742814,-2146.597232,-12139.377449,-995.924147
163324.743133,-4589.276840,-10140.821405,-2528.115143
163324.743452,-3997.112087,-7550.100608,-3217.601092
163324.743771,-74.020594,-5625.565159,-2834.553343
163324.744090,4663.297435,-9474.636058,2374.896044
163324.744409,4663.297435,-9326.594869,2221.676944
163324.744728,2368.659014,-10140.821405,3677.258390
163324.745047,0.000000,-10732.986159,3600.648841
163324.745366,-4145.153275,-8364.327145,0.000000
163324.745685,-3330.926739,-8290.306550,-2068.457845
163324.746004,-3256.906145,-7476.080014,-3753.867940
163324.746323,-2368.659014,-7476.080014,-4213.525239
163324.746642,1110.308913,-9474.636058,-2987.772442
163324.746961,518.144159,-11769.274478,-1532.190996
163324.747280,-2368.659014,-11325.150913,0.000000
163324.747599,-3775.050304,-10955.047942,-1838.629195
163324.747918,-2442.679609,-8290.306550,-3140.991542
163324.748236,-3552.988522,-3627.009116,-2451.505594
163324.748555,2738.761985,-5403.503377,0.000000
163324.748874,5329.482782,-7994.224174,3217.601092
163324.749193,4589.276840,-10288.862594,5056.230287
163324.749512,1628.453072,-10807.006753,4290.134789
163324.749831,-74.020594,-11843.295072,3600.648841
163324.750150,-2590.720797,-8364.327145,-383.047749
163324.750469,-2590.720797,-7105.977043,-2528.115143
163324.750788,-1406.391290,-5699.585753,-3140.991542
163324.751107,296.082377,-7772.162391,-919.314598
163324.751426,0.000000,-8364.327145,-3677.258390
163324.751745,444.123565,-12361.439231,-76.609550
163324.752064,-3404.947333,-11325.150913,-1608.800546
163324.752383,-5033.400406,-9104.533087,-3294.210641
163324.752702,-3775.050304,-7698.141797,-3140.991542
163324.753021,2072.576638,-9474.636058,-76.609550
163324.753340,2368.659014,-8142.265362,76.609550
163324.753659,3330.926739,-10732.986159,2374.896044
163324.753978,1998.556043,-12509.480420,3524.039291
163324.754297,0.000000,-11029.068536,1455.581446
163324.754616,-2368.659014,-8956.491898,0.000000
163324.754934,-3849.070898,-6587.832884,-3677.258390
163324.755253,-2368.659014,-5995.668130,-6128.763984
163324.755572,0.000000,-9548.656652,-1991.848295
163324.755891,2294.638420,-11251.130318,-1915.238745
163324.756210,1998.556043,-12879.583391,995.924147
163324.756529,-2294.638420,-11399.171507,-1072.533697
163324.756848,-3923.091493,-9178.553681,-1838.629195
163324.757167,-2442.679609,-6513.812290,-1608.800546
163324.757486,1110.308913,-6513.812290,-76.609550
163324.757805,3701.029710,-7476.080014,1608.800546
163324.758124,3256.906145,-8882.471304,2987.772442
163324.758443,0.000000,-9548.656652,3064.381992
163324.758762,-518.144159,-11399.171507,4366.744339
163324.759081,-4219.173869,-7254.018232,-2451.505594
163324.759400,-3627.009116,-7550.100608,-1455.581446
163324.759719,-2886.803174,-5847.626942,-2451.505594
163324.760038,-444.123565,-6735.874072,-1149.143247
163324.760357,1406.391290,-9474.636058,-689.485948
163324.760676,2294.638420,-13619.789333,-76.609550
163324.760995,-2442.679609,-14211.954086,-76.609550
163324.761314,-4811.338623,-10658.965565,-3140.991542
163324.761633,-5551.544565,-8068.244768,-4519.963438
163324.761951,-1036.288319,-7920.203579,-919.314598
163324.762270,0.000000,-5995.668130,0.000000
163324.762589,4367.215058,-10066.800811,2068.457845
163324.762908,4737.318029,-12065.356855,3907.087040
163324.763227,2738.761985,-12657.521608,3447.429741
163324.763546,-74.020594,-11251.130318,1149.143247
163324.763865,-666.185348,-8364.327145,-919.314598
163324.764184,-74.020594,-8290.306550,-1915.238745
163324.764503,1110.308913,-7698.141797,-1608.800546
163324.764822,3478.967927,-9178.553681,-1915.238745
163324.765141,4589.276840,-13915.871710,3600.648841
163324.765460,0.000000,-11325.150913,0.000000
163324.765779,-2516.700203,-11695.253884,-1302.362347
163324.766098,-4219.173869,-7698.141797,-2451.505594
163324.766417,-2146.597232,-6809.894666,-1915.238745
163324.766736,1406.391290,-5773.606348,0.000000
163324.767055,4663.297435,-8882.471304,2681.334243
163324.767374,2590.720797,-9326.594869,4213.525239
163324.767693,2294.638420,-10362.883188,3600.648841
163324.768012,-2738.761985,-8512.368333,1685.410096
163324.768331,-1258.350101,-8290.306550,-76.609550
163324.768649,-3997.112087,-5847.626942,-2911.162892
163324.768968,-1554.432478,-6439.791695,-3064.381992
163324.769287,962.267725,-8438.347739,-1455.581446
163324.769606,1480.411884,-11769.274478,1532.190996
163324.769925,-592.164754,-13101.645173,306.438199
163324.770244,-3627.009116,-12731.542202,-2145.067394
163324.770563,-3849.070898,-11251.130318,-2604.724693
163324.770882,-3034.844362,-7994.224174,-4136.915689
163324.771201,-2368.659014,-5107.421000,-3677.258390
163324.771520,4663.297435,-9474.636058,-76.609550
163324.771839,4589.276840,-10288.862594,3677.258390
163324.772158,3108.864956,-11399.171507,4443.353888
163324.772477,518.144159,-11029.068536,3140.991542
163324.772796,-148.041188,-11177.109724,2374.896044
163324.773115,-2220.617826,-6587.832884,-3983.696590
163324.773434,-3256.906145,-6291.750507,-2451.505594
163324.773753,888.247130,-9400.615463,-919.314598
163324.774072,0.000000,-10732.986159,0.000000
163324.774391,-2368.659014,-10140.821405,0.000000
163324.774710,-3182.885551,-11547.212695,-1149.143247
163324.775029,-5181.441594,-9622.677246,-2145.067394
163324.775347,-3701.029710,-7179.997637,-2451.505594
163324.775666,-592.164754,-5995.668130,-995.924147
163324.775985,2738.761985,-7476.080014,1532.190996
163324.776304,592.164754,-7772.162391,2451.505594
163324.776623,1776.494261,-10732.986159,4979.620737
163324.776942,0.000000,-10140.821405,4290.134789
163324.777261,-2590.720797,-9474.636058,1149.143247
163324.777580,-5921.647536,-5995.668130,-2451.505594
163324.777899,-1850.514855,-6883.915261,-3217.601092
163324.778218,518.144159,-7624.121203,-1991.848295
163324.778537,1850.514855,-10436.903782,-612.876398
163324.778856,0.000000,-10732.986159,-1608.800546
163324.779175,-2442.679609,-11843.295072,-1991.848295
163324.779494,-4737.318029,-9548.656652,-3370.820191
163324.779813,-4737.318029,-7179.997637,-3370.820191
163324.780132,1998.556043,-9178.553681,-383.047749
163324.780451,4663.297435,-9474.636058,2374.896044
163324.780770,5625.565159,-9548.656652,4290.134789
163324.781089,5403.503377,-10955.047942,4290.134789
163324.781408,3256.906145,-11473.192101,4443.353888
163324.781727,592.164754,-9770.718434,2145.067394
163324.782045,-3552.988522,-5403.503377,-2451.505594
163324.782364,-1998.556043,-6587.832884,-3140.991542
163324.782683,-666.185348,-6069.688724,-4443.353888
163324.783002,592.164754,-9548.656652,0.000000
163324.783321,1998.556043,-11843.295072,0.000000
163324.783640,-74.020594,-13619.789333,-1302.362347
163324.783959,-4737.318029,-11177.109724,-1991.848295
163324.784278,-4811.338623,-8882.471304,-3294.210641
163324.784597,-2516.700203,-6883.915261,-2451.505594
163324.784916,962.267725,-6957.935855,-76.609550
163324.785235,592.164754,-6587.832884,0.000000
163324.785554,3182.885551,-8882.471304,2681.334243
163324.785873,296.082377,-9844.739029,4290.134789
163324.786192,-666.185348,-10510.924376,0.000000
163324.786511,-1258.350101,-9474.636058,-76.609550
163324.786830,-1554.432478,-8290.306550,-1302.362347
163324.787149,-1036.288319,-6291.750507,-2451.505594
163324.787468,2072.576638,-9030.512492,-689.485948
163324.787787,2442.679609,-11473.192101,0.000000
163324.788106,0.000000,-11325.150913,0.000000
163324.788425,-3256.906145,-11843.295072,-842.705048
163324.788744,-3775.050304,-10955.047942,-2528.115143
163324.789062,-2442.679609,-9474.636058,-1302.362347
163324.789381,-1036.288319,-5551.544565,-2298.286494
163324.789700,3478.967927,-9474.636058,2374.896044
163324.790019,2960.823768,-9844.739029,3677.258390
163324.790338,2812.782580,-11917.315666,4596.572988
163324.790657,296.082377,-11029.068536,3294.210641
163324.790976,-2368.659014,-8142.265362,536.266849
163324.791295,-5329.482782,-4811.338623,-4903.011187
163324.791614,-2146.597232,-7402.059420,-3294.210641
163324.791933,-592.164754,-9104.533087,-2451.505594
163324.792252,370.102971,-10955.047942,-842.705048
163324.792571,-1554.432478,-12435.459826,-1302.362347
163324.792890,-2442.679609,-13619.789333,-76.609550
163324.793209,-3627.009116,-10658.965565,-3140.991542
163324.793528,-4145.153275,-6587.832884,-3447.429741
163324.793847,296.082377,-6291.750507,-3370.820191
163324.794166,5181.441594,-9104.533087,3447.429741
163324.794485,2368.659014,-8364.327145,2451.505594
163324.794804,3701.029710,-10658.965565,5286.058936
