#time,accel_x,accel_y,accel_z
59327.180422,-222.061783,-9178.553681,1149.143247
59327.180732,-518.144159,-8882.471304,536.266849
59327.181042,-222.061783,-9400.615463,1225.752797
59327.181351,-962.267725,-8290.306550,0.000000
59327.181661,-74.020594,-8290.306550,-689.485948
59327.181971,0.000000,-8956.491898,1225.752797
59327.182280,-74.020594,-9474.636058,1149.143247
59327.182590,0.000000,-7179.997637,1225.752797
59327.182900,0.000000,-9548.656652,1838.629195
59327.183210,-74.020594,-9474.636058,766.095498
59327.183519,0.000000,-9326.594869,612.876398
59327.183829,-296.082377,-9400.615463,919.314598
59327.184139,-592.164754,-7994.224174,-76.609550
59327.184448,-444.123565,-9844.739029,0.000000
59327.184758,0.000000,-9548.656652,1991.848295
59327.185068,-74.020594,-9474.636058,-76.609550
59327.185377,-1628.453072,-8364.327145,1225.752797
59327.185687,-74.020594,-7772.162391,-1762.019645
59327.185997,-74.020594,-8438.347739,229.828649
59327.186307,-1036.288319,-8364.327145,612.876398
59327.186616,-148.041188,-9252.574275,1072.533697
59327.186926,-444.123565,-9178.553681,842.705048
59327.187236,296.082377,-9104.533087,2451.505594
59327.187545,-962.267725,-9474.636058,1149.143247
59327.187855,-1554.432478,-7772.162391,0.000000
59327.188165,296.082377,-9844.739029,1532.190996
59327.188475,-74.020594,-7624.121203,-1302.362347
59327.188784,0.000000,-9844.739029,1991.848295
59327.189094,0.000000,-8956.491898,1838.629195
59327.189404,-74.020594,-9474.636058,1072.533697
59327.189713,-148.041188,-9104.533087,919.314598
59327.190023,-74.020594,-9474.636058,1072.533697
59327.190333,-370.102971,-8290.306550,-229.828649
59327.190642,-1776.494261,-7772.162391,153.219100
59327.190952,148.041188,-9252.574275,1378.971896
59327.191262,-74.020594,-8882.471304,383.047749
59327.191572,0.000000,-8364.327145,1225.752797
59327.191881,-74.020594,-9474.636058,766.095498
59327.192191,-1258.350101,-7772.162391,0.000000
59327.192501,-296.082377,-9030.512492,919.314598
59327.192810,-444.123565,-9252.574275,536.266849
59327.193120,-74.020594,-9104.533087,766.095498
59327.193430,1406.391290,-11251.130318,3370.820191
59327.193739,-74.020594,-8586.388927,842.705048
59327.194049,-1628.453072,-7772.162391,0.000000
59327.194359,296.082377,-9918.759623,2374.896044
59327.194669,-3552.988522,-5995.668130,0.000000
59327.194978,2294.638420,-10658.965565,-76.609550
59327.195288,-74.020594,-10362.883188,1762.019645
59327.195598,-518.144159,-8660.409521,536.266849
59327.195907,0.000000,-9104.533087,766.095498
59327.196217,-518.144159,-9178.553681,383.047749
59327.196527,-2368.659014,-7179.997637,612.876398
59327.196837,666.185348,-10066.800811,1455.581446
59327.197146,-74.020594,-9474.636058,1455.581446
59327.197456,-1184.329507,-8068.244768,0.000000
59327.197766,2294.638420,-11843.295072,2374.896044
59327.198075,-1184.329507,-8660.409521,1532.190996
59327.198385,148.041188,-9400.615463,2374.896044
59327.198695,-370.102971,-8882.471304,229.828649
59327.199004,-740.205942,-8882.471304,689.485948
59327.199314,-370.102971,-9252.574275,766.095498
59327.199624,-962.267725,-7846.182985,-1302.362347
59327.199934,0.000000,-8956.491898,1532.190996
59327.200243,0.000000,-9548.656652,1225.752797
59327.200553,-222.061783,-7402.059420,-1302.362347
59327.200863,592.164754,-9844.739029,2451.505594
59327.201172,-2146.597232,-6587.832884,0.000000
59327.201482,-74.020594,-8808.450710,229.828649
59327.201792,-592.164754,-8512.368333,612.876398
59327.202102,-74.020594,-9178.553681,995.924147
59327.202411,-518.144159,-9030.512492,383.047749
59327.202721,444.123565,-10881.027347,3064.381992
59327.203031,-74.020594,-9178.553681,536.266849
59327.203340,-2072.576638,-7772.162391,0.000000
59327.203650,518.144159,-11843.295072,2987.772442
59327.203960,-3182.885551,-7179.997637,0.000000
59327.204269,1998.556043,-10658.965565,2987.772442
59327.204579,0.000000,-8734.430116,689.485948
59327.204889,-74.020594,-9474.636058,1302.362347
59327.205199,-74.020594,-9474.636058,842.705048
59327.205508,-370.102971,-9178.553681,612.876398
59327.205818,-1258.350101,-7698.141797,-1225.752797
59327.206128,0.000000,-8956.491898,1378.971896
59327.206437,1702.473667,-9918.759623,2374.896044
59327.206747,-1776.494261,-5995.668130,0.000000
59327.207057,1480.411884,-8956.491898,2757.943793
59327.207367,148.041188,-8660.409521,1991.848295
59327.207676,592.164754,-8364.327145,919.314598
59327.207986,1850.514855,-8808.450710,766.095498
59327.208296,1702.473667,-9252.574275,536.266849
59327.208605,2368.659014,-8956.491898,995.924147
59327.208915,4663.297435,-9474.636058,842.705048
59327.209225,2516.700203,-9104.533087,612.876398
59327.209534,2664.741391,-9474.636058,1072.533697
59327.209844,2368.659014,-9622.677246,459.657299
59327.210154,2368.659014,-9474.636058,76.609550
59327.210464,3552.988522,-9548.656652,919.314598
59327.210773,4145.153275,-9844.739029,3447.429741
59327.211083,4071.132681,-7105.977043,-383.047749
59327.211393,5921.647536,-9252.574275,2451.505594
59327.211702,5699.585753,-7994.224174,1149.143247
59327.212012,8216.285956,-9474.636058,2374.896044
59327.212322,5181.441594,-8364.327145,612.876398
59327.212631,5995.668130,-8882.471304,459.657299
59327.212941,5921.647536,-9104.533087,306.438199
59327.213251,6439.791695,-9400.615463,0.000000
59327.213561,5921.647536,-9548.656652,0.000000
59327.213870,6217.729913,-10362.883188,1149.143247
59327.214180,4071.132681,-9548.656652,-2221.676944
59327.214490,5625.565159,-13693.809927,1455.581446
59327.214799,1776.494261,-11917.315666,-842.705048
59327.215109,4071.132681,-13027.624579,1762.019645
59327.215419,1554.432478,-9844.739029,306.438199
59327.215729,2664.741391,-8142.265362,1225.752797
59327.216038,3627.009116,-6143.709319,1915.238745
59327.216348,5403.503377,-4293.194464,2068.457845
59327.216658,5921.647536,-2442.679609,1838.629195
59327.216967,8438.347739,-4071.132681,2451.505594
59327.217277,11769.274478,-6513.812290,3600.648841
59327.217587,5921.647536,-8364.327145,2451.505594
59327.217896,4663.297435,-13619.789333,-689.485948
59327.218206,-74.020594,-17172.777854,-2528.115143
59327.218516,-4737.318029,-17542.880825,-4136.915689
59327.218826,-4737.318029,-16580.613101,-3677.258390
59327.219135,-4737.318029,-12435.459826,-2987.772442
59327.219445,-3330.926739,-9252.574275,-1302.362347
59327.219755,0.000000,-5403.503377,2451.505594
59327.220064,4737.318029,-4811.338623,3677.258390
59327.220374,8808.450710,-6809.894666,8503.660028
59327.220684,2664.741391,-1998.556043,4366.744339
59327.220994,2664.741391,-4441.235652,5056.230287
59327.221303,4663.297435,-4737.318029,4826.401637
59327.221613,1998.556043,-3404.947333,2068.457845
59327.221923,888.247130,-5329.482782,383.047749
59327.222232,-370.102971,-9474.636058,-1455.581446
59327.222542,-2146.597232,-17172.777854,-2987.772442
59327.222852,-7698.141797,-19615.457463,-4903.011187
59327.223161,-8512.368333,-18061.024985,-4903.011187
59327.223471,-3034.844362,-14211.954086,-2528.115143
59327.223781,-3775.050304,-6365.771101,-3064.381992
59327.224091,1924.535449,-5551.544565,2451.505594
59327.224400,5625.565159,-6513.812290,6741.640382
59327.224710,5033.400406,-4811.338623,5898.935335
59327.225020,5699.585753,-4737.318029,6665.030833
59327.225329,7031.956449,-3330.926739,6052.154434
59327.225639,6217.729913,-3330.926739,5209.449386
59327.225949,2368.659014,-3627.009116,1532.190996
59327.226259,-2220.617826,-8660.409521,0.000000
59327.226568,-4811.338623,-18949.272115,-2528.115143
59327.226878,-9474.636058,-16950.716072,-7201.297681
59327.227188,-9178.553681,-18431.127956,-5362.668486
59327.227497,-6217.729913,-15396.283594,-3140.991542
59327.227807,-6957.935855,-10732.986159,-2604.724693
59327.228117,-3478.967927,-8734.430116,76.609550
59327.228426,-370.102971,-6291.750507,2604.724693
59327.228736,1850.514855,-4145.153275,4749.792088
59327.229046,3552.988522,-74.020594,6128.763984
59327.229356,9548.656652,-148.041188,7354.516781
59327.229665,12953.603985,-4145.153275,9729.412825
59327.229975,3849.070898,-4811.338623,3677.258390
59327.230285,296.082377,-11251.130318,1685.410096
59327.230594,-5847.626942,-15988.448347,-1608.800546
59327.230904,-9252.574275,-17098.757260,-7124.688131
59327.231214,-10066.800811,-16284.530724,-7201.297681
59327.231523,-9844.739029,-14582.057057,-6128.763984
59327.231833,-8216.285956,-14508.036463,-3140.991542
59327.232143,-4737.318029,-8438.347739,-1838.629195
59327.232453,888.247130,-7179.997637,1225.752797
59327.232762,5329.482782,-2442.679609,8580.269578
59327.233072,12657.521608,1184.329507,9729.412825
59327.233382,11843.295072,3182.885551,9806.022374
59327.233691,10066.800811,-1258.350101,8580.269578
59327.234001,2886.803174,-7550.100608,2221.676944
59327.234311,-3330.926739,-13249.686362,-1762.019645
59327.234621,-7402.059420,-16950.716072,-5669.106685
59327.234930,-11177.109724,-17764.942608,-8350.440928
59327.235240,-12213.398043,-15248.242405,-10878.556072
59327.235550,-11917.315666,-16876.695478,-6818.249932
59327.235859,-9474.636058,-11917.315666,-3064.381992
59327.236169,-74.020594,-10658.965565,2374.896044
59327.236479,4663.297435,-4071.132681,5286.058936
59327.236788,12435.459826,666.185348,11644.651570
59327.237098,16210.510130,4589.276840,12334.137518
59327.237408,14878.139434,2886.803174,10418.898773
59327.237718,8068.244768,-2738.761985,5286.058936
59327.238027,444.123565,-9400.615463,-536.266849
59327.238337,-6883.915261,-13175.665768,-6128.763984
59327.238647,-10436.903782,-17838.963202,-11031.775171
59327.238956,-16284.530724,-20207.622217,-9652.803275
59327.239266,-11917.315666,-21317.931130,-9269.755526
59327.239576,-11103.089130,-17838.963202,-6435.202183
59327.239886,-1480.411884,-13397.727550,1302.362347
59327.240195,3627.009116,-6957.935855,3677.258390
59327.240505,11325.150913,-2072.576638,10418.898773
59327.240815,17172.777854,2368.659014,13483.280765
59327.241124,17246.798449,2960.823768,13789.718964
59327.241434,9770.718434,4367.215058,5209.449386
59327.241744,2294.638420,-5551.544565,612.876398
59327.242053,-2960.823768,-12583.501014,-612.876398
59327.242363,-9548.656652,-14804.118840,-7431.126331
59327.242673,-16580.613101,-16062.468941,-12257.527968
59327.242983,-17764.942608,-24056.693115,-8197.221829
59327.243292,-13101.645173,-18949.272115,-6741.640382
59327.243602,-6587.832884,-15840.407159,0.000000
59327.243912,1406.391290,-9400.615463,4979.620737
59327.244221,10510.924376,-1184.329507,9346.365076
59327.244531,14063.912898,5107.421000,10418.898773
59327.244841,17838.963202,5551.544565,10265.679673
59327.245150,14211.954086,-74.020594,9806.022374
59327.245460,4071.132681,-5329.482782,1762.019645
59327.245770,-5625.565159,-8364.327145,-4903.011187
59327.246080,-13619.789333,-14878.139434,-7354.516781
59327.246389,-14582.057057,-17764.942608,-10878.556072
59327.246699,-16580.613101,-21910.095883,-10648.727422
59327.247009,-14582.057057,-21243.910535,-5515.887586
59327.247318,-4367.215058,-13989.892304,-919.314598
59327.247628,3775.050304,-11399.171507,3600.648841
59327.247938,8290.306550,-2442.679609,5515.887586
59327.248248,15692.365970,-3923.091493,14709.033562
59327.248557,15914.427753,740.205942,12180.918418
59327.248867,10658.965565,1406.391290,7967.393179
59327.249177,592.164754,-4811.338623,2604.724693
59327.249487,-4219.173869,-11251.130318,-2528.115143
59327.249796,-10881.027347,-16580.613101,-5745.716235
59327.250106,-13323.706956,-18875.251521,-8963.317327
59327.250416,-15988.448347,-22428.240043,-9652.803275
59327.250726,-11325.150913,-23686.590144,-6818.249932
59327.251036,-5625.565159,-13101.645173,-2987.772442
59327.251345,1184.329507,-13693.809927,7354.516781
59327.251655,10584.944971,-7994.224174,10955.165621
59327.251965,12879.583391,-740.205942,12180.918418
59327.252275,15396.283594,3775.050304,10648.727422
59327.252584,11843.295072,0.000000,8810.098227
59327.252894,2738.761985,-5551.544565,1762.019645
59327.253204,-5403.503377,-8068.244768,-4290.134789
59327.253514,-9622.677246,-11177.109724,-6741.640382
59327.253824,-12435.459826,-13101.645173,-9882.631924
59327.254133,-15396.283594,-17246.798449,-9193.145976
59327.254443,-11917.315666,-20133.601622,-7431.126331
59327.254753,-7105.977043,-13101.645173,-1225.752797
59327.255063,4663.297435,-13027.624579,5439.278036
59327.255373,8290.306550,-1258.350101,7354.516781
59327.255682,14656.077652,-1184.329507,11261.603821
59327.255992,15322.262999,-888.247130,10955.165621
59327.256302,9474.636058,-2146.597232,8350.440928
59327.256612,2590.720797,-6143.709319,2528.115143
59327.256921,-1258.350101,-8882.471304,-2528.115143
59327.257231,-8364.327145,-14211.954086,-2528.115143
59327.257541,-10658.965565,-14285.974681,-7354.516781
59327.257851,-13323.706956,-19615.457463,-7048.078582
59327.258161,-11621.233289,-18653.189738,-6511.811733
59327.258470,-5921.647536,-10732.986159,-3600.648841
59327.258780,2146.597232,-13471.748144,5975.544884
59327.259090,8364.327145,-5699.585753,8886.707777
59327.259400,11251.130318,-2368.659014,9806.022374
59327.259710,12287.418637,-444.123565,8810.098227
59327.260019,9400.615463,-3256.906145,6052.154434
59327.260329,1480.411884,-5625.565159,-383.047749
59327.260639,-5921.647536,-7179.997637,-3677.258390
59327.260949,-5995.668130,-11843.295072,-4979.620737
59327.261259,-11325.150913,-12657.521608,-7431.126331
59327.261568,-12879.583391,-15766.386565,-7354.516781
59327.261878,-9400.615463,-17172.777854,-4673.182538
59327.262188,-3701.029710,-12435.459826,-689.485948
59327.262498,3330.926739,-8142.265362,3907.087040
59327.262807,9030.512492,-3256.906145,7584.345430
59327.263117,14137.933492,0.000000,10955.165621
59327.263427,11769.274478,-5921.647536,9729.412825
59327.263737,5551.544565,-2812.782580,2987.772442
59327.264047,0.000000,-8364.327145,612.876398
59327.264356,-2442.679609,-14063.912898,-76.609550
59327.264666,-4811.338623,-10066.800811,-6971.469032
59327.264976,-10732.986159,-12879.583391,-6052.154434
59327.265286,-11399.171507,-15988.448347,-6281.983084
59327.265596,-8438.347739,-16358.551318,-4213.525239
59327.265905,-2368.659014,-12953.603985,1762.019645
59327.266215,2516.700203,-12509.480420,8580.269578
59327.266525,10066.800811,-7328.038826,10572.117872
59327.266835,12953.603985,-3552.988522,9422.974625
59327.267144,9474.636058,-74.020594,6741.640382
59327.267454,6735.874072,-7550.100608,5439.278036
59327.267764,-74.020594,-9474.636058,-2528.115143
59327.268074,-5921.647536,-10288.862594,-4443.353888
59327.268384,-7920.203579,-12731.542202,-4673.182538
59327.268693,-9474.636058,-14434.015869,-6128.763984
59327.269003,-11547.212695,-16728.654289,-4673.182538
59327.269313,-9474.636058,-17246.798449,-2451.505594
59327.269623,-962.267725,-16358.551318,4213.525239
59327.269933,4367.215058,-9178.553681,3600.648841
59327.270242,7105.977043,-1258.350101,6128.763984
59327.270552,10658.965565,-1258.350101,8580.269578
59327.270862,11177.109724,-1628.453072,7277.907231
59327.271172,3849.070898,-4811.338623,1762.019645
59327.271481,-1332.370696,-9770.718434,-1072.533697
59327.271791,-3775.050304,-10066.800811,-3140.991542
59327.272101,-6291.750507,-12879.583391,-4290.134789
59327.272411,-11843.295072,-13693.809927,-4903.011187
59327.272721,-8512.368333,-18357.107362,-3140.991542
59327.273030,-7179.997637,-15396.283594,-2528.115143
59327.273340,-2368.659014,-9548.656652,1225.752797
59327.273650,4663.297435,-7105.977043,5286.058936
59327.273960,9252.574275,-2368.659014,9116.536426
59327.274270,12065.356855,1480.411884,7584.345430
59327.274579,9474.636058,-4145.153275,7431.126331
59327.274889,3182.885551,-6513.812290,2145.067394
59327.275199,-3478.967927,-10288.862594,-2451.505594
59327.275509,-7698.141797,-7179.997637,-4903.011187
59327.275818,-8882.471304,-11917.315666,-4903.011187
59327.276128,-7179.997637,-18357.107362,-3753.867940
59327.276438,-11177.109724,-14878.139434,-6741.640382
59327.276748,-7105.977043,-14285.974681,-2145.067394
59327.277058,592.164754,-9474.636058,2987.772442
59327.277367,3478.967927,-6809.894666,5286.058936
59327.277677,10214.842000,814.226536,7890.783629
59327.277987,12879.583391,0.000000,9269.755526
59327.278297,10066.800811,-666.185348,4903.011187
59327.278607,1554.432478,-3775.050304,153.219100
59327.278916,-4737.318029,-8364.327145,-2451.505594
59327.279226,-3034.844362,-13915.871710,-2528.115143
59327.279536,-8068.244768,-13101.645173,-5822.325785
59327.279846,-10510.924376,-14285.974681,-5209.449386
59327.280155,-10955.047942,-17987.004391,-2757.943793
59327.280465,-5995.668130,-17616.901420,-76.609550
59327.280775,74.020594,-11103.089130,3294.210641
59327.281085,5403.503377,-5921.647536,5209.449386
59327.281395,10584.944971,1702.473667,6052.154434
59327.281704,12953.603985,1776.494261,6818.249932
59327.282014,6513.812290,-74.020594,4903.011187
59327.282324,4219.173869,-7031.956449,3294.210641
59327.282634,-4811.338623,-8660.409521,-3447.429741
59327.282944,-7105.977043,-11917.315666,-3907.087040
59327.283253,-8512.368333,-12509.480420,-4290.134789
59327.283563,-9992.780217,-15840.407159,-4979.620737
59327.283873,-10214.842000,-16876.695478,-4060.306139
59327.284183,-7031.956449,-14952.160028,-1685.410096
59327.284492,370.102971,-10362.883188,1762.019645
59327.284802,7031.956449,-6809.894666,5132.839837
59327.285112,9400.615463,0.000000,7277.907231
59327.285422,10066.800811,1110.308913,7354.516781
59327.285732,10881.027347,-1776.494261,9116.536426
59327.286041,2886.803174,-5181.441594,1455.581446
59327.286351,-4145.153275,-8660.409521,-4290.134789
59327.286661,-5921.647536,-13323.706956,-4060.306139
59327.286971,-6957.935855,-14211.954086,-5286.058936
59327.287281,-9474.636058,-16728.654289,-5209.449386
59327.287590,-9548.656652,-18949.272115,-3140.991542
59327.287900,-3627.009116,-17764.942608,-76.609550
59327.288210,2294.638420,-11843.295072,3600.648841
59327.288520,3256.906145,-5699.585753,5515.887586
59327.288830,10066.800811,-814.226536,9806.022374
59327.289139,12361.439231,592.164754,9193.145976
59327.289449,6069.688724,-74.020594,5209.449386
59327.289759,1480.411884,-5625.565159,842.705048
59327.290069,-6587.832884,-11251.130318,-2374.896044
59327.290378,-5181.441594,-12731.542202,-5056.230287
59327.290688,-8660.409521,-14211.954086,-4979.620737
59327.290998,-8438.347739,-15396.283594,-6128.763984
59327.291308,-7179.997637,-18949.272115,-1302.362347
59327.291618,-4663.297435,-14582.057057,-1762.019645
59327.291927,740.205942,-14582.057057,5515.887586
59327.292237,7920.203579,-7698.141797,5209.449386
59327.292547,8660.409521,-2442.679609,6665.030833
59327.292857,11473.192101,-370.102971,7737.564530
59327.293167,9104.533087,-2812.782580,5745.716235
59327.293476,1924.535449,-8438.347739,919.314598
59327.293786,-3034.844362,-12657.521608,-1455.581446
59327.294096,-5625.565159,-14063.912898,-4903.011187
59327.294406,-6661.853478,-16284.530724,-3907.087040
59327.294715,-11473.192101,-18505.148550,-5975.544884
59327.295025,-9474.636058,-20947.828159,-1225.752797
59327.295335,-4219.173869,-17542.880825,0.000000
59327.295645,1998.556043,-11547.212695,2987.772442
59327.295955,5625.565159,-5403.503377,7048.078582
59327.296264,9770.718434,-1332.370696,8427.050478
59327.296574,10510.924376,2368.659014,7354.516781
59327.296884,6069.688724,-666.185348,5515.887586
59327.297194,0.000000,-4811.338623,0.000000
59327.297504,-5329.482782,-10732.986159,-1991.848295
59327.297813,-5995.668130,-12435.459826,-3753.867940
59327.298123,-9474.636058,-11325.150913,-9193.145976
59327.298433,-9992.780217,-14285.974681,-6818.249932
59327.298743,-7179.997637,-17764.942608,-2528.115143
59327.299052,-3404.947333,-13841.851115,612.876398
59327.299362,3478.967927,-9844.739029,3753.867940
59327.299672,7698.141797,-4145.153275,6435.202183
59327.299982,10066.800811,-74.020594,7354.516781
59327.300292,9770.718434,2886.803174,8197.221829
59327.300601,7105.977043,-74.020594,4903.011187
59327.300911,2886.803174,-7105.977043,-76.609550
59327.301221,-5255.462188,-8364.327145,-6894.859482
59327.301531,-6513.812290,-11473.192101,-4979.620737
59327.301841,-5995.668130,-14804.118840,-4979.620737
59327.302150,-8808.450710,-15692.365970,-4903.011187
59327.302460,-8660.409521,-18801.230927,-2221.676944
59327.302770,-2664.741391,-15026.180623,306.438199
59327.303080,1184.329507,-10140.821405,2451.505594
59327.303389,6513.812290,-2960.823768,6665.030833
59327.303699,9474.636058,3478.967927,7354.516781
59327.304009,12583.501014,888.247130,8963.317327
59327.304319,7031.956449,-1184.329507,3600.648841
59327.304629,-962.267725,-6513.812290,-76.609550
59327.304938,-4737.318029,-10732.986159,-2068.457845
59327.305248,-7179.997637,-12805.562797,-4060.306139
59327.305558,-9030.512492,-12879.583391,-5669.106685
59327.305868,-9474.636058,-16506.592507,-4443.353888
59327.306178,-9178.553681,-16654.633695,-2681.334243
59327.306487,-2442.679609,-14508.036463,1608.800546
59327.306797,1184.329507,-8364.327145,2528.115143
59327.307107,7846.182985,-4811.338623,7354.516781
59327.307417,11177.109724,0.000000,8503.660028
59327.307726,10288.862594,0.000000,8197.221829
59327.308036,6513.812290,-1258.350101,4290.134789
59327.308346,-666.185348,-8882.471304,-153.219100
59327.308656,-4367.215058,-9326.594869,-3753.867940
59327.308966,-6439.791695,-12435.459826,-4443.353888
59327.309275,-7772.162391,-12287.418637,-5592.497135
59327.309585,-9400.615463,-15470.304188,-5515.887586
59327.309895,-7179.997637,-18061.024985,-2221.676944
59327.310205,-2960.823768,-13101.645173,612.876398
59327.310515,6143.709319,-14211.954086,7277.907231
59327.310824,8216.285956,-5403.503377,8503.660028
59327.311134,9474.636058,-74.020594,7354.516781
59327.311444,10362.883188,-1332.370696,7660.954980
59327.311754,5625.565159,-3404.947333,3753.867940
59327.312064,-2664.741391,-7994.224174,-1302.362347
59327.312373,-5995.668130,-11843.295072,-3140.991542
59327.312683,-6587.832884,-12805.562797,-5286.058936
59327.312993,-7772.162391,-15396.283594,-4979.620737
59327.313303,-11843.295072,-14582.057057,-5515.887586
59327.313612,-7994.224174,-17838.963202,0.000000
59327.313922,-74.020594,-12953.603985,2834.553343
59327.314232,2664.741391,-8364.327145,3370.820191
59327.314542,8290.306550,-2368.659014,6588.421283
59327.314852,9548.656652,-3330.926739,7890.783629
59327.315161,9474.636058,-3108.864956,7277.907231
59327.315471,7031.956449,-7698.141797,4519.963438
59327.315781,-1924.535449,-9252.574275,-1225.752797
59327.316091,-3627.009116,-13027.624579,-3140.991542
59327.316401,-8290.306550,-13471.748144,-4903.011187
59327.316710,-8290.306550,-13397.727550,-4596.572988
59327.317020,-9474.636058,-16654.633695,-4903.011187
59327.317330,-8586.388927,-16654.633695,-2451.505594
59327.317640,-592.164754,-12657.521608,2374.896044
59327.317949,4441.235652,-8364.327145,5132.839837
59327.318259,8882.471304,-1628.453072,6971.469032
59327.318569,12361.439231,0.000000,10112.460574
59327.318879,11843.295072,-74.020594,9193.145976
59327.319189,8216.285956,-5625.565159,4519.963438
59327.319498,-4737.318029,-8364.327145,-2451.505594
59327.319808,-5403.503377,-13027.624579,-1762.019645
59327.320118,-9474.636058,-13101.645173,-7354.516781
59327.320428,-9252.574275,-13989.892304,-6358.592633
59327.320738,-11251.130318,-16654.633695,-4826.401637
59327.321047,-8290.306550,-17542.880825,-1532.190996
59327.321357,-1258.350101,-12953.603985,2374.896044
59327.321667,4737.318029,-8068.244768,5515.887586
59327.321977,7105.977043,-1258.350101,7354.516781
59327.322286,12953.603985,0.000000,9116.536426
59327.322596,7920.203579,-1258.350101,6511.811733
59327.322906,6513.812290,-6291.750507,6128.763984
59327.323216,-3627.009116,-9696.697840,-2911.162892
59327.323526,-4811.338623,-11843.295072,-4366.744339
59327.323835,-7698.141797,-13175.665768,-5669.106685
59327.324145,-8586.388927,-14582.057057,-5056.230287
59327.324455,-10510.924376,-17246.798449,-4596.572988
59327.324765,-9474.636058,-16654.633695,-2451.505594
59327.325075,-2368.659014,-10732.986159,612.876398
59327.325384,4737.318029,-6587.832884,5515.887586
59327.325694,8808.450710,-1184.329507,7277.907231
59327.326004,7105.977043,6439.791695,4903.011187
59327.326314,10510.924376,2368.659014,5745.716235
59327.326623,7031.956449,-2960.823768,4213.525239
59327.326933,-2516.700203,-7105.977043,-1838.629195
59327.327243,-6735.874072,-9992.780217,-4903.011187
59327.327553,-7550.100608,-12509.480420,-5209.449386
59327.327863,-10362.883188,-14285.974681,-6741.640382
59327.328172,-10732.986159,-17468.860231,-4366.744339
59327.328482,-9474.636058,-15470.304188,-2451.505594
59327.328792,0.000000,-13249.686362,4826.401637
59327.329102,4071.132681,-5329.482782,3600.648841
59327.329412,8068.244768,-3256.906145,7277.907231
59327.329721,11991.336260,296.082377,8503.660028
59327.330031,10584.944971,0.000000,6971.469032
59327.330341,5329.482782,-5181.441594,2911.162892
59327.330651,-1702.473667,-8882.471304,-2221.676944
59327.330960,-7550.100608,-11917.315666,-4979.620737
59327.331270,-7402.059420,-15100.201217,-5898.935335
59327.331580,-11251.130318,-14878.139434,-7354.516781
59327.331890,-9548.656652,-19837.519246,-2528.115143
59327.332200,-4811.338623,-17764.942608,-1608.800546
59327.332509,1702.473667,-14211.954086,4213.525239
59327.332819,6957.935855,-7698.141797,7354.516781
59327.333129,9992.780217,-2368.659014,9116.536426
59327.333439,11843.295072,1110.308913,9346.365076
59327.333749,11769.274478,888.247130,8044.002729
59327.334058,5551.544565,-2960.823768,3907.087040
59327.334368,-1850.514855,-8290.306550,-1915.238745
59327.334678,-9178.553681,-10732.986159,-6128.763984
59327.334988,-9178.553681,-13101.645173,-5362.668486
59327.335297,-10140.821405,-16580.613101,-7431.126331
59327.335607,-11473.192101,-16284.530724,-4366.744339
59327.335917,-8290.306550,-14878.139434,-2451.505594
59327.336227,-370.102971,-11843.295072,2681.334243
59327.336537,5699.585753,-6291.750507,5439.278036
59327.336846,8956.491898,-1184.329507,7890.783629
59327.337156,12361.439231,0.000000,8503.660028
59327.337466,12139.377449,666.185348,8580.269578
59327.337776,7624.121203,-3552.988522,3600.648841
59327.338086,-2368.659014,-7772.162391,0.000000
59327.338395,-3627.009116,-14211.954086,-3140.991542
59327.338705,-7846.182985,-15544.324782,-4979.620737
59327.339015,-11843.295072,-15618.345376,-7967.393179
59327.339325,-11177.109724,-19615.457463,-5056.230287
59327.339635,-6291.750507,-17172.777854,-2681.334243
59327.339944,0.000000,-12065.356855,2068.457845
59327.340254,5847.626942,-8290.306550,5975.544884
59327.340564,10584.944971,-4441.235652,9116.536426
59327.340874,11769.274478,888.247130,8810.098227
59327.341183,10658.965565,2294.638420,7354.516781
59327.341493,8808.450710,-7105.977043,6665.030833
59327.341803,-3256.906145,-7772.162391,-1225.752797
59327.342113,-8734.430116,-9696.697840,-5209.449386
59327.342423,-9178.553681,-14582.057057,-5975.544884
59327.342732,-11251.130318,-16654.633695,-6741.640382
59327.343042,-12139.377449,-18209.066173,-5286.058936
59327.343352,-7772.162391,-18431.127956,-2145.067394
59327.343662,-1776.494261,-11769.274478,2451.505594
59327.343972,5847.626942,-8586.388927,6665.030833
59327.344281,8512.368333,-296.082377,6052.154434
59327.344591,9474.636058,2294.638420,8580.269578
59327.344901,10658.965565,3478.967927,7354.516781
59327.345211,7254.018232,-2738.761985,3294.210641
59327.345520,-1776.494261,-7698.141797,-2145.067394
59327.345830,-7550.100608,-12509.480420,-5056.230287
59327.346140,-9252.574275,-15840.407159,-7431.126331
59327.346450,-10658.965565,-16950.716072,-6511.811733
59327.346760,-12435.459826,-19319.375086,-5515.887586
59327.347069,-5403.503377,-18949.272115,-689.485948
59327.347379,-1406.391290,-9548.656652,-1378.971896
59327.347689,4737.318029,-7179.997637,6741.640382
59327.347999,8512.368333,-74.020594,7354.516781
59327.348309,14137.933492,1480.411884,11261.603821
59327.348618,13323.706956,2442.679609,9039.926876
59327.348928,6957.935855,-3552.988522,5132.839837
59327.349238,-2220.617826,-7105.977043,-2374.896044
59327.349548,-10362.883188,-13101.645173,-4903.011187
59327.349857,-10658.965565,-13101.645173,-8273.831378
59327.350167,-13027.624579,-17246.798449,-7354.516781
59327.350477,-12065.356855,-18949.272115,-6205.373534
59327.350787,-9474.636058,-16802.674883,-4903.011187
59327.351097,-2886.803174,-11917.315666,306.438199
59327.351406,5255.462188,-8290.306550,6358.592633
59327.351716,9326.594869,-3182.885551,9499.584175
59327.352026,14211.954086,2368.659014,9806.022374
59327.352335,13915.871710,2442.679609,9499.584175
59327.352645,7105.977043,-3256.906145,4903.011187
59327.352955,-1406.391290,-8512.368333,-2221.676944
59327.353265,-8290.306550,-13101.645173,-4290.134789
59327.353574,-7772.162391,-14211.954086,-8656.879127
59327.353884,-14211.954086,-14285.974681,-9652.803275
59327.354194,-11473.192101,-14952.160028,-7431.126331
59327.354504,-5995.668130,-18949.272115,-76.609550
59327.354813,0.000000,-10436.903782,1991.848295
59327.355123,6513.812290,-5921.647536,5362.668486
59327.355433,9918.759623,-2146.597232,9499.584175
59327.355742,13027.624579,2294.638420,11338.213370
59327.356052,11843.295072,4071.132681,7967.393179
59327.356362,8216.285956,-3997.112087,5822.325785
59327.356672,-2368.659014,-5995.668130,-4903.011187
59327.356981,-8882.471304,-13101.645173,-3677.258390
59327.357291,-9548.656652,-13619.789333,-8963.317327
59327.357601,-11325.150913,-16580.613101,-7431.126331
59327.357911,-13841.851115,-16358.551318,-7201.297681
59327.358220,-8290.306550,-13397.727550,-3983.696590
59327.358530,-3182.885551,-13323.706956,2911.162892
59327.358840,3701.029710,-4219.173869,6052.154434
59327.359149,8586.388927,-4219.173869,9806.022374
59327.359459,14804.118840,-666.185348,12257.527968
59327.359769,15322.262999,1184.329507,8503.660028
59327.360079,4737.318029,-5403.503377,4903.011187
59327.360388,-74.020594,-10658.965565,-1302.362347
59327.360698,-8364.327145,-14804.118840,-5286.058936
59327.361008,-11177.109724,-15248.242405,-8656.879127
59327.361318,-12805.562797,-19319.375086,-8427.050478
59327.361627,-13249.686362,-21910.095883,-5592.497135
59327.361937,-8956.491898,-18875.251521,-1455.581446
59327.362247,-2442.679609,-12065.356855,1149.143247
59327.362556,5329.482782,-5403.503377,6128.763984
59327.362866,14137.933492,-6365.771101,13406.671215
59327.363176,14137.933492,2368.659014,10648.727422
59327.363486,15914.427753,592.164754,11874.480219
59327.363795,6513.812290,-4811.338623,5362.668486
59327.364105,-962.267725,-5921.647536,-2374.896044
59327.364415,-10066.800811,-11769.274478,-5132.839837
59327.364725,-10288.862594,-10362.883188,-8044.002729
59327.365034,-11917.315666,-14730.098246,-7814.174080
59327.365344,-13101.645173,-16580.613101,-6511.811733
59327.365654,-10066.800811,-12065.356855,-5362.668486
59327.365963,-2072.576638,-10732.986159,3677.258390
59327.366273,7031.956449,-6513.812290,6971.469032
59327.366583,13101.645173,-2960.823768,11568.042020
59327.366893,14211.954086,2294.638420,11031.775171
59327.367202,15988.448347,3997.112087,8656.879127
59327.367512,6957.935855,-3997.112087,3983.696590
59327.367822,-2368.659014,-7698.141797,-2834.553343
59327.368132,-8068.244768,-12953.603985,-6741.640382
59327.368441,-7476.080014,-15988.448347,-7431.126331
59327.368751,-12435.459826,-15766.386565,-9116.536426
59327.369061,-11843.295072,-19615.457463,-3064.381992
59327.369370,-5995.668130,-15988.448347,-2834.553343
59327.369680,-592.164754,-14137.933492,3830.477490
59327.369990,6069.688724,-3034.844362,5515.887586
59327.370300,12139.377449,-1258.350101,9806.022374
59327.370609,15914.427753,962.267725,12104.308868
59327.370919,14063.912898,2738.761985,8197.221829
59327.371229,5699.585753,-4367.215058,2757.943793
59327.371538,-666.185348,-9474.636058,-1302.362347
59327.371848,-8660.409521,-14211.954086,-4979.620737
59327.372158,-13619.789333,-11917.315666,-9806.022374
59327.372468,-13619.789333,-17246.798449,-7967.393179
59327.372777,-15396.283594,-18431.127956,-5515.887586
59327.373087,-9474.636058,-12731.542202,-5056.230287
59327.373397,-2664.741391,-13027.624579,2987.772442
59327.373707,6587.832884,-4885.359217,7354.516781
59327.374016,12805.562797,-444.123565,11414.822920
59327.374326,16950.716072,4367.215058,10189.070123
59327.374636,15692.365970,3775.050304,9806.022374
59327.374945,8512.368333,-4737.318029,4826.401637
59327.375255,-4737.318029,-6587.832884,-4903.011187
59327.375565,-8882.471304,-13693.809927,-6128.763984
59327.375875,-12435.459826,-14285.974681,-9806.022374
59327.376184,-14285.974681,-18135.045579,-10035.851024
59327.376494,-14804.118840,-21169.889941,-6818.249932
59327.376804,-8660.409521,-16358.551318,-3370.820191
59327.377114,-592.164754,-11029.068536,1532.190996
59327.377423,6513.812290,-3923.091493,6052.154434
59327.377733,13027.624579,-666.185348,11338.213370
59327.378043,18283.086767,888.247130,14019.547613
59327.378352,11843.295072,5773.606348,6818.249932
59327.378662,5329.482782,-3627.009116,4903.011187
59327.378972,-2294.638420,-5699.585753,-2451.505594
59327.379282,-7476.080014,-14211.954086,-4673.182538
59327.379591,-10955.047942,-14952.160028,-7660.954980
59327.379901,-14582.057057,-17912.983796,-9269.755526
59327.380211,-17690.922014,-19763.498651,-7814.174080
59327.380521,-11103.089130,-15100.201217,-4979.620737
59327.380830,-1628.453072,-13989.892304,3140.991542
59327.381140,5403.503377,-7179.997637,7967.393179
59327.381450,15322.262999,-4441.235652,14325.985813
59327.381759,16506.592507,3552.988522,10955.165621
59327.382069,13545.768739,5477.523971,7354.516781
59327.382379,7105.977043,-4293.194464,3830.477490
59327.382689,-3034.844362,-9104.533087,-2528.115143
59327.382998,-8882.471304,-13693.809927,-6435.202183
59327.383308,-11029.068536,-14285.974681,-9422.974625
59327.383618,-14582.057057,-17764.942608,-8656.879127
59327.383928,-16802.674883,-17246.798449,-8810.098227
59327.384237,-9474.636058,-11917.315666,-6741.640382
59327.384547,2368.659014,-11917.315666,4136.915689
59327.384857,10288.862594,-5921.647536,8503.660028
59327.385166,15914.427753,-2368.659014,10955.165621
59327.385476,17764.942608,518.144159,13023.623466
59327.385786,15914.427753,74.020594,10342.289223
59327.386096,6587.832884,-5255.462188,3983.696590
59327.386405,-2590.720797,-8512.368333,-2451.505594
59327.386715,-8364.327145,-14211.954086,-3140.991542
59327.387025,-11843.295072,-14730.098246,-8044.002729
59327.387335,-17172.777854,-15766.386565,-13483.280765
59327.387644,-16876.695478,-21317.931130,-5592.497135
59327.387954,-9548.656652,-12435.459826,-5592.497135
59327.388264,-74.020594,-13027.624579,2374.896044
59327.388573,6809.894666,-3775.050304,7890.783629
59327.388883,13767.830521,0.000000,11874.480219
59327.389193,17690.922014,3330.926739,11951.089769
59327.389503,16358.551318,3775.050304,9729.412825
59327.389812,9104.533087,-3997.112087,5515.887586
59327.390122,-74.020594,-9474.636058,-2528.115143
59327.390432,-9474.636058,-10732.986159,-9806.022374
59327.390742,-10658.965565,-16950.716072,-7354.516781
59327.391051,-13101.645173,-18949.272115,-9882.631924
59327.391361,-13693.809927,-23686.590144,-5592.497135
59327.391671,-9770.718434,-15470.304188,-3983.696590
59327.391980,814.226536,-11103.089130,1072.533697
59327.392290,8586.388927,-6365.771101,8350.440928
59327.392600,14211.954086,-518.144159,11797.870669
59327.392910,17764.942608,-666.185348,13789.718964
59327.393219,15322.262999,-3256.906145,11568.042020
59327.393529,6143.709319,-5625.565159,2374.896044
59327.393839,-3552.988522,-9548.656652,-2451.505594
59327.394149,-7772.162391,-14804.118840,-4366.744339
59327.394458,-12435.459826,-15988.448347,-5898.935335
59327.394768,-14878.139434,-16580.613101,-9729.412825
59327.395078,-17024.736666,-20355.663405,-7354.516781
59327.395387,-10066.800811,-13175.665768,-4979.620737
59327.395697,-1480.411884,-10362.883188,1762.019645
59327.396007,4737.318029,-5995.668130,7354.516781
59327.396317,14063.912898,-1998.556043,12640.575717
59327.396626,18875.251521,0.000000,13406.671215
59327.396936,12657.521608,3997.112087,7354.516781
59327.397246,5921.647536,-3775.050304,2757.943793
59327.397556,-3552.988522,-9844.739029,-2451.505594
59327.397865,-9178.553681,-10510.924376,-7431.126331
59327.398175,-12139.377449,-14359.995275,-9039.926876
59327.398485,-14359.995275,-17542.880825,-9499.584175
59327.398794,-14359.995275,-20651.745782,-6894.859482
59327.399104,-10955.047942,-12509.480420,-4903.011187
59327.399414,0.000000,-10140.821405,2451.505594
59327.399724,10584.944971,-5921.647536,9729.412825
59327.400033,12657.521608,2886.803174,9882.631924
59327.400343,17468.860231,3182.885551,12410.747068
59327.400653,12435.459826,814.226536,9193.145976
59327.400963,5477.523971,-4737.318029,2681.334243
59327.401272,-2220.617826,-9178.553681,-2604.724693
59327.401582,-10214.842000,-12805.562797,-4673.182538
59327.401892,-12805.562797,-13767.830521,-8350.440928
59327.402201,-15766.386565,-15840.407159,-9422.974625
59327.402511,-17468.860231,-19023.292709,-7354.516781
59327.402821,-7772.162391,-14211.954086,-3753.867940
59327.403131,-3552.988522,-9548.656652,612.876398
59327.403440,9104.533087,-4737.318029,9346.365076
59327.403750,11547.212695,1406.391290,11261.603821
59327.404060,17542.880825,5329.482782,10495.508323
59327.404370,14656.077652,2294.638420,8350.440928
59327.404679,5847.626942,-5329.482782,2528.115143
59327.404989,-1850.514855,-7920.203579,-3140.991542
59327.405299,-8364.327145,-11843.295072,-7431.126331
59327.405608,-11325.150913,-14211.954086,-9039.926876
59327.405918,-14211.954086,-18431.127956,-6741.640382
59327.406228,-13101.645173,-21317.931130,-7431.126331
59327.406538,-9474.636058,-12805.562797,-4136.915689
59327.406847,0.000000,-7476.080014,1225.752797
59327.407157,9992.780217,-4219.173869,8886.707777
59327.407467,14730.098246,0.000000,12717.185267
59327.407776,17394.839637,1998.556043,11491.432470
59327.408086,12879.583391,-814.226536,9652.803275
59327.408396,6439.791695,-6513.812290,3294.210641
59327.408706,-3923.091493,-7994.224174,-4979.620737
59327.409015,-14211.954086,-14285.974681,-7354.516781
59327.409325,-12139.377449,-17764.942608,-6741.640382
59327.409635,-16062.468941,-19393.395680,-8656.879127
59327.409945,-14878.139434,-17468.860231,-8580.269578
59327.410254,-6365.771101,-11399.171507,-2757.943793
59327.410564,962.267725,-9178.553681,4290.134789
59327.410874,7550.100608,-2812.782580,9576.193725
59327.411183,14285.974681,2368.659014,12180.918418
59327.411493,18875.251521,2664.741391,11568.042020
59327.411803,13545.768739,2960.823768,7277.907231
59327.412113,1184.329507,-4811.338623,2451.505594
59327.412422,-2442.679609,-11103.089130,-3140.991542
59327.412732,-10436.903782,-10881.027347,-9882.631924
59327.413042,-10807.006753,-14804.118840,-10648.727422
59327.413352,-14211.954086,-18283.086767,-9193.145976
59327.413661,-13101.645173,-20725.766376,-5592.497135
59327.413971,-4589.276840,-14656.077652,-1072.533697
59327.414281,3404.947333,-13397.727550,6205.373534
59327.414590,10658.965565,-6291.750507,12257.527968
59327.414900,15914.427753,-1628.453072,12180.918418
59327.415210,14211.954086,3478.967927,9806.022374
59327.415520,14137.933492,-4737.318029,9729.412825
59327.415829,3478.967927,-6661.853478,1149.143247
59327.416139,-3034.844362,-10955.047942,-1302.362347
59327.416449,-10436.903782,-14137.933492,-5822.325785
59327.416759,-12953.603985,-14359.995275,-8273.831378
59327.417068,-16654.633695,-19615.457463,-8197.221829
59327.417378,-14582.057057,-17764.942608,-6741.640382
59327.417688,-7698.141797,-11917.315666,-2145.067394
59327.417997,1036.288319,-11547.212695,5822.325785
59327.418307,9400.615463,-5921.647536,9116.536426
59327.418617,10658.965565,1998.556043,9806.022374
59327.418927,15988.448347,3182.885551,10112.460574
59327.419236,12213.398043,1184.329507,9729.412825
59327.419546,3182.885551,-4737.318029,0.000000
59327.419856,-4737.318029,-9252.574275,-4136.915689
59327.420166,-9474.636058,-12657.521608,-7201.297681
59327.420475,-11695.253884,-14359.995275,-9806.022374
59327.420785,-15396.283594,-17838.963202,-8580.269578
59327.421095,-11843.295072,-19763.498651,-4903.011187
59327.421404,-2442.679609,-15396.283594,-76.609550
59327.421714,592.164754,-7476.080014,2451.505594
59327.422024,12139.377449,-1258.350101,9499.584175
59327.422334,16580.613101,-1776.494261,14402.595362
59327.422643,15914.427753,740.205942,10955.165621
59327.422953,10436.903782,-1554.432478,7354.516781
59327.423263,2664.741391,-6957.935855,919.314598
59327.423573,-5773.606348,-10436.903782,-5669.106685
59327.423882,-11251.130318,-12213.398043,-8580.269578
59327.424192,-12879.583391,-16210.510130,-6741.640382
59327.424502,-13101.645173,-20133.601622,-7431.126331
59327.424811,-15988.448347,-15470.304188,-7354.516781
59327.425121,-5107.421000,-17172.777854,-76.609550
59327.425431,592.164754,-9844.739029,4903.011187
59327.425741,7994.224174,-5625.565159,9882.631924
59327.426050,13397.727550,-444.123565,14325.985813
59327.426360,16802.674883,4885.359217,8580.269578
59327.426670,11325.150913,2590.720797,5132.839837
59327.426980,1998.556043,-3330.926739,-1608.800546
59327.427289,-4737.318029,-8364.327145,-4903.011187
59327.427599,-7179.997637,-14211.954086,-6205.373534
59327.427909,-13471.748144,-12805.562797,-10342.289223
59327.428218,-14211.954086,-20799.786970,-5515.887586
59327.428528,-12139.377449,-19319.375086,-5975.544884
59327.428838,-4071.132681,-13175.665768,-919.314598
59327.429148,4441.235652,-5847.626942,3983.696590
59327.429457,12583.501014,0.000000,9116.536426
59327.429767,16506.592507,4145.153275,11568.042020
59327.430077,18875.251521,3552.988522,9729.412825
59327.430387,9474.636058,-74.020594,4979.620737
59327.430696,592.164754,-2442.679609,612.876398
59327.431006,-3627.009116,-11251.130318,-3140.991542
59327.431316,-10510.924376,-10732.986159,-6741.640382
59327.431625,-11843.295072,-11325.150913,-8580.269578
59327.431935,-15248.242405,-17024.736666,-7354.516781
59327.432245,-12287.418637,-15174.221811,-5898.935335
59327.432555,-4515.256246,-11177.109724,-1149.143247
59327.432864,3182.885551,-7105.977043,6052.154434
59327.433174,11769.274478,0.000000,9729.412825
59327.433484,14582.057057,3552.988522,12180.918418
59327.433794,11843.295072,8216.285956,6741.640382
59327.434103,9622.677246,518.144159,6128.763984
59327.434413,1702.473667,-4219.173869,-2451.505594
59327.434723,-7624.121203,-6883.915261,-6511.811733
59327.435032,-9474.636058,-10881.027347,-7431.126331
59327.435342,-10807.006753,-13027.624579,-8427.050478
59327.435652,-12139.377449,-17912.983796,-6281.983084
59327.435962,-8660.409521,-19763.498651,-2834.553343
59327.436271,-518.144159,-16580.613101,2987.772442
59327.436581,4663.297435,-11843.295072,7277.907231
59327.436891,8808.450710,-1480.411884,7431.126331
59327.437201,14211.954086,-74.020594,10418.898773
59327.437510,14137.933492,0.000000,9193.145976
59327.437820,7031.956449,-3256.906145,3600.648841
59327.438130,-814.226536,-7772.162391,-306.438199
59327.438439,-6069.688724,-12213.398043,-2834.553343
59327.438749,-7698.141797,-13323.706956,-5439.278036
59327.439059,-10362.883188,-13693.809927,-4903.011187
59327.439369,-13471.748144,-18949.272115,-3370.820191
59327.439678,-7772.162391,-17764.942608,-2528.115143
59327.439988,-4219.173869,-10658.965565,-689.485948
59327.440298,3552.988522,-5995.668130,5515.887586
59327.440607,11473.192101,-1110.308913,9116.536426
59327.440917,12953.603985,592.164754,9116.536426
59327.441227,13767.830521,2886.803174,6128.763984
59327.441537,6513.812290,-4367.215058,3983.696590
59327.441846,-666.185348,-6735.874072,-1608.800546
59327.442156,-7698.141797,-9548.656652,-6128.763984
59327.442466,-9474.636058,-11917.315666,-4903.011187
59327.442776,-7772.162391,-16580.613101,-3753.867940
59327.443085,-11325.150913,-19541.436869,-5592.497135
59327.443395,-9178.553681,-14285.974681,-4136.915689
59327.443705,-74.020594,-12731.542202,2068.457845
59327.444014,7624.121203,-8882.471304,6052.154434
59327.444324,10510.924376,-1628.453072,8656.879127
59327.444634,14656.077652,888.247130,10112.460574
59327.444944,13175.665768,0.000000,8810.098227
59327.445253,4737.318029,-3627.009116,1225.752797
59327.445563,-2368.659014,-7179.997637,0.000000
59327.445873,-5921.647536,-13693.809927,-1225.752797
59327.446183,-6291.750507,-13619.789333,-5592.497135
59327.446492,-13027.624579,-14878.139434,-7354.516781
59327.446802,-12583.501014,-18949.272115,-3753.867940
59327.447112,-8586.388927,-17024.736666,-2528.115143
59327.447421,-2738.761985,-13471.748144,2374.896044
59327.447731,5181.441594,-9474.636058,7201.297681
59327.448041,9622.677246,-4219.173869,10572.117872
59327.448351,10955.047942,1850.514855,7354.516781
59327.448660,9770.718434,2294.638420,5056.230287
59327.448970,1184.329507,-4811.338623,1225.752797
59327.449280,-1406.391290,-12435.459826,-689.485948
59327.449590,-9844.739029,-11103.089130,-7277.907231
59327.449899,-8364.327145,-16432.571912,-5286.058936
59327.450209,-11547.212695,-16950.716072,-6128.763984
59327.450519,-11695.253884,-20207.622217,-4673.182538
59327.450829,-7328.038826,-16876.695478,-1991.848295
59327.451138,222.061783,-10510.924376,2374.896044
59327.451448,6735.874072,-4441.235652,5439.278036
59327.451758,9992.780217,1554.432478,7890.783629
59327.452068,10658.965565,4663.297435,7967.393179
59327.452378,14137.933492,-4737.318029,10955.165621
59327.452687,4071.132681,-5107.421000,1838.629195
59327.452997,-518.144159,-13841.851115,1072.533697
59327.453307,-7698.141797,-14285.974681,-5515.887586
59327.453617,-8956.491898,-14804.118840,-6281.983084
59327.453927,-12139.377449,-17912.983796,-5592.497135
59327.454236,-13767.830521,-17764.942608,-5898.935335
59327.454546,-7179.997637,-16580.613101,-2528.115143
59327.454856,-1406.391290,-11177.109724,1991.848295
59327.455166,5847.626942,-8734.430116,7890.783629
59327.455476,9326.594869,1776.494261,6665.030833
59327.455785,11843.295072,4071.132681,9806.022374
59327.456095,13841.851115,3552.988522,7660.954980
59327.456405,3552.988522,-2442.679609,919.314598
59327.456715,-3923.091493,-8216.285956,-2221.676944
59327.457025,-8586.388927,-11991.336260,-6281.983084
59327.457334,-10140.821405,-14508.036463,-7967.393179
59327.457644,-11029.068536,-20725.766376,-4979.620737
59327.457954,-9548.656652,-21317.931130,-4979.620737
59327.458264,-4811.338623,-16580.613101,-1608.800546
59327.458574,0.000000,-8364.327145,1225.752797
59327.458883,9178.553681,-5329.482782,8120.612279
59327.459193,11843.295072,1110.308913,8580.269578
59327.459503,13841.851115,3552.988522,9576.193725
59327.459813,11843.295072,-74.020594,8580.269578
59327.460122,5329.482782,-4737.318029,1685.410096
59327.460432,-2368.659014,-9770.718434,-2068.457845
59327.460742,-4811.338623,-17394.839637,-1991.848295
59327.461052,-6587.832884,-18949.272115,-4596.572988
59327.461362,-9548.656652,-20725.766376,-6205.373534
59327.461671,-14952.160028,-19393.395680,-6894.859482
59327.461981,-7994.224174,-16210.510130,-766.095498
59327.462291,-2146.597232,-11621.233289,76.609550
59327.462601,5847.626942,-5329.482782,6665.030833
59327.462911,10658.965565,-1332.370696,9806.022374
59327.463220,13989.892304,1184.329507,9652.803275
59327.463530,11251.130318,666.185348,8503.660028
59327.463840,3256.906145,-4811.338623,2757.943793
59327.464150,-3256.906145,-8660.409521,-3677.258390
59327.464460,-5995.668130,-13619.789333,-4979.620737
59327.464769,-10658.965565,-12213.398043,-7354.516781
59327.465079,-10436.903782,-19837.519246,-3753.867940
59327.465389,-11325.150913,-18357.107362,-6358.592633
59327.465699,-4811.338623,-17764.942608,-842.705048
59327.466009,1554.432478,-10584.944971,2374.896044
59327.466318,8216.285956,-3775.050304,6435.202183
59327.466628,9770.718434,-3478.967927,10112.460574
59327.466938,12435.459826,4663.297435,7354.516781
59327.467248,9474.636058,-74.020594,4903.011187
59327.467558,5033.400406,-8068.244768,3600.648841
59327.467867,-3923.091493,-7994.224174,-3753.867940
59327.468177,-7994.224174,-12805.562797,-3677.258390
59327.468487,-5403.503377,-12435.459826,-6205.373534
59327.468797,-10732.986159,-17764.942608,-4519.963438
59327.469106,-12139.377449,-15988.448347,-5439.278036
59327.469416,-6291.750507,-15100.201217,-1915.238745
59327.469726,222.061783,-11325.150913,3294.210641
59327.470036,4737.318029,-3034.844362,4903.011187
59327.470346,7105.977043,-74.020594,6128.763984
59327.470655,13619.789333,222.061783,10418.898773
59327.470965,9400.615463,0.000000,6052.154434
59327.471275,296.082377,-8364.327145,1838.629195
59327.471585,-3627.009116,-11843.295072,-2528.115143
59327.471895,-7920.203579,-14878.139434,-4596.572988
59327.472204,-8290.306550,-16580.613101,-5056.230287
59327.472514,-10510.924376,-19023.292709,-4826.401637
59327.472824,-9918.759623,-18949.272115,-3294.210641
59327.473134,-4737.318029,-12065.356855,-1608.800546
59327.473444,296.082377,-6365.771101,2068.457845
59327.473753,4737.318029,-1258.350101,4903.011187
59327.474063,13027.624579,740.205942,10112.460574
59327.474373,12953.603985,2294.638420,5132.839837
59327.474683,10140.821405,-3552.988522,8733.488677
59327.474993,1776.494261,-6587.832884,0.000000
59327.475302,-3923.091493,-10955.047942,-2834.553343
59327.475612,-6291.750507,-12065.356855,-5515.887586
59327.475922,-9104.533087,-13767.830521,-6511.811733
59327.476232,-10732.986159,-16580.613101,-5898.935335
59327.476542,-11325.150913,-18949.272115,-3140.991542
59327.476851,-6513.812290,-13101.645173,0.000000
59327.477161,2886.803174,-10881.027347,5362.668486
59327.477471,7031.956449,-4145.153275,7277.907231
59327.477781,10658.965565,222.061783,9806.022374
59327.478091,10955.047942,2294.638420,7507.735880
59327.478400,8808.450710,-2960.823768,4826.401637
59327.478710,-1184.329507,-8882.471304,612.876398
59327.479020,-6883.915261,-10584.944971,-4366.744339
59327.479330,-6587.832884,-15396.283594,-4979.620737
59327.479639,-7179.997637,-18357.107362,-3140.991542
59327.479949,-10288.862594,-15100.201217,-5898.935335
59327.480259,-9474.636058,-17246.798449,-2451.505594
59327.480569,-74.020594,-16580.613101,3600.648841
59327.480879,2960.823768,-9548.656652,3677.258390
59327.481188,6809.894666,-3034.844362,7354.516781
59327.481498,11695.253884,370.102971,7814.174080
59327.481808,11547.212695,740.205942,7890.783629
59327.482118,7846.182985,-2960.823768,4290.134789
59327.482428,2294.638420,-13027.624579,1762.019645
59327.482737,-3034.844362,-16506.592507,-76.609550
59327.483047,-5995.668130,-14211.954086,-5592.497135
59327.483357,-9474.636058,-16062.468941,-4903.011187
59327.483667,-9548.656652,-18949.272115,-3140.991542
59327.483977,-11843.295072,-14878.139434,-4290.134789
59327.484286,-4071.132681,-11473.192101,459.657299
59327.484596,1998.556043,-8364.327145,4136.915689
59327.484906,7105.977043,-2072.576638,6665.030833
59327.485216,10955.047942,1406.391290,8120.612279
59327.485526,12657.521608,1110.308913,8580.269578
59327.485835,7698.141797,-2442.679609,5209.449386
59327.486145,-74.020594,-7105.977043,-383.047749
59327.486455,-8290.306550,-9548.656652,-5515.887586
59327.486765,-5995.668130,-16580.613101,-2834.553343
59327.487075,-9474.636058,-12953.603985,-6741.640382
59327.487384,-8956.491898,-17024.736666,-4060.306139
59327.487694,-7772.162391,-16580.613101,-2298.286494
59327.488004,-1850.514855,-12731.542202,536.266849
59327.488314,4145.153275,-8438.347739,3753.867940
59327.488624,7698.141797,-1258.350101,6128.763984
59327.488933,7105.977043,2294.638420,6435.202183
59327.489243,13545.768739,1184.329507,7890.783629
59327.489553,7031.956449,-1036.288319,2604.724693
59327.489863,0.000000,-5995.668130,0.000000
59327.490172,-4811.338623,-9474.636058,-4979.620737
59327.490482,-5403.503377,-13027.624579,-3753.867940
59327.490792,-7994.224174,-13989.892304,-4903.011187
59327.491102,-10510.924376,-17987.004391,-3524.039291
59327.491412,-9400.615463,-16950.716072,-2451.505594
59327.491721,-4737.318029,-11325.150913,0.000000
59327.492031,0.000000,-4811.338623,3677.258390
59327.492341,8290.306550,-3034.844362,8580.269578
59327.492651,11177.109724,0.000000,9422.974625
59327.492961,8290.306550,4663.297435,4903.011187
59327.493270,5847.626942,-2072.576638,2068.457845
59327.493580,-1998.556043,-10955.047942,-76.609550
59327.493890,-8364.327145,-13915.871710,-4903.011187
59327.494200,-9030.512492,-15322.262999,-6435.202183
59327.494510,-9844.739029,-17024.736666,-5898.935335
59327.494819,-11843.295072,-15026.180623,-6435.202183
59327.495129,-9474.636058,-15470.304188,-2451.505594
59327.495439,592.164754,-13693.809927,3370.820191
59327.495749,5847.626942,-10510.924376,6665.030833
59327.496059,7105.977043,-1258.350101,7354.516781
59327.496368,12361.439231,296.082377,6971.469032
59327.496678,12953.603985,-1184.329507,8427.050478
59327.496988,5847.626942,-4145.153275,3600.648841
59327.497298,-962.267725,-9474.636058,0.000000
59327.497608,-5477.523971,-11325.150913,-4290.134789
59327.497917,-9178.553681,-12509.480420,-6741.640382
59327.498227,-11251.130318,-13101.645173,-7354.516781
59327.498537,-11843.295072,-16654.633695,-4596.572988
59327.498847,-7328.038826,-19985.560434,-76.609550
59327.499156,-1258.350101,-9178.553681,-689.485948
59327.499466,4071.132681,-7698.141797,4826.401637
59327.499776,8660.409521,0.000000,7660.954980
59327.500086,11473.192101,2590.720797,7890.783629
59327.500396,11177.109724,2442.679609,7048.078582
59327.500705,5181.441594,-1554.432478,2068.457845
59327.501015,-4737.318029,-4811.338623,-3064.381992
59327.501325,-9178.553681,-8364.327145,-6741.640382
59327.501635,-7698.141797,-13101.645173,-4903.011187
59327.501945,-8068.244768,-15100.201217,-5286.058936
59327.502254,-11843.295072,-14285.974681,-6741.640382
59327.502564,-4811.338623,-18949.272115,-689.485948
59327.502874,296.082377,-13767.830521,2604.724693
59327.503184,5107.421000,-8290.306550,4673.182538
59327.503494,8808.450710,-3108.864956,7277.907231
59327.503803,11547.212695,740.205942,7660.954980
59327.504113,11177.109724,1184.329507,6971.469032
59327.504423,7031.956449,-7105.977043,2374.896044
59327.504733,-3552.988522,-7772.162391,-2451.505594
59327.505043,-5625.565159,-13619.789333,-3140.991542
59327.505352,-8660.409521,-10288.862594,-7737.564530
59327.505662,-8290.306550,-16284.530724,-4596.572988
59327.505972,-11251.130318,-15766.386565,-4903.011187
59327.506282,-7402.059420,-17468.860231,-1225.752797
59327.506592,-1258.350101,-11917.315666,2068.457845
59327.506901,4885.359217,-7179.997637,5669.106685
59327.507211,9400.615463,-3552.988522,8580.269578
59327.507521,11547.212695,1110.308913,6128.763984
59327.507831,12953.603985,0.000000,9729.412825
59327.508141,2442.679609,-1924.535449,766.095498
59327.508450,-3552.988522,-8364.327145,-306.438199
59327.508760,-9474.636058,-10436.903782,-5362.668486
59327.509070,-8734.430116,-13101.645173,-6128.763984
59327.509380,-10066.800811,-18135.045579,-5132.839837
59327.509689,-11251.130318,-17542.880825,-4596.572988
59327.509999,-7846.182985,-17690.922014,-995.924147
59327.510309,-74.020594,-14211.954086,2145.067394
59327.510619,5847.626942,-11251.130318,7584.345430
59327.510929,9400.615463,-2368.659014,7890.783629
59327.511238,10658.965565,2294.638420,7354.516781
59327.511548,14137.933492,0.000000,8503.660028
59327.511858,4737.318029,-3034.844362,3064.381992
59327.512168,-2886.803174,-8438.347739,-1455.581446
59327.512478,-6587.832884,-12805.562797,-4596.572988
59327.512787,-7105.977043,-14656.077652,-5515.887586
59327.513097,-9400.615463,-17172.777854,-5209.449386
59327.513407,-10066.800811,-19171.333898,-3983.696590
59327.513717,-7105.977043,-19467.416275,-76.609550
59327.514027,-74.020594,-12435.459826,2374.896044
59327.514336,4441.235652,-4811.338623,1838.629195
59327.514646,9474.636058,-2442.679609,11031.775171
59327.514956,11251.130318,4663.297435,7354.516781
59327.515266,11177.109724,2368.659014,6665.030833
59327.515576,3478.967927,-3997.112087,1532.190996
59327.515885,-2960.823768,-7105.977043,-689.485948
59327.516195,-9622.677246,-10436.903782,-5669.106685
59327.516505,-9474.636058,-9548.656652,-7354.516781
59327.516815,-11843.295072,-14878.139434,-4903.011187
59327.517125,-8068.244768,-17024.736666,-4903.011187
59327.517434,-4811.338623,-16432.571912,-1302.362347
59327.517744,0.000000,-10732.986159,2451.505594
59327.518054,4663.297435,-3923.091493,3983.696590
59327.518364,11769.274478,-1184.329507,8503.660028
59327.518673,13249.686362,2960.823768,8963.317327
59327.518983,12583.501014,2886.803174,7048.078582
59327.519293,5625.565159,-4219.173869,1838.629195
59327.519603,-3552.988522,-7179.997637,-4060.306139
59327.519913,-10658.965565,-9548.656652,-7048.078582
59327.520222,-6365.771101,-16580.613101,-4979.620737
59327.520532,-10732.986159,-17838.963202,-9116.536426
59327.520842,-11843.295072,-22280.198854,-3370.820191
59327.521152,-7772.162391,-18949.272115,-2681.334243
59327.521462,370.102971,-11991.336260,1685.410096
59327.521771,5477.523971,-11029.068536,7507.735880
59327.522081,10066.800811,-2220.617826,9652.803275
59327.522391,13101.645173,444.123565,9806.022374
59327.522701,10732.986159,1776.494261,7584.345430
59327.523011,2368.659014,-1554.432478,0.000000
59327.523320,-4737.318029,-9252.574275,-1532.190996
59327.523630,-7772.162391,-13027.624579,-5592.497135
59327.523940,-9474.636058,-15470.304188,-6741.640382
59327.524250,-9844.739029,-18949.272115,-5592.497135
59327.524560,-12435.459826,-18431.127956,-5362.668486
59327.524869,-7772.162391,-18357.107362,-1378.971896
59327.525179,-296.082377,-12953.603985,2298.286494
59327.525489,6365.771101,-7476.080014,5822.325785
59327.525799,10584.944971,-1776.494261,9729.412825
59327.526109,12953.603985,3552.988522,7431.126331
59327.526418,11251.130318,2886.803174,7354.516781
59327.526728,8734.430116,-5847.626942,5822.325785
59327.527038,-2442.679609,-6957.935855,-2528.115143
59327.527348,-4811.338623,-11251.130318,-3140.991542
59327.527658,-7698.141797,-11991.336260,-6052.154434
59327.527967,-10140.821405,-16506.592507,-6435.202183
59327.528277,-12583.501014,-18357.107362,-5286.058936
59327.528587,-8438.347739,-15766.386565,-3294.210641
59327.528897,-666.185348,-14211.954086,3294.210641
59327.529206,7031.956449,-5921.647536,6052.154434
59327.529516,9104.533087,-1258.350101,8580.269578
59327.529826,12435.459826,1702.473667,11031.775171
59327.530136,12953.603985,1184.329507,7277.907231
59327.530446,4589.276840,-5921.647536,2987.772442
59327.530755,-4145.153275,-8660.409521,-2145.067394
59327.531065,-8882.471304,-11843.295072,-5515.887586
59327.531375,-11843.295072,-16506.592507,-7048.078582
59327.531685,-11769.274478,-16506.592507,-6741.640382
59327.531995,-12361.439231,-21317.931130,-3677.258390
59327.532304,-5995.668130,-18653.189738,-1302.362347
59327.532614,-74.020594,-11843.295072,2068.457845
59327.532924,2368.659014,-4811.338623,4903.011187
59327.533234,12139.377449,-4219.173869,11338.213370
59327.533544,16580.613101,-1628.453072,12640.575717
59327.533853,13249.686362,518.144159,7814.174080
59327.534163,5625.565159,-4885.359217,0.000000
59327.534473,-3552.988522,-10510.924376,-2528.115143
59327.534783,-6809.894666,-12065.356855,-5362.668486
59327.535093,-9178.553681,-14285.974681,-6128.763984
59327.535402,-9548.656652,-18505.148550,-5286.058936
59327.535712,-11325.150913,-19541.436869,-5592.497135
59327.536022,-10658.965565,-17246.798449,-3677.258390
59327.536332,-1184.329507,-16802.674883,4596.572988
59327.536642,4737.318029,-8364.327145,7967.393179
59327.536951,10881.027347,-3775.050304,10648.727422
59327.537261,14211.954086,0.000000,10572.117872
59327.537571,12879.583391,148.041188,8886.707777
59327.537881,4663.297435,-5329.482782,1915.238745
59327.538190,-5329.482782,-9548.656652,-4596.572988
59327.538500,-8882.471304,-14434.015869,-4290.134789
59327.538810,-9548.656652,-16580.613101,-6511.811733
59327.539120,-14211.954086,-16654.633695,-7354.516781
59327.539430,-11325.150913,-20429.683999,-4060.306139
59327.539739,-9474.636058,-14285.974681,-2451.505594
59327.540049,222.061783,-10955.047942,2528.115143
59327.540359,6513.812290,-4663.297435,6205.373534
59327.540669,11621.233289,-1406.391290,10648.727422
59327.540979,14730.098246,814.226536,10342.289223
59327.541288,12139.377449,3330.926739,6128.763984
59327.541598,3552.988522,-5995.668130,2451.505594
59327.541908,-1628.453072,-9474.636058,-2528.115143
59327.542218,-10362.883188,-10732.986159,-8273.831378
59327.542528,-8290.306550,-15618.345376,-5975.544884
59327.542837,-11843.295072,-16654.633695,-7967.393179
59327.543147,-12435.459826,-19689.478057,-5439.278036
59327.543457,-7179.997637,-15248.242405,-2451.505594
59327.543767,0.000000,-11917.315666,3217.601092
59327.544077,6587.832884,-7031.956449,7890.783629
59327.544386,10881.027347,-592.164754,9729.412825
59327.544696,13027.624579,2886.803174,9806.022374
59327.545006,12953.603985,962.267725,9806.022374
59327.545316,7031.956449,-8882.471304,2374.896044
59327.545626,-6809.894666,-8364.327145,-4749.792088
59327.545935,-9844.739029,-14804.118840,-6128.763984
59327.546245,-10140.821405,-17172.777854,-6971.469032
59327.546555,-13101.645173,-18357.107362,-7431.126331
59327.546865,-14878.139434,-18727.210333,-6358.592633
59327.547175,-8068.244768,-14211.954086,-2528.115143
59327.547484,-1258.350101,-13915.871710,3600.648841
59327.547794,5403.503377,-1924.535449,5592.497135
59327.548104,11843.295072,-74.020594,9806.022374
59327.548414,18875.251521,0.000000,13406.671215
59327.548723,12657.521608,3404.947333,7124.688131
59327.549033,6143.709319,-5181.441594,2068.457845
59327.549343,-888.247130,-9548.656652,306.438199
59327.549653,-8882.471304,-11547.212695,-6511.811733
59327.549963,-10881.027347,-14063.912898,-7584.345430
59327.550272,-13397.727550,-17616.901420,-6818.249932
59327.550582,-12509.480420,-21910.095883,-4979.620737
59327.550892,-6587.832884,-12731.542202,-4060.306139
59327.551202,-1776.494261,-11325.150913,0.000000
59327.551512,9400.615463,-9474.636058,10955.165621
59327.551821,14137.933492,-888.247130,9729.412825
59327.552131,16506.592507,1776.494261,11568.042020
59327.552441,13471.748144,2738.761985,9269.755526
59327.552751,5255.462188,-6291.750507,2911.162892
59327.553061,-3701.029710,-9474.636058,-2911.162892
59327.553371,-9326.594869,-13619.789333,-4903.011187
59327.553681,-8956.491898,-16580.613101,-5669.106685
59327.553991,-10732.986159,-18949.272115,-6818.249932
59327.554301,-15174.221811,-17172.777854,-7431.126331
59327.554610,-10658.965565,-14285.974681,-2451.505594
59327.554920,0.000000,-11029.068536,2757.943793
59327.555230,7624.121203,-5921.647536,7890.783629
59327.555540,9770.718434,1628.453072,8580.269578
59327.555850,15396.283594,-3627.009116,13483.280765
59327.556160,14063.912898,-3404.947333,9882.631924
59327.556470,5921.647536,-9992.780217,4826.401637
59327.556780,-962.267725,-15396.283594,-76.609550
59327.557090,-7772.162391,-15100.201217,-6205.373534
59327.557399,-16580.613101,-16654.633695,-13483.280765
59327.557709,-9548.656652,-23390.507767,-6818.249932
59327.558019,-14730.098246,-21984.116477,-6818.249932
59327.558329,-7772.162391,-15692.365970,-2528.115143
59327.558639,-1110.308913,-8068.244768,1225.752797
59327.558949,8956.491898,-2220.617826,7201.297681
59327.559259,15026.180623,-666.185348,11874.480219
59327.559569,16654.633695,148.041188,14096.157163
59327.559879,15322.262999,814.226536,11338.213370
59327.560189,7031.956449,-5921.647536,3600.648841
59327.560498,-4441.235652,-7179.997637,-6741.640382
59327.560808,-7031.956449,-15914.427753,-3447.429741
59327.561118,-10732.986159,-15396.283594,-8044.002729
59327.561428,-13101.645173,-18061.024985,-8044.002729
59327.561738,-14359.995275,-18431.127956,-6818.249932
59327.562048,-10881.027347,-16284.530724,-3600.648841
59327.562358,1036.288319,-11547.212695,3064.381992
59327.562668,6735.874072,-5847.626942,7354.516781
59327.562978,11843.295072,-370.102971,12563.966167
59327.563288,18875.251521,1184.329507,12640.575717
59327.563597,13841.851115,1776.494261,7277.907231
59327.563907,2368.659014,-3627.009116,612.876398
59327.564217,-1850.514855,-11251.130318,-1915.238745
59327.564527,-9104.533087,-13619.789333,-4979.620737
59327.564837,-11917.315666,-14508.036463,-9422.974625
59327.565147,-14656.077652,-18653.189738,-8656.879127
59327.565457,-15322.262999,-21095.869347,-6741.640382
59327.565767,-7179.997637,-13693.809927,-4903.011187
59327.566077,0.000000,-8364.327145,1225.752797
59327.566387,7994.224174,-8660.409521,9806.022374
59327.566696,14137.933492,-3552.988522,13406.671215
59327.567006,12139.377449,4663.297435,9806.022374
59327.567316,9474.636058,-3627.009116,13483.280765
59327.567626,8512.368333,-4515.256246,2145.067394
59327.567936,-6735.874072,-11399.171507,-3600.648841
59327.568246,-10140.821405,-13027.624579,-6052.154434
59327.568556,-10807.006753,-16654.633695,-6818.249932
59327.568866,-13693.809927,-18431.127956,-8044.002729
59327.569176,-15396.283594,-17246.798449,-8580.269578
59327.569486,-9474.636058,-13693.809927,-2451.505594
59327.569795,2294.638420,-15988.448347,6665.030833
59327.570105,5921.647536,-3627.009116,8886.707777
59327.570415,15322.262999,-1702.473667,14325.985813
59327.570725,15470.304188,-3034.844362,11031.775171
59327.571035,14137.933492,-5255.462188,9882.631924
59327.571345,6513.812290,-12287.418637,3064.381992
59327.571655,-3997.112087,-15174.221811,-2221.676944
59327.571965,-9696.697840,-17172.777854,-4979.620737
59327.572275,-12509.480420,-17468.860231,-8810.098227
59327.572585,-16580.613101,-20503.704593,-9806.022374
59327.572894,-17172.777854,-22576.281231,-4903.011187
59327.573204,-7179.997637,-14211.954086,-3140.991542
59327.573514,592.164754,-9548.656652,3983.696590
59327.573824,7105.977043,-74.020594,7354.516781
59327.574134,13101.645173,222.061783,11568.042020
59327.574444,15766.386565,2442.679609,11951.089769
59327.574754,11843.295072,1406.391290,8273.831378
59327.575064,2738.761985,-5921.647536,2374.896044
59327.575374,-3627.009116,-8290.306550,-3753.867940
59327.575684,-11029.068536,-12361.439231,-6511.811733
59327.575993,-11843.295072,-14582.057057,-7354.516781
59327.576303,-11917.315666,-18949.272115,-7431.126331
59327.576613,-15026.180623,-17246.798449,-8427.050478
59327.576923,-7402.059420,-11325.150913,-4136.915689
59327.577233,444.123565,-10140.821405,3830.477490
59327.577543,8290.306550,-3108.864956,7890.783629
59327.577853,14508.036463,-370.102971,11644.651570
59327.578163,18579.169144,1776.494261,12180.918418
59327.578473,15914.427753,0.000000,9729.412825
59327.578782,5847.626942,-5773.606348,1762.019645
59327.579092,-4737.318029,-5403.503377,-4903.011187
59327.579402,-7179.997637,-13027.624579,-5592.497135
59327.579712,-12657.521608,-13101.645173,-9806.022374
59327.580022,-14582.057057,-18949.272115,-9422.974625
59327.580332,-14211.954086,-20947.828159,-5669.106685
59327.580642,-5625.565159,-14434.015869,-1991.848295
59327.580952,222.061783,-9918.759623,2604.724693
59327.581262,8586.388927,-3034.844362,8580.269578
59327.581572,15914.427753,-2294.638420,12793.794817
59327.581881,17690.922014,2960.823768,11568.042020
59327.582191,10288.862594,4441.235652,5439.278036
59327.582501,3552.988522,-4219.173869,3064.381992
59327.582811,-2442.679609,-8438.347739,-3753.867940
59327.583121,-6587.832884,-13027.624579,-4979.620737
59327.583431,-11399.171507,-15470.304188,-7890.783629
59327.583741,-13767.830521,-19023.292709,-7660.954980
59327.584051,-14285.974681,-19319.375086,-6205.373534
59327.584361,-7105.977043,-11917.315666,-2451.505594
59327.584671,592.164754,-10732.986159,5209.449386
59327.584980,7624.121203,-4737.318029,9729.412825
59327.585290,14137.933492,-4145.153275,11568.042020
59327.585600,13323.706956,-74.020594,8580.269578
59327.585910,11843.295072,-1850.514855,7890.783629
59327.586220,6439.791695,-9474.636058,2987.772442
59327.586530,-2294.638420,-8512.368333,-2834.553343
59327.586840,-9400.615463,-14285.974681,-5286.058936
59327.587150,-10214.842000,-16580.613101,-7354.516781
59327.587460,-14211.954086,-20207.622217,-9806.022374
59327.587770,-15988.448347,-20207.622217,-4903.011187
59327.588079,-7698.141797,-19171.333898,-1225.752797
59327.588389,2294.638420,-16580.613101,4826.401637
59327.588699,5625.565159,-4219.173869,6435.202183
59327.589009,14804.118840,-3552.988522,13406.671215
59327.589319,18875.251521,0.000000,10955.165621
59327.589629,7624.121203,-5625.565159,7507.735880
59327.589939,1702.473667,-7550.100608,2757.943793
59327.590249,-3552.988522,-11621.233289,-1532.190996
59327.590559,-10066.800811,-13471.748144,-6358.592633
59327.590869,-14211.954086,-12509.480420,-11951.089769
59327.591178,-18357.107362,-17542.880825,-8580.269578
59327.591488,-11325.150913,-20133.601622,-3140.991542
59327.591798,-4737.318029,-14285.974681,-1838.629195
59327.592108,1110.308913,-17172.777854,5439.278036
59327.592418,5921.647536,-7476.080014,9959.241474
59327.592728,13693.809927,-1110.308913,10801.946522
59327.593038,15174.221811,-962.267725,10265.679673
59327.593348,11103.089130,-3404.947333,6665.030833
59327.593658,4071.132681,-7994.224174,1149.143247
59327.593968,-4367.215058,-8364.327145,-3983.696590
59327.594277,-9474.636058,-13101.645173,-8580.269578
59327.594587,-9844.739029,-18209.066173,-6205.373534
59327.594897,-14878.139434,-18949.272115,-8963.317327
59327.595207,-12731.542202,-22280.198854,-3677.258390
59327.595517,-6513.812290,-11917.315666,-2451.505594
59327.595827,1554.432478,-7698.141797,3370.820191
59327.596137,9622.677246,1628.453072,7354.516781
59327.596447,14211.954086,4737.318029,10878.556072
59327.596757,16506.592507,8290.306550,8503.660028
59327.597067,10584.944971,2664.741391,4826.401637
59327.597376,1184.329507,-1110.308913,-1302.362347
59327.597686,-7105.977043,-5107.421000,-4903.011187
59327.597996,-7179.997637,-11843.295072,-5286.058936
59327.598306,-11399.171507,-11917.315666,-7967.393179
59327.598616,-15692.365970,-14582.057057,-7967.393179
59327.598926,-11843.295072,-13989.892304,-6511.811733
59327.599236,-3627.009116,-10732.986159,-2145.067394
59327.599546,2294.638420,-8364.327145,5286.058936
59327.599856,11177.109724,-3552.988522,9729.412825
59327.600165,16506.592507,0.000000,9729.412825
59327.600475,15322.262999,4959.379811,6971.469032
59327.600785,11325.150913,-3330.926739,7354.516781
59327.601095,2886.803174,-6513.812290,-76.609550
59327.601405,-7105.977043,-7772.162391,-4903.011187
59327.601715,-9548.656652,-12657.521608,-7431.126331
59327.602025,-12213.398043,-15692.365970,-8197.221829
59327.602335,-14137.933492,-21465.972318,-7354.516781
59327.602645,-12731.542202,-19319.375086,-4749.792088
59327.602955,-2664.741391,-13323.706956,1455.581446
59327.603264,7031.956449,-9474.636058,8503.660028
59327.603574,11769.274478,0.000000,9729.412825
59327.603884,11843.295072,2294.638420,9806.022374
59327.604194,16506.592507,0.000000,10955.165621
59327.604504,5477.523971,-666.185348,1838.629195
59327.604814,1702.473667,-6513.812290,-383.047749
59327.605124,-5773.606348,-10436.903782,-3524.039291
59327.605434,-9104.533087,-14730.098246,-6128.763984
59327.605744,-11103.089130,-15248.242405,-7737.564530
59327.606054,-14804.118840,-19171.333898,-5822.325785
59327.606363,-10955.047942,-18061.024985,-4136.915689
59327.606673,-3034.844362,-18949.272115,2374.896044
59327.606983,2294.638420,-10066.800811,4826.401637
59327.607293,9474.636058,-3627.009116,9806.022374
59327.607603,16506.592507,-4737.318029,14632.424012
59327.607913,16506.592507,1776.494261,9729.412825
59327.608223,6513.812290,-1776.494261,4290.134789
59327.608533,2220.617826,-7624.121203,-153.219100
59327.608843,-5107.421000,-12139.377449,-4673.182538
59327.609153,-11843.295072,-13101.645173,-6741.640382
59327.609462,-11843.295072,-16654.633695,-7048.078582
59327.609772,-15100.201217,-24648.857869,-4136.915689
59327.610082,-9548.656652,-18949.272115,-4060.306139
59327.610392,-5329.482782,-12213.398043,0.000000
59327.610702,6735.874072,-5921.647536,4826.401637
59327.611012,12361.439231,0.000000,9729.412825
59327.611322,14878.139434,4589.276840,11031.775171
59327.611632,14508.036463,3997.112087,9193.145976
59327.611942,7846.182985,-518.144159,4366.744339
59327.612252,-2368.659014,-3034.844362,-3064.381992
59327.612561,-9474.636058,-9548.656652,-4903.011187
59327.612871,-8882.471304,-13101.645173,-4596.572988
59327.613181,-9548.656652,-16580.613101,-6511.811733
59327.613491,-15396.283594,-17542.880825,-7354.516781
59327.613801,-8956.491898,-16580.613101,-2528.115143
59327.614111,-2072.576638,-14804.118840,1225.752797
59327.614421,4071.132681,-8586.388927,5745.716235
59327.614731,9548.656652,-2442.679609,9652.803275
59327.615041,13619.789333,740.205942,10112.460574
59327.615351,13249.686362,4515.256246,4903.011187
59327.615660,4737.318029,-2442.679609,1838.629195
59327.615970,0.000000,-5995.668130,0.000000
59327.616280,-3627.009116,-13027.624579,-3753.867940
59327.616590,-11251.130318,-12213.398043,-7660.954980
59327.616900,-10584.944971,-18431.127956,-5898.935335
59327.617210,-13989.892304,-21317.931130,-6818.249932
59327.617520,-9844.739029,-16728.654289,-3600.648841
59327.617830,-1554.432478,-12731.542202,1072.533697
59327.618140,4959.379811,-7105.977043,6358.592633
59327.618449,12657.521608,0.000000,8503.660028
59327.618759,13841.851115,2812.782580,9116.536426
59327.619069,11843.295072,3478.967927,7354.516781
59327.619379,7031.956449,-6513.812290,4519.963438
59327.619689,-4145.153275,-6291.750507,-2451.505594
59327.619999,-5329.482782,-13101.645173,-1838.629195
59327.620309,-9474.636058,-12213.398043,-6435.202183
59327.620619,-10955.047942,-14582.057057,-7660.954980
59327.620929,-13397.727550,-17987.004391,-6281.983084
59327.621239,-9178.553681,-15026.180623,-3140.991542
59327.621548,-74.020594,-11843.295072,2374.896044
59327.621858,5847.626942,-7105.977043,7277.907231
59327.622168,8808.450710,-74.020594,7124.688131
59327.622478,14211.954086,518.144159,10418.898773
59327.622788,14137.933492,0.000000,9422.974625
59327.623098,3552.988522,-3627.009116,2451.505594
59327.623408,-2368.659014,-7031.956449,-3677.258390
59327.623718,-7402.059420,-11103.089130,-4290.134789
59327.624028,-9178.553681,-13915.871710,-5898.935335
59327.624338,-10881.027347,-17542.880825,-6205.373534
59327.624647,-11917.315666,-21910.095883,-3140.991542
59327.624957,-6291.750507,-16580.613101,-689.485948
59327.625267,-74.020594,-11843.295072,-76.609550
59327.625577,4737.318029,-3627.009116,4903.011187
59327.625887,12361.439231,-2368.659014,10648.727422
59327.626197,11251.130318,4071.132681,7354.516781
59327.626507,12213.398043,740.205942,7124.688131
59327.626817,3701.029710,-5551.544565,2145.067394
59327.627127,-2886.803174,-9918.759623,-1991.848295
59327.627437,-6439.791695,-12361.439231,-4366.744339
59327.627746,-7105.977043,-15470.304188,-3064.381992
59327.628056,-8586.388927,-17616.901420,-4290.134789
59327.628366,-9548.656652,-20725.766376,-3753.867940
59327.628676,-8290.306550,-14285.974681,-3217.601092
59327.628986,0.000000,-11917.315666,3677.258390
59327.629296,5255.462188,-4663.297435,4136.915689
59327.629606,11029.068536,-2368.659014,9729.412825
59327.629916,13323.706956,1332.370696,9346.365076
59327.630226,11547.212695,444.123565,6435.202183
59327.630536,3330.926739,-5699.585753,1378.971896
59327.630845,-3552.988522,-7772.162391,-2451.505594
59327.631155,-7105.977043,-11917.315666,-4903.011187
59327.631465,-7179.997637,-16580.613101,-4979.620737
59327.631775,-12213.398043,-16432.571912,-7124.688131
59327.632085,-12731.542202,-19023.292709,-4903.011187
59327.632395,-4811.338623,-13619.789333,-1608.800546
59327.632705,1998.556043,-10066.800811,3294.210641
59327.633015,7772.162391,-3478.967927,7124.688131
59327.633325,11769.274478,-666.185348,9729.412825
59327.633635,13767.830521,1258.350101,8886.707777
59327.633944,8290.306550,-74.020594,4903.011187
59327.634254,1184.329507,-4811.338623,0.000000
59327.634564,-1776.494261,-12065.356855,-842.705048
59327.634874,-5995.668130,-13027.624579,-4979.620737
59327.635184,-8290.306550,-13101.645173,-4903.011187
59327.635494,-9548.656652,-18949.272115,-4979.620737
59327.635804,-11177.109724,-18801.230927,-4366.744339
59327.636114,-6291.750507,-16580.613101,-766.095498
59327.636424,-444.123565,-10584.944971,3217.601092
59327.636734,6661.853478,-6217.729913,7967.393179
59327.637043,8438.347739,-1258.350101,8580.269578
59327.637353,11843.295072,2886.803174,6205.373534
59327.637663,9474.636058,-2442.679609,7354.516781
59327.637973,4663.297435,-8882.471304,2374.896044
59327.638283,-5625.565159,-9548.656652,-4903.011187
59327.638593,-5107.421000,-16580.613101,-2528.115143
59327.638903,-9326.594869,-16950.716072,-5515.887586
59327.639213,-11991.336260,-20281.642811,-5209.449386
59327.639523,-12139.377449,-19171.333898,-4903.011187
59327.639832,-5625.565159,-17024.736666,-1149.143247
59327.640142,1702.473667,-10066.800811,2374.896044
59327.640452,6735.874072,-4145.153275,6665.030833
59327.640762,9474.636058,-74.020594,9806.022374
59327.641072,15914.427753,592.164754,10955.165621
59327.641382,9400.615463,222.061783,3064.381992
59327.641692,2664.741391,-9474.636058,3983.696590
59327.642002,-4737.318029,-8364.327145,-3677.258390
59327.642312,-7994.224174,-12657.521608,-5132.839837
59327.642622,-7328.038826,-11325.150913,-5975.544884
59327.642931,-11177.109724,-15322.262999,-5592.497135
59327.643241,-9548.656652,-15988.448347,-4979.620737
59327.643551,-3627.009116,-14211.954086,-689.485948
59327.643861,0.000000,-6587.832884,1225.752797
59327.644171,8068.244768,-7624.121203,9193.145976
59327.644481,10584.944971,-2664.741391,8503.660028
59327.644791,13027.624579,1110.308913,9806.022374
59327.645101,8586.388927,-1850.514855,4903.011187
59327.645411,1406.391290,-7254.018232,766.095498
59327.645721,-4515.256246,-9696.697840,-3524.039291
59327.646030,-8216.285956,-13915.871710,-6052.154434
59327.646340,-7179.997637,-18949.272115,-3753.867940
59327.646650,-9548.656652,-22502.260637,-3140.991542
59327.646960,-10732.986159,-18949.272115,-3753.867940
59327.647270,-5921.647536,-13101.645173,-1838.629195
59327.647580,3849.070898,-10807.006753,5822.325785
59327.647890,7105.977043,-3330.926739,7354.516781
59327.648200,11177.109724,-2368.659014,9729.412825
59327.648510,14582.057057,888.247130,8044.002729
59327.648820,8512.368333,-4145.153275,5362.668486
59327.649129,0.000000,-8586.388927,-383.047749
59327.649439,-2960.823768,-13249.686362,-3217.601092
59327.649749,-5329.482782,-14285.974681,-2451.505594
59327.650059,-5995.668130,-15396.283594,-4979.620737
59327.650369,-13027.624579,-17246.798449,-4903.011187
59327.650679,-8068.244768,-18949.272115,-1608.800546
59327.650989,-6365.771101,-12213.398043,0.000000
59327.651299,1702.473667,-8882.471304,2987.772442
59327.651610,5921.647536,-3701.029710,6435.202183
59327.651920,10288.862594,-592.164754,8656.879127
59327.652230,13471.748144,1998.556043,7890.783629
59327.652539,8882.471304,-4811.338623,7354.516781
59327.652849,0.000000,-7179.997637,1225.752797
59327.653159,-3923.091493,-13545.768739,-1532.190996
59327.653469,-8956.491898,-15766.386565,-4979.620737
59327.653778,-8882.471304,-17838.963202,-2451.505594
59327.654088,-12213.398043,-18949.272115,-5898.935335
59327.654398,-9104.533087,-16062.468941,-3217.601092
59327.654708,-3923.091493,-12435.459826,76.609550
59327.655018,3182.885551,-6365.771101,2451.505594
59327.655327,7550.100608,-6069.688724,7431.126331
59327.655637,9474.636058,-1258.350101,8580.269578
59327.655947,13619.789333,-1850.514855,10418.898773
59327.656257,8216.285956,-5921.647536,4213.525239
59327.656566,-2368.659014,-7772.162391,-1532.190996
59327.656876,-3627.009116,-14211.954086,-1302.362347
59327.657186,-6291.750507,-11695.253884,-7124.688131
59327.657496,-7031.956449,-16580.613101,-3753.867940
59327.657805,-9844.739029,-17542.880825,-4443.353888
59327.658115,-8956.491898,-18135.045579,-1991.848295
59327.658425,-3404.947333,-13175.665768,1225.752797
59327.658735,1184.329507,-5995.668130,3677.258390
59327.659044,3552.988522,-74.020594,5515.887586
59327.659354,13101.645173,1406.391290,9269.755526
59327.659664,12953.603985,3552.988522,6665.030833
59327.659974,4737.318029,-74.020594,1225.752797
59327.660283,-74.020594,-7994.224174,-689.485948
59327.660593,-6217.729913,-9548.656652,-4136.915689
59327.660903,-7179.997637,-13323.706956,-5056.230287
59327.661213,-9178.553681,-15470.304188,-5669.106685
59327.661523,-11695.253884,-17468.860231,-5439.278036
59327.661832,-10066.800811,-15174.221811,-4519.963438
59327.662142,-4145.153275,-10140.821405,-1838.629195
59327.662452,2664.741391,-8364.327145,4903.011187
59327.662762,9400.615463,-4737.318029,8503.660028
59327.663071,7846.182985,2294.638420,5515.887586
59327.663381,14137.933492,-2368.659014,9729.412825
59327.663691,5921.647536,-5107.421000,3677.258390
59327.664001,-666.185348,-9622.677246,-383.047749
59327.664310,-5329.482782,-12139.377449,-3753.867940
59327.664620,-5625.565159,-14878.139434,-3983.696590
59327.664930,-7476.080014,-16580.613101,-4979.620737
59327.665240,-10140.821405,-17764.942608,-5592.497135
59327.665549,-11251.130318,-19023.292709,-2451.505594
59327.665859,-2220.617826,-13175.665768,1838.629195
59327.666169,4663.297435,-8290.306550,3600.648841
59327.666479,8438.347739,-3256.906145,8503.660028
59327.666788,10362.883188,1998.556043,7660.954980
59327.667098,11399.171507,2664.741391,6894.859482
59327.667408,5699.585753,-3330.926739,3140.991542
59327.667718,-888.247130,-6439.791695,153.219100
59327.668028,-5995.668130,-11251.130318,-1302.362347
59327.668337,-1258.350101,-13027.624579,-4060.306139
59327.668647,-9474.636058,-13693.809927,-5822.325785
59327.668957,-11843.295072,-16062.468941,-4903.011187
59327.669267,-6587.832884,-18949.272115,-689.485948
59327.669576,-1628.453072,-13249.686362,1532.190996
59327.669886,3182.885551,-7402.059420,3907.087040
59327.670196,7920.203579,-1702.473667,6358.592633
59327.670506,11843.295072,1406.391290,7277.907231
59327.670815,10881.027347,518.144159,6894.859482
59327.671125,6883.915261,-6513.812290,4060.306139
59327.671435,-74.020594,-11251.130318,-76.609550
59327.671745,-4811.338623,-11843.295072,-3753.867940
59327.672054,-7105.977043,-12509.480420,-4903.011187
59327.672364,-5995.668130,-18801.230927,-2528.115143
59327.672674,-11695.253884,-16950.716072,-2757.943793
59327.672984,-6587.832884,-16580.613101,-1378.971896
59327.673293,-1702.473667,-12953.603985,1608.800546
59327.673603,4367.215058,-6069.688724,4290.134789
59327.673913,7772.162391,-3182.885551,7660.954980
59327.674223,11103.089130,-1332.370696,8580.269578
59327.674533,11843.295072,-666.185348,7967.393179
59327.674842,4663.297435,-7105.977043,4213.525239
59327.675152,-3552.988522,-7772.162391,-3677.258390
59327.675462,-4811.338623,-13619.789333,-1915.238745
59327.675772,-8882.471304,-11621.233289,-3677.258390
59327.676081,-8068.244768,-17468.860231,-3447.429741
59327.676391,-10807.006753,-19023.292709,-3524.039291
59327.676701,-6957.935855,-17542.880825,-1762.019645
59327.677011,-1480.411884,-14434.015869,2528.115143
59327.677320,2960.823768,-7772.162391,4903.011187
59327.677630,7105.977043,-2442.679609,7354.516781
59327.677940,12583.501014,0.000000,8197.221829
59327.678250,10584.944971,592.164754,4826.401637
59327.678559,1184.329507,-5995.668130,1838.629195
59327.678869,-3404.947333,-8364.327145,-2451.505594
59327.679179,-5403.503377,-12953.603985,-3983.696590
59327.679489,-6069.688724,-14656.077652,-4060.306139
59327.679799,-8290.306550,-16136.489536,-4749.792088
59327.680108,-8956.491898,-19393.395680,-1991.848295
59327.680418,-7105.977043,-16654.633695,0.000000
59327.680728,-2368.659014,-10732.986159,1225.752797
59327.681038,5403.503377,-10436.903782,7124.688131
59327.681347,7920.203579,-2072.576638,5439.278036
59327.681657,10066.800811,-74.020594,8580.269578
59327.681967,10584.944971,0.000000,4903.011187
59327.682277,2368.659014,-5107.421000,1685.410096
59327.682586,-4367.215058,-9770.718434,-2145.067394
59327.682896,-6957.935855,-12435.459826,-4519.963438
59327.683206,-7179.997637,-14434.015869,-4060.306139
59327.683516,-10584.944971,-15100.201217,-5286.058936
59327.683825,-10807.006753,-15618.345376,-4903.011187
59327.684135,-5921.647536,-16654.633695,0.000000
59327.684445,1702.473667,-13915.871710,4213.525239
59327.684755,3627.009116,-4811.338623,4290.134789
59327.685064,9400.615463,-1184.329507,5745.716235
59327.685374,11251.130318,1998.556043,7354.516781
59327.685684,9622.677246,222.061783,5286.058936
59327.685994,2146.597232,-6069.688724,306.438199
59327.686304,-4071.132681,-9474.636058,-1455.581446
59327.686613,-6883.915261,-13027.624579,-5286.058936
59327.686923,-6587.832884,-14063.912898,-6205.373534
59327.687233,-9474.636058,-15470.304188,-4903.011187
59327.687543,-8290.306550,-19023.292709,-459.657299
59327.687852,-3627.009116,-15988.448347,-76.609550
59327.688162,2294.638420,-10658.965565,2374.896044
59327.688472,4737.318029,-5181.441594,5822.325785
59327.688782,9400.615463,-1258.350101,8044.002729
59327.689091,11991.336260,1406.391290,8120.612279
59327.689401,10658.965565,0.000000,6435.202183
59327.689711,3478.967927,-5921.647536,2374.896044
59327.690021,-4811.338623,-9474.636058,-3753.867940
59327.690330,-8290.306550,-11917.315666,-5515.887586
59327.690640,-6735.874072,-16580.613101,-3753.867940
59327.690950,-14137.933492,-15766.386565,-7354.516781
59327.691260,-9992.780217,-18357.107362,-2528.115143
59327.691569,-6069.688724,-14359.995275,-459.657299
59327.691879,1184.329507,-9104.533087,1915.238745
59327.692189,6365.771101,-3775.050304,5669.106685
59327.692499,9770.718434,1110.308913,6128.763984
59327.692809,14137.933492,1480.411884,9729.412825
59327.693118,11769.274478,0.000000,6665.030833
59327.693428,1184.329507,-4811.338623,0.000000
59327.693738,-3478.967927,-11843.295072,-1302.362347
59327.694048,-9178.553681,-10732.986159,-6894.859482
59327.694357,-7105.977043,-15988.448347,-3753.867940
59327.694667,-9696.697840,-17468.860231,-5132.839837
59327.694977,-10214.842000,-17838.963202,-3600.648841
59327.695287,-5477.523971,-17542.880825,383.047749
59327.695596,1184.329507,-10140.821405,1532.190996
59327.695906,6069.688724,-5551.544565,6128.763984
59327.696216,10807.006753,-2886.803174,9729.412825
59327.696526,11769.274478,3256.906145,7277.907231
59327.696835,10066.800811,-2442.679609,9039.926876
59327.697145,1110.308913,-4145.153275,-383.047749
59327.697455,-6809.894666,-9548.656652,-2145.067394
59327.697765,-7846.182985,-13397.727550,-4366.744339
59327.698074,-7328.038826,-14434.015869,-5439.278036
59327.698384,-11029.068536,-17764.942608,-4979.620737
59327.698694,-10955.047942,-16654.633695,-4979.620737
59327.699004,-5625.565159,-14582.057057,0.000000
59327.699314,2368.659014,-9548.656652,4290.134789
59327.699623,7031.956449,-5921.647536,7890.783629
59327.699933,7698.141797,5847.626942,4903.011187
59327.700243,15026.180623,1776.494261,9729.412825
59327.700553,8660.409521,1110.308913,5822.325785
59327.700862,2220.617826,-4737.318029,459.657299
59327.701172,-5107.421000,-9474.636058,-3600.648841
59327.701482,-7550.100608,-12213.398043,-5439.278036
59327.701792,-7476.080014,-14211.954086,-6205.373534
59327.702101,-10658.965565,-15470.304188,-6665.030833
59327.702411,-10658.965565,-17246.798449,-4290.134789
59327.702721,-3627.009116,-17172.777854,2374.896044
59327.703031,0.000000,-7179.997637,1378.971896
59327.703340,9400.615463,-7105.977043,9346.365076
59327.703650,10066.800811,-74.020594,7354.516781
59327.703960,14137.933492,2072.576638,8963.317327
59327.704270,10510.924376,0.000000,5975.544884
59327.704579,1702.473667,-5403.503377,612.876398
59327.704889,-5403.503377,-8882.471304,-2528.115143
59327.705199,-9844.739029,-10510.924376,-5592.497135
59327.705509,-9474.636058,-11917.315666,-7967.393179
59327.705819,-11251.130318,-18283.086767,-3064.381992
59327.706128,-9548.656652,-18357.107362,-4979.620737
59327.706438,-7105.977043,-14285.974681,0.000000
59327.706748,370.102971,-7772.162391,2757.943793
59327.707058,6513.812290,-3330.926739,6894.859482
59327.707367,10807.006753,2220.617826,8427.050478
59327.707677,12805.562797,2664.741391,7431.126331
59327.707987,10436.903782,-2368.659014,6665.030833
59327.708297,1998.556043,-7105.977043,-76.609550
59327.708606,-7031.956449,-8364.327145,-4903.011187
59327.708916,-8882.471304,-12065.356855,-4213.525239
59327.709226,-8364.327145,-13619.789333,-7737.564530
59327.709536,-11547.212695,-17838.963202,-6128.763984
59327.709845,-11325.150913,-19541.436869,-3907.087040
59327.710155,-5773.606348,-14730.098246,153.219100
59327.710465,1924.535449,-9844.739029,3983.696590
59327.710775,7772.162391,-3552.988522,6128.763984
59327.711084,11843.295072,-814.226536,11031.775171
59327.711394,15322.262999,1184.329507,9729.412825
59327.711704,11177.109724,0.000000,6052.154434
59327.712014,296.082377,-4811.338623,0.000000
59327.712324,-3182.885551,-11251.130318,-1302.362347
59327.712633,-8364.327145,-12287.418637,-7124.688131
59327.712943,-9548.656652,-14211.954086,-6818.249932
59327.713253,-13175.665768,-17987.004391,-6588.421283
59327.713563,-12065.356855,-18431.127956,-4749.792088
59327.713872,-5477.523971,-15174.221811,383.047749
59327.714182,1776.494261,-8364.327145,6128.763984
59327.714492,9992.780217,-3552.988522,8580.269578
59327.714802,11769.274478,0.000000,9729.412825
59327.715111,13027.624579,4663.297435,4903.011187
59327.715421,13841.851115,-5847.626942,12180.918418
59327.715731,1702.473667,-6513.812290,-1302.362347
59327.716041,-2738.761985,-10066.800811,-4290.134789
59327.716350,-8364.327145,-14137.933492,-5286.058936
59327.716660,-7105.977043,-16432.571912,-5975.544884
59327.716970,-11547.212695,-19837.519246,-5056.230287
59327.717280,-11843.295072,-17838.963202,-7048.078582
59327.717589,-3849.070898,-15174.221811,612.876398
59327.717899,3478.967927,-11251.130318,5898.935335
59327.718209,7328.038826,-1850.514855,4213.525239
59327.718519,13841.851115,-2072.576638,11951.089769
59327.718829,14137.933492,2368.659014,9729.412825
59327.719138,10955.047942,0.000000,7048.078582
59327.719448,2590.720797,-5107.421000,1762.019645
59327.719758,-5699.585753,-9548.656652,-3294.210641
59327.720068,-9030.512492,-14359.995275,-3907.087040
59327.720377,-9252.574275,-11917.315666,-9576.193725
59327.720687,-14211.954086,-14582.057057,-8580.269578
59327.720997,-12509.480420,-18949.272115,-4136.915689
59327.721307,-3923.091493,-16580.613101,-76.609550
59327.721616,0.000000,-7179.997637,2221.676944
59327.721926,7105.977043,-5551.544565,8656.879127
59327.722236,13027.624579,814.226536,10418.898773
59327.722546,16062.468941,2072.576638,8810.098227
59327.722855,10807.006753,-2294.638420,6435.202183
59327.723165,1924.535449,-7254.018232,842.705048
59327.723475,-4219.173869,-10510.924376,-3753.867940
59327.723785,-10658.965565,-12509.480420,-7354.516781
59327.724095,-9474.636058,-15470.304188,-6435.202183
59327.724404,-9548.656652,-18949.272115,-4979.620737
59327.724714,-14211.954086,-19023.292709,-6128.763984
59327.725024,-2442.679609,-17098.757260,2145.067394
59327.725334,0.000000,-11917.315666,3677.258390
59327.725643,8142.265362,-4293.194464,6894.859482
59327.725953,10807.006753,-2220.617826,10342.289223
59327.726263,14063.912898,2590.720797,9652.803275
59327.726573,11769.274478,0.000000,6052.154434
59327.726882,1110.308913,-5773.606348,0.000000
59327.727192,-6513.812290,-9548.656652,-3677.258390
59327.727502,-7328.038826,-15988.448347,-2528.115143
59327.727812,-11621.233289,-13619.789333,-8656.879127
59327.728121,-13027.624579,-17838.963202,-6128.763984
59327.728431,-14952.160028,-18135.045579,-5822.325785
59327.728741,-4959.379811,-14508.036463,-919.314598
59327.729051,2442.679609,-8068.244768,4519.963438
59327.729360,8660.409521,-3552.988522,8044.002729
59327.729670,15322.262999,296.082377,11568.042020
59327.729980,16506.592507,2368.659014,9729.412825
59327.730290,9770.718434,-74.020594,4903.011187
59327.730600,3182.885551,-9474.636058,3447.429741
59327.730909,-7698.141797,-8364.327145,-6128.763984
59327.731219,-10658.965565,-12509.480420,-7354.516781
59327.731529,-10436.903782,-16432.571912,-7431.126331
59327.731839,-12435.459826,-16950.716072,-7354.516781
59327.732148,-11547.212695,-20059.581028,-4826.401637
59327.732458,-4885.359217,-14878.139434,-612.876398
59327.732768,2590.720797,-10436.903782,5975.544884
59327.733078,10584.944971,-5921.647536,8503.660028
59327.733387,12657.521608,1776.494261,8810.098227
59327.733697,14211.954086,1702.473667,12257.527968
59327.734007,10584.944971,-2368.659014,6052.154434
59327.734317,0.000000,-5995.668130,0.000000
59327.734626,-3627.009116,-11251.130318,-2834.553343
59327.734936,-9178.553681,-13471.748144,-4290.134789
59327.735246,-10881.027347,-12583.501014,-7660.954980
59327.735556,-13767.830521,-16432.571912,-7124.688131
59327.735865,-14211.954086,-15470.304188,-4903.011187
59327.736175,-4367.215058,-16284.530724,-76.609550
59327.736485,1998.556043,-9178.553681,4213.525239
59327.736795,5921.647536,-74.020594,4979.620737
59327.737105,13027.624579,1110.308913,10725.336972
59327.737414,15914.427753,3552.988522,8503.660028
59327.737724,11769.274478,-2368.659014,6665.030833
59327.738034,2442.679609,-7550.100608,1149.143247
59327.738344,-4663.297435,-9992.780217,-4136.915689
59327.738653,-8438.347739,-14211.954086,-5056.230287
59327.738963,-11843.295072,-13101.645173,-6741.640382
59327.739273,-11843.295072,-18727.210333,-5822.325785
59327.739583,-9548.656652,-17468.860231,-2528.115143
59327.739892,-4811.338623,-11547.212695,-2834.553343
59327.740202,1184.329507,-7179.997637,4290.134789
59327.740512,9400.615463,-3552.988522,7277.907231
59327.740822,13767.830521,-1184.329507,11108.384721
59327.741131,13249.686362,1406.391290,8427.050478
59327.741441,8438.347739,-3034.844362,6818.249932
59327.741751,1702.473667,-7179.997637,1225.752797
59327.742061,-8142.265362,-9548.656652,-4903.011187
59327.742370,-10658.965565,-12509.480420,-5822.325785
59327.742680,-9548.656652,-15988.448347,-4979.620737
59327.742990,-14285.974681,-15396.283594,-8044.002729
59327.743300,-13027.624579,-15470.304188,-4903.011187
59327.743610,-2442.679609,-17764.942608,-76.609550
59327.743919,1776.494261,-8956.491898,4979.620737
59327.744229,9770.718434,-1184.329507,6894.859482
59327.744539,11473.192101,592.164754,10035.851024
59327.744849,15322.262999,3775.050304,8656.879127
59327.745158,9696.697840,-962.267725,3677.258390
59327.745468,0.000000,-7179.997637,612.876398
59327.745778,-4145.153275,-10140.821405,-3064.381992
59327.746088,-8364.327145,-14211.954086,-7737.564530
59327.746397,-13027.624579,-13693.809927,-9193.145976
59327.746707,-9548.656652,-22502.260637,-5286.058936
59327.747017,-10955.047942,-16950.716072,-4903.011187
59327.747327,-3701.029710,-12361.439231,-1072.533697
59327.747636,2368.659014,-10584.944971,4903.011187
59327.747946,9474.636058,-6291.750507,9806.022374
59327.748256,15914.427753,-592.164754,9422.974625
59327.748566,12583.501014,1554.432478,9422.974625
59327.748875,7105.977043,-1554.432478,2451.505594
59327.749185,4663.297435,-9474.636058,2374.896044
59327.749495,-5921.647536,-9844.739029,-3677.258390
59327.749805,-7698.141797,-16062.468941,-2451.505594
59327.750115,-12953.603985,-14878.139434,-7967.393179
59327.750424,-14211.954086,-16284.530724,-7584.345430
59327.750734,-13693.809927,-17394.839637,-6052.154434
59327.751044,-6143.709319,-12583.501014,-1149.143247
59327.751354,3478.967927,-8882.471304,4826.401637
59327.751663,7920.203579,-4737.318029,7277.907231
59327.751973,12435.459826,-74.020594,9806.022374
59327.752283,17690.922014,-2368.659014,12180.918418
59327.752593,7105.977043,-3034.844362,4290.134789
59327.752902,1776.494261,-9548.656652,2451.505594
59327.753212,-5329.482782,-11251.130318,-4366.744339
59327.753522,-9400.615463,-14878.139434,-5745.716235
59327.753832,-11029.068536,-17690.922014,-7201.297681
59327.754142,-14063.912898,-19763.498651,-7048.078582
59327.754451,-10881.027347,-20133.601622,-3140.991542
59327.754761,-2442.679609,-14211.954086,-76.609550
59327.755071,1628.453072,-4811.338623,766.095498
59327.755381,10658.965565,-4959.379811,10495.508323
59327.755691,13545.768739,1184.329507,10648.727422
59327.756001,11843.295072,4663.297435,9806.022374
59327.756310,8882.471304,-2146.597232,6971.469032
59327.756620,3478.967927,-7105.977043,0.000000
59327.756930,-4737.318029,-10584.944971,-3217.601092
59327.757240,-10288.862594,-13767.830521,-5898.935335
59327.757550,-11917.315666,-16136.489536,-6588.421283
59327.757860,-14285.974681,-20725.766376,-6818.249932
59327.758169,-14285.974681,-15174.221811,-7431.126331
59327.758479,-6513.812290,-13101.645173,0.000000
59327.758789,4071.132681,-10658.965565,6052.154434
59327.759099,7105.977043,-74.020594,6128.763984
59327.759409,14137.933492,2368.659014,10189.070123
59327.759718,16210.510130,4145.153275,9576.193725
59327.760028,10510.924376,-1850.514855,5898.935335
59327.760338,1702.473667,-7846.182985,306.438199
59327.760648,-4441.235652,-10732.986159,-2451.505594
59327.760958,-7772.162391,-16580.613101,-4979.620737
59327.761268,-10732.986159,-15100.201217,-8733.488677
59327.761577,-16580.613101,-16654.633695,-9806.022374
59327.761887,-10140.821405,-18949.272115,-4060.306139
59327.762197,-4811.338623,-10658.965565,-1915.238745
59327.762507,6439.791695,-7698.141797,5439.278036
59327.762817,9918.759623,-1776.494261,8656.879127
59327.763127,14582.057057,1110.308913,11338.213370
59327.763436,15692.365970,1924.535449,9882.631924
59327.763746,7698.141797,-2442.679609,6435.202183
59327.764056,3256.906145,-7476.080014,3217.601092
59327.764366,-3627.009116,-11251.130318,-2834.553343
59327.764676,-13619.789333,-10732.986159,-7354.516781
59327.764986,-9696.697840,-16950.716072,-5975.544884
59327.765295,-14285.974681,-17764.942608,-8656.879127
59327.765605,-11917.315666,-16432.571912,-5592.497135
59327.765915,-4515.256246,-12139.377449,-2221.676944
59327.766225,1850.514855,-7550.100608,4443.353888
59327.766535,9252.574275,-1850.514855,9116.536426
59327.766845,11843.295072,3478.967927,9806.022374
59327.767154,15988.448347,3478.967927,9806.022374
59327.767464,11177.109724,-3256.906145,7277.907231
59327.767774,0.000000,-4811.338623,-2145.067394
59327.768084,-5329.482782,-13101.645173,-3064.381992
59327.768394,-7179.997637,-17764.942608,-3753.867940
59327.768703,-10214.842000,-15322.262999,-8273.831378
59327.769013,-14434.015869,-19911.539840,-8044.002729
59327.769323,-11547.212695,-18357.107362,-4749.792088
59327.769633,-2516.700203,-12213.398043,-229.828649
59327.769943,3404.947333,-3034.844362,1838.629195
59327.770253,9474.636058,-370.102971,8580.269578
59327.770562,17246.798449,222.061783,14632.424012
59327.770872,15322.262999,1776.494261,8503.660028
59327.771182,8290.306550,-2442.679609,6741.640382
59327.771492,4663.297435,-9474.636058,4519.963438
59327.771802,-5921.647536,-10732.986159,-3064.381992
59327.772112,-9770.718434,-13027.624579,-6052.154434
59327.772421,-12731.542202,-14952.160028,-7354.516781
59327.772731,-15544.324782,-19171.333898,-7814.174080
59327.773041,-12509.480420,-16580.613101,-6818.249932
59327.773351,-6217.729913,-11917.315666,-2221.676944
59327.773661,2368.659014,-8660.409521,6128.763984
59327.773971,11769.274478,-4737.318029,9729.412825
59327.774280,11251.130318,2294.638420,9806.022374
59327.774590,16580.613101,1110.308913,11338.213370
59327.774900,7402.059420,-2442.679609,4443.353888
59327.775210,666.185348,-8364.327145,459.657299
59327.775520,-5477.523971,-11695.253884,-3983.696590
59327.775830,-9844.739029,-15026.180623,-6665.030833
59327.776139,-10140.821405,-16580.613101,-7737.564530
59327.776449,-14285.974681,-20133.601622,-7584.345430
59327.776759,-11843.295072,-17246.798449,-6128.763984
59327.777069,-74.020594,-14211.954086,2374.896044
59327.777379,3997.112087,-9030.512492,5439.278036
59327.777688,10658.965565,-5403.503377,11031.775171
59327.777998,14804.118840,-1258.350101,10418.898773
59327.778308,14211.954086,-2664.741391,10801.946522
59327.778618,7105.977043,-6069.688724,5669.106685
59327.778928,296.082377,-8956.491898,689.485948
59327.779238,-74.020594,-17172.777854,2374.896044
59327.779547,-10140.821405,-13619.789333,-6818.249932
59327.779857,-14434.015869,-13619.789333,-8656.879127
59327.780167,-16580.613101,-16654.633695,-7354.516781
59327.780477,-9548.656652,-17172.777854,-4979.620737
59327.780787,-6513.812290,-9548.656652,0.000000
59327.781097,3627.009116,-6735.874072,5745.716235
59327.781406,13619.789333,-888.247130,10955.165621
59327.781716,12583.501014,-3701.029710,12410.747068
59327.782026,13841.851115,-1258.350101,9269.755526
59327.782336,7994.224174,-10140.821405,6435.202183
59327.782646,1554.432478,-13027.624579,-76.609550
59327.782956,-7476.080014,-13471.748144,-6511.811733
59327.783265,-10658.965565,-17246.798449,-5515.887586
59327.783575,-10732.986159,-20133.601622,-7431.126331
59327.783885,-15988.448347,-19023.292709,-9806.022374
59327.784195,-9548.656652,-17764.942608,-4060.306139
59327.784505,-1702.473667,-10807.006753,76.609550
59327.784815,5699.585753,-6513.812290,5209.449386
59327.785124,10955.047942,-1924.535449,9806.022374
59327.785434,14211.954086,1702.473667,12563.966167
59327.785744,15322.262999,222.061783,9576.193725
59327.786054,7920.203579,-5921.647536,7277.907231
59327.786364,-1776.494261,-5995.668130,-2451.505594
59327.786673,-7105.977043,-11917.315666,-3064.381992
59327.786983,-9548.656652,-11843.295072,-8350.440928
59327.787293,-11029.068536,-20429.683999,-5286.058936
59327.787603,-16358.551318,-22428.240043,-5898.935335
59327.787913,-11843.295072,-17098.757260,-4903.011187
59327.788223,-2812.782580,-14211.954086,229.828649
59327.788532,2368.659014,-5403.503377,4903.011187
59327.788842,8882.471304,-2590.720797,10725.336972
59327.789152,15914.427753,0.000000,10955.165621
59327.789462,10658.965565,4663.297435,6128.763984
59327.789772,7031.956449,-6513.812290,4519.963438
59327.790082,-74.020594,-8882.471304,-1302.362347
59327.790391,-6809.894666,-13101.645173,-3677.258390
59327.790701,-9992.780217,-13619.789333,-6894.859482
59327.791011,-13027.624579,-17987.004391,-7048.078582
59327.791321,-13841.851115,-19985.560434,-6665.030833
59327.791631,-11251.130318,-13101.645173,-5822.325785
59327.791941,-1184.329507,-10732.986159,0.000000
59327.792250,9400.615463,-8290.306550,8503.660028
59327.792560,11177.109724,592.164754,8197.221829
59327.792870,15396.283594,1110.308913,12257.527968
59327.793180,16506.592507,0.000000,9729.412825
59327.793490,4737.318029,-4811.338623,4903.011187
59327.793800,-1258.350101,-9326.594869,-842.705048
59327.794109,-6069.688724,-13471.748144,-2221.676944
59327.794419,-8956.491898,-12879.583391,-6205.373534
59327.794729,-13989.892304,-14063.912898,-8580.269578
59327.795039,-17468.860231,-15766.386565,-7967.393179
59327.795349,-9474.636058,-13101.645173,-4903.011187
59327.795658,-74.020594,-13027.624579,2987.772442
59327.795968,3034.844362,-5699.585753,5209.449386
59327.796278,12583.501014,-4145.153275,11414.822920
59327.796588,13027.624579,1110.308913,9806.022374
59327.796898,12879.583391,962.267725,7737.564530
59327.797208,5847.626942,-5477.523971,3447.429741
59327.797517,-2072.576638,-8660.409521,-2221.676944
59327.797827,-7179.997637,-11103.089130,-6818.249932
59327.798137,-9474.636058,-14434.015869,-6818.249932
59327.798447,-11251.130318,-16654.633695,-6128.763984
59327.798757,-11029.068536,-22502.260637,-3753.867940
59327.799067,-8882.471304,-15470.304188,-4136.915689
59327.799376,0.000000,-8364.327145,153.219100
59327.799686,7031.956449,-5921.647536,6052.154434
59327.799996,10955.047942,814.226536,8350.440928
59327.800306,14878.139434,1554.432478,10265.679673
59327.800616,12953.603985,0.000000,7814.174080
59327.800926,5033.400406,-6291.750507,4290.134789
59327.801235,-1554.432478,-10288.862594,-76.609550
59327.801545,-5107.421000,-11843.295072,-4979.620737
59327.801855,-11251.130318,-12509.480420,-6128.763984
59327.802165,-11917.315666,-16580.613101,-6511.811733
59327.802475,-13397.727550,-18357.107362,-5286.058936
59327.802785,-9474.636058,-13545.768739,-4213.525239
59327.803094,-1184.329507,-11325.150913,1915.238745
59327.803404,4589.276840,-5477.523971,6741.640382
59327.803714,11103.089130,-444.123565,10112.460574
59327.804024,15026.180623,1480.411884,9729.412825
59327.804334,11547.212695,962.267725,4903.011187
59327.804643,6069.688724,-8290.306550,4826.401637
59327.804953,-2442.679609,-9178.553681,-3140.991542
59327.805263,-7994.224174,-11917.315666,-4903.011187
59327.805573,-8882.471304,-15174.221811,-4596.572988
59327.805883,-10732.986159,-16580.613101,-7431.126331
59327.806193,-13323.706956,-19023.292709,-5822.325785
59327.806502,-7772.162391,-16284.530724,-3294.210641
59327.806812,-74.020594,-10955.047942,1608.800546
59327.807122,5551.544565,-7105.977043,7507.735880
59327.807432,11251.130318,-2368.659014,9806.022374
59327.807742,16950.716072,0.000000,12180.918418
59327.808052,11769.274478,148.041188,6358.592633
59327.808361,2664.741391,-5403.503377,3064.381992
59327.808671,-2294.638420,-10510.924376,-995.924147
59327.808981,-8290.306550,-11029.068536,-3677.258390
59327.809291,-8438.347739,-13323.706956,-5975.544884
59327.809601,-11991.336260,-16580.613101,-6511.811733
59327.809911,-13619.789333,-17912.983796,-5439.278036
59327.810220,-8068.244768,-15174.221811,-3524.039291
59327.810530,-740.205942,-10732.986159,306.438199
59327.810840,5921.647536,-7179.997637,8120.612279
59327.811150,12953.603985,-2368.659014,10648.727422
59327.811460,11843.295072,2294.638420,6128.763984
59327.811770,9474.636058,-74.020594,6741.640382
59327.812079,3478.967927,-6809.894666,2221.676944
59327.812389,-3775.050304,-9844.739029,-2987.772442
59327.812699,-7254.018232,-11991.336260,-5286.058936
59327.813009,-9178.553681,-15322.262999,-5898.935335
59327.813319,-9918.759623,-17764.942608,-5132.839837
59327.813628,-10732.986159,-21317.931130,-3140.991542
59327.813938,-7402.059420,-10140.821405,-4903.011187
59327.814248,0.000000,-8068.244768,2451.505594
59327.814558,8216.285956,-4737.318029,7277.907231
59327.814868,12361.439231,592.164754,7890.783629
59327.815178,14952.160028,2294.638420,8810.098227
59327.815487,11547.212695,-518.144159,6511.811733
59327.815797,3404.947333,-6883.915261,2604.724693
59327.816107,-1924.535449,-9696.697840,-76.609550
59327.816417,-5921.647536,-11103.089130,-4903.011187
59327.816727,-11843.295072,-11917.315666,-7354.516781
59327.817037,-12287.418637,-17690.922014,-4903.011187
59327.817346,-12509.480420,-17616.901420,-4979.620737
59327.817656,-9474.636058,-12509.480420,-4290.134789
59327.817966,0.000000,-11473.192101,4443.353888
59327.818276,5847.626942,-4589.276840,6894.859482
59327.818586,10584.944971,-1998.556043,9959.241474
59327.818896,13249.686362,1110.308913,8503.660028
59327.819205,8586.388927,-370.102971,3447.429741
59327.819515,1924.535449,-8734.430116,2298.286494
59327.819825,-1258.350101,-11843.295072,-1915.238745
59327.820135,-8290.306550,-11917.315666,-6128.763984
59327.820445,-8290.306550,-15766.386565,-3370.820191
59327.820755,-9548.656652,-18357.107362,-6511.811733
59327.821064,-11473.192101,-15692.365970,-5975.544884
59327.821374,-4145.153275,-13471.748144,-1532.190996
59327.821684,1924.535449,-9400.615463,2987.772442
59327.821994,7105.977043,-3256.906145,5975.544884
59327.822304,13545.768739,-1480.411884,11644.651570
59327.822613,13027.624579,4367.215058,7277.907231
59327.822923,7105.977043,-74.020594,3677.258390
59327.823233,2738.761985,-10066.800811,2834.553343
59327.823543,-3034.844362,-7476.080014,-5362.668486
59327.823853,-5921.647536,-12731.542202,-3600.648841
59327.824163,-6587.832884,-15322.262999,-4979.620737
59327.824472,-12805.562797,-17912.983796,-5669.106685
59327.824782,-10807.006753,-17468.860231,-4749.792088
59327.825092,-5625.565159,-15470.304188,-306.438199
59327.825402,0.000000,-7772.162391,1378.971896
59327.825712,8216.285956,-6587.832884,9499.584175
59327.826022,12953.603985,0.000000,9729.412825
59327.826331,10658.965565,3478.967927,7354.516781
59327.826641,8216.285956,-5921.647536,6052.154434
59327.826951,0.000000,-4811.338623,0.000000
59327.827261,-6513.812290,-10288.862594,-3677.258390
59327.827571,-7402.059420,-13767.830521,-4443.353888
59327.827881,-9104.533087,-15544.324782,-5592.497135
59327.828190,-11103.089130,-17616.901420,-4903.011187
59327.828500,-7254.018232,-18357.107362,-1302.362347
59327.828810,-3923.091493,-12509.480420,-1302.362347
59327.829120,0.000000,-9548.656652,2451.505594
59327.829430,9104.533087,-3552.988522,7277.907231
59327.829740,9474.636058,-74.020594,9806.022374
59327.830049,16506.592507,4737.318029,7277.907231
59327.830359,9992.780217,-1184.329507,5286.058936
59327.830669,1554.432478,-7624.121203,689.485948
59327.830979,-2886.803174,-9252.574275,-2528.115143
59327.831289,-6217.729913,-11399.171507,-4749.792088
59327.831598,-10658.965565,-11917.315666,-7048.078582
59327.831908,-11251.130318,-17246.798449,-4596.572988
59327.832218,-9548.656652,-18949.272115,-3140.991542
59327.832528,-5181.441594,-12509.480420,-3677.258390
59327.832838,3478.967927,-11547.212695,4826.401637
59327.833148,4737.318029,-74.020594,5515.887586
59327.833457,10066.800811,1406.391290,7431.126331
59327.833767,12065.356855,888.247130,7124.688131
59327.834077,6809.894666,-3182.885551,3907.087040
59327.834387,-1110.308913,-9918.759623,229.828649
59327.834697,-3923.091493,-14211.954086,-1302.362347
59327.835007,-7179.997637,-13619.789333,-4519.963438
59327.835316,-8882.471304,-15174.221811,-4290.134789
59327.835626,-7179.997637,-18653.189738,-1608.800546
59327.835936,-7772.162391,-14508.036463,-4060.306139
59327.836246,-2590.720797,-10732.986159,-1915.238745
59327.836556,3997.112087,-7476.080014,3064.381992
59327.836866,5699.585753,-3256.906145,5975.544884
59327.837175,10732.986159,814.226536,7354.516781
59327.837485,11695.253884,444.123565,6205.373534
59327.837795,4737.318029,-1554.432478,1838.629195
59327.838105,-296.082377,-9918.759623,689.485948
59327.838415,-3330.926739,-11251.130318,-1302.362347
59327.838725,-8882.471304,-9548.656652,-4903.011187
59327.839034,-6661.853478,-15840.407159,-2681.334243
59327.839344,-10362.883188,-16506.592507,-2298.286494
59327.839654,-9326.594869,-15618.345376,-3064.381992
59327.839964,-3404.947333,-13101.645173,919.314598
59327.840274,1998.556043,-7772.162391,3524.039291
59327.840583,5921.647536,-7105.977043,7584.345430
59327.840893,11769.274478,-3552.988522,8503.660028
59327.841203,9474.636058,-962.267725,5975.544884
59327.841513,3627.009116,-7105.977043,3294.210641
59327.841823,-2590.720797,-9622.677246,-1072.533697
59327.842133,-6069.688724,-12953.603985,-2604.724693
59327.842442,-6513.812290,-12509.480420,-3370.820191
59327.842752,-8364.327145,-16580.613101,-1685.410096
59327.843062,-9548.656652,-14211.954086,-4979.620737
59327.843372,-8290.306550,-15470.304188,-1838.629195
59327.843682,-74.020594,-14211.954086,2068.457845
59327.843992,4663.297435,-9474.636058,4826.401637
59327.844301,6069.688724,-2590.720797,6205.373534
59327.844611,11177.109724,0.000000,7660.954980
59327.844921,10807.006753,148.041188,6435.202183
59327.845231,5625.565159,-4441.235652,2221.676944
59327.845541,-2368.659014,-7179.997637,0.000000
59327.845851,-4071.132681,-9844.739029,-1532.190996
59327.846160,-3627.009116,-13027.624579,-3753.867940
59327.846470,-9474.636058,-13397.727550,-4903.011187
59327.846780,-10362.883188,-16358.551318,-3447.429741
59327.847090,-6217.729913,-17764.942608,-76.609550
59327.847400,-1554.432478,-10955.047942,536.266849
59327.847710,1480.411884,-4959.379811,1225.752797
59327.848019,9400.615463,-3256.906145,8197.221829
59327.848329,8512.368333,2886.803174,5362.668486
59327.848639,11177.109724,-2072.576638,5745.716235
59327.848949,2368.659014,-5181.441594,1838.629195
59327.849259,-2738.761985,-10436.903782,-1378.971896
59327.849569,-5403.503377,-12361.439231,-3140.991542
59327.849878,-5625.565159,-13767.830521,-3753.867940
59327.850188,-7994.224174,-13693.809927,-3677.258390
59327.850498,-8068.244768,-16210.510130,-3217.601092
59327.850808,-5625.565159,-14952.160028,-1302.362347
59327.851118,-222.061783,-11843.295072,995.924147
59327.851427,3775.050304,-6217.729913,3600.648841
59327.851737,8808.450710,-2960.823768,8503.660028
59327.852047,11473.192101,2368.659014,7277.907231
59327.852357,8290.306550,3478.967927,3830.477490
59327.852667,6143.709319,-6217.729913,2374.896044
59327.852977,-666.185348,-8586.388927,-1302.362347
59327.853286,-4515.256246,-9918.759623,-4749.792088
59327.853596,-5847.626942,-12139.377449,-4519.963438
59327.853906,-8808.450710,-13693.809927,-5209.449386
59327.854216,-10140.821405,-15322.262999,-3830.477490
59327.854526,-6809.894666,-14952.160028,-1149.143247
59327.854835,-74.020594,-11843.295072,3600.648841
59327.855145,4367.215058,-7105.977043,4826.401637
59327.855455,6291.750507,2294.638420,4903.011187
59327.855765,10955.047942,2886.803174,7967.393179
59327.856075,8808.450710,-1776.494261,6205.373534
59327.856385,3478.967927,-3552.988522,-842.705048
59327.856694,-4663.297435,-8808.450710,-2604.724693
59327.857004,-5403.503377,-11473.192101,-4366.744339
59327.857314,-6809.894666,-12213.398043,-4749.792088
59327.857624,-7179.997637,-14063.912898,-3140.991542
59327.857934,-7698.141797,-16358.551318,-1225.752797
59327.858243,-4145.153275,-14582.057057,766.095498
59327.858553,2294.638420,-11843.295072,2374.896044
59327.858863,1924.535449,-6587.832884,3447.429741
59327.859173,7105.977043,-1850.514855,6281.983084
59327.859483,11473.192101,-2368.659014,6665.030833
59327.859793,9770.718434,-296.082377,4903.011187
59327.860102,3256.906145,-5773.606348,1225.752797
59327.860412,-2516.700203,-9696.697840,-1838.629195
59327.860722,-5255.462188,-12139.377449,-3217.601092
59327.861032,-7105.977043,-13693.809927,-4290.134789
59327.861342,-9474.636058,-14285.974681,-3677.258390
59327.861651,-7772.162391,-18357.107362,-2528.115143
59327.861961,-7105.977043,-14285.974681,-1838.629195
59327.862271,296.082377,-10436.903782,2911.162892
59327.862581,5255.462188,-6513.812290,7277.907231
59327.862891,7772.162391,-2442.679609,7967.393179
59327.863201,10140.821405,-592.164754,8120.612279
59327.863510,7550.100608,-1628.453072,4749.792088
59327.863820,888.247130,-6883.915261,612.876398
59327.864130,-7105.977043,-9548.656652,-4290.134789
59327.864440,-8290.306550,-11917.315666,-4903.011187
59327.864750,-4811.338623,-16580.613101,-4979.620737
59327.865059,-9474.636058,-15026.180623,-4903.011187
59327.865369,-8586.388927,-17024.736666,-2528.115143
59327.865679,-3552.988522,-15988.448347,-76.609550
59327.865989,1258.350101,-10955.047942,2374.896044
59327.866299,5403.503377,-5181.441594,5439.278036
59327.866609,9326.594869,-1850.514855,7660.954980
59327.866918,13101.645173,1184.329507,7354.516781
59327.867228,8290.306550,-74.020594,5209.449386
59327.867538,1184.329507,-3627.009116,0.000000
59327.867848,-1258.350101,-13027.624579,-76.609550
59327.868158,-6439.791695,-12509.480420,-4443.353888
59327.868467,-6365.771101,-15174.221811,-4366.744339
59327.868777,-9474.636058,-16580.613101,-3830.477490
59327.869087,-9770.718434,-18357.107362,-3677.258390
59327.869397,-5329.482782,-16950.716072,-459.657299
59327.869707,444.123565,-12065.356855,2911.162892
59327.870017,4367.215058,-5403.503377,4903.011187
59327.870326,8068.244768,1258.350101,4903.011187
59327.870636,9474.636058,3478.967927,6128.763984
59327.870946,9400.615463,-4145.153275,6971.469032
59327.871256,-518.144159,-5699.585753,0.000000
59327.871566,-6513.812290,-11029.068536,-1685.410096
59327.871875,-6439.791695,-10732.986159,-4136.915689
59327.872185,-6291.750507,-13323.706956,-4366.744339
59327.872495,-7846.182985,-12657.521608,-4136.915689
59327.872805,-8882.471304,-16210.510130,-2604.724693
59327.873115,-3701.029710,-14211.954086,-689.485948
59327.873424,2294.638420,-12435.459826,1149.143247
59327.873734,2886.803174,-5921.647536,4519.963438
59327.874044,8290.306550,-1258.350101,7660.954980
59327.874354,12361.439231,0.000000,8503.660028
59327.874664,8808.450710,-518.144159,5898.935335
59327.874974,2072.576638,-5403.503377,612.876398
59327.875283,-3404.947333,-11843.295072,-2068.457845
59327.875593,-5995.668130,-14285.974681,-3753.867940
59327.875903,-7476.080014,-15396.283594,-4519.963438
59327.876213,-9252.574275,-16284.530724,-4060.306139
59327.876523,-8364.327145,-18949.272115,-2604.724693
59327.876832,-1850.514855,-16580.613101,-76.609550
59327.877142,666.185348,-9548.656652,2298.286494
59327.877452,5329.482782,-4811.338623,7354.516781
59327.877762,9992.780217,0.000000,8273.831378
59327.878072,9474.636058,3478.967927,6128.763984
59327.878382,7105.977043,-2072.576638,4903.011187
59327.878691,-370.102971,-6365.771101,306.438199
59327.879001,-6513.812290,-11251.130318,-3447.429741
59327.879311,-6883.915261,-13915.871710,-3753.867940
59327.879621,-5995.668130,-15840.407159,-5209.449386
59327.879931,-7179.997637,-17468.860231,-2528.115143
59327.880240,-8956.491898,-17172.777854,-3217.601092
59327.880550,-4145.153275,-15766.386565,0.000000
59327.880860,1998.556043,-11473.192101,2451.505594
59327.881170,3775.050304,-4589.276840,3600.648841
59327.881480,9548.656652,-666.185348,7201.297681
59327.881790,12287.418637,1036.288319,7354.516781
59327.882099,8956.491898,-2960.823768,5745.716235
59327.882409,3478.967927,-9104.533087,2451.505594
59327.882719,-4737.318029,-13619.789333,-2451.505594
59327.883029,-3627.009116,-15988.448347,-2528.115143
59327.883339,-8882.471304,-12213.398043,-6128.763984
59327.883648,-9326.594869,-16284.530724,-3370.820191
59327.883958,-8956.491898,-15248.242405,-4290.134789
59327.884268,-3627.009116,-13619.789333,-76.609550
59327.884578,1998.556043,-8956.491898,3677.258390
59327.884888,5699.585753,-5551.544565,7201.297681
59327.885198,8956.491898,0.000000,7354.516781
59327.885507,11251.130318,1702.473667,7354.516781
59327.885817,6217.729913,-3034.844362,4826.401637
59327.886127,0.000000,-7179.997637,0.000000
59327.886437,-4811.338623,-13619.789333,-2528.115143
59327.886747,-7994.224174,-11325.150913,-7354.516781
59327.887056,-7328.038826,-14285.974681,-4979.620737
59327.887366,-7476.080014,-15988.448347,-3447.429741
59327.887676,-8068.244768,-14285.974681,-3064.381992
59327.887986,-2738.761985,-12583.501014,842.705048
59327.888296,2220.617826,-7476.080014,3370.820191
59327.888606,4737.318029,-1850.514855,5515.887586
59327.888915,9474.636058,1702.473667,7277.907231
59327.889225,10066.800811,4663.297435,5515.887586
59327.889535,10436.903782,-3256.906145,6665.030833
59327.889845,370.102971,-5403.503377,-2987.772442
59327.890155,-4737.318029,-12435.459826,-2528.115143
59327.890464,-4959.379811,-16284.530724,-3447.429741
59327.890774,-8364.327145,-16358.551318,-5592.497135
59327.891084,-10732.986159,-16506.592507,-5515.887586
59327.891394,-9178.553681,-15766.386565,-3830.477490
59327.891704,-4737.318029,-11029.068536,-919.314598
59327.892013,2146.597232,-6587.832884,4213.525239
59327.892323,5033.400406,-666.185348,6435.202183
59327.892633,11843.295072,1110.308913,9806.022374
59327.892943,13545.768739,2368.659014,8503.660028
59327.893253,7402.059420,-2368.659014,4826.401637
59327.893563,0.000000,-7772.162391,1378.971896
59327.893872,-6735.874072,-11547.212695,-3370.820191
59327.894182,-7994.224174,-13397.727550,-5286.058936
59327.894492,-8882.471304,-14508.036463,-6128.763984
59327.894802,-11029.068536,-15692.365970,-5286.058936
59327.895112,-10140.821405,-16580.613101,-3753.867940
59327.895421,-4515.256246,-12509.480420,-1608.800546
59327.895731,0.000000,-9548.656652,3064.381992
59327.896041,7402.059420,-3923.091493,8580.269578
59327.896351,10584.944971,-1776.494261,9729.412825
59327.896661,12139.377449,5847.626942,6741.640382
59327.896971,10436.903782,-888.247130,5745.716235
59327.897280,2886.803174,-6661.853478,1532.190996
59327.897590,-2738.761985,-10510.924376,-2528.115143
59327.897900,-5107.421000,-16580.613101,-1915.238745
59327.898210,-5403.503377,-16580.613101,-4366.744339
59327.898520,-14137.933492,-15544.324782,-7737.564530
59327.898829,-11843.295072,-16654.633695,-4903.011187
59327.899139,-2442.679609,-15396.283594,-76.609550
59327.899449,2368.659014,-8956.491898,4903.011187
59327.899759,5921.647536,-2442.679609,7354.516781
59327.900069,11769.274478,-962.267725,9729.412825
59327.900379,13619.789333,1998.556043,8427.050478
59327.900688,7105.977043,-3182.885551,4903.011187
59327.900998,-74.020594,-8882.471304,1149.143247
59327.901308,-6809.894666,-12509.480420,-3064.381992
59327.901618,-6291.750507,-15988.448347,-3753.867940
59327.901928,-8364.327145,-15618.345376,-5898.935335
59327.902237,-11843.295072,-16654.633695,-4290.134789
59327.902547,-10066.800811,-16654.633695,-3677.258390
59327.902857,-4737.318029,-15174.221811,-1225.752797
59327.903167,1998.556043,-10288.862594,4290.134789
59327.903477,6957.935855,-4515.256246,6818.249932
59327.903787,11177.109724,-444.123565,8273.831378
59327.904096,14730.098246,666.185348,8963.317327
59327.904406,8882.471304,-1850.514855,4979.620737
