#time,accel_x,accel_y,accel_z
163488.938381,222.061783,-9104.533087,306.438199
163488.938701,-370.102971,-8882.471304,306.438199
163488.939020,0.000000,-8660.409521,229.828649
163488.939340,-74.020594,-8290.306550,-76.609550
163488.939659,222.061783,-8660.409521,76.609550
163488.939978,-74.020594,-9474.636058,-76.609550
163488.940298,-740.205942,-8512.368333,-383.047749
163488.940617,-370.102971,-7698.141797,-1608.800546
163488.940936,-296.082377,-10214.842000,2145.067394
163488.941256,-1776.494261,-8660.409521,0.000000
163488.941575,-666.185348,-9252.574275,-536.266849
163488.941895,-888.247130,-9548.656652,-1302.362347
163488.942214,-814.226536,-9474.636058,-689.485948
163488.942533,-666.185348,-9696.697840,-1838.629195
163488.942853,-1184.329507,-9548.656652,0.000000
163488.943172,-74.020594,-10066.800811,-76.609550
163488.943492,-74.020594,-8882.471304,-1302.362347
163488.943811,0.000000,-8956.491898,0.000000
163488.944130,592.164754,-11029.068536,2298.286494
163488.944450,0.000000,-9548.656652,-842.705048
163488.944769,148.041188,-9918.759623,-383.047749
163488.945089,0.000000,-9696.697840,0.000000
163488.945408,0.000000,-7772.162391,0.000000
163488.945727,-1480.411884,-7772.162391,-2068.457845
163488.946047,0.000000,-8142.265362,-1302.362347
163488.946366,-2072.576638,-7179.997637,0.000000
163488.946686,1036.288319,-9178.553681,1072.533697
163488.947005,-74.020594,-10658.965565,-76.609550
163488.947324,0.000000,-9252.574275,153.219100
163488.947644,-296.082377,-9030.512492,229.828649
163488.947963,-518.144159,-8808.450710,76.609550
163488.948283,-740.205942,-8808.450710,153.219100
163488.948602,-2368.659014,-6735.874072,-1455.581446
163488.948921,-74.020594,-10658.965565,1762.019645
163488.949241,-74.020594,-9474.636058,-76.609550
163488.949560,-1776.494261,-8660.409521,0.000000
163488.949880,-74.020594,-11547.212695,1455.581446
163488.950199,-74.020594,-11251.130318,-76.609550
163488.950518,-1184.329507,-9548.656652,-459.657299
163488.950838,-518.144159,-9622.677246,-842.705048
163488.951157,0.000000,-9844.739029,-689.485948
163488.951477,0.000000,-9770.718434,-306.438199
163488.951796,-74.020594,-8882.471304,-306.438199
163488.952115,1110.308913,-10658.965565,-76.609550
163488.952435,-74.020594,-9770.718434,-76.609550
163488.952754,-74.020594,-9474.636058,-383.047749
163488.953074,0.000000,-7476.080014,0.000000
163488.953393,3478.967927,-11843.295072,-76.609550
163488.953712,0.000000,-8956.491898,0.000000
163488.954032,370.102971,-9474.636058,0.000000
163488.954351,444.123565,-8586.388927,306.438199
163488.954671,0.000000,-7772.162391,306.438199
163488.954990,-1776.494261,-8068.244768,0.000000
163488.955309,0.000000,-7772.162391,0.000000
163488.955629,0.000000,-9696.697840,1838.629195
163488.955948,-74.020594,-9474.636058,-76.609550
163488.956267,-74.020594,-8512.368333,-1302.362347
163488.956587,-74.020594,-9918.759623,842.705048
163488.956906,-1258.350101,-8290.306550,-306.438199
163488.957226,-888.247130,-9252.574275,-689.485948
163488.957545,-666.185348,-9252.574275,-612.876398
163488.957864,-2368.659014,-7179.997637,0.000000
163488.958184,-666.185348,-8808.450710,-1302.362347
163488.958503,0.000000,-9548.656652,0.000000
163488.958823,2294.638420,-10066.800811,-383.047749
163488.959142,1184.329507,-8364.327145,-2451.505594
163488.959461,2516.700203,-11251.130318,2681.334243
163488.959781,1258.350101,-9252.574275,-919.314598
163488.960100,1702.473667,-9622.677246,-919.314598
163488.960420,2368.659014,-9918.759623,-766.095498
163488.960739,1480.411884,-8364.327145,0.000000
163488.961058,4219.173869,-9548.656652,306.438199
163488.961378,4737.318029,-10436.903782,1532.190996
163488.961697,4663.297435,-9030.512492,1149.143247
163488.962017,4071.132681,-6143.709319,0.000000
163488.962336,5329.482782,-9548.656652,1225.752797
163488.962655,4737.318029,-7846.182985,0.000000
163488.962975,5551.544565,-9252.574275,383.047749
163488.963294,4959.379811,-8438.347739,229.828649
163488.963614,4663.297435,-9252.574275,-612.876398
163488.963933,6439.791695,-9474.636058,-1915.238745
163488.964252,4737.318029,-9104.533087,-919.314598
163488.964572,5625.565159,-8734.430116,-919.314598
163488.964891,6587.832884,-9326.594869,-612.876398
163488.965211,7402.059420,-9252.574275,-76.609550
163488.965530,6069.688724,-9548.656652,612.876398
163488.965849,2368.659014,-9548.656652,0.000000
163488.966169,4441.235652,-12509.480420,-229.828649
163488.966488,2738.761985,-12139.377449,-153.219100
163488.966808,1480.411884,-10732.986159,0.000000
163488.967127,4663.297435,-11251.130318,-76.609550
163488.967446,3849.070898,-8438.347739,1072.533697
163488.967766,4589.276840,-7031.956449,306.438199
163488.968085,4145.153275,-5329.482782,-612.876398
163488.968405,4737.318029,-5033.400406,-1378.971896
163488.968724,5921.647536,-6883.915261,-1991.848295
163488.969043,4441.235652,-8290.306550,-2911.162892
163488.969363,4145.153275,-10881.027347,-2834.553343
163488.969682,1184.329507,-13101.645173,0.000000
163488.970002,1702.473667,-14285.974681,-2068.457845
163488.970321,4367.215058,-15988.448347,2987.772442
163488.970640,2960.823768,-11103.089130,2528.115143
163488.970960,2812.782580,-6809.894666,1685.410096
163488.971279,1924.535449,-4367.215058,-383.047749
163488.971598,2220.617826,-5403.503377,842.705048
163488.971918,2442.679609,-6957.935855,-306.438199
163488.972237,1406.391290,-8290.306550,-76.609550
163488.972557,-2812.782580,-7476.080014,-1685.410096
163488.972876,-4145.153275,-8956.491898,-919.314598
163488.973195,-2886.803174,-8512.368333,-3140.991542
163488.973515,74.020594,-9474.636058,459.657299
163488.973834,666.185348,-8882.471304,0.000000
163488.974154,1332.370696,-10288.862594,459.657299
163488.974473,1924.535449,-11251.130318,2374.896044
163488.974792,3182.885551,-11843.295072,2374.896044
163488.975112,0.000000,-7179.997637,0.000000
163488.975431,-888.247130,-7920.203579,-4060.306139
163488.975751,-1258.350101,-9770.718434,-4903.011187
163488.976070,0.000000,-10732.986159,-3677.258390
163488.976389,2886.803174,-12361.439231,-689.485948
163488.976709,2220.617826,-12065.356855,2911.162892
163488.977028,814.226536,-9104.533087,1302.362347
163488.977348,1406.391290,-7179.997637,153.219100
163488.977667,5551.544565,-9326.594869,1608.800546
163488.977986,7031.956449,-8438.347739,3907.087040
163488.978306,7105.977043,-7476.080014,6741.640382
163488.978625,7031.956449,-6735.874072,3983.696590
163488.978945,2886.803174,-6513.812290,-3753.867940
163488.979264,-4737.318029,-7476.080014,-8580.269578
163488.979583,-2146.597232,-13767.830521,-6818.249932
163488.979903,-2664.741391,-15248.242405,-4826.401637
163488.980222,-1184.329507,-14434.015869,-3370.820191
163488.980542,444.123565,-12213.398043,-2374.896044
163488.980861,4441.235652,-9918.759623,1149.143247
163488.981180,10584.944971,-8290.306550,5132.839837
163488.981500,12065.356855,-4441.235652,6971.469032
163488.981819,8290.306550,-74.020594,5209.449386
163488.982139,7846.182985,-3923.091493,4213.525239
163488.982458,1184.329507,-3627.009116,-3370.820191
163488.982777,2886.803174,-11843.295072,-689.485948
163488.983097,518.144159,-13249.686362,-2221.676944
163488.983416,-2886.803174,-13693.809927,-5745.716235
163488.983736,-1554.432478,-14211.954086,-7431.126331
163488.984055,-74.020594,-14211.954086,-6205.373534
163488.984374,2960.823768,-12509.480420,-306.438199
163488.984694,6735.874072,-10658.965565,1149.143247
163488.985013,7105.977043,-6143.709319,2681.334243
163488.985333,8290.306550,-4811.338623,5209.449386
163488.985652,7105.977043,-3182.885551,4903.011187
163488.985971,6957.935855,-5921.647536,5745.716235
163488.986291,6513.812290,-6809.894666,5209.449386
163488.986610,6217.729913,-7476.080014,3064.381992
163488.986930,6439.791695,-9474.636058,-76.609550
163488.987249,-2368.659014,-10140.821405,-4903.011187
163488.987568,-2590.720797,-14211.954086,-4826.401637
163488.987888,-2442.679609,-15100.201217,-5209.449386
163488.988207,-1258.350101,-15988.448347,-4366.744339
163488.988526,-2368.659014,-11917.315666,-3677.258390
163488.988846,444.123565,-9400.615463,-1378.971896
163488.989165,2960.823768,-6957.935855,1149.143247
163488.989485,5921.647536,-6291.750507,3217.601092
163488.989804,6883.915261,-4219.173869,2451.505594
163488.990123,7105.977043,-5255.462188,3294.210641
163488.990443,2960.823768,-5995.668130,1915.238745
163488.990762,1554.432478,-9400.615463,0.000000
163488.991082,-74.020594,-11843.295072,-1608.800546
163488.991401,-1258.350101,-13027.624579,-2528.115143
163488.991720,-4145.153275,-11917.315666,-4903.011187
163488.992040,-296.082377,-12953.603985,-3140.991542
163488.992359,1924.535449,-11917.315666,-76.609550
163488.992679,4293.194464,-9622.677246,2221.676944
163488.992998,5847.626942,-5773.606348,1149.143247
163488.993317,6439.791695,-6291.750507,2374.896044
163488.993637,4811.338623,-5921.647536,2374.896044
163488.993956,2664.741391,-5403.503377,1838.629195
163488.994276,3256.906145,-8290.306550,2145.067394
163488.994595,2886.803174,-11251.130318,2221.676944
163488.994914,0.000000,-8956.491898,-3524.039291
163488.995234,-1850.514855,-9770.718434,-4443.353888
163488.995553,-1850.514855,-10955.047942,-4136.915689
163488.995873,0.000000,-11991.336260,-2757.943793
163488.996192,3182.885551,-13027.624579,-76.609550
163488.996511,3923.091493,-11029.068536,-76.609550
163488.996831,3256.906145,-10807.006753,1991.848295
163488.997150,4663.297435,-9770.718434,3524.039291
163488.997470,8216.285956,-9474.636058,4826.401637
163488.997789,6735.874072,-5995.668130,1991.848295
163488.998108,4663.297435,-6957.935855,1532.190996
163488.998428,1036.288319,-7105.977043,-2528.115143
163488.998747,-1258.350101,-9474.636058,-4596.572988
163488.999067,-74.020594,-13027.624579,-3753.867940
163488.999386,-2368.659014,-11843.295072,-4979.620737
163488.999705,-74.020594,-14804.118840,-2528.115143
163489.000025,-888.247130,-11917.315666,-1685.410096
163489.000344,0.000000,-9548.656652,306.438199
163489.000664,3478.967927,-10066.800811,4213.525239
163489.000983,5847.626942,-8142.265362,6971.469032
163489.001302,3997.112087,-5107.421000,5209.449386
163489.001622,888.247130,-2886.803174,2681.334243
163489.001941,-2442.679609,-5699.585753,536.266849
163489.002261,-4737.318029,-5995.668130,0.000000
163489.002581,-3552.988522,-9252.574275,-2221.676944
163489.002901,-3997.112087,-10881.027347,-4903.011187
163489.003220,-3627.009116,-13915.871710,-4060.306139
163489.003540,-6143.709319,-13619.789333,-5286.058936
163489.003860,-5625.565159,-15544.324782,-766.095498
163489.004180,-3627.009116,-11917.315666,0.000000
163489.004499,-592.164754,-10732.986159,2068.457845
163489.004819,-2220.617826,-7105.977043,2451.505594
163489.005139,-1628.453072,-5403.503377,306.438199
163489.005459,-370.102971,-4737.318029,536.266849
163489.005778,296.082377,-5625.565159,2834.553343
163489.006098,296.082377,-6587.832884,2145.067394
163489.006418,-1628.453072,-7254.018232,153.219100
163489.006738,-1628.453072,-9918.759623,-1762.019645
163489.007057,-3627.009116,-12435.459826,-2221.676944
163489.007377,-5921.647536,-13249.686362,-3064.381992
163489.007697,-4441.235652,-13249.686362,-4903.011187
163489.008017,-7698.141797,-11917.315666,-2451.505594
163489.008336,-7698.141797,-7772.162391,-4903.011187
163489.008656,-3034.844362,-8290.306550,-1915.238745
163489.008976,740.205942,-7179.997637,2528.115143
163489.009296,5033.400406,-4737.318029,4290.134789
163489.009615,5181.441594,-4737.318029,4903.011187
163489.009935,4885.359217,-7105.977043,4826.401637
163489.010255,3552.988522,-8290.306550,2757.943793
163489.010574,888.247130,-10066.800811,1685.410096
163489.010894,0.000000,-11325.150913,1225.752797
163489.011214,-3108.864956,-11991.336260,-1685.410096
163489.011534,-7994.224174,-9548.656652,-7354.516781
163489.011853,-5329.482782,-11251.130318,-7048.078582
163489.012173,-3330.926739,-11325.150913,-3677.258390
163489.012493,962.267725,-8956.491898,-1915.238745
163489.012813,2294.638420,-7698.141797,-1302.362347
163489.013132,3478.967927,-8290.306550,-76.609550
163489.013452,4663.297435,-9474.636058,2374.896044
163489.013772,5255.462188,-10066.800811,3907.087040
163489.014092,5921.647536,-10288.862594,5056.230287
163489.014411,4145.153275,-8956.491898,4290.134789
163489.014731,-2960.823768,-7772.162391,-2298.286494
163489.015051,-2146.597232,-9622.677246,-4673.182538
163489.015371,-2072.576638,-10807.006753,-3907.087040
163489.015690,1924.535449,-10288.862594,-2221.676944
163489.016010,5847.626942,-10658.965565,-76.609550
163489.016330,592.164754,-7772.162391,0.000000
163489.016650,2368.659014,-8660.409521,-459.657299
163489.016969,2146.597232,-11251.130318,2528.115143
163489.017289,8216.285956,-11843.295072,6052.154434
163489.017609,3552.988522,-7179.997637,4290.134789
163489.017929,-2960.823768,-7624.121203,0.000000
163489.018248,-4515.256246,-8142.265362,-2681.334243
163489.018568,-4219.173869,-9548.656652,-3600.648841
163489.018888,-1998.556043,-10066.800811,-2757.943793
163489.019208,-74.020594,-9326.594869,-2834.553343
163489.019527,-4145.153275,-9548.656652,-2374.896044
163489.019847,-1184.329507,-7179.997637,-4060.306139
163489.020167,0.000000,-9548.656652,0.000000
163489.020487,2886.803174,-11843.295072,4213.525239
163489.020806,1184.329507,-7772.162391,3677.258390
163489.021126,-2146.597232,-9030.512492,919.314598
163489.021446,-4145.153275,-9400.615463,-1762.019645
163489.021765,-5033.400406,-9696.697840,-2834.553343
163489.022085,-4293.194464,-8956.491898,-2145.067394
163489.022405,518.144159,-8216.285956,-2145.067394
163489.022725,-888.247130,-7105.977043,-2528.115143
163489.023044,-2960.823768,-7179.997637,-1225.752797
163489.023364,0.000000,-9844.739029,0.000000
163489.023684,2738.761985,-13619.789333,4826.401637
163489.024004,592.164754,-10436.903782,2451.505594
163489.024323,-2220.617826,-8882.471304,1225.752797
163489.024643,-4367.215058,-8586.388927,-459.657299
163489.024963,-2960.823768,-7254.018232,-1378.971896
163489.025283,-2442.679609,-7698.141797,-1302.362347
163489.025602,2294.638420,-9474.636058,3217.601092
163489.025922,1110.308913,-6365.771101,-229.828649
163489.026242,-2812.782580,-6883.915261,-1685.410096
163489.026562,-3552.988522,-8364.327145,-2451.505594
163489.026881,1110.308913,-14211.954086,2374.896044
163489.027201,296.082377,-12361.439231,1378.971896
163489.027521,-1332.370696,-10140.821405,0.000000
163489.027841,-6143.709319,-9770.718434,-1838.629195
163489.028160,-5551.544565,-8956.491898,-2451.505594
163489.028480,-1628.453072,-8882.471304,-2145.067394
163489.028800,2664.741391,-9474.636058,1455.581446
163489.029120,3775.050304,-6513.812290,1608.800546
163489.029439,2294.638420,-7105.977043,-76.609550
163489.029759,1110.308913,-7179.997637,-1608.800546
163489.030079,4367.215058,-13027.624579,2374.896044
163489.030399,3849.070898,-12287.418637,3217.601092
163489.030718,2590.720797,-11399.171507,2145.067394
163489.031038,-1332.370696,-11473.192101,-536.266849
163489.031358,-5921.647536,-8364.327145,-3677.258390
163489.031677,-4293.194464,-9548.656652,-4596.572988
163489.031997,-592.164754,-8364.327145,-3677.258390
163489.032317,3552.988522,-8364.327145,306.438199
163489.032637,3478.967927,-7698.141797,1149.143247
163489.032956,3478.967927,-6809.894666,-76.609550
163489.033276,3256.906145,-9104.533087,3217.601092
163489.033596,4219.173869,-9770.718434,4596.572988
163489.033916,4441.235652,-10288.862594,3907.087040
163489.034235,-1110.308913,-9622.677246,1378.971896
163489.034555,-7105.977043,-7772.162391,-2451.505594
163489.034875,-6513.812290,-9326.594869,-6205.373534
163489.035195,-6513.812290,-9548.656652,-4903.011187
163489.035514,-1184.329507,-9474.636058,-3217.601092
163489.035834,-74.020594,-9474.636058,-919.314598
163489.036154,0.000000,-9400.615463,-76.609550
163489.036474,1702.473667,-7994.224174,-306.438199
163489.036793,3997.112087,-10066.800811,3370.820191
163489.037113,4737.318029,-9252.574275,3983.696590
163489.037433,0.000000,-7179.997637,612.876398
163489.037753,-1924.535449,-9104.533087,919.314598
163489.038072,-1258.350101,-11251.130318,-689.485948
163489.038392,-2442.679609,-11621.233289,-1302.362347
163489.038712,-74.020594,-9474.636058,-2528.115143
163489.039032,-2368.659014,-8364.327145,-1838.629195
163489.039351,-2960.823768,-6883.915261,-2451.505594
163489.039671,592.164754,-8290.306550,-612.876398
163489.039991,1850.514855,-8956.491898,2145.067394
163489.040311,3849.070898,-8660.409521,3524.039291
163489.040630,3478.967927,-9474.636058,2068.457845
163489.040950,-2368.659014,-8586.388927,1608.800546
163489.041270,-4293.194464,-9548.656652,-1608.800546
163489.041589,-4737.318029,-10807.006753,-1915.238745
163489.041909,-2368.659014,-10214.842000,-689.485948
163489.042229,0.000000,-8956.491898,612.876398
163489.042549,-888.247130,-8364.327145,1225.752797
163489.042868,2294.638420,-8290.306550,-1302.362347
163489.043188,1258.350101,-8956.491898,1378.971896
163489.043508,2960.823768,-8956.491898,306.438199
163489.043828,3478.967927,-11251.130318,1149.143247
163489.044147,-3404.947333,-10510.924376,-842.705048
163489.044467,-5477.523971,-10362.883188,-2834.553343
163489.044787,-4145.153275,-10288.862594,-2834.553343
163489.045107,-1184.329507,-10732.986159,-1838.629195
163489.045426,2294.638420,-9178.553681,-76.609550
163489.045746,0.000000,-6587.832884,-1072.533697
163489.046066,1998.556043,-8512.368333,-76.609550
163489.046386,4367.215058,-10955.047942,1149.143247
163489.046705,2368.659014,-9548.656652,306.438199
163489.047025,4663.297435,-11251.130318,4060.306139
163489.047345,0.000000,-9770.718434,1838.629195
163489.047665,-2368.659014,-9622.677246,-689.485948
163489.047984,-2664.741391,-8882.471304,-1991.848295
163489.048304,-1850.514855,-10658.965565,-689.485948
163489.048624,-74.020594,-8586.388927,-1762.019645
163489.048944,-2368.659014,-7105.977043,-1915.238745
163489.049263,-1998.556043,-6217.729913,-2911.162892
163489.049583,0.000000,-8364.327145,-1838.629195
163489.049903,148.041188,-9548.656652,2451.505594
163489.050223,3256.906145,-9548.656652,3140.991542
163489.050542,1554.432478,-9326.594869,2451.505594
163489.050862,-3108.864956,-9178.553681,-153.219100
163489.051182,-4811.338623,-9474.636058,-3294.210641
163489.051502,-3627.009116,-9770.718434,-3370.820191
163489.051821,-1628.453072,-8956.491898,-2451.505594
163489.052141,0.000000,-9548.656652,306.438199
163489.052461,-74.020594,-8290.306550,-1302.362347
163489.052780,518.144159,-7031.956449,-1608.800546
163489.053100,1184.329507,-8364.327145,2451.505594
163489.053420,4219.173869,-9844.739029,2374.896044
163489.053740,3034.844362,-9770.718434,3064.381992
163489.054059,-666.185348,-9252.574275,1149.143247
163489.054379,-3034.844362,-9030.512492,-1915.238745
163489.054699,-3034.844362,-9474.636058,-1302.362347
163489.055019,-1258.350101,-11547.212695,-1608.800546
163489.055338,-3256.906145,-7772.162391,-3064.381992
163489.055658,-1850.514855,-8068.244768,-3677.258390
163489.055978,1702.473667,-8882.471304,-76.609550
163489.056298,1480.411884,-8660.409521,1225.752797
163489.056617,5625.565159,-9844.739029,3600.648841
163489.056937,5181.441594,-8808.450710,3677.258390
163489.057257,0.000000,-9844.739029,1149.143247
163489.057577,-3034.844362,-10362.883188,-1532.190996
163489.057896,-4293.194464,-11843.295072,-1072.533697
163489.058216,-3627.009116,-11843.295072,-2068.457845
163489.058536,-2072.576638,-8438.347739,-3370.820191
163489.058856,-2368.659014,-7179.997637,0.000000
163489.059175,1702.473667,-8290.306550,-76.609550
163489.059495,2368.659014,-7920.203579,1838.629195
163489.059815,4663.297435,-9474.636058,1149.143247
163489.060135,1924.535449,-8882.471304,1455.581446
163489.060454,2294.638420,-11251.130318,1532.190996
163489.060774,-2886.803174,-9178.553681,-2451.505594
163489.061094,-3034.844362,-13397.727550,-3140.991542
163489.061414,-4737.318029,-11029.068536,-3524.039291
163489.061733,-1184.329507,-9548.656652,-536.266849
163489.062053,-74.020594,-8882.471304,-842.705048
163489.062373,370.102971,-6809.894666,-1225.752797
163489.062692,4885.359217,-6143.709319,1762.019645
163489.063012,4885.359217,-9252.574275,2681.334243
163489.063332,6735.874072,-7994.224174,4519.963438
163489.063652,2442.679609,-8290.306550,2987.772442
163489.063971,-666.185348,-9474.636058,-76.609550
163489.064291,-5921.647536,-9918.759623,-4213.525239
163489.064611,-6513.812290,-11917.315666,0.000000
163489.064931,-2738.761985,-11843.295072,-2221.676944
163489.065250,-2368.659014,-9622.677246,-1532.190996
163489.065570,-1776.494261,-7476.080014,-3064.381992
163489.065890,1110.308913,-7550.100608,-1532.190996
163489.066210,2294.638420,-11029.068536,2374.896044
163489.066529,3108.864956,-8956.491898,1225.752797
163489.066849,2072.576638,-9548.656652,3064.381992
163489.067169,-1776.494261,-7179.997637,1838.629195
163489.067489,-3627.009116,-9474.636058,-2528.115143
163489.067808,-6513.812290,-10140.821405,-3370.820191
163489.068128,-3256.906145,-10732.986159,-2451.505594
163489.068448,-1554.432478,-8290.306550,-3294.210641
163489.068768,-148.041188,-8586.388927,-76.609550
163489.069087,0.000000,-7772.162391,-1991.848295
163489.069407,1332.370696,-8808.450710,-612.876398
163489.069727,3478.967927,-9400.615463,3447.429741
163489.070047,2368.659014,-7772.162391,1838.629195
163489.070366,0.000000,-8364.327145,2374.896044
163489.070686,-3552.988522,-7772.162391,0.000000
163489.071006,-2664.741391,-10881.027347,229.828649
163489.071326,-1850.514855,-10807.006753,-76.609550
163489.071645,-74.020594,-9474.636058,-689.485948
163489.071965,-2960.823768,-9104.533087,-919.314598
163489.072285,-1850.514855,-7105.977043,-2451.505594
163489.072604,-592.164754,-8512.368333,-1991.848295
163489.072924,1776.494261,-10066.800811,1838.629195
163489.073244,1480.411884,-7772.162391,76.609550
163489.073564,2294.638420,-9474.636058,2374.896044
163489.073883,-1258.350101,-8882.471304,-383.047749
163489.074203,-2368.659014,-9844.739029,0.000000
163489.074523,-2072.576638,-11843.295072,1072.533697
163489.074843,-74.020594,-9474.636058,-689.485948
163489.075162,-2220.617826,-8956.491898,-2068.457845
163489.075482,-1628.453072,-8068.244768,-2911.162892
163489.075802,-296.082377,-8216.285956,-3140.991542
163489.076122,2368.659014,-10288.862594,1532.190996
163489.076441,4663.297435,-9696.697840,2834.553343
163489.076761,4663.297435,-10436.903782,2681.334243
163489.077081,-74.020594,-10066.800811,-76.609550
163489.077401,-3552.988522,-9548.656652,0.000000
163489.077720,-2812.782580,-9992.780217,-842.705048
163489.078040,2294.638420,-11547.212695,-76.609550
163489.078360,74.020594,-8364.327145,0.000000
163489.078680,-1332.370696,-7179.997637,-1302.362347
163489.078999,-148.041188,-7179.997637,-1302.362347
163489.079319,2368.659014,-8956.491898,3064.381992
163489.079639,4293.194464,-9030.512492,2374.896044
163489.079959,2368.659014,-9252.574275,3217.601092
163489.080278,-74.020594,-9474.636058,-76.609550
163489.080598,-4145.153275,-9104.533087,-3294.210641
163489.080918,-6809.894666,-9548.656652,-4290.134789
163489.081238,-2886.803174,-11843.295072,-1302.362347
163489.081557,-3404.947333,-9548.656652,-2145.067394
163489.081877,-2220.617826,-8734.430116,-1378.971896
163489.082197,-1036.288319,-6513.812290,-2757.943793
163489.082517,1332.370696,-8882.471304,-612.876398
163489.082836,2368.659014,-8364.327145,2451.505594
163489.083156,6439.791695,-10510.924376,3447.429741
163489.083476,0.000000,-9400.615463,1149.143247
163489.083795,-5921.647536,-8364.327145,-3677.258390
163489.084115,-3627.009116,-11843.295072,-2834.553343
163489.084435,-2738.761985,-12731.542202,-76.609550
163489.084755,-666.185348,-9992.780217,0.000000
163489.085074,-518.144159,-7624.121203,383.047749
163489.085394,2886.803174,-8290.306550,1455.581446
163489.085714,2072.576638,-6587.832884,0.000000
163489.086034,2960.823768,-8956.491898,3064.381992
163489.086353,4293.194464,-7994.224174,3064.381992
163489.086673,2220.617826,-11251.130318,3600.648841
163489.086993,-666.185348,-10658.965565,2374.896044
163489.087313,-4441.235652,-9918.759623,-1302.362347
163489.087632,-3034.844362,-11473.192101,766.095498
163489.087952,-666.185348,-9770.718434,-459.657299
163489.088272,-2664.741391,-9104.533087,-1302.362347
163489.088592,-4515.256246,-6069.688724,-4903.011187
163489.088911,-2220.617826,-8068.244768,-2834.553343
163489.089231,444.123565,-9844.739029,0.000000
163489.089551,4367.215058,-8882.471304,2681.334243
163489.089871,3256.906145,-7920.203579,2987.772442
163489.090190,888.247130,-8882.471304,2374.896044
163489.090510,-1776.494261,-10584.944971,-383.047749
163489.090830,-2442.679609,-12435.459826,-2221.676944
163489.091150,-2368.659014,-11917.315666,-612.876398
163489.091469,-1184.329507,-11325.150913,-1225.752797
163489.091789,-4219.173869,-8068.244768,-3907.087040
163489.092109,-888.247130,-9548.656652,-2221.676944
163489.092429,2146.597232,-8956.491898,76.609550
163489.092748,6809.894666,-8512.368333,2834.553343
163489.093068,7624.121203,-8734.430116,3907.087040
163489.093388,1406.391290,-8290.306550,1762.019645
163489.093707,-2368.659014,-7179.997637,-1225.752797
163489.094027,-3256.906145,-9844.739029,-2451.505594
163489.094347,-74.020594,-12879.583391,766.095498
163489.094667,-2960.823768,-9548.656652,0.000000
163489.094986,-2738.761985,-9326.594869,-1608.800546
163489.095306,-3552.988522,-7698.141797,-3524.039291
163489.095626,-1850.514855,-9474.636058,-2145.067394
163489.095946,2368.659014,-10066.800811,1302.362347
163489.096265,5033.400406,-7846.182985,3447.429741
163489.096585,3034.844362,-7105.977043,3447.429741
163489.096905,0.000000,-6069.688724,-1302.362347
163489.097225,-2960.823768,-8660.409521,0.000000
163489.097544,-1924.535449,-11843.295072,-229.828649
163489.097864,-3552.988522,-9548.656652,-2451.505594
163489.098184,-4219.173869,-11103.089130,-3140.991542
163489.098504,-5329.482782,-9992.780217,-4136.915689
163489.098823,-2368.659014,-9770.718434,-3370.820191
163489.099143,1406.391290,-9178.553681,-842.705048
163489.099463,5551.544565,-9474.636058,-76.609550
163489.099783,3034.844362,-9474.636058,2987.772442
163489.100102,-666.185348,-7105.977043,-689.485948
163489.100422,-2368.659014,-8808.450710,-919.314598
163489.100742,814.226536,-11991.336260,2757.943793
163489.101062,0.000000,-8364.327145,1225.752797
163489.101381,222.061783,-9178.553681,1455.581446
163489.101701,-1776.494261,-8142.265362,-459.657299
163489.102021,-1628.453072,-8142.265362,-1378.971896
163489.102341,-74.020594,-9474.636058,-76.609550
163489.102660,4071.132681,-10066.800811,2834.553343
163489.102980,2294.638420,-9326.594869,1149.143247
163489.103300,-1406.391290,-8438.347739,229.828649
163489.103619,-2442.679609,-8586.388927,-2834.553343
163489.103939,-2368.659014,-11029.068536,1225.752797
163489.104259,-1776.494261,-10140.821405,0.000000
163489.104579,-666.185348,-9770.718434,383.047749
163489.104898,-3034.844362,-8882.471304,0.000000
163489.105218,-2220.617826,-7550.100608,-1608.800546
163489.105537,-148.041188,-8068.244768,-1072.533697
163489.105857,4737.318029,-9696.697840,2451.505594
163489.106177,4663.297435,-8216.285956,0.000000
163489.106496,-888.247130,-9252.574275,919.314598
163489.106816,-3182.885551,-10066.800811,-2528.115143
163489.107136,-2590.720797,-13915.871710,-2528.115143
163489.107455,-2368.659014,-11325.150913,-1838.629195
163489.107775,0.000000,-10807.006753,0.000000
163489.108095,-1110.308913,-9696.697840,1455.581446
163489.108414,0.000000,-7179.997637,0.000000
163489.108734,0.000000,-6291.750507,0.000000
163489.109054,4219.173869,-8364.327145,1225.752797
163489.109373,7328.038826,-8734.430116,3600.648841
163489.109693,2886.803174,-7994.224174,842.705048
163489.110012,-1258.350101,-7402.059420,-3140.991542
163489.110332,-1850.514855,-12731.542202,-1915.238745
163489.110652,-2368.659014,-12361.439231,-1378.971896
163489.110971,222.061783,-11843.295072,-383.047749
163489.111291,-2442.679609,-10584.944971,-1225.752797
163489.111611,-6513.812290,-7772.162391,-3677.258390
163489.111930,-4145.153275,-7179.997637,-3140.991542
163489.112250,0.000000,-7179.997637,0.000000
163489.112570,6513.812290,-7476.080014,3447.429741
163489.112889,4071.132681,-7105.977043,3600.648841
163489.113209,-666.185348,-5921.647536,-1608.800546
163489.113529,-3256.906145,-9474.636058,-2145.067394
163489.113848,-2368.659014,-12435.459826,-2298.286494
163489.114168,-1850.514855,-11991.336260,-919.314598
163489.114487,-2146.597232,-12509.480420,-1302.362347
163489.114807,-4737.318029,-10288.862594,-2451.505594
163489.115127,-1258.350101,-9326.594869,-3753.867940
163489.115446,0.000000,-8956.491898,-1225.752797
163489.115766,1184.329507,-7179.997637,0.000000
163489.116086,4663.297435,-8882.471304,1685.410096
163489.116405,1110.308913,-8290.306550,-76.609550
163489.116725,-296.082377,-8068.244768,0.000000
163489.117045,370.102971,-9844.739029,1455.581446
163489.117364,2886.803174,-10140.821405,2681.334243
163489.117684,1998.556043,-10288.862594,3600.648841
163489.118004,-3552.988522,-9918.759623,612.876398
163489.118323,-4811.338623,-9474.636058,-2298.286494
163489.118643,-1258.350101,-11843.295072,-689.485948
163489.118963,814.226536,-9474.636058,229.828649
163489.119282,0.000000,-6587.832884,0.000000
163489.119602,-74.020594,-7105.977043,-76.609550
163489.119921,-2886.803174,-6883.915261,-2374.896044
163489.120241,-2812.782580,-10510.924376,-1685.410096
163489.120561,-962.267725,-10881.027347,-612.876398
163489.120880,592.164754,-12583.501014,2374.896044
163489.121200,-1998.556043,-10732.986159,0.000000
163489.121520,-74.020594,-11843.295072,-76.609550
163489.121839,518.144159,-9326.594869,-689.485948
163489.122159,1850.514855,-8586.388927,1762.019645
163489.122479,5847.626942,-7698.141797,-76.609550
163489.122798,296.082377,-8660.409521,383.047749
163489.123118,-1554.432478,-7846.182985,-1378.971896
163489.123438,-2368.659014,-9474.636058,-2451.505594
163489.123757,814.226536,-12213.398043,2757.943793
163489.124077,1184.329507,-10066.800811,536.266849
163489.124396,-74.020594,-10658.965565,842.705048
163489.124716,-3108.864956,-8808.450710,-1302.362347
163489.125036,-4145.153275,-6291.750507,-4290.134789
163489.125355,-1258.350101,-11843.295072,-76.609550
163489.125675,4737.318029,-9548.656652,3677.258390
163489.125995,2738.761985,-6439.791695,1225.752797
163489.126314,-1406.391290,-6957.935855,-306.438199
163489.126634,-2294.638420,-8142.265362,-2911.162892
163489.126954,-4589.276840,-8956.491898,-4290.134789
163489.127273,740.205942,-10362.883188,-919.314598
163489.127593,-1184.329507,-11029.068536,-1072.533697
163489.127913,-4367.215058,-11251.130318,-1608.800546
163489.128232,-2146.597232,-9178.553681,-1838.629195
163489.128552,2294.638420,-11251.130318,2374.896044
163489.128871,4663.297435,-10658.965565,3294.210641
163489.129191,1406.391290,-4959.379811,-995.924147
163489.129511,-2368.659014,-6883.915261,0.000000
163489.129830,-2072.576638,-7994.224174,-2145.067394
163489.130150,-3552.988522,-7772.162391,-4903.011187
163489.130470,148.041188,-11695.253884,306.438199
163489.130789,74.020594,-10732.986159,-536.266849
163489.131109,-1406.391290,-11103.089130,-612.876398
163489.131429,-666.185348,-10362.883188,-2528.115143
163489.131748,-74.020594,-10658.965565,-536.266849
163489.132068,2368.659014,-9844.739029,2145.067394
163489.132388,2294.638420,-7994.224174,1225.752797
163489.132707,1110.308913,-8290.306550,2374.896044
163489.133027,-2368.659014,-6587.832884,0.000000
163489.133346,-1406.391290,-8956.491898,0.000000
163489.133666,1998.556043,-9696.697840,2528.115143
163489.133986,1776.494261,-8660.409521,995.924147
163489.134305,-444.123565,-10288.862594,919.314598
163489.134625,-1850.514855,-9770.718434,-2528.115143
163489.134945,-2368.659014,-11843.295072,-995.924147
163489.135264,-592.164754,-11473.192101,0.000000
163489.135584,962.267725,-10436.903782,1149.143247
163489.135904,-1850.514855,-8882.471304,-689.485948
163489.136223,-4737.318029,-5995.668130,-2451.505594
163489.136543,-2146.597232,-8290.306550,-2221.676944
163489.136863,518.144159,-9696.697840,919.314598
163489.137182,2220.617826,-8068.244768,1455.581446
163489.137502,0.000000,-8364.327145,0.000000
163489.137822,-814.226536,-9030.512492,-2528.115143
163489.138141,-2516.700203,-8586.388927,-3447.429741
163489.138461,-2368.659014,-11917.315666,1225.752797
163489.138780,1998.556043,-11251.130318,1149.143247
163489.139100,1110.308913,-9474.636058,-76.609550
163489.139420,0.000000,-6883.915261,0.000000
163489.139739,-222.061783,-7994.224174,-1838.629195
163489.140059,814.226536,-9844.739029,-689.485948
163489.140379,3108.864956,-8068.244768,612.876398
163489.140698,1110.308913,-7698.141797,-76.609550
163489.141018,-74.020594,-11843.295072,2374.896044
163489.141338,1110.308913,-10658.965565,-76.609550
163489.141657,0.000000,-11029.068536,1608.800546
163489.141977,0.000000,-7772.162391,612.876398
163489.142297,1406.391290,-9474.636058,3294.210641
163489.142616,-3552.988522,-5995.668130,-1225.752797
163489.142936,-1998.556043,-7402.059420,-3217.601092
163489.143255,-2738.761985,-9474.636058,-2451.505594
163489.143575,-1554.432478,-9548.656652,-1762.019645
163489.143895,-370.102971,-9178.553681,-3370.820191
163489.144214,-1776.494261,-11473.192101,-536.266849
163489.144534,-666.185348,-10362.883188,-1685.410096
163489.144854,-74.020594,-11251.130318,-689.485948
163489.145173,148.041188,-9548.656652,1225.752797
163489.145493,3108.864956,-11251.130318,2987.772442
163489.145813,740.205942,-7698.141797,306.438199
163489.146132,-814.226536,-7698.141797,-1915.238745
163489.146452,-2294.638420,-9844.739029,-2834.553343
163489.146772,-2368.659014,-9548.656652,-2451.505594
163489.147091,0.000000,-7772.162391,-3064.381992
163489.147411,0.000000,-9548.656652,-1455.581446
163489.147730,-2368.659014,-8660.409521,0.000000
163489.148050,-74.020594,-11177.109724,1149.143247
163489.148370,3478.967927,-11843.295072,2987.772442
163489.148689,3923.091493,-9030.512492,2757.943793
163489.149009,-592.164754,-7179.997637,536.266849
163489.149329,-2220.617826,-7254.018232,-1072.533697
163489.149648,-1480.411884,-8808.450710,-2068.457845
163489.149968,-2368.659014,-8364.327145,0.000000
163489.150288,-1036.288319,-9474.636058,-76.609550
163489.150607,-1850.514855,-9548.656652,-1532.190996
163489.150927,-2368.659014,-9548.656652,-1838.629195
163489.151247,-1184.329507,-11029.068536,612.876398
163489.151566,-74.020594,-11843.295072,-76.609550
163489.151886,0.000000,-9326.594869,612.876398
163489.152206,-370.102971,-8660.409521,536.266849
163489.152525,-2072.576638,-7031.956449,-1225.752797
163489.152845,-2368.659014,-7179.997637,-1302.362347
163489.153164,-1258.350101,-8512.368333,-76.609550
163489.153484,2294.638420,-9474.636058,-76.609550
163489.153804,222.061783,-9030.512492,-383.047749
163489.154123,-2960.823768,-8364.327145,0.000000
163489.154443,0.000000,-9548.656652,-2451.505594
163489.154763,-74.020594,-14211.954086,-76.609550
163489.155082,592.164754,-11029.068536,766.095498
163489.155402,-148.041188,-9918.759623,919.314598
163489.155722,-592.164754,-7772.162391,0.000000
163489.156041,592.164754,-8364.327145,1149.143247
163489.156361,296.082377,-8660.409521,766.095498
163489.156681,3182.885551,-8586.388927,2451.505594
163489.157000,5255.462188,-9474.636058,2987.772442
163489.157320,148.041188,-7476.080014,306.438199
163489.157639,-1776.494261,-6587.832884,-3064.381992
163489.157959,-666.185348,-11843.295072,-76.609550
163489.158279,-888.247130,-11325.150913,536.266849
163489.158598,-1184.329507,-9696.697840,-383.047749
163489.158918,-3404.947333,-8956.491898,-2374.896044
163489.159238,-5625.565159,-8364.327145,-2451.505594
163489.159557,-3775.050304,-8660.409521,-6741.640382
163489.159877,-444.123565,-10881.027347,-459.657299
163489.160197,2886.803174,-8290.306550,-383.047749
163489.160516,296.082377,-7179.997637,-995.924147
163489.160836,4071.132681,-11251.130318,-76.609550
163489.161156,888.247130,-9918.759623,459.657299
163489.161475,2442.679609,-11325.150913,3370.820191
163489.161795,3552.988522,-9770.718434,2604.724693
163489.162114,0.000000,-8808.450710,2451.505594
163489.162434,-1554.432478,-8216.285956,-995.924147
163489.162754,-1258.350101,-9326.594869,-3140.991542
163489.163073,-3108.864956,-9992.780217,-2068.457845
163489.163393,0.000000,-6957.935855,-2451.505594
163489.163713,1184.329507,-10066.800811,995.924147
163489.164032,-1776.494261,-8956.491898,0.000000
163489.164352,296.082377,-9696.697840,229.828649
163489.164672,0.000000,-10807.006753,1532.190996
163489.164991,-666.185348,-9474.636058,1302.362347
163489.165311,-3182.885551,-7550.100608,-2145.067394
163489.165631,-4441.235652,-9030.512492,-1762.019645
163489.165950,-4515.256246,-7402.059420,-3064.381992
163489.166270,-2960.823768,-9252.574275,-1608.800546
163489.166589,-444.123565,-9178.553681,-76.609550
163489.166909,1702.473667,-9474.636058,1149.143247
163489.167229,1110.308913,-10658.965565,1762.019645
163489.167548,-962.267725,-9178.553681,-2834.553343
163489.167868,-1776.494261,-11473.192101,0.000000
163489.168188,1184.329507,-11621.233289,2451.505594
163489.168507,-1554.432478,-7994.224174,0.000000
163489.168827,-2072.576638,-8290.306550,-306.438199
163489.169147,-2886.803174,-7772.162391,-2528.115143
163489.169466,-2368.659014,-9030.512492,-2451.505594
163489.169786,2886.803174,-9474.636058,766.095498
163489.170106,3478.967927,-8290.306550,-76.609550
163489.170425,296.082377,-8660.409521,1225.752797
163489.170745,1036.288319,-9030.512492,-2451.505594
163489.171065,1924.535449,-12213.398043,2987.772442
163489.171384,0.000000,-9548.656652,2451.505594
163489.171704,518.144159,-10214.842000,1072.533697
163489.172023,-2368.659014,-9992.780217,229.828649
163489.172343,-3478.967927,-7105.977043,-2145.067394
163489.172663,-2294.638420,-9030.512492,-1685.410096
163489.172982,1850.514855,-8290.306550,995.924147
163489.173302,4071.132681,-6735.874072,383.047749
163489.173622,2368.659014,-7179.997637,0.000000
163489.173941,2516.700203,-9474.636058,-76.609550
163489.174261,-74.020594,-10658.965565,-1302.362347
163489.174581,0.000000,-11325.150913,1225.752797
163489.174900,518.144159,-11547.212695,383.047749
163489.175220,-2664.741391,-10732.986159,-995.924147
163489.175540,-3997.112087,-8660.409521,-2987.772442
163489.175859,-3997.112087,-7476.080014,-4979.620737
163489.176179,-666.185348,-10362.883188,-2528.115143
163489.176498,2664.741391,-7105.977043,-1302.362347
163489.176818,1184.329507,-5995.668130,0.000000
163489.177138,2368.659014,-7179.997637,612.876398
163489.177457,3034.844362,-10214.842000,1762.019645
163489.177777,1184.329507,-10732.986159,2451.505594
163489.178097,4515.256246,-10955.047942,2757.943793
163489.178416,-296.082377,-11325.150913,1072.533697
163489.178736,-4293.194464,-9622.677246,-1762.019645
163489.179056,-3627.009116,-8882.471304,-4366.744339
163489.179375,-1554.432478,-11843.295072,-766.095498
163489.179695,1702.473667,-8882.471304,-842.705048
163489.180015,518.144159,-6513.812290,-383.047749
163489.180334,-74.020594,-7105.977043,-76.609550
163489.180654,592.164754,-8364.327145,2451.505594
163489.180973,0.000000,-8956.491898,1378.971896
163489.181293,3330.926739,-11399.171507,4443.353888
163489.181613,1332.370696,-10140.821405,2221.676944
163489.181932,-4293.194464,-10140.821405,0.000000
163489.182252,-5255.462188,-8660.409521,-4903.011187
163489.182572,-6365.771101,-9696.697840,-4596.572988
163489.182891,-2664.741391,-11103.089130,-1838.629195
163489.183211,1406.391290,-9474.636058,-383.047749
163489.183531,518.144159,-9326.594869,-76.609550
163489.183850,1184.329507,-9252.574275,1685.410096
163489.184170,444.123565,-9030.512492,383.047749
163489.184490,2590.720797,-10955.047942,3524.039291
163489.184809,2294.638420,-9104.533087,2528.115143
163489.185129,-4737.318029,-9548.656652,0.000000
163489.185449,-6957.935855,-7772.162391,-4290.134789
163489.185768,-5181.441594,-7772.162391,-4826.401637
163489.186088,-2960.823768,-8660.409521,0.000000
163489.186407,2590.720797,-8290.306550,-76.609550
163489.186727,2886.803174,-9474.636058,-76.609550
163489.187047,0.000000,-8068.244768,0.000000
163489.187366,-296.082377,-9326.594869,-459.657299
163489.187686,2368.659014,-12435.459826,3140.991542
163489.188006,4145.153275,-11029.068536,2987.772442
163489.188325,-2664.741391,-7920.203579,689.485948
163489.188645,-3627.009116,-9474.636058,-76.609550
163489.188965,-4145.153275,-6587.832884,-3677.258390
163489.189284,-1184.329507,-9474.636058,-459.657299
163489.189604,2368.659014,-7179.997637,766.095498
163489.189924,2886.803174,-8290.306550,-76.609550
163489.190243,-740.205942,-7772.162391,-1225.752797
163489.190563,-296.082377,-9326.594869,-2298.286494
163489.190882,1036.288319,-12139.377449,1072.533697
163489.191202,3478.967927,-11547.212695,2757.943793
163489.191522,1406.391290,-10658.965565,1838.629195
163489.191841,-1258.350101,-11547.212695,-76.609550
163489.192161,-4219.173869,-8290.306550,-2681.334243
163489.192481,-2442.679609,-9770.718434,-3140.991542
163489.192800,592.164754,-6291.750507,-2145.067394
163489.193120,6439.791695,-9474.636058,-76.609550
163489.193440,2368.659014,-7179.997637,612.876398
163489.193759,2220.617826,-7179.997637,-689.485948
163489.194079,2442.679609,-10732.986159,1838.629195
163489.194399,3552.988522,-10140.821405,3677.258390
163489.194718,1776.494261,-10732.986159,2451.505594
163489.195038,-740.205942,-11695.253884,1838.629195
163489.195357,-2442.679609,-9474.636058,-689.485948
163489.195677,-3330.926739,-9474.636058,-4290.134789
163489.195997,-74.020594,-9178.553681,-2528.115143
163489.196316,2294.638420,-7698.141797,-229.828649
163489.196636,-592.164754,-5995.668130,-689.485948
163489.196956,-518.144159,-6957.935855,-2145.067394
163489.197275,-148.041188,-10140.821405,-612.876398
163489.197595,0.000000,-10732.986159,2451.505594
163489.197915,1850.514855,-8660.409521,1072.533697
163489.198234,-5921.647536,-9844.739029,612.876398
163489.198554,-5921.647536,-9844.739029,-2604.724693
163489.198874,-4811.338623,-11843.295072,-2528.115143
163489.199193,-2294.638420,-13027.624579,-76.609550
163489.199513,-592.164754,-7254.018232,-2145.067394
163489.199832,-1036.288319,-7698.141797,-306.438199
163489.200152,1332.370696,-6735.874072,-1608.800546
163489.200472,0.000000,-7772.162391,0.000000
163489.200791,3478.967927,-11103.089130,3907.087040
163489.201111,4663.297435,-11251.130318,4060.306139
163489.201431,-74.020594,-11695.253884,4826.401637
163489.201750,-1258.350101,-7698.141797,-842.705048
163489.202070,-3404.947333,-8956.491898,612.876398
163489.202390,-4737.318029,-8364.327145,-1838.629195
163489.202709,-1332.370696,-8290.306550,-1455.581446
163489.203029,-1628.453072,-7698.141797,-1302.362347
163489.203349,-1036.288319,-6957.935855,-2068.457845
163489.203668,-74.020594,-8882.471304,-2528.115143
163489.203988,1776.494261,-11621.233289,3677.258390
163489.204307,5403.503377,-9474.636058,4060.306139
163489.204627,1702.473667,-9474.636058,2681.334243
163489.204947,-3997.112087,-10584.944971,-76.609550
163489.205266,-5181.441594,-10140.821405,-2604.724693
163489.205586,-4737.318029,-10732.986159,-1838.629195
163489.205905,1998.556043,-11251.130318,-689.485948
163489.206225,666.185348,-7698.141797,-76.609550
163489.206545,370.102971,-6291.750507,0.000000
163489.206864,2294.638420,-6513.812290,-3294.210641
163489.207184,2368.659014,-10732.986159,1225.752797
163489.207503,4293.194464,-10955.047942,2298.286494
163489.207823,2516.700203,-10881.027347,1762.019645
163489.208142,-1776.494261,-12435.459826,-76.609550
163489.208462,-2738.761985,-11103.089130,-2987.772442
163489.208782,-5921.647536,-9548.656652,-3064.381992
163489.209101,-74.020594,-11547.212695,-229.828649
163489.209421,3108.864956,-9030.512492,919.314598
163489.209740,592.164754,-4811.338623,0.000000
163489.210060,2146.597232,-4145.153275,-1302.362347
163489.210380,3182.885551,-8068.244768,1072.533697
163489.210699,5847.626942,-10066.800811,3677.258390
163489.211019,5403.503377,-9696.697840,3217.601092
163489.211338,-1184.329507,-11399.171507,1762.019645
163489.211658,-5107.421000,-11547.212695,-2834.553343
163489.211978,-6513.812290,-11325.150913,-4903.011187
163489.212297,-4145.153275,-11917.315666,-1838.629195
163489.212617,-1036.288319,-9326.594869,-1608.800546
163489.212936,-2368.659014,-3627.009116,0.000000
163489.213256,2294.638420,-5329.482782,-995.924147
163489.213576,2442.679609,-6735.874072,0.000000
163489.213895,2886.803174,-9474.636058,3064.381992
163489.214215,3478.967927,-9474.636058,3294.210641
163489.214534,-74.020594,-11547.212695,1149.143247
163489.214854,-5033.400406,-11399.171507,-1915.238745
163489.215174,-5995.668130,-9844.739029,-5362.668486
163489.215493,-4737.318029,-11917.315666,-2298.286494
163489.215813,-2368.659014,-9548.656652,-689.485948
163489.216132,-4737.318029,-5995.668130,-2451.505594
163489.216452,-74.020594,-7031.956449,-1608.800546
163489.216772,2072.576638,-6143.709319,-1685.410096
163489.217091,4145.153275,-9696.697840,2987.772442
163489.217411,6439.791695,-8882.471304,4213.525239
163489.217730,4663.297435,-10658.965565,4826.401637
163489.218050,-1258.350101,-11843.295072,1149.143247
163489.218370,-7105.977043,-8660.409521,-3370.820191
163489.218689,-4811.338623,-11621.233289,-3677.258390
163489.219009,-1480.411884,-10732.986159,1991.848295
163489.219328,-3552.988522,-6291.750507,-1225.752797
163489.219648,-1554.432478,-6513.812290,-842.705048
163489.219968,518.144159,-5921.647536,-2451.505594
163489.220287,1406.391290,-8586.388927,689.485948
163489.220607,4663.297435,-10362.883188,2374.896044
163489.220926,2960.823768,-9844.739029,3064.381992
163489.221246,-666.185348,-12435.459826,1455.581446
163489.221566,-3627.009116,-13027.624579,-76.609550
163489.221885,-5403.503377,-11843.295072,-2834.553343
163489.222205,-2368.659014,-10732.986159,1225.752797
163489.222524,-962.267725,-7476.080014,-1225.752797
163489.222844,-1110.308913,-7254.018232,-919.314598
163489.223164,666.185348,-6217.729913,-2451.505594
163489.223483,2442.679609,-6957.935855,0.000000
163489.223803,5033.400406,-8364.327145,612.876398
163489.224122,4811.338623,-9030.512492,1991.848295
163489.224442,-2368.659014,-9548.656652,0.000000
163489.224762,-1554.432478,-12731.542202,-689.485948
163489.225081,-3627.009116,-13027.624579,-1915.238745
163489.225401,-2368.659014,-12509.480420,459.657299
163489.225720,-296.082377,-9252.574275,-1455.581446
163489.226040,0.000000,-7031.956449,76.609550
163489.226360,2220.617826,-4959.379811,-689.485948
163489.226679,2072.576638,-3627.009116,-2451.505594
163489.226999,2812.782580,-7328.038826,2374.896044
163489.227318,5255.462188,-7105.977043,1762.019645
163489.227638,0.000000,-9548.656652,612.876398
163489.227958,-3478.967927,-12435.459826,-76.609550
163489.228277,-4811.338623,-14211.954086,-2528.115143
163489.228597,-5921.647536,-11917.315666,-2451.505594
163489.228916,-2368.659014,-9770.718434,-2681.334243
163489.229236,-2072.576638,-7920.203579,-2221.676944
163489.229556,-518.144159,-6883.915261,-2068.457845
163489.229875,1702.473667,-5033.400406,-1915.238745
163489.230195,5255.462188,-10362.883188,2834.553343
163489.230514,5255.462188,-8882.471304,2681.334243
163489.230834,2590.720797,-9178.553681,1762.019645
163489.231154,-2368.659014,-9548.656652,153.219100
163489.231473,-1258.350101,-14211.954086,-76.609550
163489.231793,-4145.153275,-12213.398043,-1991.848295
163489.232112,-2220.617826,-11547.212695,-1532.190996
163489.232432,-1628.453072,-9178.553681,-995.924147
163489.232752,-1776.494261,-5995.668130,0.000000
163489.233071,888.247130,-4811.338623,-1225.752797
163489.233391,3923.091493,-8882.471304,1991.848295
163489.233710,6661.853478,-9474.636058,6435.202183
163489.234030,5551.544565,-9474.636058,3907.087040
163489.234350,-74.020594,-8882.471304,1149.143247
163489.234669,-3034.844362,-11843.295072,-1302.362347
163489.234989,-5699.585753,-12509.480420,-1762.019645
163489.235308,-3108.864956,-11325.150913,-1072.533697
163489.235628,-2368.659014,-9844.739029,-1378.971896
163489.235948,-4737.318029,-7179.997637,0.000000
163489.236267,-1776.494261,-4959.379811,-2757.943793
163489.236587,0.000000,-5995.668130,-2145.067394
163489.236906,3849.070898,-9178.553681,3370.820191
163489.237226,4367.215058,-8290.306550,4519.963438
163489.237545,2294.638420,-9474.636058,1149.143247
163489.237865,-2516.700203,-9918.759623,-612.876398
163489.238185,-4293.194464,-11547.212695,-2068.457845
163489.238504,-2590.720797,-12287.418637,-766.095498
163489.238824,-518.144159,-9918.759623,-383.047749
163489.239143,-4145.153275,-8364.327145,-2451.505594
163489.239463,-74.020594,-6513.812290,-2528.115143
163489.239783,296.082377,-5995.668130,-2145.067394
163489.240102,4737.318029,-8660.409521,1225.752797
163489.240422,5921.647536,-8290.306550,3753.867940
163489.240741,4663.297435,-11251.130318,4826.401637
163489.241061,-2368.659014,-9622.677246,-1072.533697
163489.241381,-4293.194464,-10436.903782,-2528.115143
163489.241700,-3256.906145,-12583.501014,-995.924147
163489.242020,-2368.659014,-8364.327145,0.000000
163489.242339,-1184.329507,-7772.162391,0.000000
163489.242659,-1110.308913,-7105.977043,-766.095498
163489.242979,1332.370696,-8734.430116,-689.485948
163489.243298,2294.638420,-9474.636058,-76.609550
163489.243618,2368.659014,-8364.327145,3064.381992
163489.243937,1184.329507,-8068.244768,612.876398
163489.244257,-1480.411884,-10807.006753,-459.657299
163489.244577,-4071.132681,-10510.924376,-3830.477490
163489.244896,-4589.276840,-12805.562797,-2298.286494
163489.245216,-74.020594,-11251.130318,-1915.238745
163489.245535,-1184.329507,-9918.759623,-1302.362347
163489.245855,-1480.411884,-8216.285956,-1302.362347
163489.246175,370.102971,-5329.482782,-2145.067394
163489.246494,4367.215058,-9178.553681,2987.772442
163489.246814,7105.977043,-9548.656652,4213.525239
163489.247133,3552.988522,-7179.997637,2451.505594
163489.247453,1702.473667,-10658.965565,1762.019645
163489.247773,-1924.535449,-9474.636058,-1608.800546
163489.248092,-6513.812290,-10732.986159,-4903.011187
163489.248412,-2442.679609,-13915.871710,-1302.362347
163489.248731,-2664.741391,-10732.986159,-1991.848295
163489.249051,-2220.617826,-8660.409521,-459.657299
163489.249371,-370.102971,-5773.606348,-2451.505594
163489.249690,592.164754,-7994.224174,1072.533697
163489.250010,4663.297435,-7624.121203,3447.429741
163489.250329,5107.421000,-5921.647536,3294.210641
163489.250649,3478.967927,-7698.141797,2068.457845
163489.250969,-1776.494261,-7772.162391,0.000000
163489.251288,-5773.606348,-9548.656652,-3677.258390
163489.251608,-2738.761985,-12435.459826,-1072.533697
163489.251927,-2220.617826,-11991.336260,-2221.676944
163489.252247,-4293.194464,-11917.315666,-2145.067394
163489.252567,-3923.091493,-9030.512492,-3370.820191
163489.252886,-666.185348,-9178.553681,-1302.362347
163489.253206,2072.576638,-8512.368333,1149.143247
163489.253525,7031.956449,-8882.471304,2374.896044
163489.253845,3256.906145,-6587.832884,2451.505594
163489.254165,814.226536,-7476.080014,2145.067394
163489.254484,-4367.215058,-7179.997637,-3370.820191
163489.254804,-2664.741391,-12879.583391,-536.266849
163489.255123,-1554.432478,-11177.109724,-612.876398
163489.255443,-2220.617826,-10436.903782,-1685.410096
163489.255763,-1554.432478,-10658.965565,-689.485948
163489.256082,-74.020594,-10658.965565,-3983.696590
163489.256402,1480.411884,-11325.150913,2068.457845
163489.256721,5551.544565,-9178.553681,2834.553343
163489.257041,5255.462188,-9474.636058,3600.648841
163489.257361,592.164754,-7179.997637,2451.505594
163489.257680,-2738.761985,-6291.750507,-1838.629195
163489.258000,-2664.741391,-10140.821405,76.609550
163489.258319,-370.102971,-10214.842000,689.485948
163489.258639,-888.247130,-9992.780217,-536.266849
163489.258959,-3627.009116,-11029.068536,-689.485948
163489.259278,-6513.812290,-7179.997637,-4596.572988
163489.259598,-2960.823768,-10140.821405,-1838.629195
163489.259917,592.164754,-9548.656652,612.876398
163489.260237,3256.906145,-8660.409521,1225.752797
163489.260557,-2368.659014,-6587.832884,0.000000
163489.260876,-2738.761985,-8290.306550,-2451.505594
163489.261196,-2960.823768,-11177.109724,-2221.676944
163489.261515,-1554.432478,-11843.295072,-1072.533697
163489.261835,-1406.391290,-9548.656652,-2451.505594
163489.262155,-3034.844362,-9252.574275,-2068.457845
163489.262474,-3108.864956,-7772.162391,-3140.991542
163489.262794,-74.020594,-7994.224174,-2221.676944
163489.263113,2960.823768,-8660.409521,2145.067394
163489.263433,6883.915261,-9178.553681,4213.525239
163489.263753,1184.329507,-7772.162391,2451.505594
163489.264072,74.020594,-7846.182985,-459.657299
163489.264392,-2146.597232,-9992.780217,-1762.019645
163489.264711,-1480.411884,-12509.480420,229.828649
163489.265031,-1258.350101,-9918.759623,-1915.238745
163489.265351,-1850.514855,-10362.883188,-76.609550
163489.265670,-2442.679609,-8290.306550,-2528.115143
163489.265990,-3627.009116,-6291.750507,-2987.772442
163489.266309,888.247130,-7772.162391,1149.143247
163489.266629,6809.894666,-9474.636058,4826.401637
163489.266948,2368.659014,-7179.997637,2451.505594
163489.267268,222.061783,-7698.141797,383.047749
163489.267588,-2960.823768,-8734.430116,-2911.162892
163489.267907,-2738.761985,-12731.542202,-842.705048
163489.268227,-74.020594,-11843.295072,-995.924147
163489.268546,-74.020594,-13915.871710,-76.609550
163489.268866,-1258.350101,-11103.089130,-842.705048
163489.269186,-666.185348,-10658.965565,-1302.362347
163489.269505,1702.473667,-9178.553681,-383.047749
163489.269825,6217.729913,-9474.636058,3447.429741
163489.270144,4441.235652,-7920.203579,1608.800546
163489.270464,1702.473667,-7476.080014,842.705048
163489.270784,-962.267725,-7846.182985,-1608.800546
163489.271103,-2368.659014,-10140.821405,-2451.505594
163489.271423,148.041188,-10732.986159,0.000000
163489.271742,592.164754,-11621.233289,1225.752797
163489.272062,-2072.576638,-11621.233289,1149.143247
163489.272382,-1850.514855,-9326.594869,-3140.991542
163489.272701,-74.020594,-10658.965565,-1302.362347
163489.273021,4737.318029,-9622.677246,3217.601092
163489.273340,5107.421000,-6661.853478,2145.067394
163489.273660,2368.659014,-7254.018232,2145.067394
163489.273980,-296.082377,-5995.668130,-1378.971896
163489.274299,-4737.318029,-7179.997637,-2451.505594
163489.274619,-1036.288319,-11325.150913,0.000000
163489.274938,-962.267725,-10362.883188,-1225.752797
163489.275258,-4441.235652,-11029.068536,0.000000
163489.275578,-4071.132681,-9178.553681,-4903.011187
163489.275897,-74.020594,-9474.636058,-2528.115143
163489.276217,592.164754,-8808.450710,306.438199
163489.276536,3404.947333,-6809.894666,306.438199
163489.276856,0.000000,-7179.997637,229.828649
163489.277176,-2812.782580,-7179.997637,-689.485948
163489.277495,-5847.626942,-7772.162391,-4903.011187
163489.277815,-1258.350101,-12731.542202,-1302.362347
163489.278134,0.000000,-11029.068536,0.000000
163489.278454,-1110.308913,-11695.253884,1225.752797
163489.278774,-1258.350101,-11843.295072,-76.609550
163489.279093,-2072.576638,-8956.491898,153.219100
163489.279413,518.144159,-9474.636058,1302.362347
163489.279732,4737.318029,-6661.853478,2298.286494
163489.280052,3256.906145,-7402.059420,2451.505594
163489.280372,-1406.391290,-5403.503377,-2451.505594
163489.280691,-3552.988522,-8660.409521,-2451.505594
163489.281011,-3552.988522,-11917.315666,-919.314598
163489.281330,-74.020594,-12805.562797,1149.143247
163489.281650,-1554.432478,-11843.295072,-689.485948
163489.281970,-4737.318029,-8364.327145,0.000000
163489.282289,-3256.906145,-7624.121203,-1991.848295
163489.282609,0.000000,-9178.553681,842.705048
163489.282928,3330.926739,-7105.977043,1838.629195
163489.283248,1480.411884,-6365.771101,459.657299
163489.283568,-74.020594,-8290.306550,-76.609550
163489.283887,-2960.823768,-8364.327145,-2604.724693
163489.284207,-2960.823768,-11251.130318,-1991.848295
163489.284526,0.000000,-11769.274478,153.219100
163489.284846,592.164754,-11473.192101,1225.752797
163489.285166,-1776.494261,-10140.821405,0.000000
163489.285485,-2368.659014,-7772.162391,-2451.505594
163489.285805,962.267725,-10658.965565,842.705048
163489.286124,4663.297435,-11251.130318,3600.648841
163489.286444,3182.885551,-5255.462188,0.000000
163489.286764,3478.967927,-9178.553681,2374.896044
163489.287083,296.082377,-6439.791695,-1225.752797
163489.287403,-74.020594,-9696.697840,-383.047749
163489.287722,2146.597232,-11325.150913,306.438199
163489.288042,1184.329507,-10732.986159,536.266849
163489.288362,-1184.329507,-11843.295072,919.314598
163489.288681,-2886.803174,-8364.327145,-2451.505594
163489.289001,-4441.235652,-8364.327145,-3677.258390
163489.289320,1184.329507,-10436.903782,1378.971896
163489.289640,3182.885551,-6513.812290,-1455.581446
163489.289960,1998.556043,-7698.141797,2451.505594
163489.290279,0.000000,-5995.668130,-842.705048
163489.290599,-1258.350101,-8142.265362,-1838.629195
163489.290918,-444.123565,-9918.759623,-995.924147
163489.291238,1702.473667,-11695.253884,-76.609550
163489.291558,-1406.391290,-12213.398043,-76.609550
163489.291877,-3034.844362,-10658.965565,-3447.429741
163489.292197,-4589.276840,-9548.656652,-3677.258390
163489.292516,-1184.329507,-11029.068536,0.000000
163489.292836,518.144159,-6957.935855,-2221.676944
163489.293156,814.226536,-7772.162391,0.000000
163489.293475,-740.205942,-6883.915261,-689.485948
163489.293795,-814.226536,-6661.853478,-2451.505594
163489.294114,2294.638420,-11843.295072,2374.896044
163489.294434,4663.297435,-10510.924376,612.876398
163489.294754,148.041188,-11029.068536,2145.067394
163489.295073,-1850.514855,-11843.295072,1149.143247
163489.295393,-1998.556043,-11547.212695,-689.485948
163489.295712,-3552.988522,-9548.656652,0.000000
163489.296032,-444.123565,-8142.265362,612.876398
163489.296351,592.164754,-7105.977043,1225.752797
163489.296671,-1554.432478,-7031.956449,229.828649
163489.296991,-1332.370696,-6217.729913,-1838.629195
163489.297310,-2442.679609,-9548.656652,-1302.362347
163489.297630,-2960.823768,-9548.656652,-1378.971896
163489.297949,-1480.411884,-11769.274478,-536.266849
163489.298269,-1258.350101,-14211.954086,2374.896044
163489.298589,-2738.761985,-10362.883188,-2528.115143
163489.298908,-4737.318029,-9548.656652,612.876398
163489.299228,-666.185348,-9474.636058,1149.143247
163489.299547,1480.411884,-7846.182985,536.266849
163489.299867,-222.061783,-8438.347739,1378.971896
163489.300187,0.000000,-5403.503377,-2374.896044
163489.300506,-740.205942,-8068.244768,-1302.362347
163489.300826,0.000000,-9548.656652,612.876398
163489.301145,0.000000,-7772.162391,0.000000
163489.301465,-370.102971,-12731.542202,1149.143247
163489.301785,-74.020594,-11843.295072,-76.609550
163489.302104,-4737.318029,-10732.986159,-2145.067394
163489.302424,-962.267725,-11843.295072,1608.800546
163489.302743,1702.473667,-8512.368333,76.609550
163489.303063,-370.102971,-8438.347739,1378.971896
163489.303383,1110.308913,-6513.812290,-1915.238745
163489.303702,1702.473667,-6217.729913,-76.609550
163489.304022,3478.967927,-8882.471304,842.705048
163489.304341,1776.494261,-6587.832884,0.000000
163489.304661,1184.329507,-10732.986159,1225.752797
163489.304981,2072.576638,-13027.624579,1455.581446
163489.305300,-2368.659014,-11325.150913,-2451.505594
163489.305620,-888.247130,-13101.645173,-76.609550
163489.305939,1406.391290,-10214.842000,0.000000
163489.306259,1332.370696,-8808.450710,-383.047749
163489.306578,1110.308913,-7698.141797,-689.485948
163489.306898,0.000000,-5995.668130,-2757.943793
163489.307217,2294.638420,-10066.800811,-76.609550
163489.307537,4071.132681,-10658.965565,2374.896044
163489.307856,1110.308913,-7698.141797,-842.705048
163489.308176,-1480.411884,-11843.295072,1762.019645
163489.308495,-2738.761985,-9622.677246,-4366.744339
163489.308815,-1258.350101,-13619.789333,-1302.362347
163489.309134,740.205942,-10955.047942,-76.609550
163489.309454,1184.329507,-8956.491898,0.000000
163489.309773,-74.020594,-9030.512492,0.000000
163489.310093,592.164754,-6883.915261,-2298.286494
163489.310412,2294.638420,-9474.636058,-459.657299
163489.310732,4663.297435,-11251.130318,2374.896044
163489.311051,3775.050304,-9474.636058,1149.143247
163489.311371,1628.453072,-12361.439231,4366.744339
163489.311690,0.000000,-9622.677246,995.924147
163489.312010,-888.247130,-11103.089130,536.266849
163489.312329,-1184.329507,-10214.842000,2757.943793
163489.312649,-3997.112087,-5403.503377,0.000000
163489.312968,-4737.318029,-6291.750507,-1225.752797
163489.313288,-5033.400406,-5403.503377,-6128.763984
163489.313607,-4737.318029,-9474.636058,-3447.429741
163489.313927,-4219.173869,-9474.636058,-3140.991542
163489.314246,-1258.350101,-9474.636058,-1302.362347
163489.314566,-3108.864956,-12509.480420,383.047749
163489.314885,-1998.556043,-11399.171507,-229.828649
163489.315205,-2146.597232,-10362.883188,536.266849
163489.315524,-888.247130,-11029.068536,3217.601092
163489.315844,0.000000,-5995.668130,306.438199
163489.316163,888.247130,-7698.141797,1149.143247
163489.316483,0.000000,-5107.421000,0.000000
163489.316802,-1184.329507,-7476.080014,-1838.629195
163489.317122,-74.020594,-12361.439231,-76.609550
163489.317442,148.041188,-9844.739029,0.000000
163489.317761,-1036.288319,-11029.068536,-995.924147
163489.318081,-814.226536,-10288.862594,-459.657299
163489.318400,-370.102971,-10584.944971,-995.924147
163489.318720,-2368.659014,-10732.986159,0.000000
163489.319039,888.247130,-8956.491898,1838.629195
163489.319359,-222.061783,-8882.471304,2068.457845
163489.319678,-962.267725,-6957.935855,-76.609550
163489.319998,-4145.153275,-3627.009116,-3677.258390
163489.320317,0.000000,-8364.327145,2451.505594
163489.320637,1184.329507,-6587.832884,0.000000
163489.320956,1110.308913,-9104.533087,0.000000
163489.321276,888.247130,-11029.068536,229.828649
163489.321595,296.082377,-10288.862594,-1762.019645
163489.321915,-74.020594,-14211.954086,-76.609550
163489.322234,148.041188,-13101.645173,459.657299
163489.322554,814.226536,-10140.821405,-995.924147
163489.322873,-740.205942,-8660.409521,76.609550
163489.323193,-370.102971,-5995.668130,-1302.362347
163489.323512,0.000000,-7179.997637,-2298.286494
163489.323832,0.000000,-5995.668130,0.000000
163489.324151,4663.297435,-8290.306550,2068.457845
163489.324471,1702.473667,-9474.636058,2374.896044
163489.324790,1554.432478,-9548.656652,-2451.505594
163489.325110,3478.967927,-13619.789333,-76.609550
163489.325429,888.247130,-12731.542202,2145.067394
163489.325749,666.185348,-10214.842000,-153.219100
163489.326068,-1702.473667,-9548.656652,-229.828649
163489.326388,-2368.659014,-7179.997637,-3370.820191
163489.326707,-2368.659014,-6587.832884,-3983.696590
163489.327027,0.000000,-7772.162391,0.000000
163489.327346,3849.070898,-5995.668130,0.000000
163489.327666,1776.494261,-8660.409521,2451.505594
163489.327985,1110.308913,-7254.018232,-1302.362347
163489.328305,-74.020594,-11843.295072,-76.609550
163489.328624,-2442.679609,-12805.562797,1685.410096
163489.328944,-1110.308913,-10955.047942,306.438199
163489.329263,-3182.885551,-10436.903782,153.219100
163489.329583,-3182.885551,-8882.471304,-383.047749
163489.329902,-4145.153275,-6883.915261,-3370.820191
163489.330222,-2812.782580,-8290.306550,-2528.115143
163489.330541,0.000000,-5403.503377,-2451.505594
163489.330861,0.000000,-8660.409521,0.000000
163489.331180,-666.185348,-8216.285956,-2757.943793
163489.331500,74.020594,-10955.047942,-459.657299
163489.331819,-592.164754,-12583.501014,1991.848295
163489.332139,444.123565,-11473.192101,1685.410096
163489.332458,-370.102971,-10658.965565,1149.143247
163489.332778,-2146.597232,-11547.212695,-76.609550
163489.333097,-1332.370696,-10436.903782,-76.609550
163489.333417,-1258.350101,-9474.636058,-689.485948
163489.333736,0.000000,-5995.668130,0.000000
163489.334056,0.000000,-5995.668130,0.000000
163489.334375,1702.473667,-6809.894666,-76.609550
163489.334695,444.123565,-8438.347739,153.219100
163489.335014,-1480.411884,-11473.192101,842.705048
163489.335334,-1406.391290,-11621.233289,1072.533697
163489.335653,-370.102971,-12213.398043,1455.581446
163489.335973,-5329.482782,-8956.491898,0.000000
163489.336292,-4737.318029,-6587.832884,-2451.505594
163489.336612,-3701.029710,-9548.656652,-2451.505594
163489.336931,0.000000,-8660.409521,612.876398
163489.337251,0.000000,-3627.009116,-2451.505594
163489.337570,1406.391290,-8512.368333,229.828649
163489.337890,592.164754,-8068.244768,-1378.971896
163489.338209,444.123565,-11473.192101,306.438199
163489.338529,1924.535449,-13397.727550,2681.334243
163489.338849,2368.659014,-11399.171507,1149.143247
163489.339168,-2960.823768,-10140.821405,0.000000
163489.339488,-3552.988522,-6291.750507,-4903.011187
163489.339807,-4737.318029,-7476.080014,-4903.011187
163489.340127,1184.329507,-10066.800811,1762.019645
163489.340446,1184.329507,-4811.338623,-2451.505594
163489.340766,4071.132681,-8290.306550,1072.533697
163489.341085,3849.070898,-7846.182985,-76.609550
163489.341405,2738.761985,-9622.677246,-229.828649
163489.341724,4071.132681,-13027.624579,1149.143247
163489.342044,7031.956449,-12435.459826,2374.896044
163489.342363,1628.453072,-11843.295072,2374.896044
163489.342683,-2146.597232,-7994.224174,-2221.676944
163489.343002,-2960.823768,-7476.080014,-4136.915689
163489.343322,0.000000,-9844.739029,-612.876398
163489.343641,1406.391290,-6587.832884,-1991.848295
163489.343961,2590.720797,-7550.100608,153.219100
163489.344280,740.205942,-7624.121203,-306.438199
163489.344600,-148.041188,-8216.285956,-1685.410096
163489.344919,1702.473667,-13027.624579,-76.609550
163489.345239,2368.659014,-12213.398043,2145.067394
163489.345558,-370.102971,-11843.295072,-229.828649
163489.345878,-5773.606348,-9548.656652,-919.314598
163489.346197,-6957.935855,-7179.997637,-4903.011187
163489.346517,-3552.988522,-9548.656652,0.000000
163489.346836,518.144159,-7105.977043,-536.266849
163489.347156,2516.700203,-7031.956449,1378.971896
163489.347475,2294.638420,-7698.141797,2528.115143
163489.347795,2146.597232,-5995.668130,0.000000
163489.348114,1702.473667,-10140.821405,536.266849
163489.348434,1924.535449,-11621.233289,3600.648841
163489.348753,-666.185348,-11103.089130,1225.752797
163489.349073,-3627.009116,-13027.624579,-76.609550
163489.349392,-7179.997637,-9474.636058,-3140.991542
163489.349712,-6587.832884,-9918.759623,-3907.087040
163489.350031,-3404.947333,-7772.162391,-1762.019645
163489.350351,740.205942,-5699.585753,229.828649
163489.350670,444.123565,-6439.791695,1762.019645
163489.350990,0.000000,-4811.338623,0.000000
163489.351309,148.041188,-8068.244768,919.314598
163489.351629,1184.329507,-11029.068536,2451.505594
163489.351948,1998.556043,-13027.624579,3370.820191
163489.352268,-4811.338623,-11843.295072,-689.485948
163489.352587,-5107.421000,-10658.965565,-2528.115143
163489.352907,-6365.771101,-9844.739029,-3907.087040
163489.353226,-3182.885551,-10362.883188,-2145.067394
163489.353546,592.164754,-7550.100608,-1072.533697
163489.353865,0.000000,-7328.038826,-612.876398
163489.354185,0.000000,-4811.338623,-2451.505594
163489.354504,888.247130,-8290.306550,-1302.362347
163489.354824,0.000000,-10140.821405,2451.505594
163489.355143,4071.132681,-11843.295072,2987.772442
163489.355463,-222.061783,-12435.459826,2374.896044
163489.355782,-2960.823768,-10732.986159,612.876398
163489.356102,-3701.029710,-8512.368333,-4060.306139
163489.356421,-2738.761985,-9918.759623,-2911.162892
163489.356741,888.247130,-7476.080014,-2374.896044
163489.357060,0.000000,-7179.997637,-3370.820191
163489.357380,2368.659014,-7254.018232,-842.705048
163489.357699,4071.132681,-8956.491898,306.438199
163489.358019,4663.297435,-11843.295072,3600.648841
163489.358338,6439.791695,-11547.212695,2374.896044
163489.358658,1184.329507,-9548.656652,3677.258390
163489.358977,-1480.411884,-8142.265362,689.485948
163489.359297,-3108.864956,-7105.977043,-2528.115143
163489.359616,-2368.659014,-9844.739029,-2451.505594
163489.359936,1332.370696,-8068.244768,-1225.752797
163489.360255,4663.297435,-8290.306550,-689.485948
163489.360575,0.000000,-7698.141797,-1225.752797
163489.360895,-666.185348,-9252.574275,-3447.429741
163489.361214,0.000000,-11251.130318,-1532.190996
163489.361534,1554.432478,-12361.439231,2068.457845
163489.361853,0.000000,-10732.986159,1225.752797
163489.362173,-3552.988522,-9548.656652,0.000000
163489.362492,-1332.370696,-9474.636058,-76.609550
163489.362812,-2072.576638,-7994.224174,-1302.362347
163489.363131,-666.185348,-5995.668130,-1838.629195
163489.363451,4663.297435,-7105.977043,-76.609550
163489.363770,1480.411884,-6883.915261,383.047749
163489.364090,1258.350101,-7105.977043,-612.876398
163489.364409,814.226536,-9844.739029,0.000000
163489.364729,1184.329507,-12657.521608,919.314598
163489.365048,1480.411884,-12509.480420,1838.629195
163489.365368,-5625.565159,-11917.315666,0.000000
163489.365687,-5403.503377,-9992.780217,-3677.258390
163489.366007,-4737.318029,-9548.656652,-1838.629195
163489.366326,-1406.391290,-7105.977043,-1302.362347
163489.366646,2294.638420,-5625.565159,-76.609550
163489.366965,592.164754,-4959.379811,2451.505594
163489.367285,1554.432478,-5403.503377,842.705048
163489.367604,148.041188,-7920.203579,0.000000
163489.367924,814.226536,-13397.727550,2374.896044
163489.368243,-888.247130,-11473.192101,459.657299
163489.368563,-3923.091493,-13619.789333,-689.485948
163489.368882,-8290.306550,-10732.986159,-3064.381992
163489.369202,-6217.729913,-10140.821405,-4749.792088
163489.369521,-4219.173869,-8882.471304,-5286.058936
163489.369841,-74.020594,-8438.347739,-1302.362347
163489.370160,592.164754,-6587.832884,0.000000
163489.370480,1702.473667,-6587.832884,459.657299
163489.370799,2886.803174,-7698.141797,-76.609550
163489.371119,4071.132681,-12435.459826,3294.210641
163489.371438,5033.400406,-13249.686362,4826.401637
163489.371758,2294.638420,-11547.212695,2528.115143
163489.372077,-3256.906145,-10140.821405,612.876398
163489.372397,-4737.318029,-10140.821405,-4903.011187
163489.372716,-4811.338623,-11251.130318,-3753.867940
163489.373036,-2220.617826,-9030.512492,-1532.190996
163489.373355,0.000000,-6735.874072,-1225.752797
163489.373675,740.205942,-7179.997637,229.828649
163489.373994,3775.050304,-6217.729913,459.657299
163489.374314,592.164754,-7179.997637,919.314598
163489.374633,5033.400406,-10140.821405,4443.353888
163489.374953,4367.215058,-10214.842000,3600.648841
163489.375272,-74.020594,-13619.789333,3294.210641
163489.375592,-6513.812290,-7179.997637,-4290.134789
163489.375911,-4219.173869,-11695.253884,-4060.306139
163489.376231,-2516.700203,-11177.109724,-3294.210641
163489.376550,-1554.432478,-9104.533087,-3294.210641
163489.376870,-1406.391290,-8956.491898,-2221.676944
163489.377189,222.061783,-6957.935855,-3447.429741
163489.377509,1850.514855,-8364.327145,-1838.629195
163489.377828,5551.544565,-9548.656652,919.314598
163489.378148,5921.647536,-10140.821405,3983.696590
163489.378467,3478.967927,-11251.130318,4213.525239
163489.378787,-3849.070898,-6291.750507,-3677.258390
163489.379106,-2590.720797,-9918.759623,-2221.676944
163489.379426,-1554.432478,-9548.656652,-1685.410096
163489.379745,296.082377,-8290.306550,-153.219100
163489.380065,814.226536,-8882.471304,-76.609550
163489.380384,2294.638420,-7994.224174,-1915.238745
163489.380704,2886.803174,-8586.388927,-76.609550
163489.381023,3478.967927,-10066.800811,1149.143247
163489.381343,2442.679609,-9548.656652,1378.971896
163489.381662,0.000000,-10732.986159,2451.505594
163489.381982,-4737.318029,-9548.656652,-1225.752797
163489.382301,-4441.235652,-10140.821405,-2528.115143
163489.382621,-4515.256246,-11917.315666,-1378.971896
163489.382941,-888.247130,-8808.450710,459.657299
163489.383260,1702.473667,-8290.306550,1762.019645
163489.383580,888.247130,-7179.997637,3064.381992
163489.383899,2294.638420,-6513.812290,-306.438199
163489.384219,1110.308913,-8882.471304,842.705048
163489.384538,3478.967927,-10362.883188,2374.896044
163489.384858,0.000000,-9844.739029,3064.381992
163489.385177,-5403.503377,-12435.459826,-1608.800546
163489.385497,-7179.997637,-11547.212695,-3753.867940
163489.385816,-7550.100608,-12213.398043,-3753.867940
163489.386136,-4219.173869,-9104.533087,-3677.258390
163489.386455,-1850.514855,-8068.244768,-3140.991542
163489.386775,0.000000,-7179.997637,1225.752797
163489.387094,2960.823768,-5625.565159,1225.752797
163489.387414,4663.297435,-7105.977043,1762.019645
163489.387733,4959.379811,-10362.883188,4519.963438
163489.388053,2368.659014,-9844.739029,3677.258390
163489.388372,-666.185348,-10807.006753,1532.190996
163489.388692,-3330.926739,-10436.903782,-1455.581446
163489.389011,-4589.276840,-12139.377449,-2757.943793
163489.389331,-3923.091493,-10436.903782,-3370.820191
163489.389650,-1258.350101,-8290.306550,-2221.676944
163489.389970,-1480.411884,-7105.977043,-995.924147
163489.390289,0.000000,-4811.338623,-3064.381992
163489.390609,2294.638420,-7994.224174,-536.266849
163489.390928,4663.297435,-11251.130318,4213.525239
163489.391248,2072.576638,-8512.368333,1225.752797
163489.391567,0.000000,-11399.171507,1532.190996
163489.391887,-2664.741391,-10066.800811,-1225.752797
163489.392206,-5329.482782,-10436.903782,-4060.306139
163489.392526,-5995.668130,-10140.821405,-4673.182538
163489.392845,-2738.761985,-11843.295072,-2528.115143
163489.393165,-74.020594,-10066.800811,-842.705048
163489.393484,1332.370696,-6143.709319,-1225.752797
163489.393804,444.123565,-4811.338623,-1302.362347
163489.394123,2960.823768,-7179.997637,2451.505594
163489.394443,5847.626942,-9400.615463,1915.238745
163489.394762,2664.741391,-11029.068536,2221.676944
163489.395082,-1332.370696,-10510.924376,-459.657299
163489.395401,-3330.926739,-9622.677246,-3753.867940
163489.395721,-2960.823768,-11917.315666,-919.314598
163489.396040,0.000000,-9252.574275,0.000000
163489.396360,-74.020594,-8290.306550,306.438199
163489.396679,1406.391290,-7698.141797,-76.609550
163489.396999,0.000000,-4811.338623,0.000000
163489.397318,3182.885551,-7698.141797,612.876398
163489.397638,4071.132681,-9400.615463,2757.943793
163489.397957,1702.473667,-10510.924376,2528.115143
163489.398277,-1850.514855,-10732.986159,689.485948
163489.398596,-2442.679609,-11843.295072,-76.609550
163489.398916,-6513.812290,-11473.192101,-2451.505594
163489.399235,-3552.988522,-10881.027347,-1685.410096
163489.399555,-1924.535449,-8586.388927,-766.095498
163489.399874,-666.185348,-7994.224174,919.314598
163489.400194,0.000000,-4811.338623,0.000000
163489.400513,370.102971,-5995.668130,-1225.752797
163489.400833,3552.988522,-9548.656652,2451.505594
163489.401152,4367.215058,-10658.965565,3600.648841
163489.401472,-1036.288319,-10362.883188,536.266849
163489.401791,-666.185348,-13915.871710,-76.609550
163489.402111,-4145.153275,-11843.295072,-2451.505594
163489.402430,-2738.761985,-11547.212695,-1072.533697
163489.402750,-666.185348,-8808.450710,-919.314598
163489.403069,-1776.494261,-7772.162391,0.000000
163489.403389,0.000000,-6439.791695,-612.876398
163489.403708,1998.556043,-6143.709319,-1302.362347
163489.404028,3552.988522,-8216.285956,1149.143247
163489.404348,2960.823768,-8956.491898,2451.505594
163489.404667,3478.967927,-9474.636058,1762.019645
163489.404987,-1036.288319,-11103.089130,1149.143247
163489.405306,-3478.967927,-10066.800811,-2145.067394
163489.405626,-3775.050304,-12213.398043,-2528.115143
163489.405945,-2812.782580,-9918.759623,-2145.067394
163489.406265,-2738.761985,-8956.491898,-536.266849
163489.406584,-1776.494261,-6735.874072,-1532.190996
163489.406904,2294.638420,-8734.430116,-995.924147
163489.407223,3478.967927,-9474.636058,-76.609550
163489.407543,1998.556043,-8660.409521,612.876398
163489.407863,2294.638420,-9474.636058,1762.019645
163489.408182,-1628.453072,-10510.924376,1685.410096
163489.408502,-4071.132681,-9696.697840,-3140.991542
163489.408821,-4515.256246,-11769.274478,-1838.629195
163489.409141,-1258.350101,-11251.130318,-76.609550
163489.409460,-888.247130,-10881.027347,842.705048
163489.409780,-1036.288319,-9548.656652,1532.190996
163489.410099,-74.020594,-7105.977043,-1915.238745
163489.410419,740.205942,-8290.306550,-76.609550
163489.410739,1776.494261,-7476.080014,0.000000
163489.411058,4663.297435,-10658.965565,1762.019645
163489.411378,-370.102971,-10732.986159,1378.971896
163489.411697,-2220.617826,-9252.574275,-2221.676944
163489.412017,-3256.906145,-11843.295072,-1072.533697
163489.412336,-1184.329507,-12213.398043,0.000000
163489.412656,-3256.906145,-8068.244768,-1532.190996
163489.412975,-1184.329507,-8364.327145,766.095498
163489.413295,1110.308913,-6513.812290,-612.876398
163489.413614,2368.659014,-8956.491898,612.876398
163489.413934,2220.617826,-6587.832884,612.876398
163489.414254,4663.297435,-8512.368333,1762.019645
163489.414573,-148.041188,-9844.739029,536.266849
163489.414893,-3034.844362,-9474.636058,-2834.553343
163489.415212,-4811.338623,-11473.192101,-4060.306139
163489.415532,-4441.235652,-12435.459826,-383.047749
163489.415851,-2516.700203,-9844.739029,-2145.067394
163489.416171,-2368.659014,-8882.471304,-1302.362347
163489.416490,-3552.988522,-5403.503377,-1838.629195
163489.416810,888.247130,-7179.997637,-459.657299
163489.417130,888.247130,-6291.750507,0.000000
163489.417449,6735.874072,-8512.368333,2068.457845
163489.417769,3478.967927,-9770.718434,2528.115143
163489.418088,222.061783,-9992.780217,153.219100
163489.418408,-1258.350101,-13027.624579,-1302.362347
163489.418727,-74.020594,-15396.283594,-76.609550
163489.419047,444.123565,-11843.295072,-76.609550
163489.419366,-370.102971,-9548.656652,76.609550
163489.419686,444.123565,-7476.080014,1378.971896
163489.420005,1184.329507,-4811.338623,612.876398
163489.420325,2294.638420,-6661.853478,1072.533697
163489.420645,4441.235652,-6957.935855,2757.943793
163489.420964,2368.659014,-8142.265362,2221.676944
163489.421284,-1776.494261,-9326.594869,0.000000
163489.421603,-3627.009116,-11843.295072,-3140.991542
163489.421923,-6809.894666,-13101.645173,-2451.505594
163489.422242,-2442.679609,-13027.624579,-2528.115143
163489.422562,-3552.988522,-9696.697840,-2681.334243
163489.422881,-6809.894666,-7179.997637,-2451.505594
163489.423201,-4145.153275,-5995.668130,-3064.381992
163489.423521,148.041188,-8586.388927,-306.438199
163489.423840,4811.338623,-7994.224174,2987.772442
163489.424160,5033.400406,-6735.874072,2757.943793
163489.424479,1110.308913,-7179.997637,536.266849
163489.424799,-740.205942,-8660.409521,-1762.019645
163489.425118,-4145.153275,-11029.068536,-2451.505594
163489.425438,-1776.494261,-13175.665768,-1225.752797
163489.425757,-1628.453072,-13175.665768,-612.876398
163489.426077,-3034.844362,-13027.624579,-689.485948
163489.426396,-4737.318029,-7179.997637,-2451.505594
163489.426716,-74.020594,-7846.182985,-1072.533697
163489.427036,3256.906145,-8142.265362,2757.943793
163489.427355,5107.421000,-6143.709319,2834.553343
163489.427675,1998.556043,-6957.935855,2068.457845
163489.427994,-1258.350101,-7105.977043,-612.876398
163489.428314,-4441.235652,-7772.162391,-3600.648841
163489.428633,-3552.988522,-12509.480420,0.000000
163489.428953,-1258.350101,-12139.377449,-1072.533697
163489.429272,-2516.700203,-13471.748144,1762.019645
163489.429592,-5329.482782,-8364.327145,-2451.505594
163489.429912,-2294.638420,-8290.306550,-2834.553343
163489.430231,1850.514855,-9252.574275,612.876398
163489.430551,5033.400406,-7402.059420,1532.190996
163489.430870,3478.967927,-7772.162391,1608.800546
163489.431190,518.144159,-9474.636058,2374.896044
163489.431509,-1554.432478,-8882.471304,-2528.115143
163489.431829,-2220.617826,-10881.027347,0.000000
163489.432148,-666.185348,-8512.368333,-76.609550
163489.432468,-2368.659014,-9548.656652,0.000000
163489.432787,-1850.514855,-9326.594869,-536.266849
163489.433107,-1702.473667,-7920.203579,-1838.629195
163489.433427,1776.494261,-10066.800811,0.000000
163489.433746,6439.791695,-8290.306550,1149.143247
163489.434066,3182.885551,-8660.409521,1378.971896
163489.434385,0.000000,-7772.162391,1225.752797
163489.434705,-74.020594,-8882.471304,-76.609550
163489.435024,-74.020594,-11251.130318,-689.485948
163489.435344,0.000000,-8364.327145,0.000000
163489.435663,-74.020594,-10066.800811,536.266849
163489.435983,-2368.659014,-9696.697840,76.609550
163489.436303,-2072.576638,-7772.162391,-2528.115143
163489.436622,-888.247130,-9548.656652,-1302.362347
163489.436942,4441.235652,-10658.965565,3524.039291
163489.437261,2812.782580,-7476.080014,306.438199
163489.437581,148.041188,-9474.636058,1225.752797
163489.437900,-1406.391290,-7846.182985,-2374.896044
163489.438220,-2442.679609,-10732.986159,-2451.505594
163489.438539,-1776.494261,-9548.656652,-3064.381992
163489.438859,-1554.432478,-8660.409521,-2298.286494
163489.439179,-2368.659014,-10584.944971,612.876398
163489.439498,-1850.514855,-7920.203579,-1915.238745
163489.439818,-1258.350101,-8882.471304,-1915.238745
163489.440137,3552.988522,-10732.986159,2528.115143
163489.440457,3404.947333,-7254.018232,306.438199
163489.440776,1036.288319,-8216.285956,842.705048
163489.441096,-1480.411884,-7920.203579,-2068.457845
163489.441415,-2960.823768,-9252.574275,-2451.505594
163489.441735,0.000000,-11029.068536,-1072.533697
163489.442054,1110.308913,-10510.924376,-383.047749
163489.442374,-2072.576638,-10140.821405,0.000000
163489.442694,-2368.659014,-9252.574275,-306.438199
163489.443013,-74.020594,-9474.636058,-1608.800546
163489.443333,1184.329507,-9548.656652,1838.629195
163489.443652,2664.741391,-7772.162391,1455.581446
163489.443972,296.082377,-7772.162391,1608.800546
163489.444291,-1776.494261,-8068.244768,-383.047749
163489.444611,-2960.823768,-8364.327145,-1225.752797
163489.444930,-2368.659014,-11621.233289,0.000000
163489.445250,-74.020594,-11843.295072,2068.457845
163489.445570,-1554.432478,-10658.965565,-689.485948
163489.445889,-4589.276840,-9548.656652,-2145.067394
163489.446209,-666.185348,-9474.636058,-2528.115143
163489.446528,-2146.597232,-10436.903782,0.000000
163489.446848,1110.308913,-8290.306550,0.000000
163489.447167,518.144159,-7476.080014,229.828649
163489.447487,-1184.329507,-8364.327145,1532.190996
163489.447806,-2368.659014,-5995.668130,-1838.629195
163489.448126,-592.164754,-11325.150913,1225.752797
163489.448445,2294.638420,-11547.212695,-76.609550
163489.448765,0.000000,-10140.821405,612.876398
163489.449085,-1850.514855,-9548.656652,0.000000
163489.449404,296.082377,-9696.697840,0.000000
163489.449724,814.226536,-10066.800811,842.705048
163489.450043,2738.761985,-9030.512492,1915.238745
163489.450363,2072.576638,-7550.100608,2068.457845
163489.450682,-4737.318029,-7179.997637,0.000000
163489.451002,-4811.338623,-7105.977043,-2528.115143
163489.451321,-6957.935855,-9548.656652,-2451.505594
163489.451641,-2072.576638,-11251.130318,1685.410096
163489.451961,-962.267725,-11251.130318,2068.457845
163489.452280,-3923.091493,-8882.471304,689.485948
163489.452600,-4293.194464,-7846.182985,459.657299
163489.452919,-4737.318029,-7772.162391,-689.485948
163489.453239,-3923.091493,-8290.306550,-306.438199
163489.453558,-2664.741391,-7920.203579,-383.047749
163489.453878,-3627.009116,-10214.842000,2068.457845
163489.454197,-4515.256246,-7402.059420,-2068.457845
163489.454517,-8882.471304,-7179.997637,-6971.469032
163489.454836,-7254.018232,-13027.624579,-3447.429741
163489.455156,-6291.750507,-12953.603985,-4903.011187
163489.455476,-5403.503377,-12287.418637,-995.924147
163489.455795,-4145.153275,-11029.068536,2298.286494
163489.456115,-3701.029710,-8290.306550,2221.676944
163489.456434,-1924.535449,-7179.997637,2374.896044
163489.456754,2294.638420,-7105.977043,6052.154434
163489.457073,-74.020594,-6809.894666,6281.983084
163489.457393,-962.267725,-7105.977043,5286.058936
163489.457712,-4219.173869,-6217.729913,-383.047749
163489.458032,-6957.935855,-7550.100608,-2298.286494
163489.458352,-11251.130318,-7772.162391,-7354.516781
163489.458671,-10140.821405,-12435.459826,-7431.126331
163489.458991,-11103.089130,-14137.933492,-6128.763984
163489.459310,-8660.409521,-13397.727550,-4290.134789
163489.459630,-6217.729913,-13101.645173,-1378.971896
163489.459949,-1258.350101,-12657.521608,3600.648841
163489.460269,-2368.659014,-5107.421000,2451.505594
163489.460588,0.000000,-4515.256246,5822.325785
163489.460908,1628.453072,-4441.235652,4826.401637
163489.461227,-74.020594,-6513.812290,3600.648841
163489.461547,-4737.318029,-4811.338623,0.000000
163489.461867,-3330.926739,-9992.780217,-842.705048
163489.462186,-5921.647536,-12435.459826,-2757.943793
163489.462506,-6661.853478,-12287.418637,-5515.887586
163489.462825,-8290.306550,-11547.212695,-7737.564530
163489.463145,-8512.368333,-12287.418637,-6818.249932
163489.463464,-7105.977043,-11029.068536,-5515.887586
163489.463784,-3256.906145,-11251.130318,-76.609550
163489.464103,-2072.576638,-7772.162391,2451.505594
163489.464423,4145.153275,-8364.327145,7507.735880
163489.464743,2368.659014,-4811.338623,6741.640382
163489.465062,4737.318029,-2664.741391,5822.325785
163489.465382,1406.391290,-4885.359217,2451.505594
163489.465701,-1110.308913,-7846.182985,-919.314598
163489.466021,-1258.350101,-11547.212695,-2528.115143
163489.466340,-3627.009116,-13915.871710,-2528.115143
163489.466660,-6587.832884,-13915.871710,-3753.867940
163489.466979,-7105.977043,-12213.398043,-4673.182538
163489.467299,-4737.318029,-11917.315666,-2221.676944
163489.467618,0.000000,-9548.656652,2451.505594
163489.467938,-1776.494261,-4367.215058,1225.752797
163489.468258,-814.226536,-4219.173869,2068.457845
163489.468577,0.000000,-4959.379811,1378.971896
163489.468897,1036.288319,-7328.038826,2911.162892
163489.469216,-74.020594,-9474.636058,2374.896044
163489.469536,-2368.659014,-11177.109724,3370.820191
163489.469855,-4811.338623,-11843.295072,-2528.115143
163489.470175,-5995.668130,-11991.336260,-4596.572988
163489.470494,-3034.844362,-12731.542202,-3140.991542
163489.470814,-5773.606348,-9548.656652,-2451.505594
163489.471134,-3034.844362,-9178.553681,-1302.362347
163489.471453,-4663.297435,-6365.771101,-3830.477490
163489.471773,-3478.967927,-7772.162391,-2987.772442
163489.472092,-1258.350101,-10658.965565,-76.609550
163489.472412,-1406.391290,-9696.697840,3447.429741
163489.472731,-3552.988522,-8956.491898,4903.011187
163489.473051,-4367.215058,-8512.368333,2451.505594
163489.473370,-2442.679609,-8882.471304,-76.609550
163489.473690,-3627.009116,-7031.956449,-1915.238745
163489.474010,-1258.350101,-11251.130318,1762.019645
163489.474329,-2072.576638,-9326.594869,2145.067394
163489.474649,-4367.215058,-8290.306550,1072.533697
163489.474968,-6735.874072,-7179.997637,-2604.724693
163489.475288,-7105.977043,-7179.997637,-3370.820191
163489.475607,-5625.565159,-8216.285956,-5898.935335
163489.475927,-4737.318029,-9992.780217,-3907.087040
163489.476246,-5033.400406,-12213.398043,-2068.457845
163489.476566,-5329.482782,-13101.645173,0.000000
163489.476885,-5107.421000,-10658.965565,766.095498
163489.477205,-3034.844362,-11251.130318,1762.019645
163489.477525,-4737.318029,-6587.832884,153.219100
163489.477844,-2664.741391,-3627.009116,-842.705048
163489.478164,-1036.288319,-6513.812290,2374.896044
163489.478483,-1184.329507,-7179.997637,2451.505594
163489.478803,-2590.720797,-8364.327145,229.828649
163489.479122,-4811.338623,-10881.027347,-1915.238745
163489.479442,-6069.688724,-11917.315666,-3294.210641
163489.479761,-7476.080014,-11103.089130,-4443.353888
163489.480081,-6587.832884,-12287.418637,-3140.991542
163489.480401,-4811.338623,-10362.883188,-3140.991542
163489.480720,-3034.844362,-9474.636058,-689.485948
163489.481040,-74.020594,-7105.977043,-766.095498
163489.481359,2590.720797,-10658.965565,2374.896044
163489.481679,-1184.329507,-8956.491898,2451.505594
163489.481998,-1924.535449,-10288.862594,2911.162892
163489.482318,-2220.617826,-10881.027347,3907.087040
163489.482637,-1258.350101,-10881.027347,5056.230287
163489.482957,0.000000,-7772.162391,4903.011187
163489.483276,-666.185348,-6587.832884,3217.601092
163489.483596,-74.020594,-7105.977043,-76.609550
163489.483916,-3923.091493,-5181.441594,-4366.744339
163489.484235,-7254.018232,-7476.080014,-7277.907231
163489.484555,-7179.997637,-13027.624579,-6205.373534
163489.484874,-9474.636058,-11473.192101,-7354.516781
163489.485194,-7105.977043,-13767.830521,-5132.839837
163489.485513,-3034.844362,-12805.562797,-1532.190996
163489.485833,0.000000,-9548.656652,2451.505594
163489.486152,1184.329507,-7179.997637,4903.011187
163489.486472,1184.329507,-5995.668130,4903.011187
163489.486792,3552.988522,-7846.182985,6052.154434
163489.487111,2146.597232,-7476.080014,2451.505594
163489.487431,-666.185348,-7698.141797,-76.609550
163489.487750,-3034.844362,-11695.253884,-459.657299
163489.488070,-7031.956449,-10807.006753,-3677.258390
163489.488389,-7994.224174,-11399.171507,-5286.058936
163489.488709,-7994.224174,-10807.006753,-4826.401637
163489.489028,-7105.977043,-9844.739029,-3677.258390
163489.489348,-1850.514855,-9474.636058,229.828649
163489.489667,-814.226536,-7254.018232,2451.505594
163489.489987,1184.329507,-5403.503377,2987.772442
163489.490307,1184.329507,-7328.038826,6128.763984
163489.490626,1702.473667,-7105.977043,3600.648841
163489.490946,-1184.329507,-7402.059420,3294.210641
163489.491265,-2368.659014,-8956.491898,1378.971896
163489.491585,-2368.659014,-10214.842000,229.828649
163489.491904,-1406.391290,-11621.233289,-76.609550
163489.492224,-888.247130,-11991.336260,689.485948
163489.492543,-74.020594,-11843.295072,-76.609550
163489.492863,814.226536,-13619.789333,2068.457845
163489.493183,-74.020594,-9622.677246,76.609550
163489.493502,592.164754,-8068.244768,2451.505594
163489.493822,4663.297435,-7698.141797,4826.401637
163489.494141,4145.153275,-7550.100608,6971.469032
163489.494461,3997.112087,-7846.182985,7890.783629
163489.494780,2220.617826,-8216.285956,7277.907231
163489.495100,1184.329507,-9992.780217,7737.564530
163489.495419,-1184.329507,-10140.821405,5209.449386
163489.495739,-740.205942,-12583.501014,4826.401637
163489.496058,-1998.556043,-11843.295072,3600.648841
163489.496378,-1850.514855,-10955.047942,3600.648841
163489.496698,-1628.453072,-8956.491898,2451.505594
163489.497017,2294.638420,-9474.636058,6665.030833
163489.497337,1554.432478,-7105.977043,6894.859482
163489.497656,2368.659014,-5033.400406,5975.544884
163489.497976,2294.638420,-5255.462188,5209.449386
163489.498295,2960.823768,-7476.080014,7354.516781
163489.498615,0.000000,-7179.997637,4903.011187
163489.498934,1184.329507,-13471.748144,7431.126331
163489.499254,-370.102971,-15396.283594,9116.536426
163489.499574,-370.102971,-16580.613101,8503.660028
163489.499893,-4663.297435,-10436.903782,4903.011187
163489.500213,-2072.576638,-8882.471304,7584.345430
163489.500532,-1776.494261,-4515.256246,4979.620737
163489.500852,-1036.288319,-2886.803174,3907.087040
163489.501171,222.061783,-4737.318029,4213.525239
163489.501491,0.000000,-7105.977043,5439.278036
163489.501810,-1036.288319,-8956.491898,3983.696590
163489.502130,-1776.494261,-11325.150913,3064.381992
163489.502449,-74.020594,-14211.954086,6052.154434
163489.502769,-2960.823768,-10140.821405,4903.011187
163489.503089,-3478.967927,-9548.656652,2834.553343
163489.503408,-74.020594,-9918.759623,4519.963438
163489.503728,1184.329507,-9548.656652,5056.230287
163489.504047,1628.453072,-11325.150913,6358.592633
163489.504367,2886.803174,-11843.295072,7277.907231
163489.504686,-1480.411884,-9474.636058,4213.525239
163489.505006,-3034.844362,-9474.636058,2987.772442
163489.505325,-4663.297435,-5107.421000,0.000000
163489.505645,-1184.329507,-7476.080014,2604.724693
163489.505965,0.000000,-7179.997637,4903.011187
163489.506284,2294.638420,-7328.038826,1915.238745
163489.506604,740.205942,-10140.821405,1302.362347
163489.506924,-2664.741391,-11843.295072,-459.657299
163489.507244,-4515.256246,-13471.748144,-383.047749
163489.507563,-1850.514855,-14211.954086,-76.609550
163489.507883,-2960.823768,-11325.150913,1378.971896
163489.508202,-370.102971,-10362.883188,1149.143247
163489.508522,962.267725,-9474.636058,1225.752797
163489.508842,4071.132681,-9474.636058,2451.505594
163489.509161,0.000000,-3923.091493,0.000000
163489.509481,1628.453072,-6735.874072,-2451.505594
163489.509800,592.164754,-8660.409521,-1838.629195
163489.510120,2886.803174,-10436.903782,229.828649
163489.510439,4663.297435,-10658.965565,2987.772442
163489.510759,2220.617826,-8364.327145,1302.362347
163489.511078,-2368.659014,-9548.656652,-2451.505594
163489.511398,-4737.318029,-11325.150913,-6128.763984
163489.511717,-5921.647536,-13693.809927,-1225.752797
163489.512037,-3627.009116,-10214.842000,-1608.800546
163489.512357,-74.020594,-8882.471304,1762.019645
163489.512676,1776.494261,-6291.750507,1991.848295
163489.512996,3108.864956,-4737.318029,2068.457845
163489.513315,3552.988522,-5107.421000,2068.457845
163489.513635,2368.659014,-8068.244768,3217.601092
163489.513954,444.123565,-8956.491898,0.000000
163489.514274,-148.041188,-11399.171507,-383.047749
163489.514593,-1406.391290,-11621.233289,76.609550
163489.514913,-2812.782580,-11917.315666,-1838.629195
163489.515233,-3552.988522,-10140.821405,-1225.752797
163489.515552,-74.020594,-10658.965565,-76.609550
163489.515872,-3552.988522,-7179.997637,612.876398
163489.516191,-2516.700203,-8512.368333,0.000000
163489.516511,-1554.432478,-9474.636058,-76.609550
163489.516830,1480.411884,-8660.409521,4136.915689
163489.517150,3849.070898,-7179.997637,3907.087040
163489.517469,2590.720797,-8364.327145,2911.162892
163489.517789,666.185348,-9400.615463,1149.143247
163489.518108,-1110.308913,-10658.965565,919.314598
163489.518428,-666.185348,-13619.789333,1149.143247
163489.518748,-2146.597232,-13175.665768,153.219100
163489.519067,-3552.988522,-10732.986159,0.000000
163489.519387,-2960.823768,-9548.656652,2451.505594
163489.519706,3182.885551,-9474.636058,4826.401637
163489.520026,592.164754,-7476.080014,5669.106685
163489.520345,-370.102971,-5847.626942,5975.544884
163489.520665,-666.185348,-5551.544565,4519.963438
163489.520984,740.205942,-6217.729913,4903.011187
163489.521304,1480.411884,-7179.997637,6741.640382
163489.521623,1332.370696,-8660.409521,6588.421283
163489.521943,518.144159,-11843.295072,6052.154434
163489.522263,-3330.926739,-10881.027347,1838.629195
163489.522582,-5329.482782,-12509.480420,1838.629195
163489.522902,-2442.679609,-13027.624579,4826.401637
163489.523221,-4737.318029,-9770.718434,2451.505594
163489.523541,-3478.967927,-8290.306550,2145.067394
163489.523860,-1702.473667,-7624.121203,3600.648841
163489.524180,0.000000,-5403.503377,6128.763984
163489.524499,0.000000,-4811.338623,6128.763984
163489.524819,1480.411884,-6587.832884,6741.640382
163489.525138,4663.297435,-8586.388927,6894.859482
163489.525458,4071.132681,-8290.306550,6052.154434
163489.525778,1554.432478,-9770.718434,5439.278036
163489.526097,2294.638420,-14211.954086,7277.907231
163489.526417,0.000000,-12805.562797,5056.230287
163489.526736,-1110.308913,-12657.521608,4443.353888
163489.527056,-2590.720797,-10658.965565,3140.991542
163489.527375,-4737.318029,-7772.162391,1302.362347
163489.527695,-3627.009116,-6513.812290,1149.143247
163489.528014,-1998.556043,-5995.668130,1532.190996
163489.528334,1184.329507,-6291.750507,2451.505594
163489.528653,3701.029710,-8586.388927,5286.058936
163489.528973,2294.638420,-8290.306550,2987.772442
163489.529293,1184.329507,-10362.883188,4673.182538
163489.529612,296.082377,-11399.171507,4519.963438
163489.529932,-222.061783,-11473.192101,4826.401637
163489.530251,-1332.370696,-9178.553681,2681.334243
163489.530571,-2960.823768,-10510.924376,1915.238745
163489.530890,-2442.679609,-9178.553681,-383.047749
163489.531210,-2664.741391,-8290.306550,-689.485948
163489.531529,-2664.741391,-7550.100608,-2757.943793
163489.531849,-2368.659014,-6291.750507,-4903.011187
163489.532168,-1258.350101,-8586.388927,-4979.620737
163489.532488,-740.205942,-10436.903782,-1455.581446
163489.532808,1776.494261,-10881.027347,0.000000
163489.533127,1998.556043,-11991.336260,2374.896044
163489.533447,3478.967927,-10658.965565,3600.648841
163489.533766,-148.041188,-9326.594869,1149.143247
163489.534086,-1480.411884,-9696.697840,-383.047749
163489.534405,-74.020594,-8882.471304,-2834.553343
163489.534725,222.061783,-9326.594869,-2528.115143
163489.535044,0.000000,-4811.338623,-7354.516781
163489.535364,1110.308913,-8290.306550,-5745.716235
163489.535684,-1184.329507,-10658.965565,-4290.134789
163489.536003,222.061783,-10510.924376,-4749.792088
163489.536323,-518.144159,-13767.830521,-2298.286494
163489.536642,2368.659014,-12953.603985,-612.876398
163489.536962,-1776.494261,-7476.080014,-4903.011187
163489.537281,-2368.659014,-9844.739029,-1532.190996
163489.537601,-74.020594,-7105.977043,-3524.039291
163489.537920,2146.597232,-9178.553681,-3140.991542
163489.538240,0.000000,-4811.338623,-7354.516781
163489.538559,1332.370696,-7105.977043,-8044.002729
163489.538879,-1258.350101,-11029.068536,-5286.058936
163489.539199,-222.061783,-11325.150913,-5898.935335
163489.539518,-814.226536,-14211.954086,-3753.867940
163489.539838,-1554.432478,-12435.459826,-2528.115143
163489.540157,-3404.947333,-9548.656652,-6128.763984
163489.540477,-4145.153275,-9548.656652,-6741.640382
163489.540796,-2368.659014,-5403.503377,-4903.011187
163489.541116,888.247130,-7031.956449,-3064.381992
163489.541435,592.164754,-3627.009116,-4903.011187
163489.541755,4663.297435,-5477.523971,-5898.935335
163489.542074,2368.659014,-11325.150913,-2374.896044
163489.542394,1998.556043,-12287.418637,-1991.848295
163489.542714,2294.638420,-14211.954086,-76.609550
163489.543033,-74.020594,-15396.283594,1762.019645
163489.543353,-962.267725,-11843.295072,-76.609550
163489.543672,-3034.844362,-8142.265362,-3294.210641
163489.543992,-3552.988522,-5403.503377,-1838.629195
163489.544311,-2368.659014,-4811.338623,-2145.067394
163489.544631,-666.185348,-4959.379811,-1072.533697
163489.544950,2590.720797,-3849.070898,-1608.800546
163489.545270,666.185348,-7476.080014,-306.438199
163489.545589,0.000000,-10066.800811,612.876398
163489.545909,2294.638420,-12731.542202,2374.896044
163489.546229,2590.720797,-16284.530724,6665.030833
163489.546548,1110.308913,-11843.295072,2374.896044
163489.546868,-4145.153275,-10732.986159,459.657299
163489.547187,-4811.338623,-8882.471304,0.000000
163489.547507,-3923.091493,-7179.997637,-2604.724693
163489.547826,-1628.453072,-8808.450710,1762.019645
163489.548146,1036.288319,-4515.256246,689.485948
163489.548465,2590.720797,-5625.565159,1072.533697
163489.548785,2294.638420,-10658.965565,4213.525239
163489.549104,2590.720797,-9474.636058,3524.039291
163489.549424,1184.329507,-11991.336260,4903.011187
163489.549744,3775.050304,-12435.459826,6128.763984
163489.550063,-74.020594,-14063.912898,4826.401637
163489.550383,-4811.338623,-11695.253884,2374.896044
163489.550702,-3034.844362,-9326.594869,2068.457845
163489.551022,-2960.823768,-9030.512492,2681.334243
163489.551341,0.000000,-5921.647536,2451.505594
163489.551661,740.205942,-3108.864956,1762.019645
163489.551980,0.000000,-8364.327145,4903.011187
163489.552300,1036.288319,-7994.224174,2604.724693
163489.552620,740.205942,-11029.068536,4213.525239
163489.552939,370.102971,-12361.439231,6358.592633
163489.553259,370.102971,-10140.821405,1838.629195
163489.553578,-3034.844362,-11473.192101,766.095498
163489.553898,-3034.844362,-9474.636058,1762.019645
163489.554217,-4737.318029,-6587.832884,0.000000
163489.554537,-1480.411884,-8068.244768,0.000000
163489.554856,1110.308913,-6809.894666,-76.609550
163489.555176,-2368.659014,-6291.750507,0.000000
163489.555495,-1184.329507,-8586.388927,919.314598
163489.555815,888.247130,-9474.636058,842.705048
163489.556135,1184.329507,-12731.542202,4290.134789
163489.556454,518.144159,-10066.800811,2145.067394
163489.556774,-2590.720797,-9844.739029,919.314598
163489.557093,-2442.679609,-10066.800811,536.266849
163489.557413,-1998.556043,-8882.471304,-76.609550
163489.557732,-74.020594,-9178.553681,229.828649
163489.558052,3256.906145,-7624.121203,1149.143247
163489.558371,0.000000,-5995.668130,-2145.067394
163489.558691,222.061783,-9474.636058,-1149.143247
163489.559010,888.247130,-9326.594869,-766.095498
163489.559330,1406.391290,-12287.418637,2451.505594
163489.559650,592.164754,-8660.409521,1225.752797
163489.559969,-888.247130,-9622.677246,-612.876398
163489.560289,-1258.350101,-13619.789333,-76.609550
163489.560608,-3330.926739,-7031.956449,-4443.353888
163489.560928,-2960.823768,-10140.821405,-1532.190996
163489.561247,1332.370696,-9474.636058,-76.609550
163489.561567,-1184.329507,-6587.832884,-4749.792088
163489.561886,-1406.391290,-8586.388927,-3064.381992
163489.562206,962.267725,-8364.327145,-3064.381992
163489.562525,0.000000,-9844.739029,0.000000
163489.562845,0.000000,-7179.997637,0.000000
163489.563165,-2368.659014,-7179.997637,-3677.258390
163489.563484,-2368.659014,-13841.851115,-1149.143247
163489.563804,-1924.535449,-11695.253884,-2145.067394
163489.564123,-1554.432478,-11843.295072,-1915.238745
163489.564443,-74.020594,-7624.121203,-2068.457845
163489.564762,-888.247130,-2590.720797,-7660.954980
163489.565082,1184.329507,-7402.059420,-5439.278036
163489.565401,4885.359217,-8586.388927,-3600.648841
163489.565721,3552.988522,-11917.315666,-995.924147
163489.566040,4367.215058,-15840.407159,2987.772442
163489.566360,-1850.514855,-10362.883188,-3370.820191
163489.566680,-7994.224174,-11917.315666,-4903.011187
163489.566999,-5329.482782,-9696.697840,-2911.162892
163489.567319,-1258.350101,-8290.306550,-3140.991542
163489.567638,0.000000,-6587.832884,-842.705048
163489.567958,2294.638420,-2294.638420,-2987.772442
163489.568277,1406.391290,-5403.503377,-2528.115143
163489.568597,1184.329507,-7402.059420,-1302.362347
163489.568916,1628.453072,-10288.862594,-1302.362347
163489.569236,1110.308913,-14211.954086,-76.609550
163489.569556,222.061783,-11843.295072,-1302.362347
163489.569875,-3627.009116,-12287.418637,-3064.381992
163489.570195,-3034.844362,-10732.986159,-3370.820191
163489.570514,-74.020594,-9474.636058,-1915.238745
163489.570834,-2220.617826,-10732.986159,-229.828649
163489.571153,74.020594,-5033.400406,-2911.162892
163489.571473,592.164754,-5033.400406,-1991.848295
163489.571792,3552.988522,-6587.832884,3064.381992
163489.572112,5329.482782,-7179.997637,2451.505594
163489.572431,4145.153275,-11325.150913,4903.011187
163489.572751,5181.441594,-11547.212695,4060.306139
163489.573071,-666.185348,-13323.706956,2221.676944
163489.573390,-7105.977043,-10807.006753,-2451.505594
163489.573710,-4811.338623,-10362.883188,-2068.457845
163489.574029,-3849.070898,-11177.109724,612.876398
163489.574349,-222.061783,-6291.750507,459.657299
163489.574668,1184.329507,-4441.235652,459.657299
163489.574988,1184.329507,-6291.750507,3677.258390
163489.575307,2442.679609,-4811.338623,1225.752797
163489.575627,1184.329507,-9548.656652,3677.258390
163489.575946,2294.638420,-10955.047942,6665.030833
163489.576266,1332.370696,-12287.418637,2987.772442
163489.576586,-4515.256246,-11991.336260,0.000000
163489.576905,-4663.297435,-11843.295072,459.657299
163489.577225,-5033.400406,-11325.150913,229.828649
163489.577544,-4145.153275,-9104.533087,-995.924147
163489.577864,-1998.556043,-7105.977043,-1302.362347
163489.578183,-1776.494261,-8290.306550,2068.457845
163489.578503,2590.720797,-6809.894666,2068.457845
163489.578822,3552.988522,-6661.853478,1762.019645
163489.579142,3552.988522,-9696.697840,6741.640382
163489.579461,2368.659014,-8438.347739,3983.696590
163489.579781,-3034.844362,-10955.047942,2068.457845
163489.580101,-3552.988522,-12065.356855,1608.800546
163489.580420,-4293.194464,-10881.027347,-306.438199
163489.580740,-2960.823768,-10288.862594,919.314598
163489.581059,-74.020594,-7105.977043,-76.609550
163489.581379,-74.020594,-7550.100608,-76.609550
163489.581698,3478.967927,-8586.388927,2681.334243
163489.582018,4663.297435,-7698.141797,536.266849
163489.582337,3108.864956,-9548.656652,3830.477490
163489.582657,0.000000,-7179.997637,1225.752797
163489.582976,-666.185348,-11695.253884,1762.019645
163489.583296,-3182.885551,-12213.398043,1685.410096
163489.583616,-3182.885551,-9548.656652,-612.876398
163489.583935,-3330.926739,-10584.944971,919.314598
163489.584255,-74.020594,-7105.977043,-306.438199
163489.584574,-2368.659014,-5403.503377,-3370.820191
163489.584894,592.164754,-9178.553681,-459.657299
163489.585213,1998.556043,-7846.182985,-2528.115143
163489.585533,2294.638420,-10955.047942,0.000000
163489.585852,2294.638420,-9474.636058,-689.485948
163489.586172,-222.061783,-9548.656652,-536.266849
163489.586491,-3034.844362,-11621.233289,153.219100
163489.586811,-2294.638420,-8956.491898,-2221.676944
163489.587131,-370.102971,-12879.583391,2068.457845
163489.587450,-740.205942,-8586.388927,-1608.800546
163489.587770,-666.185348,-6809.894666,-3447.429741
163489.588089,-1480.411884,-7254.018232,-3447.429741
163489.588409,592.164754,-3923.091493,-4290.134789
163489.588728,5847.626942,-10658.965565,-76.609550
163489.589048,4293.194464,-11843.295072,612.876398
163489.589367,1628.453072,-10510.924376,-1608.800546
163489.589687,-2590.720797,-14952.160028,612.876398
163489.590007,-3627.009116,-11029.068536,-1915.238745
163489.590326,-7105.977043,-9548.656652,-2451.505594
163489.590646,-3034.844362,-8290.306550,-1915.238745
163489.590965,-370.102971,-3108.864956,-4903.011187
163489.591285,814.226536,-6365.771101,-1685.410096
163489.591604,3108.864956,-4589.276840,-2221.676944
163489.591924,4663.297435,-9474.636058,-2451.505594
163489.592243,2886.803174,-14211.954086,-76.609550
163489.592563,-74.020594,-10066.800811,-3140.991542
163489.592882,-4737.318029,-13027.624579,-2834.553343
163489.593202,-2516.700203,-13323.706956,-842.705048
163489.593522,-4737.318029,-9548.656652,-3677.258390
163489.593841,-888.247130,-10584.944971,76.609550
163489.594161,148.041188,-5403.503377,-3600.648841
163489.594480,-148.041188,-7254.018232,-2834.553343
163489.594800,1998.556043,-7994.224174,-2374.896044
163489.595119,3849.070898,-7772.162391,0.000000
163489.595439,4663.297435,-11843.295072,2757.943793
163489.595758,5847.626942,-11251.130318,2374.896044
163489.596078,1110.308913,-11843.295072,-229.828649
163489.596397,-1776.494261,-12509.480420,2298.286494
163489.596717,-3552.988522,-9844.739029,-3140.991542
163489.597037,-2664.741391,-12805.562797,-383.047749
163489.597356,-1480.411884,-7920.203579,-2681.334243
163489.597676,-1628.453072,-7772.162391,-1455.581446
163489.597995,370.102971,-6883.915261,-2068.457845
163489.598315,3552.988522,-4589.276840,76.609550
163489.598634,1184.329507,-5995.668130,1225.752797
163489.598954,1776.494261,-7179.997637,1838.629195
163489.599273,814.226536,-10955.047942,1149.143247
163489.599593,-2368.659014,-14878.139434,3983.696590
163489.599912,-3330.926739,-11769.274478,-383.047749
163489.600232,-5403.503377,-12657.521608,612.876398
163489.600552,-5107.421000,-8290.306550,-2145.067394
163489.600871,-5773.606348,-4811.338623,-5822.325785
163489.601191,-3775.050304,-4959.379811,-3140.991542
163489.601510,3478.967927,-5329.482782,-689.485948
163489.601830,2516.700203,-7772.162391,2451.505594
163489.602149,3256.906145,-7179.997637,2068.457845
163489.602469,3478.967927,-11251.130318,3600.648841
163489.602788,-1480.411884,-11917.315666,3677.258390
163489.603108,-1776.494261,-10881.027347,76.609550
163489.603427,-2960.823768,-12509.480420,689.485948
163489.603747,-2886.803174,-10436.903782,-306.438199
163489.604067,-2590.720797,-6513.812290,-2221.676944
163489.604386,-518.144159,-9474.636058,-76.609550
163489.604706,2146.597232,-8290.306550,-76.609550
163489.605025,3478.967927,-10658.965565,2987.772442
163489.605345,4367.215058,-8882.471304,3600.648841
163489.605664,5255.462188,-9474.636058,4826.401637
163489.605984,0.000000,-9770.718434,2451.505594
163489.606303,-1258.350101,-10955.047942,2374.896044
163489.606623,-2368.659014,-10732.986159,1072.533697
163489.606943,-3775.050304,-10955.047942,1225.752797
163489.607262,-3849.070898,-8068.244768,-2451.505594
163489.607582,-3849.070898,-10288.862594,-2145.067394
163489.607901,-2368.659014,-8364.327145,0.000000
163489.608221,2220.617826,-9918.759623,1455.581446
163489.608541,2738.761985,-8734.430116,1455.581446
163489.608860,3478.967927,-7105.977043,995.924147
163489.609180,1110.308913,-8364.327145,-1685.410096
163489.609499,-370.102971,-10881.027347,2068.457845
163489.609819,-518.144159,-9548.656652,0.000000
163489.610139,-74.020594,-13027.624579,4213.525239
163489.610458,-888.247130,-9400.615463,1838.629195
163489.610778,-2146.597232,-7550.100608,-689.485948
163489.611097,-74.020594,-10658.965565,-76.609550
163489.611417,1554.432478,-5699.585753,-1225.752797
163489.611737,1776.494261,-7772.162391,1532.190996
163489.612056,4663.297435,-7105.977043,2374.896044
163489.612376,2072.576638,-6883.915261,0.000000
163489.612695,-444.123565,-11621.233289,536.266849
163489.613015,-592.164754,-10140.821405,-995.924147
163489.613334,-1628.453072,-14656.077652,3524.039291
163489.613654,-2368.659014,-9548.656652,0.000000
163489.613974,-4737.318029,-7179.997637,-2451.505594
163489.614293,-2664.741391,-9918.759623,-383.047749
163489.614613,1702.473667,-7698.141797,-1455.581446
163489.614932,666.185348,-5995.668130,0.000000
163489.615252,4071.132681,-8290.306550,1455.581446
163489.615572,1184.329507,-8142.265362,-995.924147
163489.615891,-2738.761985,-12657.521608,-1685.410096
163489.616211,-3701.029710,-11547.212695,-3217.601092
163489.616530,-4737.318029,-13397.727550,-1532.190996
163489.616850,-3627.009116,-10214.842000,-2604.724693
163489.617170,-2368.659014,-8068.244768,-4136.915689
163489.617489,-4737.318029,-8364.327145,-2451.505594
163489.617809,740.205942,-8142.265362,-1532.190996
163489.618128,222.061783,-5995.668130,-3064.381992
163489.618448,3182.885551,-7920.203579,-383.047749
163489.618768,3478.967927,-6883.915261,-1838.629195
163489.619087,814.226536,-10066.800811,-919.314598
163489.619407,1702.473667,-12731.542202,-76.609550
163489.619726,-74.020594,-13027.624579,-1302.362347
163489.620046,-2146.597232,-11917.315666,-76.609550
163489.620365,-1258.350101,-8586.388927,-3753.867940
163489.620685,-3404.947333,-8586.388927,-3064.381992
163489.621005,0.000000,-7179.997637,0.000000
163489.621324,1406.391290,-5033.400406,-1915.238745
163489.621644,3108.864956,-7698.141797,1685.410096
163489.621963,4145.153275,-5847.626942,153.219100
163489.622283,1480.411884,-8364.327145,-919.314598
163489.622603,-74.020594,-11843.295072,-76.609550
163489.622922,-1998.556043,-10214.842000,-1838.629195
163489.623242,-1998.556043,-14508.036463,1149.143247
163489.623561,-1850.514855,-10066.800811,-3294.210641
163489.623881,-2960.823768,-11843.295072,-2528.115143
163489.624201,-1850.514855,-8882.471304,-3753.867940
163489.624520,814.226536,-7105.977043,-1072.533697
163489.624840,1924.535449,-8808.450710,919.314598
163489.625159,4071.132681,-7031.956449,689.485948
163489.625479,2886.803174,-9178.553681,-76.609550
163489.625798,-1776.494261,-9548.656652,1302.362347
163489.626118,-1184.329507,-8956.491898,-1915.238745
163489.626438,-2294.638420,-13249.686362,919.314598
163489.626757,-2368.659014,-10140.821405,306.438199
163489.627077,-1110.308913,-9474.636058,-1915.238745
163489.627396,-1258.350101,-11695.253884,-76.609550
163489.627716,0.000000,-7179.997637,-1149.143247
163489.628036,1406.391290,-8438.347739,1072.533697
163489.628355,3330.926739,-7846.182985,2374.896044
163489.628675,1184.329507,-5995.668130,1225.752797
163489.628994,-1184.329507,-10807.006753,2451.505594
163489.629314,-1628.453072,-9474.636058,1378.971896
163489.629634,-1776.494261,-11843.295072,2068.457845
163489.629953,-1258.350101,-11547.212695,1762.019645
163489.630273,-74.020594,-9474.636058,1455.581446
163489.630592,-3256.906145,-9548.656652,153.219100
163489.630912,-1924.535449,-8216.285956,0.000000
163489.631232,-592.164754,-8956.491898,-383.047749
163489.631551,1036.288319,-9252.574275,612.876398
163489.631871,1110.308913,-4441.235652,-2374.896044
163489.632190,-1480.411884,-9326.594869,-383.047749
163489.632510,-1554.432478,-9326.594869,-153.219100
163489.632829,-296.082377,-10436.903782,0.000000
163489.633149,-74.020594,-13841.851115,3907.087040
163489.633469,1110.308913,-9178.553681,383.047749
163489.633788,-2368.659014,-10140.821405,0.000000
163489.634108,-74.020594,-8882.471304,1149.143247
163489.634427,2886.803174,-9178.553681,-76.609550
163489.634747,1184.329507,-7772.162391,1225.752797
163489.635067,5255.462188,-7105.977043,1149.143247
163489.635386,2368.659014,-9030.512492,1455.581446
163489.635706,-592.164754,-9844.739029,1072.533697
163489.636025,-1480.411884,-8512.368333,-1608.800546
163489.636345,-2368.659014,-13027.624579,-76.609550
163489.636665,-74.020594,-10066.800811,-76.609550
163489.636984,-1776.494261,-9770.718434,-1915.238745
163489.637304,-3552.988522,-9548.656652,1225.752797
163489.637623,0.000000,-7328.038826,-766.095498
163489.637943,-2368.659014,-6587.832884,0.000000
163489.638263,1924.535449,-7550.100608,-76.609550
163489.638582,592.164754,-7179.997637,-1455.581446
163489.638902,-1776.494261,-10436.903782,383.047749
163489.639221,-1406.391290,-8290.306550,-1608.800546
163489.639541,-1258.350101,-11843.295072,-76.609550
163489.639860,-1850.514855,-11843.295072,-76.609550
163489.640180,-3552.988522,-7772.162391,-4903.011187
163489.640500,-3552.988522,-11325.150913,-1225.752797
163489.640819,-74.020594,-9474.636058,-76.609550
163489.641139,-2368.659014,-7772.162391,0.000000
163489.641458,1850.514855,-8216.285956,1149.143247
163489.641778,2368.659014,-5773.606348,-1685.410096
163489.642098,148.041188,-8956.491898,-766.095498
163489.642417,3478.967927,-8882.471304,-76.609550
163489.642737,1184.329507,-11177.109724,1225.752797
163489.643056,1998.556043,-12583.501014,2374.896044
163489.643376,222.061783,-8216.285956,-2528.115143
163489.643696,-1258.350101,-11251.130318,-1915.238745
163489.644015,-2072.576638,-9548.656652,-919.314598
163489.644335,-1776.494261,-7920.203579,-2145.067394
163489.644654,1110.308913,-9400.615463,383.047749
163489.644974,2368.659014,-6069.688724,-919.314598
163489.645293,0.000000,-9178.553681,-612.876398
163489.645613,-518.144159,-8586.388927,-2145.067394
163489.645933,-1776.494261,-8956.491898,-1225.752797
163489.646252,74.020594,-11695.253884,1225.752797
163489.646572,2294.638420,-9474.636058,-383.047749
163489.646891,-1258.350101,-10658.965565,-1608.800546
163489.647211,-3256.906145,-9548.656652,306.438199
163489.647531,-518.144159,-8438.347739,-2068.457845
163489.647850,444.123565,-10955.047942,612.876398
163489.648170,1998.556043,-7772.162391,-1225.752797
163489.648489,-2220.617826,-5995.668130,-4290.134789
163489.648809,-1258.350101,-8290.306550,-2145.067394
163489.649129,1702.473667,-10658.965565,-689.485948
163489.649448,-74.020594,-12435.459826,229.828649
163489.649768,592.164754,-9030.512492,-842.705048
163489.650087,-1184.329507,-9548.656652,1378.971896
163489.650407,-3552.988522,-9548.656652,0.000000
163489.650727,-222.061783,-7105.977043,-612.876398
163489.651046,1036.288319,-9844.739029,1455.581446
163489.651366,2738.761985,-6957.935855,2145.067394
163489.651685,2294.638420,-6217.729913,-76.609550
163489.652005,-370.102971,-10436.903782,2451.505594
163489.652324,-666.185348,-8290.306550,-1915.238745
163489.652644,-2294.638420,-10066.800811,-459.657299
163489.652964,-1406.391290,-8882.471304,-1455.581446
163489.653283,740.205942,-11029.068536,1149.143247
163489.653603,-3330.926739,-10658.965565,0.000000
163489.653922,-1036.288319,-8734.430116,-383.047749
163489.654242,-666.185348,-10584.944971,612.876398
163489.654562,740.205942,-9252.574275,1225.752797
163489.654881,1406.391290,-7254.018232,-1838.629195
163489.655201,-1776.494261,-8512.368333,612.876398
163489.655520,-74.020594,-7624.121203,-1838.629195
163489.655840,1702.473667,-11843.295072,-76.609550
163489.656160,1702.473667,-11843.295072,-76.609550
163489.656479,1184.329507,-11547.212695,-153.219100
163489.656799,-2368.659014,-12731.542202,-1225.752797
163489.657118,-1554.432478,-10807.006753,-1225.752797
163489.657438,74.020594,-10732.986159,153.219100
163489.657758,0.000000,-7772.162391,612.876398
163489.658077,2368.659014,-5403.503377,689.485948
163489.658397,814.226536,-7179.997637,0.000000
163489.658716,1184.329507,-7179.997637,1378.971896
163489.659036,1702.473667,-7402.059420,-612.876398
163489.659355,2294.638420,-10658.965565,-76.609550
163489.659675,-592.164754,-8956.491898,-919.314598
163489.659995,-2516.700203,-11177.109724,-1838.629195
163489.660314,-1998.556043,-12509.480420,-995.924147
163489.660634,-592.164754,-11695.253884,0.000000
163489.660953,-3404.947333,-9548.656652,1302.362347
163489.661273,-370.102971,-7105.977043,1149.143247
163489.661593,-3552.988522,-4811.338623,0.000000
163489.661912,-370.102971,-7105.977043,-76.609550
163489.662232,814.226536,-4737.318029,-689.485948
163489.662551,0.000000,-9548.656652,3064.381992
163489.662871,1036.288319,-9104.533087,-76.609550
163489.663191,-2590.720797,-9992.780217,-2757.943793
163489.663510,-3997.112087,-12953.603985,-1915.238745
163489.663830,-3404.947333,-9548.656652,-3677.258390
163489.664149,-592.164754,-11029.068536,1225.752797
163489.664469,1184.329507,-9548.656652,2451.505594
163489.664788,2072.576638,-7698.141797,0.000000
163489.665108,-74.020594,-9474.636058,-76.609550
163489.665428,0.000000,-4219.173869,-2451.505594
163489.665747,0.000000,-8142.265362,-1302.362347
163489.666067,1480.411884,-9770.718434,766.095498
163489.666386,518.144159,-9252.574275,-1608.800546
163489.666706,-1184.329507,-12509.480420,1072.533697
163489.667026,1702.473667,-11843.295072,-76.609550
163489.667345,0.000000,-11325.150913,459.657299
163489.667665,-74.020594,-10436.903782,1532.190996
163489.667984,-296.082377,-7179.997637,-1608.800546
163489.668304,-2220.617826,-9548.656652,-76.609550
163489.668624,-1776.494261,-4811.338623,-2451.505594
163489.668943,-2368.659014,-5403.503377,-2451.505594
163489.669263,0.000000,-8068.244768,306.438199
163489.669582,1110.308913,-8290.306550,-689.485948
163489.669902,-2146.597232,-10732.986159,-2221.676944
163489.670222,-74.020594,-13027.624579,-76.609550
163489.670541,-1702.473667,-11917.315666,0.000000
163489.670861,-740.205942,-12805.562797,1149.143247
163489.671180,0.000000,-7846.182985,-1532.190996
163489.671500,-2368.659014,-8364.327145,-1838.629195
163489.671819,-296.082377,-7476.080014,-612.876398
163489.672139,0.000000,-5699.585753,-3983.696590
163489.672459,0.000000,-8364.327145,0.000000
163489.672778,2664.741391,-8290.306550,-612.876398
163489.673098,-74.020594,-9326.594869,-2528.115143
163489.673417,1702.473667,-12731.542202,1608.800546
163489.673737,296.082377,-10658.965565,153.219100
163489.674057,-370.102971,-11769.274478,1532.190996
163489.674376,-370.102971,-8438.347739,229.828649
163489.674696,-296.082377,-10140.821405,-76.609550
163489.675015,-1702.473667,-9400.615463,-153.219100
163489.675335,-74.020594,-7105.977043,-689.485948
163489.675655,-962.267725,-7476.080014,-1225.752797
163489.675974,0.000000,-7179.997637,-1072.533697
163489.676294,-74.020594,-7698.141797,-4979.620737
163489.676613,-592.164754,-11769.274478,842.705048
163489.676933,148.041188,-9474.636058,76.609550
163489.677253,-444.123565,-12213.398043,1302.362347
163489.677572,-74.020594,-11251.130318,2068.457845
163489.677892,222.061783,-9770.718434,-229.828649
163489.678211,-296.082377,-11843.295072,-76.609550
163489.678531,-74.020594,-7105.977043,-2987.772442
163489.678850,-1480.411884,-8660.409521,-1915.238745
163489.679170,0.000000,-8364.327145,-2451.505594
163489.679490,222.061783,-6513.812290,-4060.306139
163489.679809,-666.185348,-11843.295072,0.000000
163489.680129,1628.453072,-10881.027347,0.000000
163489.680448,1628.453072,-11991.336260,2451.505594
163489.680768,3478.967927,-12731.542202,4213.525239
163489.681088,0.000000,-7179.997637,0.000000
163489.681407,-222.061783,-10955.047942,842.705048
163489.681727,-370.102971,-6735.874072,-1302.362347
163489.682046,-74.020594,-5773.606348,-1991.848295
163489.682366,0.000000,-7179.997637,766.095498
163489.682686,0.000000,-5995.668130,-2528.115143
163489.683005,-888.247130,-10955.047942,-689.485948
163489.683325,-518.144159,-10732.986159,229.828649
163489.683644,0.000000,-11251.130318,1225.752797
163489.683964,-666.185348,-11177.109724,1838.629195
163489.684283,-1628.453072,-7772.162391,0.000000
163489.684603,-1850.514855,-9474.636058,153.219100
