#time,accel_x,accel_y,accel_z
163556.021778,-2368.659014,-8364.327145,0.000000
163556.022098,-370.102971,-9474.636058,-76.609550
163556.022417,-962.267725,-8956.491898,0.000000
163556.022737,-814.226536,-9770.718434,-306.438199
163556.023056,-74.020594,-9474.636058,-1915.238745
163556.023376,-666.185348,-10066.800811,-383.047749
163556.023695,-1036.288319,-7624.121203,-2834.553343
163556.024015,0.000000,-9548.656652,0.000000
163556.024334,-74.020594,-10362.883188,-229.828649
163556.024654,0.000000,-9548.656652,1225.752797
163556.024974,-2072.576638,-7772.162391,-1225.752797
163556.025293,-74.020594,-9474.636058,-1149.143247
163556.025613,148.041188,-9548.656652,-689.485948
163556.025932,74.020594,-9474.636058,-766.095498
163556.026252,2294.638420,-9474.636058,-76.609550
163556.026571,296.082377,-9548.656652,1225.752797
163556.026891,-74.020594,-9474.636058,-689.485948
163556.027210,-1184.329507,-8364.327145,0.000000
163556.027530,0.000000,-7179.997637,0.000000
163556.027849,-1702.473667,-7179.997637,-2451.505594
163556.028169,222.061783,-9474.636058,612.876398
163556.028488,-370.102971,-8956.491898,0.000000
163556.028808,0.000000,-8882.471304,0.000000
163556.029127,-74.020594,-11843.295072,-76.609550
163556.029447,-74.020594,-9474.636058,-459.657299
163556.029767,-962.267725,-8882.471304,-689.485948
163556.030086,-1184.329507,-8364.327145,0.000000
163556.030406,592.164754,-11177.109724,1532.190996
163556.030725,-666.185348,-8882.471304,-1915.238745
163556.031045,-74.020594,-11103.089130,-76.609550
163556.031364,-888.247130,-8956.491898,-995.924147
163556.031684,-814.226536,-9326.594869,-995.924147
163556.032003,-296.082377,-9844.739029,-1149.143247
163556.032323,-2368.659014,-9548.656652,0.000000
163556.032642,-370.102971,-9252.574275,-766.095498
163556.032962,0.000000,-9548.656652,-766.095498
163556.033281,0.000000,-9326.594869,-612.876398
163556.033601,0.000000,-7772.162391,-1915.238745
163556.033920,1110.308913,-8290.306550,-153.219100
163556.034240,2294.638420,-9474.636058,-76.609550
163556.034560,0.000000,-8216.285956,-919.314598
163556.034879,0.000000,-7920.203579,-995.924147
163556.035199,1110.308913,-10510.924376,1915.238745
163556.035518,0.000000,-8364.327145,0.000000
163556.035838,148.041188,-9104.533087,229.828649
163556.036157,0.000000,-9252.574275,0.000000
163556.036477,74.020594,-9474.636058,612.876398
163556.036796,-666.185348,-9474.636058,0.000000
163556.037116,-1258.350101,-8734.430116,0.000000
163556.037435,-74.020594,-9474.636058,766.095498
163556.037755,-74.020594,-11547.212695,2068.457845
163556.038074,-74.020594,-9474.636058,-383.047749
163556.038394,0.000000,-9548.656652,1838.629195
163556.038713,-2220.617826,-8660.409521,-1225.752797
163556.039033,-814.226536,-9400.615463,-383.047749
163556.039353,-888.247130,-9252.574275,-842.705048
163556.039672,-740.205942,-9474.636058,-306.438199
163556.039992,-1258.350101,-8956.491898,-2834.553343
163556.040311,-370.102971,-9326.594869,-995.924147
163556.040631,0.000000,-9548.656652,0.000000
163556.040950,1702.473667,-9474.636058,-383.047749
163556.041270,-1036.288319,-8364.327145,0.000000
163556.041589,0.000000,-9548.656652,612.876398
163556.041909,-74.020594,-9326.594869,-689.485948
163556.042228,74.020594,-9326.594869,-153.219100
163556.042548,148.041188,-9326.594869,-153.219100
163556.042867,-1184.329507,-6883.915261,0.000000
163556.043187,-222.061783,-8438.347739,-76.609550
163556.043506,-74.020594,-8882.471304,-689.485948
163556.043826,0.000000,-8364.327145,0.000000
163556.044146,-74.020594,-8956.491898,0.000000
163556.044465,1998.556043,-11251.130318,2374.896044
163556.044785,-2072.576638,-8364.327145,0.000000
163556.045104,-74.020594,-8808.450710,-153.219100
163556.045424,518.144159,-8882.471304,612.876398
163556.045743,296.082377,-9178.553681,-306.438199
163556.046063,814.226536,-9474.636058,-612.876398
163556.046382,0.000000,-9548.656652,-612.876398
163556.046702,1110.308913,-10066.800811,-689.485948
163556.047021,0.000000,-8068.244768,-2528.115143
163556.047341,0.000000,-8364.327145,0.000000
163556.047660,3552.988522,-11769.274478,2068.457845
163556.047980,1924.535449,-8438.347739,0.000000
163556.048299,3478.967927,-9104.533087,-229.828649
163556.048619,4071.132681,-8956.491898,229.828649
163556.048939,4589.276840,-8586.388927,0.000000
163556.049258,4145.153275,-7772.162391,0.000000
163556.049578,4737.318029,-8660.409521,0.000000
163556.049897,7105.977043,-10881.027347,2298.286494
163556.050217,7031.956449,-10658.965565,-76.609550
163556.050536,5255.462188,-9474.636058,-689.485948
163556.050856,5329.482782,-11325.150913,306.438199
163556.051175,4959.379811,-9326.594869,-1072.533697
163556.051495,6217.729913,-9030.512492,-459.657299
163556.051814,7550.100608,-8586.388927,459.657299
163556.052134,5921.647536,-6291.750507,0.000000
163556.052453,6661.853478,-7920.203579,1762.019645
163556.052773,5255.462188,-8512.368333,-995.924147
163556.053092,4145.153275,-11621.233289,612.876398
163556.053412,2146.597232,-11843.295072,-1302.362347
163556.053732,2886.803174,-13915.871710,1762.019645
163556.054051,1924.535449,-11325.150913,919.314598
163556.054371,3108.864956,-8068.244768,1149.143247
163556.054690,4071.132681,-5699.585753,229.828649
163556.055010,3923.091493,-4737.318029,-1149.143247
163556.055329,3330.926739,-4145.153275,-2528.115143
163556.055649,4589.276840,-7105.977043,-1532.190996
163556.055968,4663.297435,-9178.553681,-2528.115143
163556.056288,2812.782580,-10066.800811,-3753.867940
163556.056607,592.164754,-13101.645173,-3064.381992
163556.056927,4071.132681,-18949.272115,-76.609550
163556.057246,1776.494261,-15470.304188,766.095498
163556.057566,3034.844362,-12805.562797,2757.943793
163556.057885,4145.153275,-8142.265362,2145.067394
163556.058205,2368.659014,-4811.338623,612.876398
163556.058525,1776.494261,-3034.844362,-1532.190996
163556.058844,2442.679609,-5699.585753,306.438199
163556.059164,2664.741391,-5995.668130,1225.752797
163556.059483,2294.638420,-8882.471304,995.924147
163556.059803,-74.020594,-10658.965565,-1302.362347
163556.060122,-1702.473667,-11843.295072,536.266849
163556.060442,-666.185348,-11103.089130,766.095498
163556.060761,2220.617826,-9918.759623,1685.410096
163556.061081,1628.453072,-9696.697840,766.095498
163556.061400,0.000000,-7772.162391,0.000000
163556.061720,0.000000,-9252.574275,229.828649
163556.062039,-74.020594,-7105.977043,-995.924147
163556.062359,-2368.659014,-5995.668130,-3064.381992
163556.062678,-1998.556043,-8956.491898,-4903.011187
163556.062998,-74.020594,-12435.459826,-4979.620737
163556.063318,-592.164754,-12805.562797,-1532.190996
163556.063637,444.123565,-12435.459826,1225.752797
163556.063957,0.000000,-10066.800811,766.095498
163556.064276,518.144159,-8364.327145,1915.238745
163556.064596,2590.720797,-6069.688724,-2068.457845
163556.064915,8808.450710,-9474.636058,4826.401637
163556.065235,8808.450710,-6883.915261,5898.935335
163556.065554,8142.265362,-5403.503377,5515.887586
163556.065874,6735.874072,-7994.224174,2374.896044
163556.066193,0.000000,-7772.162391,-6128.763984
163556.066513,-2442.679609,-12805.562797,-7431.126331
163556.066832,-2664.741391,-15174.221811,-4519.963438
163556.067152,-1036.288319,-14434.015869,-3677.258390
163556.067471,-2442.679609,-11695.253884,-5286.058936
163556.067791,1776.494261,-11843.295072,-919.314598
163556.068111,7105.977043,-8956.491898,2528.115143
163556.068430,10658.965565,-5995.668130,8580.269578
163556.068750,12879.583391,-3108.864956,10035.851024
163556.069069,4737.318029,1702.473667,3677.258390
163556.069389,4959.379811,-3849.070898,-995.924147
163556.069708,5551.544565,-9474.636058,459.657299
163556.070028,2960.823768,-12509.480420,919.314598
163556.070347,-2442.679609,-12805.562797,-2987.772442
163556.070667,-3627.009116,-16580.613101,-6205.373534
163556.070986,-5329.482782,-15174.221811,-10725.336972
163556.071306,148.041188,-15766.386565,-5362.668486
163556.071625,3552.988522,-11991.336260,-153.219100
163556.071945,4737.318029,-7179.997637,1838.629195
163556.072264,5329.482782,-5921.647536,2757.943793
163556.072584,8512.368333,-3997.112087,3294.210641
163556.072904,7254.018232,-3627.009116,5515.887586
163556.073223,8290.306550,-4811.338623,7354.516781
163556.073543,9400.615463,-5921.647536,6052.154434
163556.073862,8142.265362,-7920.203579,2911.162892
163556.074182,1184.329507,-9548.656652,-2451.505594
163556.074501,-3256.906145,-13693.809927,-5592.497135
163556.074821,-3849.070898,-15322.262999,-6511.811733
163556.075140,-2960.823768,-15026.180623,-5056.230287
163556.075460,-2368.659014,-13693.809927,-4443.353888
163556.075779,666.185348,-11695.253884,-1378.971896
163556.076099,4663.297435,-9474.636058,1149.143247
163556.076418,4885.359217,-5995.668130,3677.258390
163556.076738,9400.615463,-7105.977043,4826.401637
163556.077057,6069.688724,-3775.050304,4903.011187
163556.077377,4589.276840,-4367.215058,3294.210641
163556.077697,3182.885551,-6587.832884,1149.143247
163556.078016,1036.288319,-9992.780217,-76.609550
163556.078336,-2368.659014,-11917.315666,-3064.381992
163556.078655,-3034.844362,-12213.398043,-7354.516781
163556.078975,-3552.988522,-14285.974681,-4903.011187
163556.079294,-1258.350101,-14211.954086,-3753.867940
163556.079614,814.226536,-10140.821405,-3217.601092
163556.079933,7031.956449,-11251.130318,2374.896044
163556.080253,4885.359217,-6587.832884,2451.505594
163556.080572,5329.482782,-5403.503377,2757.943793
163556.080892,4959.379811,-5477.523971,3064.381992
163556.081211,2368.659014,-6291.750507,2451.505594
163556.081531,1184.329507,-9030.512492,995.924147
163556.081850,0.000000,-7179.997637,-2757.943793
163556.082170,-888.247130,-9622.677246,-3370.820191
163556.082490,-2368.659014,-10140.821405,-4290.134789
163556.082809,1998.556043,-11547.212695,-3140.991542
163556.083129,3923.091493,-13027.624579,842.705048
163556.083448,4515.256246,-9622.677246,1225.752797
163556.083768,4441.235652,-9548.656652,2374.896044
163556.084087,5033.400406,-8808.450710,4136.915689
163556.084407,5255.462188,-7031.956449,4519.963438
163556.084726,5181.441594,-7105.977043,4519.963438
163556.085046,2886.803174,-6439.791695,1455.581446
163556.085365,-2368.659014,-4811.338623,-3677.258390
163556.085685,-2368.659014,-9104.533087,-4596.572988
163556.086004,-74.020594,-11843.295072,-6205.373534
163556.086324,296.082377,-12583.501014,-4290.134789
163556.086643,814.226536,-12065.356855,-4213.525239
163556.086963,296.082377,-13693.809927,-1608.800546
163556.087283,3478.967927,-11917.315666,612.876398
163556.087602,4441.235652,-11029.068536,4290.134789
163556.087922,9030.512492,-9252.574275,5515.887586
163556.088241,10362.883188,-7179.997637,7354.516781
163556.088561,6735.874072,-3849.070898,3294.210641
163556.088880,1332.370696,-2442.679609,-1915.238745
163556.089200,4071.132681,-9474.636058,-1302.362347
163556.089520,1998.556043,-9844.739029,-2528.115143
163556.089839,2664.741391,-12509.480420,-2145.067394
163556.090159,296.082377,-11621.233289,-3447.429741
163556.090479,0.000000,-12509.480420,-1838.629195
163556.090799,0.000000,-11917.315666,0.000000
163556.091119,2442.679609,-7920.203579,153.219100
163556.091439,3552.988522,-7920.203579,3064.381992
163556.091758,2294.638420,-7105.977043,1762.019645
163556.092078,1628.453072,-6291.750507,-1225.752797
163556.092398,4367.215058,-6365.771101,2298.286494
163556.092718,5181.441594,-5847.626942,2681.334243
163556.093038,3997.112087,-7105.977043,459.657299
163556.093358,1776.494261,-9622.677246,-1838.629195
163556.093677,592.164754,-10732.986159,-2451.505594
163556.093997,2294.638420,-14211.954086,-2834.553343
163556.094317,-2368.659014,-10140.821405,-4519.963438
163556.094637,-2146.597232,-12657.521608,-4903.011187
163556.094957,-74.020594,-11843.295072,-1915.238745
163556.095277,1998.556043,-7772.162391,-3600.648841
163556.095597,4885.359217,-7994.224174,1838.629195
163556.095916,5403.503377,-7105.977043,3294.210641
163556.096236,6069.688724,-6661.853478,3830.477490
163556.096556,7031.956449,-8290.306550,4519.963438
163556.096876,4515.256246,-8882.471304,4060.306139
163556.097196,2886.803174,-7254.018232,0.000000
163556.097516,1776.494261,-9104.533087,-1608.800546
163556.097835,2368.659014,-10140.821405,0.000000
163556.098155,1184.329507,-9844.739029,-2451.505594
163556.098475,-74.020594,-10955.047942,-4213.525239
163556.098795,-962.267725,-12287.418637,-4136.915689
163556.099115,0.000000,-11917.315666,-1915.238745
163556.099435,592.164754,-9178.553681,-2298.286494
163556.099754,2294.638420,-10658.965565,3600.648841
163556.100074,4145.153275,-7476.080014,2834.553343
163556.100394,7846.182985,-8216.285956,8350.440928
163556.100714,7624.121203,-5329.482782,4060.306139
163556.101034,5329.482782,-5699.585753,3983.696590
163556.101354,1776.494261,-7179.997637,0.000000
163556.101674,-74.020594,-10288.862594,-1915.238745
163556.101993,-3552.988522,-11991.336260,-5286.058936
163556.102313,-6365.771101,-13175.665768,-7201.297681
163556.102633,-4811.338623,-14211.954086,-6511.811733
163556.102953,-2738.761985,-13397.727550,-4673.182538
163556.103273,-4737.318029,-11917.315666,-2451.505594
163556.103593,-370.102971,-11843.295072,995.924147
163556.103912,1406.391290,-8734.430116,4213.525239
163556.104232,3478.967927,-6809.894666,2374.896044
163556.104552,6439.791695,-4145.153275,4213.525239
163556.104872,5329.482782,-5699.585753,5745.716235
163556.105192,6661.853478,-4293.194464,6052.154434
163556.105512,1850.514855,-7402.059420,1762.019645
163556.105831,-2072.576638,-11029.068536,2604.724693
163556.106151,-7698.141797,-13397.727550,-4749.792088
163556.106471,-8660.409521,-14211.954086,-6511.811733
163556.106791,-10140.821405,-14211.954086,-7431.126331
163556.107111,-8956.491898,-11325.150913,-5286.058936
163556.107431,-2442.679609,-11547.212695,-689.485948
163556.107750,0.000000,-6587.832884,2298.286494
163556.108070,2886.803174,-6217.729913,4749.792088
163556.108390,2442.679609,-5551.544565,4903.011187
163556.108710,592.164754,-4293.194464,4903.011187
163556.109030,-3552.988522,-3627.009116,0.000000
163556.109350,-1554.432478,-7698.141797,766.095498
163556.109670,-2368.659014,-10732.986159,-1302.362347
163556.109989,-1554.432478,-11547.212695,-919.314598
163556.110309,-4219.173869,-13027.624579,-4979.620737
163556.110629,-3627.009116,-15396.283594,-3064.381992
163556.110949,-3923.091493,-13027.624579,-5592.497135
163556.111269,-4811.338623,-12435.459826,-4979.620737
163556.111589,-3108.864956,-11251.130318,-1915.238745
163556.111908,-1776.494261,-9548.656652,1838.629195
163556.112228,2590.720797,-4367.215058,2604.724693
163556.112548,4589.276840,-5477.523971,5286.058936
163556.112868,4811.338623,-5329.482782,5515.887586
163556.113188,2738.761985,-6513.812290,2528.115143
163556.113508,2442.679609,-7920.203579,3294.210641
163556.113827,-962.267725,-9474.636058,-1915.238745
163556.114147,-2368.659014,-12879.583391,-1915.238745
163556.114467,-888.247130,-14211.954086,-2528.115143
163556.114787,-370.102971,-13027.624579,-2834.553343
163556.115107,-2368.659014,-11029.068536,-2451.505594
163556.115427,-962.267725,-10732.986159,-2374.896044
163556.115746,888.247130,-9104.533087,76.609550
163556.116066,-296.082377,-6883.915261,306.438199
163556.116386,2220.617826,-6291.750507,2221.676944
163556.116706,4663.297435,-5181.441594,1762.019645
163556.117026,5773.606348,-5107.421000,4903.011187
163556.117346,2368.659014,-5403.503377,612.876398
163556.117666,4367.215058,-11547.212695,3370.820191
163556.117985,1702.473667,-11251.130318,-1302.362347
163556.118305,-4737.318029,-9548.656652,-3677.258390
163556.118625,-5033.400406,-13101.645173,-6511.811733
163556.118945,-3330.926739,-13323.706956,-4136.915689
163556.119265,1480.411884,-10807.006753,-2068.457845
163556.119585,3478.967927,-9178.553681,-689.485948
163556.119904,4663.297435,-9178.553681,2374.896044
163556.120224,4663.297435,-9474.636058,3600.648841
163556.120544,2590.720797,-4441.235652,2604.724693
163556.120864,1184.329507,-5995.668130,0.000000
163556.121184,1480.411884,-9252.574275,4826.401637
163556.121504,296.082377,-8660.409521,612.876398
163556.121823,3256.906145,-9622.677246,1991.848295
163556.122143,1110.308913,-10066.800811,-306.438199
163556.122463,-2294.638420,-11547.212695,-1302.362347
163556.122783,-2738.761985,-12435.459826,-2528.115143
163556.123103,-5329.482782,-11029.068536,-3677.258390
163556.123423,-4145.153275,-10436.903782,-2987.772442
163556.123742,-3552.988522,-11029.068536,-459.657299
163556.124062,-74.020594,-7698.141797,536.266849
163556.124382,1184.329507,-7179.997637,3370.820191
163556.124702,1110.308913,-7105.977043,3294.210641
163556.125022,0.000000,-7920.203579,689.485948
163556.125342,-1554.432478,-7476.080014,842.705048
163556.125662,-3627.009116,-7772.162391,-4213.525239
163556.125981,-3775.050304,-10807.006753,-2451.505594
163556.126301,-2368.659014,-11029.068536,-1225.752797
163556.126621,-2368.659014,-9548.656652,0.000000
163556.126941,222.061783,-10362.883188,-842.705048
163556.127261,-1850.514855,-11843.295072,-689.485948
163556.127581,-2368.659014,-9548.656652,-1532.190996
163556.127900,-4441.235652,-9104.533087,-2834.553343
163556.128220,-3701.029710,-8438.347739,0.000000
163556.128540,-74.020594,-9400.615463,0.000000
163556.128860,2590.720797,-5995.668130,459.657299
163556.129180,4367.215058,-6365.771101,4826.401637
163556.129500,4071.132681,-8290.306550,3600.648841
163556.129819,888.247130,-7550.100608,766.095498
163556.130139,-2664.741391,-8364.327145,-3524.039291
163556.130459,-3034.844362,-12287.418637,-842.705048
163556.130779,-6809.894666,-11917.315666,-3064.381992
163556.131099,-2072.576638,-10658.965565,-1378.971896
163556.131419,-518.144159,-9622.677246,-1455.581446
163556.131738,962.267725,-9252.574275,1455.581446
163556.132058,1702.473667,-7698.141797,-1608.800546
163556.132378,-222.061783,-9252.574275,1149.143247
163556.132698,-1258.350101,-9030.512492,-1302.362347
163556.133018,-2368.659014,-7179.997637,-2451.505594
163556.133338,0.000000,-9844.739029,1225.752797
163556.133658,5033.400406,-9474.636058,3600.648841
163556.133977,2146.597232,-8364.327145,612.876398
163556.134297,2220.617826,-11325.150913,2528.115143
163556.134617,2516.700203,-8512.368333,-1915.238745
163556.134937,-4737.318029,-9548.656652,-4903.011187
163556.135257,-4737.318029,-10140.821405,-5822.325785
163556.135577,-1258.350101,-13027.624579,-2681.334243
163556.135896,1406.391290,-9548.656652,0.000000
163556.136216,4737.318029,-8956.491898,0.000000
163556.136536,2664.741391,-10140.821405,2987.772442
163556.136856,3182.885551,-7105.977043,1608.800546
163556.137176,2812.782580,-8290.306550,2451.505594
163556.137496,296.082377,-6439.791695,-612.876398
163556.137815,592.164754,-9030.512492,2298.286494
163556.138135,3478.967927,-9474.636058,2068.457845
163556.138455,2886.803174,-11251.130318,-76.609550
163556.138775,1628.453072,-10140.821405,0.000000
163556.139095,-3034.844362,-11843.295072,-3294.210641
163556.139415,-4811.338623,-11843.295072,-2834.553343
163556.139735,-7105.977043,-8364.327145,-4903.011187
163556.140054,-3552.988522,-11695.253884,-1915.238745
163556.140374,-888.247130,-8956.491898,-689.485948
163556.140694,1258.350101,-7105.977043,1838.629195
163556.141014,3923.091493,-7402.059420,3064.381992
163556.141334,5847.626942,-6809.894666,1762.019645
163556.141654,2368.659014,-6809.894666,3600.648841
163556.141973,-74.020594,-8290.306550,-1302.362347
163556.142293,-3330.926739,-9548.656652,-2604.724693
163556.142613,-3552.988522,-11917.315666,-2451.505594
163556.142933,1110.308913,-11177.109724,1685.410096
163556.143253,-1036.288319,-9696.697840,-2221.676944
163556.143573,-74.020594,-13323.706956,2374.896044
163556.143892,-666.185348,-8660.409521,-2834.553343
163556.144212,-1258.350101,-8956.491898,0.000000
163556.144532,-2294.638420,-9400.615463,-1302.362347
163556.144852,-666.185348,-10732.986159,3447.429741
163556.145172,4071.132681,-7846.182985,4136.915689
163556.145492,2960.823768,-6143.709319,3677.258390
163556.145811,0.000000,-4293.194464,1838.629195
163556.146131,740.205942,-9548.656652,1302.362347
163556.146451,-3404.947333,-7179.997637,-2221.676944
163556.146771,-5181.441594,-11029.068536,-4366.744339
163556.147091,-8142.265362,-12435.459826,-3677.258390
163556.147411,-5477.523971,-10732.986159,-5975.544884
163556.147731,-1628.453072,-11843.295072,-1685.410096
163556.148050,0.000000,-9548.656652,-612.876398
163556.148370,1702.473667,-9474.636058,1149.143247
163556.148690,1702.473667,-8290.306550,2374.896044
163556.149010,0.000000,-5403.503377,0.000000
163556.149330,222.061783,-6957.935855,76.609550
163556.149650,518.144159,-9696.697840,536.266849
163556.149969,1406.391290,-9326.594869,2145.067394
163556.150289,1258.350101,-9178.553681,383.047749
163556.150609,2886.803174,-11843.295072,2374.896044
163556.150929,666.185348,-10955.047942,-842.705048
163556.151249,-370.102971,-10214.842000,-1302.362347
163556.151569,-1258.350101,-8882.471304,-4366.744339
163556.151888,-4737.318029,-9844.739029,-2451.505594
163556.152208,-74.020594,-9474.636058,-1302.362347
163556.152528,2368.659014,-8438.347739,1225.752797
163556.152848,3552.988522,-7994.224174,2451.505594
163556.153168,3404.947333,-9252.574275,3064.381992
163556.153488,2812.782580,-7179.997637,3294.210641
163556.153807,0.000000,-7179.997637,612.876398
163556.154127,-74.020594,-9400.615463,612.876398
163556.154447,-592.164754,-9548.656652,-1762.019645
163556.154767,-962.267725,-10584.944971,-459.657299
163556.155087,-1850.514855,-9474.636058,-3140.991542
163556.155407,-3775.050304,-10436.903782,-2757.943793
163556.155727,-74.020594,-11843.295072,-1608.800546
163556.156046,-1850.514855,-8290.306550,-1302.362347
163556.156366,-74.020594,-9326.594869,-2528.115143
163556.156686,-148.041188,-10288.862594,995.924147
163556.157006,1184.329507,-8364.327145,1838.629195
163556.157326,5403.503377,-7698.141797,2298.286494
163556.157646,4663.297435,-8216.285956,3983.696590
163556.157965,2738.761985,-8290.306550,919.314598
163556.158285,74.020594,-8660.409521,-1225.752797
163556.158605,-3182.885551,-9696.697840,-2604.724693
163556.158925,-3627.009116,-12435.459826,-689.485948
163556.159245,-666.185348,-11843.295072,-2528.115143
163556.159565,-1850.514855,-9474.636058,-1302.362347
163556.159884,592.164754,-9548.656652,3064.381992
163556.160204,1110.308913,-6809.894666,536.266849
163556.160524,1628.453072,-6291.750507,1149.143247
163556.160844,-1776.494261,-6809.894666,-1072.533697
163556.161164,-2886.803174,-8216.285956,-2145.067394
163556.161484,-3182.885551,-9548.656652,-3294.210641
163556.161803,-1628.453072,-10362.883188,1149.143247
163556.162123,-2368.659014,-9548.656652,0.000000
163556.162443,-74.020594,-11177.109724,1455.581446
163556.162763,444.123565,-9474.636058,-383.047749
163556.163083,-2368.659014,-9548.656652,0.000000
163556.163403,-3034.844362,-9918.759623,-1991.848295
163556.163723,-2590.720797,-11029.068536,-1455.581446
163556.164042,-666.185348,-8882.471304,919.314598
163556.164362,-1554.432478,-5995.668130,-2298.286494
163556.164682,1110.308913,-9474.636058,2068.457845
163556.165002,370.102971,-6735.874072,-1608.800546
163556.165322,0.000000,-8364.327145,1225.752797
163556.165642,-4145.153275,-7772.162391,-3064.381992
163556.165961,-1258.350101,-14211.954086,-76.609550
163556.166281,-2368.659014,-9844.739029,-1532.190996
163556.166601,-1036.288319,-9918.759623,-995.924147
163556.166921,74.020594,-9770.718434,0.000000
163556.167241,1036.288319,-9992.780217,76.609550
163556.167561,3627.009116,-7772.162391,1838.629195
163556.167880,1628.453072,-7994.224174,-76.609550
163556.168200,1036.288319,-9178.553681,1532.190996
163556.168520,2294.638420,-11251.130318,-76.609550
163556.168840,1702.473667,-8142.265362,1149.143247
163556.169160,2294.638420,-11843.295072,2374.896044
163556.169480,-888.247130,-10881.027347,766.095498
163556.169799,-370.102971,-9178.553681,-1532.190996
163556.170119,-1258.350101,-9992.780217,-842.705048
163556.170439,-2368.659014,-8364.327145,-2451.505594
163556.170759,-2960.823768,-8364.327145,-3064.381992
163556.171079,0.000000,-7772.162391,-2451.505594
163556.171399,-1184.329507,-9252.574275,-919.314598
163556.171719,-74.020594,-9474.636058,-76.609550
163556.172038,1702.473667,-9474.636058,-689.485948
163556.172358,2294.638420,-8808.450710,1378.971896
163556.172678,-518.144159,-7772.162391,-2221.676944
163556.172998,-1332.370696,-9622.677246,-459.657299
163556.173318,-518.144159,-10732.986159,-1915.238745
163556.173638,0.000000,-7772.162391,0.000000
163556.173957,-1184.329507,-10362.883188,-689.485948
163556.174277,1110.308913,-10658.965565,76.609550
163556.174597,1184.329507,-7476.080014,0.000000
163556.174917,0.000000,-8364.327145,612.876398
163556.175237,2294.638420,-8882.471304,-76.609550
163556.175557,-592.164754,-8956.491898,0.000000
163556.175876,296.082377,-8438.347739,229.828649
163556.176196,-1036.288319,-9696.697840,-1532.190996
163556.176516,-1850.514855,-9844.739029,2374.896044
163556.176836,-74.020594,-7698.141797,-536.266849
163556.177156,-74.020594,-10066.800811,-76.609550
163556.177476,-1628.453072,-8882.471304,-1915.238745
163556.177796,-2886.803174,-9770.718434,-2221.676944
163556.178115,-1184.329507,-8364.327145,0.000000
163556.178435,-74.020594,-9474.636058,-383.047749
163556.178755,-592.164754,-9696.697840,995.924147
163556.179075,-222.061783,-9548.656652,0.000000
163556.179395,740.205942,-7772.162391,995.924147
163556.179715,-1184.329507,-8364.327145,-1225.752797
163556.180034,-2960.823768,-8364.327145,-1072.533697
163556.180354,-370.102971,-10066.800811,-612.876398
163556.180674,2294.638420,-10658.965565,-76.609550
163556.180994,-1036.288319,-8956.491898,-2834.553343
163556.181314,-2442.679609,-9770.718434,-2528.115143
163556.181634,-74.020594,-10214.842000,-76.609550
163556.181953,-740.205942,-10140.821405,0.000000
163556.182273,888.247130,-8808.450710,689.485948
163556.182593,1036.288319,-9252.574275,842.705048
163556.182913,2368.659014,-7772.162391,4903.011187
163556.183233,2590.720797,-6587.832884,0.000000
163556.183553,1184.329507,-9252.574275,3064.381992
163556.183872,1110.308913,-8882.471304,-995.924147
163556.184192,-2442.679609,-8882.471304,-1302.362347
163556.184512,-888.247130,-12435.459826,-76.609550
163556.184832,-2442.679609,-11399.171507,-1532.190996
163556.185152,-1258.350101,-10436.903782,-536.266849
163556.185472,-2146.597232,-10066.800811,-612.876398
163556.185792,-2960.823768,-9548.656652,0.000000
163556.186111,-74.020594,-8808.450710,-612.876398
163556.186431,1702.473667,-8882.471304,842.705048
163556.186751,-2220.617826,-7254.018232,-1225.752797
163556.187071,0.000000,-7179.997637,1225.752797
163556.187391,2368.659014,-10732.986159,2374.896044
163556.187711,0.000000,-8364.327145,0.000000
163556.188030,-2220.617826,-10288.862594,-2298.286494
163556.188350,-2146.597232,-11399.171507,-1149.143247
163556.188670,0.000000,-10732.986159,-2987.772442
163556.188990,-74.020594,-11251.130318,-2528.115143
163556.189309,592.164754,-9474.636058,-76.609550
163556.189629,2072.576638,-9548.656652,459.657299
163556.189949,2738.761985,-7402.059420,1072.533697
163556.190268,1776.494261,-9030.512492,536.266849
163556.190588,592.164754,-9104.533087,2681.334243
163556.190908,222.061783,-8438.347739,0.000000
163556.191227,0.000000,-8364.327145,2451.505594
163556.191547,0.000000,-8808.450710,0.000000
163556.191867,-74.020594,-10658.965565,-76.609550
163556.192186,0.000000,-7772.162391,-1225.752797
163556.192506,0.000000,-7772.162391,-2528.115143
163556.192826,-1110.308913,-10066.800811,-766.095498
163556.193145,-3330.926739,-10362.883188,-1532.190996
163556.193465,-74.020594,-10066.800811,-229.828649
163556.193785,-2368.659014,-8512.368333,-2451.505594
163556.194105,0.000000,-9770.718434,995.924147
163556.194424,-74.020594,-9474.636058,-76.609550
163556.194744,1110.308913,-7994.224174,842.705048
163556.195064,0.000000,-7179.997637,0.000000
163556.195383,-666.185348,-8882.471304,229.828649
163556.195703,148.041188,-9030.512492,-766.095498
163556.196023,-1628.453072,-9548.656652,-383.047749
163556.196342,-444.123565,-8956.491898,-1378.971896
163556.196662,-74.020594,-10658.965565,-1302.362347
163556.196982,-888.247130,-10732.986159,-459.657299
163556.197301,-1258.350101,-11621.233289,-1225.752797
163556.197621,444.123565,-11917.315666,1532.190996
163556.197941,-74.020594,-10658.965565,-76.609550
163556.198260,-2368.659014,-7179.997637,0.000000
163556.198580,-74.020594,-8438.347739,-1302.362347
163556.198900,518.144159,-10214.842000,2451.505594
163556.199219,814.226536,-8956.491898,842.705048
163556.199539,-666.185348,-8882.471304,1149.143247
163556.199859,-74.020594,-9474.636058,-76.609550
163556.200179,-1258.350101,-9474.636058,-689.485948
163556.200498,-2368.659014,-7179.997637,0.000000
163556.200818,-2960.823768,-9844.739029,-1762.019645
163556.201138,-1332.370696,-10510.924376,1149.143247
163556.201457,-4441.235652,-7772.162391,-2451.505594
163556.201777,-74.020594,-8882.471304,459.657299
163556.202097,-814.226536,-9326.594869,-1532.190996
163556.202416,-296.082377,-9844.739029,995.924147
163556.202736,2294.638420,-9474.636058,-76.609550
163556.203056,592.164754,-8956.491898,919.314598
163556.203375,1110.308913,-9178.553681,-689.485948
163556.203695,0.000000,-9474.636058,229.828649
163556.204015,1702.473667,-6957.935855,0.000000
163556.204334,0.000000,-10140.821405,612.876398
163556.204654,-1628.453072,-9548.656652,0.000000
163556.204974,-740.205942,-9918.759623,-2528.115143
163556.205293,-222.061783,-9548.656652,612.876398
163556.205613,0.000000,-9104.533087,-1225.752797
163556.205933,222.061783,-8956.491898,383.047749
163556.206253,888.247130,-7772.162391,306.438199
163556.206572,2886.803174,-9474.636058,1225.752797
163556.206892,3330.926739,-11843.295072,1149.143247
163556.207212,-1258.350101,-9770.718434,383.047749
163556.207531,-2368.659014,-7772.162391,0.000000
163556.207851,-2442.679609,-10066.800811,-2451.505594
163556.208171,-666.185348,-10288.862594,-919.314598
163556.208490,-444.123565,-10140.821405,-76.609550
163556.208810,370.102971,-7179.997637,536.266849
163556.209130,-74.020594,-7105.977043,-2528.115143
163556.209449,-2072.576638,-9178.553681,-1302.362347
163556.209769,-4737.318029,-7772.162391,-3370.820191
163556.210089,-1850.514855,-10066.800811,-536.266849
163556.210408,-2442.679609,-10066.800811,-76.609550
163556.210728,-4145.153275,-8956.491898,-1838.629195
163556.211048,0.000000,-9326.594869,-766.095498
163556.211367,1258.350101,-10066.800811,612.876398
163556.211687,2886.803174,-10066.800811,2451.505594
163556.212007,2294.638420,-8142.265362,1455.581446
163556.212327,2294.638420,-8882.471304,2834.553343
163556.212646,-666.185348,-8734.430116,-2528.115143
163556.212966,-2664.741391,-9400.615463,-1149.143247
163556.213286,0.000000,-8364.327145,0.000000
163556.213605,2072.576638,-11251.130318,5439.278036
163556.213925,1110.308913,-7698.141797,612.876398
163556.214245,-444.123565,-10140.821405,76.609550
163556.214564,-814.226536,-8438.347739,-842.705048
163556.214884,-2590.720797,-9252.574275,-2451.505594
163556.215204,-1332.370696,-9770.718434,-1532.190996
163556.215523,-592.164754,-10955.047942,612.876398
163556.215843,3478.967927,-9770.718434,3677.258390
163556.216163,1998.556043,-7994.224174,-689.485948
163556.216482,-1628.453072,-9474.636058,1762.019645
163556.216802,-2368.659014,-8956.491898,-612.876398
163556.217122,-2812.782580,-9104.533087,-1149.143247
163556.217441,-2664.741391,-8956.491898,-3524.039291
163556.217761,-2368.659014,-10732.986159,-766.095498
163556.218081,0.000000,-7476.080014,-2451.505594
163556.218401,1998.556043,-8586.388927,0.000000
163556.218720,1480.411884,-7476.080014,-1455.581446
163556.219040,0.000000,-8364.327145,-1225.752797
163556.219360,-1998.556043,-10436.903782,-76.609550
163556.219679,-666.185348,-13027.624579,-1915.238745
163556.219999,-2664.741391,-10881.027347,0.000000
163556.220319,0.000000,-9252.574275,-383.047749
163556.220638,2664.741391,-8660.409521,1608.800546
163556.220958,2664.741391,-8216.285956,1149.143247
163556.221278,444.123565,-6809.894666,76.609550
163556.221597,518.144159,-8290.306550,-76.609550
163556.221917,-3478.967927,-7772.162391,-1532.190996
163556.222237,-3552.988522,-8660.409521,-1838.629195
163556.222556,-1332.370696,-11917.315666,2068.457845
163556.222876,592.164754,-7772.162391,2451.505594
163556.223196,1480.411884,-9030.512492,76.609550
163556.223515,444.123565,-9400.615463,1225.752797
163556.223835,-2072.576638,-8660.409521,-2528.115143
163556.224155,-3923.091493,-7846.182985,-1915.238745
163556.224475,-3775.050304,-9104.533087,-3830.477490
163556.224794,-1776.494261,-10436.903782,-306.438199
163556.225114,2146.597232,-9030.512492,2374.896044
163556.225434,4071.132681,-8290.306550,1149.143247
163556.225753,0.000000,-6587.832884,0.000000
163556.226073,-74.020594,-9474.636058,-383.047749
163556.226393,-1480.411884,-8512.368333,-1455.581446
163556.226712,-3256.906145,-8956.491898,-3140.991542
163556.227032,-1554.432478,-10732.986159,-1302.362347
163556.227352,2294.638420,-13027.624579,-76.609550
163556.227671,2072.576638,-8956.491898,1838.629195
163556.227991,2220.617826,-8660.409521,229.828649
163556.228311,1480.411884,-10140.821405,229.828649
163556.228630,-370.102971,-8882.471304,-1838.629195
163556.228950,-4737.318029,-7179.997637,-2451.505594
163556.229270,-1258.350101,-9474.636058,-1608.800546
163556.229589,-814.226536,-9548.656652,0.000000
163556.229909,2960.823768,-8512.368333,0.000000
163556.230229,1258.350101,-9474.636058,1762.019645
163556.230549,2960.823768,-11251.130318,3600.648841
163556.230868,-1480.411884,-8956.491898,-536.266849
163556.231188,-2590.720797,-8586.388927,-306.438199
163556.231508,-3923.091493,-8882.471304,-3370.820191
163556.231827,-4737.318029,-9844.739029,-153.219100
163556.232147,296.082377,-9252.574275,76.609550
163556.232467,1406.391290,-8438.347739,229.828649
163556.232786,592.164754,-7328.038826,-842.705048
163556.233106,-1776.494261,-7920.203579,-1838.629195
163556.233426,-74.020594,-9474.636058,-76.609550
163556.233745,-3404.947333,-9992.780217,-2604.724693
163556.234065,-3701.029710,-10732.986159,-612.876398
163556.234385,222.061783,-10436.903782,-536.266849
163556.234704,3997.112087,-7698.141797,2145.067394
163556.235024,1480.411884,-7328.038826,1685.410096
163556.235344,-1184.329507,-9030.512492,995.924147
163556.235663,-74.020594,-9474.636058,-76.609550
163556.235983,-1554.432478,-10362.883188,-766.095498
163556.236303,-2072.576638,-8956.491898,-2374.896044
163556.236622,-74.020594,-11843.295072,-76.609550
163556.236942,3330.926739,-8956.491898,2911.162892
163556.237262,3775.050304,-8290.306550,1685.410096
163556.237582,2812.782580,-8364.327145,2451.505594
163556.237901,0.000000,-8364.327145,76.609550
163556.238221,-2960.823768,-8364.327145,0.000000
163556.238541,-5329.482782,-9548.656652,-2451.505594
163556.238860,-3552.988522,-12213.398043,306.438199
163556.239180,-74.020594,-10658.965565,-76.609550
163556.239500,1110.308913,-6365.771101,1149.143247
163556.239819,3923.091493,-9178.553681,1455.581446
163556.240139,-888.247130,-9252.574275,0.000000
163556.240459,-1110.308913,-7772.162391,-842.705048
163556.240778,-4219.173869,-9104.533087,-3140.991542
163556.241098,-5921.647536,-8364.327145,-3677.258390
163556.241418,-3034.844362,-9918.759623,-2911.162892
163556.241737,0.000000,-9696.697840,306.438199
163556.242057,3182.885551,-10584.944971,1225.752797
163556.242377,2886.803174,-11843.295072,2374.896044
163556.242696,-74.020594,-8290.306550,-2528.115143
163556.243016,-1332.370696,-10436.903782,-383.047749
163556.243336,-518.144159,-9400.615463,-1378.971896
163556.243656,370.102971,-10436.903782,536.266849
163556.243975,2590.720797,-8216.285956,1149.143247
163556.244295,2220.617826,-9104.533087,2374.896044
163556.244615,3478.967927,-8882.471304,1762.019645
163556.244934,-1110.308913,-8882.471304,-1608.800546
163556.245254,-4145.153275,-7772.162391,-2298.286494
163556.245574,-4737.318029,-9548.656652,-4903.011187
163556.245893,-1554.432478,-10362.883188,-1302.362347
163556.246213,74.020594,-9844.739029,0.000000
163556.246533,888.247130,-10140.821405,2068.457845
163556.246852,1406.391290,-8216.285956,1608.800546
163556.247172,1998.556043,-9178.553681,4443.353888
163556.247492,1184.329507,-8364.327145,1991.848295
163556.247811,-2368.659014,-8364.327145,0.000000
163556.248131,-2442.679609,-9474.636058,-689.485948
163556.248451,-3849.070898,-10436.903782,-1532.190996
163556.248770,-1332.370696,-7328.038826,-3064.381992
163556.249090,1110.308913,-10658.965565,-1915.238745
163556.249410,-592.164754,-10436.903782,306.438199
163556.249730,-962.267725,-9178.553681,-2298.286494
163556.250049,-1776.494261,-9918.759623,-1302.362347
163556.250369,-592.164754,-10140.821405,-1838.629195
163556.250689,-3552.988522,-8364.327145,0.000000
163556.251008,2368.659014,-9474.636058,2451.505594
163556.251328,4071.132681,-9030.512492,3677.258390
163556.251648,4663.297435,-9474.636058,2987.772442
163556.251967,0.000000,-5995.668130,0.000000
163556.252287,740.205942,-8068.244768,842.705048
163556.252607,-1776.494261,-9474.636058,-2451.505594
163556.252926,-2368.659014,-10140.821405,-1991.848295
163556.253246,-1850.514855,-12435.459826,-1302.362347
163556.253566,0.000000,-12435.459826,2068.457845
163556.253885,1702.473667,-9104.533087,-766.095498
163556.254205,0.000000,-9474.636058,-76.609550
163556.254525,-2368.659014,-6587.832884,-1838.629195
163556.254844,-2960.823768,-8660.409521,0.000000
163556.255164,-1554.432478,-7402.059420,0.000000
163556.255484,-1406.391290,-8808.450710,459.657299
163556.255804,1184.329507,-7846.182985,1915.238745
163556.256123,1110.308913,-8660.409521,-153.219100
163556.256443,3182.885551,-10658.965565,2374.896044
163556.256763,-444.123565,-10436.903782,-1455.581446
163556.257082,-1258.350101,-11843.295072,-76.609550
163556.257402,-2738.761985,-10658.965565,-4673.182538
163556.257722,-3256.906145,-11917.315666,-2068.457845
163556.258041,-2368.659014,-8364.327145,0.000000
163556.258361,1554.432478,-9178.553681,536.266849
163556.258681,2738.761985,-8216.285956,995.924147
163556.259000,2220.617826,-8734.430116,1532.190996
163556.259320,2516.700203,-8660.409521,1149.143247
163556.259640,2072.576638,-9474.636058,1455.581446
163556.259959,-1776.494261,-7179.997637,1532.190996
163556.260279,1110.308913,-10658.965565,842.705048
163556.260599,1110.308913,-9474.636058,-76.609550
163556.260918,-74.020594,-9474.636058,-2145.067394
163556.261238,-666.185348,-10658.965565,-76.609550
163556.261558,0.000000,-10288.862594,-1762.019645
163556.261878,-2812.782580,-9252.574275,-1455.581446
163556.262197,-3256.906145,-8438.347739,-2298.286494
163556.262517,-2664.741391,-11029.068536,-76.609550
163556.262837,518.144159,-9474.636058,229.828649
163556.263156,1110.308913,-8882.471304,536.266849
163556.263476,1776.494261,-7179.997637,919.314598
163556.263796,1776.494261,-7476.080014,2145.067394
163556.264115,4663.297435,-9474.636058,3600.648841
163556.264435,-1184.329507,-9252.574275,-995.924147
163556.264755,-3330.926739,-11177.109724,-612.876398
163556.265074,-2664.741391,-10510.924376,-2145.067394
163556.265394,-2220.617826,-11177.109724,-1532.190996
163556.265714,-3849.070898,-7772.162391,-4903.011187
163556.266033,-2442.679609,-10881.027347,-1608.800546
163556.266353,-1776.494261,-9400.615463,-383.047749
163556.266673,-1702.473667,-8216.285956,-1149.143247
163556.266992,-1258.350101,-8290.306550,1149.143247
163556.267312,2294.638420,-11251.130318,2068.457845
163556.267632,3552.988522,-10066.800811,3983.696590
163556.267952,2294.638420,-9178.553681,1149.143247
163556.268271,1184.329507,-8364.327145,1225.752797
163556.268591,1480.411884,-9252.574275,0.000000
163556.268911,-2368.659014,-7476.080014,-1225.752797
163556.269230,-518.144159,-10881.027347,-1532.190996
163556.269550,-2664.741391,-12065.356855,-1302.362347
163556.269870,-444.123565,-10510.924376,-1225.752797
163556.270189,-74.020594,-9474.636058,-1378.971896
163556.270509,1110.308913,-8882.471304,229.828649
163556.270829,148.041188,-9104.533087,153.219100
163556.271148,888.247130,-8364.327145,2757.943793
163556.271468,-74.020594,-9178.553681,-689.485948
163556.271788,-2368.659014,-7772.162391,1225.752797
163556.272107,-74.020594,-8068.244768,-1455.581446
163556.272427,-370.102971,-9474.636058,919.314598
163556.272747,814.226536,-8290.306550,-612.876398
163556.273066,-1480.411884,-9770.718434,0.000000
163556.273386,1998.556043,-9030.512492,-1915.238745
163556.273706,-2368.659014,-8660.409521,-2451.505594
163556.274026,-4441.235652,-9548.656652,0.000000
163556.274345,-2072.576638,-11103.089130,-919.314598
163556.274665,1406.391290,-9474.636058,2068.457845
163556.274985,296.082377,-5995.668130,612.876398
163556.275304,2146.597232,-8290.306550,2451.505594
163556.275624,1628.453072,-8512.368333,306.438199
163556.275944,-962.267725,-8586.388927,-153.219100
163556.276263,-2442.679609,-7698.141797,-2528.115143
163556.276583,-1258.350101,-10066.800811,-76.609550
163556.276903,2294.638420,-10658.965565,-76.609550
163556.277222,0.000000,-8364.327145,0.000000
163556.277542,740.205942,-9548.656652,0.000000
163556.277862,1850.514855,-10881.027347,3140.991542
163556.278181,0.000000,-7179.997637,306.438199
163556.278501,-2146.597232,-9696.697840,-2221.676944
163556.278821,-2442.679609,-9696.697840,-536.266849
163556.279140,-2442.679609,-10510.924376,-3447.429741
163556.279460,-74.020594,-11251.130318,842.705048
163556.279780,0.000000,-9400.615463,-612.876398
163556.280100,-370.102971,-10066.800811,1149.143247
163556.280419,0.000000,-8734.430116,-1302.362347
163556.280739,-2368.659014,-8364.327145,-1991.848295
163556.281059,-888.247130,-10732.986159,766.095498
163556.281378,-2294.638420,-9992.780217,-995.924147
163556.281698,370.102971,-9400.615463,229.828649
163556.282018,2146.597232,-8512.368333,229.828649
163556.282337,2072.576638,-8512.368333,1225.752797
163556.282657,518.144159,-7179.997637,-1762.019645
163556.282977,0.000000,-7772.162391,459.657299
163556.283296,-1036.288319,-10140.821405,306.438199
163556.283616,-74.020594,-12435.459826,-76.609550
163556.283936,814.226536,-10066.800811,-76.609550
163556.284255,0.000000,-9548.656652,2451.505594
163556.284575,1110.308913,-8956.491898,153.219100
163556.284895,888.247130,-9474.636058,0.000000
163556.285214,1258.350101,-8734.430116,842.705048
163556.285534,-3330.926739,-6883.915261,-3600.648841
163556.285854,-1258.350101,-9326.594869,-76.609550
163556.286174,-1850.514855,-8660.409521,-2068.457845
163556.286493,296.082377,-8660.409521,1225.752797
163556.286813,-148.041188,-8142.265362,-76.609550
163556.287133,-74.020594,-10658.965565,-383.047749
163556.287452,-2072.576638,-8956.491898,-2451.505594
163556.287772,-2812.782580,-9622.677246,-2451.505594
163556.288092,-2960.823768,-9548.656652,-2451.505594
163556.288411,-2072.576638,-11621.233289,-1685.410096
163556.288731,0.000000,-8364.327145,-1455.581446
163556.289051,3182.885551,-9474.636058,-76.609550
163556.289370,0.000000,-8660.409521,1532.190996
163556.289690,2368.659014,-8364.327145,0.000000
163556.290010,2368.659014,-6587.832884,1225.752797
163556.290330,3478.967927,-8882.471304,-76.609550
163556.290649,-1184.329507,-9548.656652,1225.752797
163556.290969,-296.082377,-10214.842000,-76.609550
163556.291289,-814.226536,-8956.491898,-459.657299
163556.291608,-1776.494261,-9252.574275,153.219100
163556.291928,-2590.720797,-10732.986159,612.876398
163556.292248,1110.308913,-10066.800811,995.924147
163556.292567,-370.102971,-9474.636058,-76.609550
163556.292887,-1850.514855,-8290.306550,-383.047749
163556.293207,-2590.720797,-7772.162391,-2451.505594
163556.293526,1702.473667,-10658.965565,2068.457845
163556.293846,-592.164754,-8660.409521,-919.314598
163556.294166,-2590.720797,-11029.068536,766.095498
163556.294486,-740.205942,-8660.409521,-2068.457845
163556.294805,-2368.659014,-8364.327145,0.000000
163556.295125,0.000000,-10214.842000,-1072.533697
163556.295445,-2368.659014,-9548.656652,0.000000
163556.295764,1924.535449,-10658.965565,1378.971896
163556.296084,1628.453072,-10066.800811,-76.609550
163556.296404,2294.638420,-8290.306550,-1608.800546
163556.296723,-74.020594,-9474.636058,-76.609550
163556.297043,0.000000,-7179.997637,76.609550
163556.297363,-296.082377,-8956.491898,-2221.676944
163556.297683,592.164754,-9992.780217,-76.609550
163556.298002,0.000000,-8364.327145,0.000000
163556.298322,-2368.659014,-7179.997637,0.000000
163556.298642,0.000000,-10140.821405,-919.314598
163556.298961,-370.102971,-11251.130318,-76.609550
163556.299281,2294.638420,-9474.636058,-76.609550
163556.299601,-74.020594,-10658.965565,1149.143247
163556.299920,0.000000,-8438.347739,766.095498
163556.300240,-296.082377,-9104.533087,995.924147
163556.300560,2072.576638,-7105.977043,2911.162892
163556.300880,0.000000,-5403.503377,0.000000
163556.301199,-888.247130,-8660.409521,919.314598
163556.301519,-666.185348,-9474.636058,-1915.238745
163556.301839,-3034.844362,-9474.636058,-1302.362347
163556.302158,-3552.988522,-7772.162391,-3370.820191
163556.302478,-1776.494261,-12509.480420,766.095498
163556.302798,0.000000,-10140.821405,-1225.752797
163556.303117,-1258.350101,-9400.615463,-1455.581446
163556.303437,-296.082377,-10362.883188,919.314598
163556.303757,-296.082377,-9548.656652,-1225.752797
163556.304077,2294.638420,-7698.141797,-76.609550
163556.304396,0.000000,-8660.409521,-766.095498
163556.304716,148.041188,-8068.244768,1149.143247
163556.305036,888.247130,-8808.450710,-995.924147
163556.305355,1702.473667,-10362.883188,3524.039291
163556.305675,1184.329507,-10140.821405,-689.485948
163556.305995,-2368.659014,-9844.739029,612.876398
163556.306314,1110.308913,-10362.883188,-1302.362347
163556.306634,-74.020594,-12435.459826,1149.143247
163556.306954,0.000000,-7179.997637,-3064.381992
163556.307273,1702.473667,-9474.636058,-76.609550
163556.307593,1184.329507,-8956.491898,995.924147
163556.307913,0.000000,-8956.491898,-1915.238745
163556.308233,-1184.329507,-10288.862594,689.485948
163556.308552,0.000000,-9474.636058,536.266849
163556.308872,-1184.329507,-8068.244768,919.314598
163556.309192,0.000000,-7476.080014,0.000000
163556.309511,740.205942,-8956.491898,2451.505594
163556.309831,3182.885551,-8882.471304,1149.143247
163556.310151,-666.185348,-6809.894666,-3064.381992
163556.310470,-814.226536,-10510.924376,-383.047749
163556.310790,-3701.029710,-10955.047942,-2987.772442
163556.311110,-1776.494261,-10066.800811,-1378.971896
163556.311430,-2664.741391,-10362.883188,-2681.334243
163556.311749,1628.453072,-11251.130318,-76.609550
163556.312069,2294.638420,-8438.347739,842.705048
163556.312389,1702.473667,-5625.565159,-689.485948
163556.312708,-1776.494261,-8364.327145,-2451.505594
163556.313028,-2368.659014,-10288.862594,0.000000
163556.313348,-2442.679609,-6957.935855,-3677.258390
163556.313667,-1628.453072,-9474.636058,1072.533697
163556.313987,-222.061783,-8956.491898,-1455.581446
163556.314307,444.123565,-10732.986159,76.609550
163556.314627,4663.297435,-10658.965565,2987.772442
163556.314946,3330.926739,-10732.986159,0.000000
163556.315266,0.000000,-9844.739029,1225.752797
163556.315586,-74.020594,-11251.130318,842.705048
163556.315905,1480.411884,-10140.821405,4213.525239
163556.316225,-2368.659014,-5995.668130,-2451.505594
163556.316545,-1258.350101,-8586.388927,536.266849
163556.316864,-1258.350101,-8142.265362,-306.438199
163556.317184,-1850.514855,-8438.347739,76.609550
163556.317504,-1924.535449,-8882.471304,-1685.410096
163556.317824,-3552.988522,-9918.759623,-995.924147
163556.318143,-3997.112087,-9548.656652,-1685.410096
163556.318463,-4441.235652,-9104.533087,-1838.629195
163556.318783,-1184.329507,-8660.409521,612.876398
163556.319102,-74.020594,-9474.636058,-689.485948
163556.319422,0.000000,-5995.668130,0.000000
163556.319742,1406.391290,-9326.594869,153.219100
163556.320061,74.020594,-9104.533087,1225.752797
163556.320381,0.000000,-9252.574275,-842.705048
163556.320701,-444.123565,-9474.636058,-76.609550
163556.321020,3108.864956,-9474.636058,-76.609550
163556.321340,2294.638420,-9918.759623,842.705048
163556.321660,1184.329507,-7179.997637,0.000000
163556.321980,0.000000,-10140.821405,0.000000
163556.322299,296.082377,-9696.697840,612.876398
163556.322619,-3256.906145,-7772.162391,-3370.820191
163556.322939,-1998.556043,-9622.677246,-459.657299
163556.323258,-1406.391290,-9178.553681,-995.924147
163556.323578,74.020594,-8438.347739,1455.581446
163556.323898,4663.297435,-9474.636058,2374.896044
163556.324217,4071.132681,-8882.471304,1225.752797
163556.324537,3478.967927,-10658.965565,-76.609550
163556.324857,-4145.153275,-9548.656652,-2145.067394
163556.325177,-2664.741391,-10510.924376,-1838.629195
163556.325496,-5625.565159,-9548.656652,-2451.505594
163556.325816,-3034.844362,-9992.780217,-2374.896044
163556.326136,-1406.391290,-9844.739029,-1838.629195
163556.326455,1702.473667,-8734.430116,2068.457845
163556.326775,2886.803174,-8512.368333,0.000000
163556.327095,2738.761985,-10658.965565,2604.724693
163556.327414,-2368.659014,-7179.997637,-1225.752797
163556.327734,-2516.700203,-9178.553681,-76.609550
163556.328054,-814.226536,-9474.636058,-1302.362347
163556.328374,-370.102971,-9622.677246,-76.609550
163556.328693,296.082377,-7179.997637,1225.752797
163556.329013,2220.617826,-9030.512492,229.828649
163556.329333,888.247130,-10140.821405,0.000000
163556.329652,-1628.453072,-10140.821405,-1302.362347
163556.329972,-3034.844362,-8290.306550,-2528.115143
163556.330292,-1850.514855,-9178.553681,-2528.115143
163556.330611,-1628.453072,-8660.409521,76.609550
163556.330931,148.041188,-6587.832884,0.000000
163556.331251,2368.659014,-7772.162391,4903.011187
163556.331571,5477.523971,-9474.636058,5132.839837
163556.331890,-2368.659014,-7179.997637,0.000000
163556.332210,-1850.514855,-9178.553681,-1378.971896
163556.332530,-4145.153275,-10140.821405,-2374.896044
163556.332849,-2368.659014,-11029.068536,-1685.410096
163556.333169,-74.020594,-11843.295072,-1915.238745
163556.333489,-518.144159,-10658.965565,1149.143247
163556.333808,-74.020594,-9474.636058,-2681.334243
163556.334128,-1998.556043,-8364.327145,-1225.752797
163556.334448,-592.164754,-9548.656652,-2451.505594
163556.334767,-3404.947333,-7179.997637,0.000000
163556.335087,-296.082377,-8290.306550,-612.876398
163556.335407,1184.329507,-8956.491898,2068.457845
163556.335727,4811.338623,-7254.018232,1685.410096
163556.336046,3034.844362,-9474.636058,2374.896044
163556.336366,1184.329507,-8660.409521,1072.533697
163556.336686,-2960.823768,-8364.327145,-1838.629195
163556.337005,-1480.411884,-11029.068536,-1225.752797
163556.337325,-1776.494261,-11325.150913,-1225.752797
163556.337645,-370.102971,-9474.636058,-842.705048
163556.337964,3478.967927,-10362.883188,-76.609550
163556.338284,2368.659014,-6883.915261,153.219100
163556.338604,1406.391290,-8956.491898,-995.924147
163556.338924,-1702.473667,-9474.636058,-383.047749
163556.339243,-2960.823768,-9548.656652,612.876398
163556.339563,-2960.823768,-9770.718434,-459.657299
163556.339883,-666.185348,-9178.553681,-76.609550
163556.340202,0.000000,-6587.832884,0.000000
163556.340522,2664.741391,-7179.997637,1838.629195
163556.340842,4071.132681,-11843.295072,2374.896044
163556.341161,-1998.556043,-9992.780217,-1149.143247
163556.341481,-2146.597232,-10066.800811,-2528.115143
163556.341801,-2368.659014,-10362.883188,-1915.238745
163556.342121,-1258.350101,-9918.759623,-2451.505594
163556.342440,-2220.617826,-9548.656652,-1991.848295
163556.342760,1628.453072,-8660.409521,766.095498
163556.343080,1036.288319,-7254.018232,919.314598
163556.343399,444.123565,-7772.162391,-1072.533697
163556.343719,-666.185348,-9474.636058,-689.485948
163556.344039,-1998.556043,-9474.636058,-689.485948
163556.344358,-2664.741391,-11029.068536,306.438199
163556.344678,-1110.308913,-11251.130318,2068.457845
163556.344998,-74.020594,-9474.636058,-1302.362347
163556.345317,0.000000,-7179.997637,0.000000
163556.345637,2294.638420,-7920.203579,229.828649
163556.345957,444.123565,-9178.553681,766.095498
163556.346277,-370.102971,-9178.553681,0.000000
163556.346596,-1480.411884,-9844.739029,-1225.752797
163556.346916,1184.329507,-10362.883188,842.705048
163556.347236,814.226536,-11103.089130,689.485948
163556.347555,148.041188,-7846.182985,0.000000
163556.347875,-2368.659014,-8956.491898,0.000000
163556.348195,-592.164754,-9104.533087,0.000000
163556.348514,-3552.988522,-7179.997637,0.000000
163556.348834,-1850.514855,-9474.636058,-689.485948
163556.349154,-3034.844362,-9474.636058,-2528.115143
163556.349474,-3552.988522,-8734.430116,-766.095498
163556.349793,-444.123565,-9178.553681,-995.924147
163556.350113,1998.556043,-8290.306550,-76.609550
163556.350433,1702.473667,-8882.471304,-383.047749
163556.350752,-2960.823768,-9548.656652,0.000000
163556.351072,-1554.432478,-10362.883188,-766.095498
163556.351392,-3701.029710,-11029.068536,-1532.190996
163556.351711,-4737.318029,-9548.656652,-2451.505594
163556.352031,1258.350101,-10436.903782,459.657299
163556.352351,3182.885551,-9252.574275,3064.381992
163556.352671,4145.153275,-8512.368333,1915.238745
163556.352990,4663.297435,-9474.636058,3294.210641
163556.353310,2368.659014,-7772.162391,1532.190996
163556.353630,-1258.350101,-8882.471304,-76.609550
163556.353949,-2886.803174,-9178.553681,-2528.115143
163556.354269,-2738.761985,-10066.800811,-2528.115143
163556.354589,0.000000,-9548.656652,1225.752797
163556.354908,592.164754,-8734.430116,-919.314598
163556.355228,2294.638420,-9178.553681,1302.362347
163556.355548,740.205942,-8438.347739,-766.095498
163556.355868,-1628.453072,-9252.574275,-1225.752797
163556.356187,-2072.576638,-9252.574275,-3217.601092
163556.356507,-4145.153275,-10881.027347,-1225.752797
163556.356827,1480.411884,-9622.677246,612.876398
163556.357146,4663.297435,-9474.636058,2374.896044
163556.357466,1998.556043,-7624.121203,1149.143247
163556.357786,0.000000,-7179.997637,1225.752797
163556.358105,74.020594,-8290.306550,-1149.143247
163556.358425,-2590.720797,-10140.821405,-2298.286494
163556.358745,-1998.556043,-10658.965565,-2145.067394
163556.359064,-2294.638420,-10807.006753,-2528.115143
163556.359384,1110.308913,-8882.471304,-995.924147
163556.359704,1036.288319,-7920.203579,-2987.772442
163556.360024,0.000000,-9548.656652,306.438199
163556.360343,-74.020594,-9326.594869,383.047749
163556.360663,-1036.288319,-11103.089130,1762.019645
163556.360983,-2960.823768,-8364.327145,0.000000
163556.361302,962.267725,-9474.636058,1991.848295
163556.361622,3849.070898,-7402.059420,4213.525239
163556.361942,3849.070898,-6809.894666,2298.286494
163556.362261,2886.803174,-7105.977043,1762.019645
163556.362581,-74.020594,-11103.089130,919.314598
163556.362901,-1258.350101,-10362.883188,-1762.019645
163556.363221,-4219.173869,-12213.398043,-3140.991542
163556.363540,-3627.009116,-10658.965565,-2528.115143
163556.363860,-888.247130,-12657.521608,919.314598
163556.364180,0.000000,-6661.853478,153.219100
163556.364499,740.205942,-7254.018232,-1149.143247
163556.364819,-518.144159,-7920.203579,-153.219100
163556.365139,-1480.411884,-7994.224174,-2451.505594
163556.365458,-1998.556043,-8216.285956,-3064.381992
163556.365778,-3552.988522,-8660.409521,-919.314598
163556.366098,1702.473667,-10066.800811,2374.896044
163556.366418,4663.297435,-8882.471304,-76.609550
163556.366737,2294.638420,-11251.130318,-76.609550
163556.367057,0.000000,-10732.986159,766.095498
163556.367377,0.000000,-10362.883188,-1991.848295
163556.367696,-222.061783,-10807.006753,-1455.581446
163556.368016,1332.370696,-10436.903782,-842.705048
163556.368336,-2146.597232,-8364.327145,0.000000
163556.368655,888.247130,-6587.832884,459.657299
163556.368975,592.164754,-5995.668130,0.000000
163556.369295,0.000000,-5995.668130,612.876398
163556.369615,148.041188,-8438.347739,612.876398
163556.369934,-74.020594,-11843.295072,-76.609550
163556.370254,-4145.153275,-9548.656652,-1838.629195
163556.370574,-4219.173869,-10732.986159,-1225.752797
163556.370893,-2812.782580,-10288.862594,-1608.800546
163556.371213,-1036.288319,-8882.471304,-229.828649
163556.371533,-1776.494261,-7179.997637,-1915.238745
163556.371852,-74.020594,-11843.295072,2374.896044
163556.372172,1110.308913,-8586.388927,-1915.238745
163556.372492,-2368.659014,-7476.080014,0.000000
163556.372811,592.164754,-10140.821405,2987.772442
163556.373131,0.000000,-9548.656652,0.000000
163556.373451,2146.597232,-9474.636058,1072.533697
163556.373771,1258.350101,-9548.656652,-1302.362347
163556.374090,0.000000,-10140.821405,0.000000
163556.374410,-370.102971,-8142.265362,-3140.991542
163556.374730,-2886.803174,-9548.656652,-2757.943793
163556.375049,-4145.153275,-10732.986159,-2451.505594
163556.375369,-2960.823768,-12065.356855,-919.314598
163556.375689,2220.617826,-10658.965565,2068.457845
163556.376008,592.164754,-5403.503377,306.438199
163556.376328,3478.967927,-6365.771101,1302.362347
163556.376648,2368.659014,-6809.894666,1762.019645
163556.376968,1554.432478,-7254.018232,612.876398
163556.377287,-444.123565,-9326.594869,-383.047749
163556.377607,-74.020594,-12435.459826,-76.609550
163556.377927,-2368.659014,-10732.986159,-1685.410096
163556.378246,-1184.329507,-11029.068536,-1378.971896
163556.378566,296.082377,-10658.965565,-1072.533697
163556.378886,-148.041188,-10881.027347,0.000000
163556.379205,-2368.659014,-6587.832884,0.000000
163556.379525,-3627.009116,-7179.997637,-3600.648841
163556.379845,-3404.947333,-8364.327145,-1838.629195
163556.380165,0.000000,-8956.491898,0.000000
163556.380484,2886.803174,-7994.224174,2374.896044
163556.380804,4589.276840,-9474.636058,4136.915689
163556.381124,2590.720797,-7698.141797,1532.190996
163556.381443,2220.617826,-8956.491898,-76.609550
163556.381763,-1332.370696,-9474.636058,-1225.752797
163556.382083,-5329.482782,-9844.739029,-3677.258390
163556.382402,-6217.729913,-12509.480420,-3370.820191
163556.382722,-1850.514855,-10066.800811,-3753.867940
163556.383042,-2738.761985,-9770.718434,-1915.238745
163556.383361,296.082377,-7772.162391,919.314598
163556.383681,3478.967927,-8290.306550,2374.896044
163556.384001,3552.988522,-7105.977043,4290.134789
163556.384321,3108.864956,-6809.894666,995.924147
163556.384640,814.226536,-8290.306550,1072.533697
163556.384960,-1628.453072,-10288.862594,536.266849
163556.385280,-2664.741391,-9548.656652,0.000000
163556.385599,-3849.070898,-11325.150913,-3064.381992
163556.385919,-1998.556043,-11843.295072,-1915.238745
163556.386239,-3552.988522,-9548.656652,-3064.381992
163556.386558,-3256.906145,-10140.821405,0.000000
163556.386878,2294.638420,-9474.636058,-76.609550
163556.387198,0.000000,-8364.327145,766.095498
163556.387518,1924.535449,-6661.853478,1225.752797
163556.387838,1110.308913,-7698.141797,1225.752797
163556.388158,1036.288319,-8956.491898,3064.381992
163556.388477,0.000000,-8364.327145,1225.752797
163556.388797,-3552.988522,-8364.327145,0.000000
163556.389117,-1850.514855,-11843.295072,-2528.115143
163556.389437,-2738.761985,-11177.109724,-1608.800546
163556.389757,-74.020594,-9252.574275,-3140.991542
163556.390076,1702.473667,-10510.924376,-76.609550
163556.390396,296.082377,-8660.409521,-1685.410096
163556.390716,-518.144159,-9474.636058,-229.828649
163556.391036,518.144159,-7328.038826,-689.485948
163556.391356,-3552.988522,-7772.162391,0.000000
163556.391675,-3552.988522,-5403.503377,0.000000
163556.391995,0.000000,-6957.935855,0.000000
163556.392315,2516.700203,-7476.080014,1838.629195
163556.392635,4663.297435,-10658.965565,1149.143247
163556.392955,1110.308913,-10658.965565,0.000000
163556.393275,296.082377,-12213.398043,-76.609550
163556.393594,-1258.350101,-10807.006753,-1302.362347
163556.393914,-1702.473667,-10436.903782,-2298.286494
163556.394234,-2220.617826,-10658.965565,-1149.143247
163556.394554,-1850.514855,-9474.636058,1149.143247
163556.394874,-370.102971,-7550.100608,76.609550
163556.395193,148.041188,-6513.812290,229.828649
163556.395513,0.000000,-6587.832884,612.876398
163556.395833,1110.308913,-8142.265362,612.876398
163556.396153,-3627.009116,-7402.059420,-3447.429741
163556.396473,-2442.679609,-12213.398043,-689.485948
163556.396792,-3256.906145,-11325.150913,-2834.553343
163556.397112,-3034.844362,-11473.192101,-2604.724693
163556.397432,-1258.350101,-13027.624579,-76.609550
163556.397752,-518.144159,-12287.418637,995.924147
163556.398072,2294.638420,-9474.636058,2374.896044
163556.398392,1702.473667,-8290.306550,-76.609550
163556.398711,222.061783,-7179.997637,1072.533697
163556.399031,-2368.659014,-7179.997637,0.000000
163556.399351,1110.308913,-6809.894666,1455.581446
163556.399671,-1554.432478,-8956.491898,1225.752797
163556.399991,-2442.679609,-9104.533087,1532.190996
163556.400310,-3034.844362,-8660.409521,-306.438199
163556.400630,-3034.844362,-10288.862594,1149.143247
163556.400950,-8290.306550,-7772.162391,-3677.258390
163556.401270,-8586.388927,-11399.171507,-1225.752797
163556.401590,-4811.338623,-10140.821405,-2451.505594
163556.401909,-4811.338623,-9474.636058,-689.485948
163556.402229,-8882.471304,-6587.832884,-2451.505594
163556.402549,-5995.668130,-9326.594869,-1915.238745
163556.402869,-4367.215058,-9622.677246,689.485948
163556.403189,-6587.832884,-6809.894666,-1838.629195
163556.403509,-7846.182985,-10066.800811,-1302.362347
163556.403828,-8290.306550,-9770.718434,-76.609550
163556.404148,-4663.297435,-9548.656652,766.095498
163556.404468,-3997.112087,-7179.997637,0.000000
163556.404788,-4737.318029,-9548.656652,2451.505594
163556.405108,-2664.741391,-8068.244768,1685.410096
163556.405427,-4737.318029,-5995.668130,0.000000
163556.405747,-3330.926739,-5551.544565,-2681.334243
163556.406067,-7846.182985,-10436.903782,-2451.505594
163556.406387,-8142.265362,-10214.842000,-4596.572988
163556.406707,-5995.668130,-13915.871710,-1302.362347
163556.407026,-4811.338623,-11547.212695,-1455.581446
163556.407346,-6587.832884,-11843.295072,-76.609550
163556.407666,-5107.421000,-9104.533087,-459.657299
163556.407986,-2368.659014,-7179.997637,3064.381992
163556.408306,2368.659014,-5995.668130,6128.763984
163556.408626,0.000000,-3034.844362,3064.381992
163556.408945,-962.267725,-7031.956449,2757.943793
163556.409265,-2368.659014,-6957.935855,306.438199
163556.409585,-1998.556043,-10955.047942,1225.752797
163556.409905,-2442.679609,-11843.295072,-76.609550
163556.410225,-7105.977043,-11029.068536,-3064.381992
163556.410544,-7920.203579,-11843.295072,-5592.497135
163556.410864,-7179.997637,-11843.295072,-4979.620737
163556.411184,-2442.679609,-13027.624579,-3064.381992
163556.411504,-3923.091493,-7698.141797,-3524.039291
163556.411824,-1036.288319,-9622.677246,-76.609550
163556.412143,-1480.411884,-8364.327145,-536.266849
163556.412463,1184.329507,-9104.533087,2528.115143
163556.412783,4071.132681,-10658.965565,6052.154434
163556.413103,2812.782580,-8808.450710,4826.401637
163556.413423,0.000000,-6957.935855,689.485948
163556.413743,-1184.329507,-7179.997637,0.000000
163556.414062,-1776.494261,-10140.821405,0.000000
163556.414382,-74.020594,-9474.636058,-1302.362347
163556.414702,-1258.350101,-11251.130318,-1915.238745
163556.415022,-5107.421000,-9770.718434,-3677.258390
163556.415342,-6069.688724,-10214.842000,-4826.401637
163556.415661,-5033.400406,-11251.130318,-2451.505594
163556.415981,-3552.988522,-7772.162391,1225.752797
163556.416301,814.226536,-8734.430116,2911.162892
163556.416621,814.226536,-6883.915261,4903.011187
163556.416941,0.000000,-5033.400406,3064.381992
163556.417260,-370.102971,-4811.338623,2068.457845
163556.417580,2294.638420,-7105.977043,1302.362347
163556.417900,1702.473667,-9474.636058,1762.019645
163556.418220,-5773.606348,-8364.327145,-1225.752797
163556.418540,-5403.503377,-10881.027347,-4903.011187
163556.418860,-5403.503377,-14211.954086,-4366.744339
163556.419179,-9474.636058,-11917.315666,-6128.763984
163556.419499,-6587.832884,-13471.748144,-3524.039291
163556.419819,-5847.626942,-11399.171507,-995.924147
163556.420139,-3404.947333,-8808.450710,0.000000
163556.420459,-2146.597232,-8734.430116,1838.629195
163556.420778,-2368.659014,-5329.482782,2451.505594
163556.421098,-222.061783,-6439.791695,4443.353888
163556.421418,-962.267725,-5921.647536,2374.896044
163556.421738,-2960.823768,-5995.668130,995.924147
163556.422058,-3552.988522,-8364.327145,2451.505594
163556.422377,-7105.977043,-9548.656652,-3064.381992
163556.422697,-8068.244768,-11621.233289,-5209.449386
163556.423017,-9918.759623,-13397.727550,-6358.592633
163556.423337,-9548.656652,-14063.912898,-5592.497135
163556.423657,-7476.080014,-12879.583391,-4290.134789
163556.423977,-4885.359217,-11177.109724,459.657299
163556.424296,-4737.318029,-6291.750507,1225.752797
163556.424616,-1184.329507,-5995.668130,5132.839837
163556.424936,-74.020594,-4589.276840,4826.401637
163556.425256,0.000000,-5995.668130,6128.763984
163556.425576,-1036.288319,-5551.544565,3907.087040
163556.425895,-2738.761985,-7772.162391,2068.457845
163556.426215,-4811.338623,-9918.759623,0.000000
163556.426535,-7994.224174,-9548.656652,-4826.401637
163556.426855,-10732.986159,-10140.821405,-5898.935335
163556.427175,-9548.656652,-11843.295072,-8350.440928
163556.427494,-10140.821405,-11917.315666,-8120.612279
163556.427814,-6439.791695,-10955.047942,-4673.182538
163556.428134,-2442.679609,-13027.624579,2987.772442
163556.428454,-2368.659014,-8956.491898,3983.696590
163556.428774,1998.556043,-6291.750507,4519.963438
163556.429094,2886.803174,-5033.400406,6128.763984
163556.429413,2442.679609,-3552.988522,3907.087040
163556.429733,-74.020594,-5921.647536,536.266849
163556.430053,-1258.350101,-11843.295072,-76.609550
163556.430373,-3034.844362,-13027.624579,-2221.676944
163556.430693,-6365.771101,-13027.624579,-3753.867940
163556.431012,-7476.080014,-12805.562797,-5592.497135
163556.431332,-4071.132681,-14211.954086,-2528.115143
163556.431652,-2368.659014,-10732.986159,-766.095498
163556.431972,-370.102971,-7254.018232,2451.505594
163556.432292,-370.102971,-4219.173869,2068.457845
163556.432611,74.020594,-3997.112087,612.876398
163556.432931,0.000000,-4959.379811,612.876398
163556.433251,1184.329507,-8512.368333,3677.258390
163556.433571,-1332.370696,-10214.842000,4749.792088
163556.433891,-3627.009116,-10066.800811,-1302.362347
163556.434211,-7402.059420,-11251.130318,-4366.744339
163556.434530,-2664.741391,-15322.262999,-2068.457845
163556.434850,-3108.864956,-11473.192101,-1149.143247
163556.435170,-2738.761985,-8734.430116,306.438199
163556.435490,-3330.926739,-5699.585753,-2451.505594
163556.435810,-4737.318029,-4811.338623,-6128.763984
163556.436129,-3849.070898,-7772.162391,-3370.820191
163556.436449,-3923.091493,-8364.327145,0.000000
163556.436769,-4737.318029,-10140.821405,3370.820191
163556.437089,-3034.844362,-8882.471304,2374.896044
163556.437409,-2442.679609,-8882.471304,-76.609550
163556.437728,-2812.782580,-10140.821405,842.705048
163556.438048,0.000000,-9844.739029,1762.019645
163556.438368,296.082377,-9918.759623,3140.991542
163556.438688,-1406.391290,-7624.121203,2068.457845
163556.439008,-6365.771101,-5551.544565,-2834.553343
163556.439328,-4219.173869,-9474.636058,-3140.991542
163556.439647,-4219.173869,-9178.553681,-4979.620737
163556.439967,-5255.462188,-10066.800811,-3753.867940
163556.440287,-7624.121203,-9548.656652,-3370.820191
163556.440607,-4811.338623,-14211.954086,-689.485948
163556.440927,-6513.812290,-11917.315666,612.876398
163556.441246,-4663.297435,-10658.965565,1991.848295
163556.441566,-3182.885551,-8216.285956,3064.381992
163556.441886,-2072.576638,-5699.585753,3064.381992
163556.442206,-1776.494261,-3627.009116,2451.505594
163556.442526,-962.267725,-5921.647536,2374.896044
163556.442845,-1924.535449,-8808.450710,2298.286494
163556.443165,-2442.679609,-10362.883188,-1302.362347
163556.443485,-5107.421000,-10066.800811,-4366.744339
163556.443805,-5107.421000,-13471.748144,-2528.115143
163556.444125,-8068.244768,-11547.212695,-4213.525239
163556.444445,-7179.997637,-11251.130318,-4136.915689
163556.444764,-4071.132681,-9548.656652,-2757.943793
163556.445084,-2368.659014,-7179.997637,0.000000
163556.445404,0.000000,-7179.997637,1225.752797
163556.445724,0.000000,-5995.668130,1838.629195
163556.446044,0.000000,-9474.636058,4366.744339
163556.446363,-962.267725,-10140.821405,4826.401637
163556.446683,-74.020594,-9474.636058,3294.210641
163556.447003,-814.226536,-10140.821405,4903.011187
163556.447323,-1554.432478,-8364.327145,3294.210641
163556.447643,-3108.864956,-6809.894666,459.657299
163556.447962,-4811.338623,-5773.606348,-3140.991542
163556.448282,-9474.636058,-7179.997637,-6741.640382
163556.448602,-7772.162391,-8882.471304,-8044.002729
163556.448922,-9474.636058,-10140.821405,-7354.516781
163556.449242,-6883.915261,-11991.336260,-3753.867940
163556.449562,-3923.091493,-11251.130318,-2528.115143
163556.449881,-74.020594,-12879.583391,3217.601092
163556.450201,1406.391290,-9030.512492,3983.696590
163556.450521,3997.112087,-8364.327145,5209.449386
163556.450841,4071.132681,-7698.141797,5515.887586
163556.451161,0.000000,-4811.338623,1225.752797
163556.451480,-2368.659014,-7772.162391,612.876398
163556.451800,-5181.441594,-9696.697840,-1991.848295
163556.452120,-5995.668130,-13027.624579,-2528.115143
163556.452440,-7772.162391,-11251.130318,-5745.716235
163556.452760,-7698.141797,-11917.315666,-3983.696590
163556.453079,-6217.729913,-9548.656652,-3370.820191
163556.453399,-2072.576638,-8734.430116,459.657299
163556.453719,518.144159,-7550.100608,2451.505594
163556.454039,2368.659014,-6883.915261,4213.525239
163556.454359,4071.132681,-7105.977043,3600.648841
163556.454679,1258.350101,-8660.409521,4903.011187
163556.454998,-370.102971,-9104.533087,3983.696590
163556.455318,-2146.597232,-9770.718434,1915.238745
163556.455638,-2146.597232,-11769.274478,1225.752797
163556.455958,-3404.947333,-9548.656652,-1762.019645
163556.456278,-2220.617826,-10732.986159,-1225.752797
163556.456597,-74.020594,-11843.295072,-76.609550
163556.456917,962.267725,-11843.295072,2374.896044
163556.457237,0.000000,-7772.162391,383.047749
163556.457557,4071.132681,-10658.965565,3600.648841
163556.457877,1850.514855,-8364.327145,3753.867940
163556.458196,2738.761985,-8142.265362,5362.668486
163556.458516,2516.700203,-8290.306550,6205.373534
163556.458836,1184.329507,-8956.491898,6358.592633
163556.459156,370.102971,-9474.636058,5286.058936
163556.459476,-2146.597232,-9178.553681,3140.991542
163556.459796,-4737.318029,-8734.430116,306.438199
163556.460115,-4737.318029,-10732.986159,766.095498
163556.460435,-2442.679609,-10807.006753,995.924147
163556.460755,-74.020594,-11547.212695,5362.668486
163556.461075,1850.514855,-9622.677246,7354.516781
163556.461395,3552.988522,-7476.080014,9039.926876
163556.461714,4071.132681,-4737.318029,8810.098227
163556.462034,4589.276840,-5181.441594,9039.926876
163556.462354,3108.864956,-5329.482782,6665.030833
163556.462674,3478.967927,-9474.636058,6052.154434
163556.462994,-1924.535449,-10140.821405,4903.011187
163556.463313,-1480.411884,-14582.057057,6128.763984
163556.463633,-2442.679609,-15396.283594,6052.154434
163556.463953,-2960.823768,-14582.057057,8350.440928
163556.464273,-3701.029710,-11029.068536,8580.269578
163556.464593,-2960.823768,-6365.771101,8044.002729
163556.464913,-296.082377,-4589.276840,8197.221829
163556.465232,-222.061783,-2442.679609,3983.696590
163556.465552,0.000000,-4219.173869,4903.011187
163556.465872,1702.473667,-9104.533087,6281.983084
163556.466192,-74.020594,-11843.295072,7277.907231
163556.466512,-3552.988522,-9548.656652,3677.258390
163556.466831,-2738.761985,-12435.459826,4519.963438
163556.467151,-4293.194464,-11547.212695,3830.477490
163556.467471,-3256.906145,-10362.883188,3217.601092
163556.467791,-888.247130,-9770.718434,3217.601092
163556.468111,592.164754,-10584.944971,5056.230287
163556.468430,814.226536,-10288.862594,5439.278036
163556.468750,0.000000,-9548.656652,5515.887586
163556.469070,-4441.235652,-7179.997637,3064.381992
163556.469390,-3552.988522,-8068.244768,2451.505594
163556.469710,-2960.823768,-4885.359217,0.000000
163556.470030,2146.597232,-7105.977043,4213.525239
163556.470349,3627.009116,-7105.977043,4673.182538
163556.470669,2442.679609,-8734.430116,2528.115143
163556.470989,-74.020594,-11251.130318,-76.609550
163556.471309,-2442.679609,-14211.954086,-76.609550
163556.471629,-4219.173869,-13619.789333,-76.609550
163556.471948,-2442.679609,-13619.789333,-76.609550
163556.472268,-3256.906145,-9622.677246,-383.047749
163556.472588,-1776.494261,-7772.162391,0.000000
163556.472908,74.020594,-6883.915261,0.000000
163556.473228,2590.720797,-7550.100608,2451.505594
163556.473547,2590.720797,-5329.482782,1915.238745
163556.473867,1924.535449,-6661.853478,-766.095498
163556.474187,5255.462188,-11547.212695,-76.609550
163556.474507,5551.544565,-10658.965565,1225.752797
163556.474827,4737.318029,-10140.821405,4213.525239
163556.475147,1110.308913,-9474.636058,-1302.362347
163556.475466,-4737.318029,-10658.965565,-4979.620737
163556.475786,-8290.306550,-11325.150913,-6128.763984
163556.476106,-4811.338623,-13323.706956,-2221.676944
163556.476426,-2738.761985,-10881.027347,0.000000
163556.476746,-814.226536,-8142.265362,612.876398
163556.477065,1998.556043,-5847.626942,919.314598
163556.477385,5773.606348,-4811.338623,3294.210641
163556.477705,2664.741391,-3034.844362,612.876398
163556.478025,2442.679609,-7772.162391,1532.190996
163556.478345,1924.535449,-11325.150913,2451.505594
163556.478664,-74.020594,-12731.542202,1762.019645
163556.478984,-4737.318029,-9548.656652,0.000000
163556.479304,-3775.050304,-13027.624579,-612.876398
163556.479624,-2960.823768,-11399.171507,-459.657299
163556.479944,-2146.597232,-8586.388927,919.314598
163556.480264,-1258.350101,-7105.977043,-383.047749
163556.480583,-2442.679609,-8586.388927,-76.609550
163556.480903,-2368.659014,-8364.327145,919.314598
163556.481223,0.000000,-5403.503377,1532.190996
163556.481543,2664.741391,-8364.327145,4903.011187
163556.481863,2368.659014,-8956.491898,3677.258390
163556.482182,0.000000,-8364.327145,306.438199
163556.482502,-962.267725,-10658.965565,1302.362347
163556.482822,-2146.597232,-13471.748144,1072.533697
163556.483142,-2590.720797,-13323.706956,1532.190996
163556.483462,-74.020594,-11843.295072,2987.772442
163556.483781,74.020594,-9548.656652,4213.525239
163556.484101,2294.638420,-9474.636058,3600.648841
163556.484421,0.000000,-6439.791695,5515.887586
163556.484741,296.082377,-5551.544565,4903.011187
163556.485061,962.267725,-3404.947333,2604.724693
163556.485381,3404.947333,-6439.791695,5822.325785
163556.485700,3330.926739,-8290.306550,7124.688131
163556.486020,2368.659014,-9548.656652,5975.544884
163556.486340,-666.185348,-13619.789333,4519.963438
163556.486660,-4737.318029,-12509.480420,2987.772442
163556.486980,-7105.977043,-10955.047942,153.219100
163556.487299,-5329.482782,-10732.986159,1838.629195
163556.487619,-3256.906145,-9548.656652,3677.258390
163556.487939,-74.020594,-7105.977043,1762.019645
163556.488259,2294.638420,-8882.471304,5745.716235
163556.488579,1554.432478,-6957.935855,5132.839837
163556.488898,1258.350101,-7994.224174,6205.373534
163556.489218,1036.288319,-8734.430116,5898.935335
163556.489538,1184.329507,-7179.997637,6128.763984
163556.489858,2590.720797,-9918.759623,5286.058936
163556.490178,1850.514855,-12139.377449,6435.202183
163556.490497,2294.638420,-14804.118840,6665.030833
163556.490817,-370.102971,-12139.377449,4826.401637
163556.491137,-2664.741391,-12583.501014,5439.278036
163556.491457,-4811.338623,-9474.636058,1455.581446
163556.491777,-4441.235652,-8364.327145,2757.943793
163556.492096,-1850.514855,-5477.523971,1991.848295
163556.492416,962.267725,-4219.173869,2451.505594
163556.492736,2294.638420,-4737.318029,2374.896044
163556.493056,1924.535449,-8142.265362,4519.963438
163556.493376,1332.370696,-10584.944971,5209.449386
163556.493695,888.247130,-11991.336260,6128.763984
163556.494015,814.226536,-13841.851115,7890.783629
163556.494335,-74.020594,-11843.295072,7277.907231
163556.494655,-2368.659014,-8660.409521,4290.134789
163556.494974,-1480.411884,-8660.409521,3677.258390
163556.495294,-2368.659014,-5995.668130,3677.258390
163556.495614,-2812.782580,-4219.173869,0.000000
163556.495934,-1258.350101,-5921.647536,-76.609550
163556.496254,-2220.617826,-6883.915261,-2528.115143
163556.496573,-74.020594,-11251.130318,-76.609550
163556.496893,740.205942,-12213.398043,2221.676944
163556.497213,1554.432478,-15988.448347,6665.030833
163556.497533,-148.041188,-12657.521608,4596.572988
163556.497853,-2960.823768,-7920.203579,536.266849
163556.498172,-5329.482782,-8364.327145,0.000000
163556.498492,-222.061783,-8142.265362,1685.410096
163556.498812,592.164754,-5403.503377,0.000000
163556.499132,2590.720797,-8734.430116,2145.067394
163556.499451,2442.679609,-11177.109724,1532.190996
163556.499771,-370.102971,-11547.212695,2145.067394
163556.500091,-666.185348,-11843.295072,1762.019645
163556.500411,-666.185348,-10658.965565,2374.896044
163556.500731,-74.020594,-11843.295072,2374.896044
163556.501050,1110.308913,-7550.100608,1378.971896
163556.501370,1332.370696,-6883.915261,2451.505594
163556.501690,1184.329507,-7179.997637,2451.505594
163556.502010,-1110.308913,-7254.018232,0.000000
163556.502330,-592.164754,-9992.780217,612.876398
163556.502649,-1998.556043,-9400.615463,-383.047749
163556.502969,-2368.659014,-10140.821405,76.609550
163556.503289,-1258.350101,-11843.295072,-76.609550
163556.503609,-1776.494261,-9548.656652,1838.629195
163556.503929,1332.370696,-8882.471304,2911.162892
163556.504248,1110.308913,-8216.285956,2451.505594
163556.504568,-74.020594,-9474.636058,-689.485948
163556.504888,-3552.988522,-9548.656652,0.000000
163556.505208,518.144159,-11547.212695,-153.219100
163556.505527,-666.185348,-9474.636058,1225.752797
163556.505847,-2368.659014,-10584.944971,689.485948
163556.506167,-1850.514855,-7550.100608,1532.190996
163556.506487,1554.432478,-6809.894666,-76.609550
163556.506807,592.164754,-5699.585753,766.095498
163556.507126,1184.329507,-9548.656652,0.000000
163556.507446,0.000000,-12805.562797,5209.449386
163556.507766,1998.556043,-13249.686362,4826.401637
163556.508086,-3552.988522,-9548.656652,2451.505594
163556.508406,-3034.844362,-10362.883188,1149.143247
163556.508725,-2738.761985,-5699.585753,1149.143247
163556.509045,74.020594,-4737.318029,0.000000
163556.509365,3478.967927,-4589.276840,842.705048
163556.509685,4663.297435,-9474.636058,2374.896044
163556.510004,2590.720797,-11843.295072,4826.401637
163556.510324,-444.123565,-11251.130318,1838.629195
163556.510644,-4737.318029,-10881.027347,1838.629195
163556.510964,-5181.441594,-10140.821405,612.876398
163556.511284,-3552.988522,-5477.523971,-1532.190996
163556.511603,2294.638420,-6883.915261,995.924147
163556.511923,4663.297435,-7994.224174,2528.115143
163556.512243,2960.823768,-10584.944971,4290.134789
163556.512563,-74.020594,-9474.636058,1149.143247
163556.512883,-5329.482782,-9548.656652,0.000000
163556.513202,-5033.400406,-10658.965565,-2834.553343
163556.513522,-3182.885551,-9474.636058,-2374.896044
163556.513842,0.000000,-7179.997637,-2451.505594
163556.514162,2664.741391,-9548.656652,3677.258390
163556.514482,3775.050304,-11621.233289,2451.505594
163556.514801,1998.556043,-11843.295072,2145.067394
163556.515121,-1258.350101,-12361.439231,-459.657299
163556.515441,-4959.379811,-10732.986159,-2987.772442
163556.515761,-3701.029710,-8142.265362,-3140.991542
163556.516080,-2368.659014,-5551.544565,-1838.629195
163556.516400,3404.947333,-7698.141797,-459.657299
163556.516720,4663.297435,-11843.295072,-383.047749
163556.517040,2294.638420,-13027.624579,2374.896044
163556.517360,-3552.988522,-9548.656652,0.000000
163556.517679,-6735.874072,-9622.677246,-4443.353888
163556.517999,-6365.771101,-9178.553681,-5669.106685
163556.518319,-1850.514855,-8068.244768,-4673.182538
163556.518639,2886.803174,-5477.523971,-2681.334243
163556.518959,5255.462188,-8290.306550,689.485948
163556.519278,2294.638420,-8882.471304,1149.143247
163556.519598,-2516.700203,-7624.121203,-3677.258390
163556.519918,-5921.647536,-9548.656652,-4596.572988
163556.520238,-2960.823768,-13027.624579,-2681.334243
163556.520557,-2368.659014,-8068.244768,-2145.067394
163556.520877,2590.720797,-5403.503377,-2451.505594
163556.521197,2368.659014,-6143.709319,-2681.334243
163556.521517,2960.823768,-8882.471304,-4136.915689
163556.521837,1110.308913,-10658.965565,-3753.867940
163556.522156,-74.020594,-14211.954086,-383.047749
163556.522476,-3034.844362,-12879.583391,-2911.162892
163556.522796,-2368.659014,-9548.656652,-1455.581446
163556.523116,0.000000,-4811.338623,306.438199
163556.523436,1184.329507,-666.185348,0.000000
163556.523755,5107.421000,-6957.935855,153.219100
163556.524075,4737.318029,-9696.697840,1149.143247
163556.524395,1184.329507,-12805.562797,-842.705048
163556.524715,-3627.009116,-13619.789333,-1302.362347
163556.525035,-7624.121203,-12509.480420,-3600.648841
163556.525354,-6513.812290,-8956.491898,-2451.505594
163556.525674,1184.329507,-5403.503377,-4903.011187
163556.525994,2368.659014,-5107.421000,1225.752797
163556.526314,4071.132681,-6217.729913,0.000000
163556.526633,2886.803174,-9326.594869,2068.457845
163556.526953,-2516.700203,-10584.944971,536.266849
163556.527273,-5921.647536,-11399.171507,-612.876398
163556.527593,-4885.359217,-11473.192101,383.047749
163556.527913,0.000000,-8364.327145,2757.943793
163556.528232,1850.514855,-5699.585753,1455.581446
163556.528552,2738.761985,-8512.368333,2145.067394
163556.528872,814.226536,-9104.533087,1225.752797
163556.529192,-1258.350101,-10881.027347,-2451.505594
163556.529512,-5107.421000,-11177.109724,-4366.744339
163556.529831,-4811.338623,-12435.459826,-2834.553343
163556.530151,-4145.153275,-9844.739029,-766.095498
163556.530471,1480.411884,-7476.080014,0.000000
163556.530791,4811.338623,-9474.636058,4826.401637
163556.531110,4737.318029,-7476.080014,7048.078582
163556.531430,2368.659014,-9696.697840,3064.381992
163556.531750,-1406.391290,-11547.212695,2374.896044
163556.532070,-3849.070898,-12139.377449,766.095498
163556.532390,-4811.338623,-9252.574275,612.876398
163556.532709,-74.020594,-6513.812290,-1915.238745
163556.533029,-74.020594,-5773.606348,-1915.238745
163556.533349,1998.556043,-8290.306550,-1915.238745
163556.533669,962.267725,-10214.842000,0.000000
163556.533989,-74.020594,-15396.283594,3294.210641
163556.534308,-5921.647536,-11029.068536,0.000000
163556.534628,-5181.441594,-8068.244768,-766.095498
163556.534948,-592.164754,-5255.462188,-1762.019645
163556.535268,3997.112087,-4663.297435,459.657299
163556.535588,6217.729913,-6587.832884,2451.505594
163556.535907,6291.750507,-9178.553681,4519.963438
163556.536227,3478.967927,-13027.624579,2987.772442
163556.536547,-5995.668130,-11843.295072,-3140.991542
163556.536867,-7105.977043,-10510.924376,-4903.011187
163556.537186,-1332.370696,-13027.624579,-689.485948
163556.537506,3256.906145,-7698.141797,-612.876398
163556.537826,5329.482782,-7698.141797,2145.067394
163556.538146,4071.132681,-8142.265362,3524.039291
163556.538466,0.000000,-6587.832884,0.000000
163556.538785,-4737.318029,-7179.997637,-2451.505594
163556.539105,-5255.462188,-9548.656652,-3677.258390
163556.539425,-3256.906145,-8364.327145,1225.752797
163556.539745,1406.391290,-6883.915261,0.000000
163556.540065,4071.132681,-6809.894666,2374.896044
163556.540384,3849.070898,-8660.409521,919.314598
163556.540704,0.000000,-10436.903782,-995.924147
163556.541024,-3330.926739,-13175.665768,-2604.724693
163556.541344,-7179.997637,-14211.954086,-3294.210641
163556.541663,-8586.388927,-11695.253884,-3140.991542
163556.541983,-2812.782580,-10436.903782,-1608.800546
163556.542303,1110.308913,-6809.894666,-76.609550
163556.542623,3997.112087,-2442.679609,0.000000
163556.542943,3552.988522,-5107.421000,3064.381992
163556.543262,4367.215058,-8882.471304,-76.609550
163556.543582,-2960.823768,-10732.986159,0.000000
163556.543902,-4293.194464,-12139.377449,-1149.143247
163556.544222,-3849.070898,-11325.150913,-766.095498
163556.544542,-370.102971,-9548.656652,-229.828649
163556.544861,1776.494261,-8660.409521,-766.095498
163556.545181,3923.091493,-8882.471304,1608.800546
163556.545501,3478.967927,-11251.130318,1149.143247
163556.545821,1110.308913,-11547.212695,-76.609550
163556.546141,-1924.535449,-9992.780217,-2834.553343
163556.546460,-74.020594,-11251.130318,-76.609550
163556.546780,1036.288319,-7624.121203,-229.828649
163556.547100,2812.782580,-7031.956449,2451.505594
163556.547420,4515.256246,-7476.080014,2068.457845
163556.547739,2368.659014,-7772.162391,2451.505594
163556.548059,0.000000,-9548.656652,0.000000
163556.548379,-5329.482782,-11325.150913,-3677.258390
163556.548699,-5329.482782,-11917.315666,-3064.381992
163556.549019,-2812.782580,-11029.068536,-2451.505594
163556.549338,-1480.411884,-8660.409521,-3217.601092
163556.549658,814.226536,-8290.306550,-1608.800546
163556.549978,1702.473667,-8364.327145,153.219100
163556.550298,1776.494261,-8956.491898,-689.485948
163556.550618,-2146.597232,-10732.986159,-383.047749
163556.550937,-3552.988522,-10140.821405,-1072.533697
163556.551257,-4219.173869,-6957.935855,-2834.553343
163556.551577,-2072.576638,-5403.503377,-2757.943793
163556.551897,2516.700203,-9400.615463,-76.609550
163556.552216,5847.626942,-11251.130318,2374.896044
163556.552536,1110.308913,-7772.162391,-2451.505594
163556.552856,-1850.514855,-10362.883188,-153.219100
163556.553176,-5255.462188,-11621.233289,-3830.477490
163556.553496,-4441.235652,-10066.800811,-2451.505594
163556.553815,-370.102971,-8882.471304,-1915.238745
163556.554135,1628.453072,-8882.471304,2987.772442
163556.554455,4071.132681,-6513.812290,689.485948
163556.554775,2368.659014,-5921.647536,1149.143247
163556.555095,0.000000,-6735.874072,-1532.190996
163556.555414,-4737.318029,-9548.656652,0.000000
163556.555734,-3627.009116,-8882.471304,-2451.505594
163556.556054,-1036.288319,-9252.574275,-383.047749
163556.556374,962.267725,-8290.306550,229.828649
163556.556694,1110.308913,-8956.491898,229.828649
163556.557013,2886.803174,-9474.636058,2068.457845
163556.557333,-74.020594,-9474.636058,-1455.581446
163556.557653,-2072.576638,-11029.068536,-153.219100
163556.557973,-1258.350101,-12731.542202,-2528.115143
163556.558292,-2294.638420,-11325.150913,-1302.362347
163556.558612,0.000000,-7179.997637,0.000000
163556.558932,2294.638420,-8586.388927,1762.019645
163556.559252,2590.720797,-7254.018232,1991.848295
163556.559572,2146.597232,-7476.080014,-383.047749
163556.559891,518.144159,-9992.780217,0.000000
163556.560211,-74.020594,-13841.851115,1455.581446
163556.560531,-4737.318029,-10732.986159,1225.752797
163556.560851,-74.020594,-11843.295072,-76.609550
163556.561171,-962.267725,-7624.121203,536.266849
163556.561490,2294.638420,-6513.812290,-1532.190996
163556.561810,3478.967927,-7105.977043,1762.019645
163556.562130,1110.308913,-8216.285956,0.000000
163556.562450,-1184.329507,-10881.027347,1149.143247
163556.562769,-2442.679609,-11177.109724,383.047749
163556.563089,-1184.329507,-11325.150913,2911.162892
163556.563409,-444.123565,-9252.574275,1455.581446
163556.563729,814.226536,-8882.471304,536.266849
163556.564049,222.061783,-7994.224174,2374.896044
163556.564368,0.000000,-5403.503377,0.000000
163556.564688,-74.020594,-10658.965565,-76.609550
163556.565008,-2368.659014,-10140.821405,-919.314598
163556.565328,-2886.803174,-11177.109724,-459.657299
163556.565648,-2072.576638,-9844.739029,-1685.410096
163556.565967,-2294.638420,-9178.553681,-919.314598
163556.566287,-2738.761985,-7179.997637,-3677.258390
163556.566607,1110.308913,-7698.141797,-766.095498
163556.566927,740.205942,-8068.244768,-1608.800546
163556.567247,-296.082377,-11621.233289,-766.095498
163556.567566,-370.102971,-11843.295072,1149.143247
163556.567886,-74.020594,-10658.965565,-1915.238745
163556.568206,-1184.329507,-8512.368333,383.047749
163556.568526,2146.597232,-9400.615463,-995.924147
163556.568845,2664.741391,-7179.997637,-1838.629195
163556.569165,3552.988522,-8512.368333,1838.629195
163556.569485,-1332.370696,-7920.203579,0.000000
163556.569805,-1554.432478,-9400.615463,-919.314598
163556.570125,-1554.432478,-9326.594869,-2681.334243
163556.570444,666.185348,-8882.471304,-2451.505594
163556.570764,2294.638420,-10807.006753,536.266849
163556.571084,4071.132681,-9474.636058,2374.896044
163556.571404,1184.329507,-7328.038826,0.000000
163556.571724,-2368.659014,-7772.162391,0.000000
163556.572043,-2294.638420,-9844.739029,-1838.629195
163556.572363,-3552.988522,-9548.656652,0.000000
163556.572683,0.000000,-8290.306550,-1225.752797
163556.573003,-592.164754,-9548.656652,-153.219100
163556.573322,-740.205942,-9178.553681,-689.485948
163556.573642,-1184.329507,-6291.750507,-2528.115143
163556.573962,-74.020594,-7698.141797,-3753.867940
163556.574282,-1480.411884,-10066.800811,-3447.429741
163556.574602,-3552.988522,-9548.656652,-3064.381992
163556.574921,-1776.494261,-10807.006753,-1225.752797
163556.575241,-370.102971,-9474.636058,-76.609550
163556.575561,-2368.659014,-9548.656652,0.000000
163556.575881,1702.473667,-9178.553681,995.924147
163556.576201,1702.473667,-8808.450710,-766.095498
163556.576520,-666.185348,-9326.594869,612.876398
163556.576840,-222.061783,-8438.347739,-689.485948
163556.577160,-74.020594,-9474.636058,-76.609550
163556.577480,1702.473667,-8290.306550,-1915.238745
163556.577800,-1776.494261,-9548.656652,0.000000
163556.578119,888.247130,-9474.636058,0.000000
163556.578439,2072.576638,-10140.821405,1991.848295
163556.578759,-3182.885551,-7476.080014,-1225.752797
163556.579079,-2442.679609,-9770.718434,-842.705048
163556.579398,-1480.411884,-9252.574275,306.438199
163556.579718,814.226536,-7920.203579,-612.876398
163556.580038,1702.473667,-10658.965565,1149.143247
163556.580358,0.000000,-9548.656652,1225.752797
163556.580678,1406.391290,-10066.800811,1149.143247
163556.580997,-74.020594,-9474.636058,-76.609550
163556.581317,-1554.432478,-9400.615463,-2145.067394
163556.581637,-592.164754,-10881.027347,1762.019645
163556.581957,0.000000,-8512.368333,-1072.533697
163556.582277,1554.432478,-9770.718434,-153.219100
163556.582596,740.205942,-11843.295072,153.219100
163556.582916,74.020594,-9548.656652,0.000000
163556.583236,-592.164754,-8142.265362,-1838.629195
163556.583556,-1480.411884,-8660.409521,-1225.752797
163556.583875,-74.020594,-10584.944971,689.485948
163556.584195,2294.638420,-11843.295072,2068.457845
163556.584515,1554.432478,-9178.553681,536.266849
163556.584835,1332.370696,-12361.439231,3907.087040
163556.585155,-1480.411884,-9992.780217,842.705048
163556.585474,-666.185348,-8808.450710,-689.485948
163556.585794,-1554.432478,-7550.100608,-536.266849
163556.586114,-4145.153275,-6291.750507,0.000000
163556.586434,-74.020594,-8290.306550,-76.609550
163556.586754,0.000000,-7476.080014,0.000000
163556.587073,2220.617826,-10955.047942,1149.143247
163556.587393,-370.102971,-11473.192101,995.924147
163556.587713,-592.164754,-10436.903782,3600.648841
163556.588033,-1480.411884,-8660.409521,536.266849
163556.588354,-2220.617826,-9400.615463,-1378.971896
163556.588674,-1258.350101,-8438.347739,-536.266849
163556.588994,518.144159,-8512.368333,-383.047749
163556.589314,222.061783,-7179.997637,-1302.362347
163556.589634,-74.020594,-11843.295072,-76.609550
163556.589953,-370.102971,-10658.965565,-76.609550
163556.590273,-1258.350101,-8882.471304,-3140.991542
163556.590593,-4145.153275,-7179.997637,-3677.258390
163556.590913,1702.473667,-12435.459826,-76.609550
163556.591232,740.205942,-8438.347739,612.876398
163556.591552,3256.906145,-8956.491898,0.000000
163556.591872,2146.597232,-10140.821405,842.705048
163556.592192,1332.370696,-10881.027347,612.876398
163556.592511,0.000000,-8808.450710,-1455.581446
163556.592831,0.000000,-8364.327145,-2145.067394
163556.593151,-74.020594,-9474.636058,-1608.800546
163556.593471,0.000000,-7772.162391,0.000000
163556.593791,0.000000,-6291.750507,-3064.381992
163556.594110,740.205942,-9474.636058,1762.019645
163556.594430,-370.102971,-9770.718434,-842.705048
163556.594750,-740.205942,-9992.780217,153.219100
163556.595070,0.000000,-10140.821405,-1302.362347
163556.595389,-2368.659014,-9844.739029,0.000000
163556.595709,-2960.823768,-7476.080014,0.000000
163556.596029,518.144159,-8882.471304,536.266849
163556.596349,1110.308913,-9474.636058,-76.609550
163556.596668,-74.020594,-9474.636058,-1608.800546
163556.596988,-1850.514855,-7994.224174,-76.609550
163556.597308,-1480.411884,-10955.047942,-689.485948
163556.597628,-2590.720797,-9622.677246,-2757.943793
163556.597947,-2516.700203,-9918.759623,-3677.258390
163556.598267,-1110.308913,-9918.759623,-612.876398
163556.598587,0.000000,-5995.668130,-2451.505594
163556.598907,0.000000,-9252.574275,0.000000
163556.599227,0.000000,-7772.162391,612.876398
163556.599546,2368.659014,-9474.636058,1149.143247
163556.599866,518.144159,-8142.265362,459.657299
163556.600186,1702.473667,-8882.471304,-383.047749
163556.600506,148.041188,-9400.615463,766.095498
163556.600825,222.061783,-7920.203579,-1838.629195
163556.601145,-148.041188,-9770.718434,-1225.752797
163556.601465,-888.247130,-11843.295072,-76.609550
163556.601785,-3108.864956,-8956.491898,-2451.505594
163556.602104,-666.185348,-11251.130318,-2068.457845
163556.602424,-3182.885551,-9622.677246,-1532.190996
163556.602744,-1036.288319,-9178.553681,0.000000
163556.603064,-74.020594,-9474.636058,-76.609550
163556.603384,1776.494261,-6143.709319,919.314598
163556.603703,814.226536,-8142.265362,-766.095498
163556.604023,1554.432478,-9918.759623,766.095498
163556.604343,0.000000,-11325.150913,-842.705048
163556.604663,-3552.988522,-9548.656652,0.000000
163556.604982,-3849.070898,-9548.656652,-1991.848295
163556.605302,-1702.473667,-9474.636058,-995.924147
163556.605622,2294.638420,-10658.965565,-1608.800546
163556.605942,3182.885551,-9474.636058,-689.485948
163556.606261,592.164754,-9548.656652,2451.505594
163556.606581,296.082377,-8808.450710,0.000000
163556.606901,-1332.370696,-9696.697840,-1915.238745
163556.607221,-3330.926739,-10288.862594,-2451.505594
163556.607541,-962.267725,-8290.306550,-842.705048
163556.607860,4071.132681,-9474.636058,-76.609550
163556.608180,2664.741391,-7846.182985,2145.067394
163556.608500,1702.473667,-9400.615463,919.314598
163556.608820,-518.144159,-9992.780217,1915.238745
163556.609139,-888.247130,-9548.656652,-1838.629195
163556.609459,-4737.318029,-8364.327145,0.000000
163556.609779,-4145.153275,-8956.491898,-1225.752797
163556.610099,-444.123565,-8290.306550,-153.219100
163556.610418,1998.556043,-9252.574275,1455.581446
163556.610738,1110.308913,-7402.059420,-1302.362347
163556.611058,2294.638420,-11251.130318,2987.772442
163556.611378,-1776.494261,-10140.821405,0.000000
163556.611697,-2812.782580,-9844.739029,-842.705048
163556.612017,-3627.009116,-9474.636058,-1915.238745
163556.612337,-1850.514855,-6735.874072,995.924147
163556.612657,1110.308913,-7698.141797,-1302.362347
163556.612977,1480.411884,-8068.244768,766.095498
163556.613296,0.000000,-8364.327145,0.000000
163556.613616,0.000000,-10436.903782,1838.629195
163556.613936,-1850.514855,-8882.471304,-3140.991542
163556.614256,-3478.967927,-11177.109724,-1608.800546
163556.614575,-1776.494261,-9252.574275,-1302.362347
163556.614895,1850.514855,-8586.388927,76.609550
163556.615215,3404.947333,-9400.615463,2068.457845
163556.615535,2812.782580,-11029.068536,2681.334243
163556.615854,1110.308913,-11547.212695,2757.943793
163556.616174,-74.020594,-11843.295072,-76.609550
163556.616494,-2146.597232,-9474.636058,-229.828649
163556.616814,-1258.350101,-7846.182985,0.000000
163556.617134,2294.638420,-7105.977043,-76.609550
163556.617453,2220.617826,-7698.141797,306.438199
163556.617773,2220.617826,-9622.677246,1532.190996
163556.618093,296.082377,-10510.924376,2451.505594
163556.618413,-1258.350101,-11473.192101,1762.019645
163556.618732,-4737.318029,-8364.327145,-3064.381992
163556.619052,-7105.977043,-8364.327145,-3677.258390
163556.619372,-518.144159,-7846.182985,536.266849
163556.619692,2960.823768,-7179.997637,306.438199
163556.620011,2294.638420,-8364.327145,0.000000
163556.620331,1702.473667,-11843.295072,1149.143247
163556.620651,-2812.782580,-9844.739029,842.705048
163556.620971,-4737.318029,-8512.368333,-3447.429741
163556.621291,-4737.318029,-9104.533087,-3524.039291
163556.621610,-2072.576638,-8956.491898,-995.924147
163556.621930,2294.638420,-6291.750507,0.000000
163556.622250,3552.988522,-7179.997637,1915.238745
163556.622570,0.000000,-7772.162391,0.000000
163556.622889,518.144159,-11103.089130,536.266849
163556.623209,-3034.844362,-8660.409521,-5745.716235
163556.623529,-1998.556043,-10955.047942,-1302.362347
163556.623849,-1184.329507,-10584.944971,-995.924147
163556.624168,1036.288319,-7328.038826,229.828649
163556.624488,2220.617826,-8290.306550,-689.485948
163556.624808,1702.473667,-11843.295072,-76.609550
163556.625128,814.226536,-10066.800811,-76.609550
163556.625447,-74.020594,-11843.295072,-689.485948
163556.625767,-2960.823768,-8660.409521,-2221.676944
163556.626087,-4737.318029,-9548.656652,-3677.258390
163556.626407,-666.185348,-7105.977043,-1608.800546
163556.626727,2516.700203,-6661.853478,-2451.505594
163556.627046,2590.720797,-8438.347739,0.000000
163556.627366,370.102971,-10807.006753,-1149.143247
163556.627686,-74.020594,-13619.789333,1455.581446
163556.628006,-2516.700203,-11621.233289,-3677.258390
163556.628325,-3552.988522,-12509.480420,-919.314598
163556.628645,-666.185348,-10362.883188,-1915.238745
163556.628965,962.267725,-8290.306550,-76.609550
163556.629285,592.164754,-4811.338623,0.000000
163556.629604,3923.091493,-9326.594869,-229.828649
163556.629924,1332.370696,-9770.718434,1532.190996
163556.630244,148.041188,-10807.006753,0.000000
163556.630564,-1406.391290,-10881.027347,842.705048
163556.630884,-1480.411884,-9844.739029,383.047749
163556.631203,-2368.659014,-5995.668130,0.000000
163556.631523,1480.411884,-6809.894666,-383.047749
163556.631843,2960.823768,-8956.491898,2374.896044
163556.632163,2590.720797,-11251.130318,2987.772442
163556.632482,-3256.906145,-9548.656652,0.000000
163556.632802,-2294.638420,-10807.006753,-76.609550
163556.633122,-5921.647536,-10436.903782,-1991.848295
163556.633442,-3849.070898,-8438.347739,-995.924147
163556.633761,-74.020594,-7105.977043,-1302.362347
163556.634081,4663.297435,-7994.224174,2068.457845
163556.634401,1184.329507,-9548.656652,1378.971896
163556.634721,-962.267725,-8660.409521,766.095498
163556.635040,-3552.988522,-10732.986159,-1072.533697
163556.635360,-5921.647536,-11325.150913,0.000000
163556.635680,-4959.379811,-9548.656652,-3600.648841
163556.636000,-962.267725,-8512.368333,-995.924147
163556.636320,1702.473667,-6883.915261,-995.924147
163556.636639,2442.679609,-8660.409521,-306.438199
163556.636959,4071.132681,-13027.624579,-76.609550
163556.637279,-370.102971,-12805.562797,-76.609550
163556.637599,-74.020594,-14211.954086,-76.609550
163556.637918,-4219.173869,-10288.862594,-1762.019645
163556.638238,-1776.494261,-5477.523971,-383.047749
163556.638558,1998.556043,-3849.070898,-3753.867940
163556.638878,5477.523971,-7994.224174,1762.019645
163556.639197,5255.462188,-9548.656652,2757.943793
163556.639517,2368.659014,-10362.883188,3753.867940
163556.639837,-1258.350101,-10658.965565,-76.609550
163556.640157,-7698.141797,-9918.759623,-2221.676944
163556.640477,-5107.421000,-7624.121203,-3370.820191
163556.640796,-1184.329507,-6587.832884,-1532.190996
163556.641116,2368.659014,-5995.668130,1532.190996
163556.641436,3775.050304,-8142.265362,1762.019645
163556.641756,2294.638420,-10955.047942,3600.648841
163556.642075,-3330.926739,-9400.615463,-2068.457845
163556.642395,-5107.421000,-11251.130318,-2145.067394
163556.642715,-3923.091493,-10807.006753,-1838.629195
163556.643035,-3256.906145,-5995.668130,0.000000
163556.643354,1480.411884,-6661.853478,229.828649
163556.643674,3182.885551,-7698.141797,0.000000
163556.643994,3108.864956,-9474.636058,1149.143247
163556.644314,-74.020594,-11473.192101,-842.705048
163556.644634,-1776.494261,-13027.624579,-689.485948
163556.644953,-4737.318029,-13249.686362,-2681.334243
163556.645273,-2886.803174,-10658.965565,-842.705048
163556.645593,222.061783,-7624.121203,-1149.143247
163556.645913,3923.091493,-5995.668130,0.000000
163556.646232,4663.297435,-7698.141797,-76.609550
163556.646552,2072.576638,-9918.759623,1762.019645
163556.646872,-1406.391290,-9252.574275,-1149.143247
163556.647192,-4515.256246,-11843.295072,-1149.143247
163556.647511,-2368.659014,-10658.965565,0.000000
163556.647831,-74.020594,-9030.512492,-383.047749
163556.648151,0.000000,-5995.668130,0.000000
163556.648471,2886.803174,-8438.347739,1225.752797
163556.648790,3182.885551,-11251.130318,3294.210641
163556.649110,-2294.638420,-8364.327145,-3677.258390
163556.649430,-3627.009116,-11251.130318,-1302.362347
163556.649750,-5181.441594,-10807.006753,-1608.800546
163556.650070,-2146.597232,-8734.430116,76.609550
163556.650389,1776.494261,-6735.874072,-153.219100
163556.650709,3627.009116,-7105.977043,1762.019645
163556.651029,888.247130,-7550.100608,306.438199
163556.651349,0.000000,-9548.656652,-2451.505594
163556.651668,-2368.659014,-11325.150913,-1838.629195
163556.651988,-2442.679609,-13915.871710,-1915.238745
163556.652308,-4145.153275,-9548.656652,-2451.505594
163556.652628,518.144159,-9178.553681,-919.314598
163556.652947,1998.556043,-6291.750507,76.609550
163556.653267,2368.659014,-7402.059420,-383.047749
163556.653587,2590.720797,-8290.306550,-76.609550
163556.653907,1998.556043,-13027.624579,-76.609550
163556.654227,-666.185348,-16580.613101,2374.896044
163556.654546,-1258.350101,-12879.583391,-76.609550
163556.654866,-2368.659014,-7772.162391,0.000000
163556.655186,0.000000,-4219.173869,0.000000
163556.655506,370.102971,-4811.338623,-1991.848295
163556.655825,3034.844362,-8142.265362,1149.143247
163556.656145,1406.391290,-10140.821405,536.266849
163556.656465,-2738.761985,-12657.521608,1608.800546
163556.656785,-3923.091493,-12435.459826,-689.485948
163556.657104,-5625.565159,-7772.162391,0.000000
163556.657424,-74.020594,-7105.977043,-1915.238745
163556.657744,2294.638420,-6661.853478,-383.047749
163556.658064,1406.391290,-7031.956449,0.000000
163556.658384,0.000000,-8364.327145,0.000000
163556.658703,-2738.761985,-10881.027347,-1762.019645
163556.659023,-6439.791695,-12361.439231,-2987.772442
163556.659343,-4737.318029,-10288.862594,-2068.457845
163556.659663,-962.267725,-8290.306550,-1532.190996
163556.659982,4145.153275,-5699.585753,1149.143247
163556.660302,2960.823768,-6587.832884,612.876398
163556.660622,4219.173869,-7698.141797,0.000000
163556.660942,0.000000,-8956.491898,-1532.190996
163556.661261,-2146.597232,-12731.542202,-76.609550
163556.661581,-5921.647536,-9548.656652,-3677.258390
163556.661901,-1850.514855,-11843.295072,-1225.752797
163556.662221,1480.411884,-8660.409521,-383.047749
163556.662540,3108.864956,-7994.224174,1225.752797
163556.662860,4071.132681,-8290.306550,2374.896044
163556.663180,3478.967927,-9474.636058,-383.047749
163556.663500,-370.102971,-12953.603985,-76.609550
163556.663820,-3627.009116,-10955.047942,-1915.238745
163556.664139,-4145.153275,-8364.327145,-919.314598
163556.664459,0.000000,-7772.162391,306.438199
163556.664779,592.164754,-5107.421000,0.000000
163556.665099,2664.741391,-8142.265362,1455.581446
163556.665418,1332.370696,-9030.512492,153.219100
163556.665738,-1036.288319,-10140.821405,-1225.752797
163556.666058,-2442.679609,-13027.624579,-1302.362347
163556.666378,-3552.988522,-11473.192101,0.000000
163556.666697,-814.226536,-12435.459826,-689.485948
163556.667017,1110.308913,-8586.388927,1072.533697
163556.667337,2294.638420,-6809.894666,-383.047749
163556.667657,592.164754,-5403.503377,2451.505594
163556.667977,-666.185348,-7105.977043,-3294.210641
163556.668296,-2516.700203,-11029.068536,-2221.676944
163556.668616,-3108.864956,-11843.295072,-1532.190996
163556.668936,-1480.411884,-10732.986159,0.000000
163556.669256,1406.391290,-9252.574275,-1532.190996
163556.669575,1184.329507,-7476.080014,612.876398
163556.669895,3034.844362,-7698.141797,1915.238745
163556.670215,3478.967927,-9474.636058,-689.485948
163556.670535,1110.308913,-12435.459826,-76.609550
163556.670854,-3552.988522,-12213.398043,0.000000
163556.671174,-2442.679609,-11843.295072,459.657299
163556.671494,-2146.597232,-9400.615463,-689.485948
163556.671814,-1332.370696,-6883.915261,-229.828649
163556.672134,222.061783,-5181.441594,-2068.457845
163556.672453,1554.432478,-6143.709319,-842.705048
163556.672773,2072.576638,-8290.306550,-689.485948
163556.673093,-2368.659014,-10732.986159,612.876398
163556.673413,-1628.453072,-11695.253884,2528.115143
163556.673732,-666.185348,-11843.295072,-76.609550
163556.674052,-2368.659014,-7179.997637,-1838.629195
163556.674372,222.061783,-8438.347739,-2298.286494
163556.674692,1554.432478,-8364.327145,842.705048
163556.675011,1628.453072,-10140.821405,-383.047749
163556.675331,-2146.597232,-8956.491898,-1915.238745
163556.675651,-3034.844362,-13027.624579,-76.609550
163556.675971,-3034.844362,-8586.388927,-2068.457845
163556.676290,0.000000,-7179.997637,-2145.067394
163556.676610,296.082377,-6291.750507,76.609550
163556.676930,2368.659014,-5995.668130,2451.505594
163556.677250,3775.050304,-8882.471304,2374.896044
163556.677570,296.082377,-9474.636058,689.485948
163556.677889,-2664.741391,-10584.944971,-383.047749
163556.678209,-3923.091493,-7994.224174,-2528.115143
163556.678529,-2368.659014,-9252.574275,-1991.848295
163556.678849,0.000000,-7772.162391,0.000000
163556.679168,2368.659014,-9326.594869,612.876398
163556.679488,3256.906145,-9992.780217,4213.525239
163556.679808,-1110.308913,-5995.668130,-3370.820191
163556.680128,-2442.679609,-11843.295072,-842.705048
163556.680447,-3182.885551,-9548.656652,-995.924147
163556.680767,-2146.597232,-9400.615463,-995.924147
163556.681087,0.000000,-8512.368333,1915.238745
163556.681407,2664.741391,-10066.800811,2987.772442
163556.681727,814.226536,-8216.285956,1378.971896
163556.682046,222.061783,-8586.388927,-1838.629195
163556.682366,-2368.659014,-10955.047942,-1378.971896
163556.682686,-4071.132681,-11473.192101,-3677.258390
163556.683006,-3330.926739,-8660.409521,-1762.019645
163556.683325,1702.473667,-9474.636058,-1302.362347
163556.683645,592.164754,-7179.997637,0.000000
163556.683965,3478.967927,-9178.553681,0.000000
163556.684285,3478.967927,-7698.141797,-76.609550
163556.684604,1036.288319,-10140.821405,-229.828649
163556.684924,-2516.700203,-12509.480420,-842.705048
163556.685244,-1850.514855,-10658.965565,-383.047749
163556.685564,-444.123565,-10436.903782,0.000000
163556.685883,0.000000,-7402.059420,842.705048
163556.686203,1702.473667,-8586.388927,-76.609550
163556.686523,814.226536,-7698.141797,383.047749
163556.686843,0.000000,-5773.606348,-2528.115143
163556.687163,-3182.885551,-9918.759623,-2068.457845
163556.687482,-222.061783,-11843.295072,-76.609550
163556.687802,-2368.659014,-9548.656652,-1378.971896
163556.688122,-296.082377,-9844.739029,76.609550
163556.688442,444.123565,-10140.821405,-689.485948
163556.688761,814.226536,-9992.780217,2068.457845
163556.689081,-1776.494261,-6883.915261,0.000000
163556.689401,-2664.741391,-8142.265362,-1532.190996
163556.689721,-2812.782580,-10732.986159,-1762.019645
163556.690040,-74.020594,-11251.130318,-76.609550
163556.690360,518.144159,-9548.656652,-766.095498
163556.690680,3182.885551,-9474.636058,2374.896044
163556.691000,-888.247130,-7476.080014,306.438199
163556.691320,-444.123565,-6365.771101,-1072.533697
163556.691639,0.000000,-6957.935855,-2834.553343
163556.691959,0.000000,-9548.656652,0.000000
163556.692279,0.000000,-9548.656652,1225.752797
163556.692599,0.000000,-9548.656652,1225.752797
163556.692919,222.061783,-9474.636058,2374.896044
163556.693238,-1776.494261,-7476.080014,-3064.381992
163556.693558,0.000000,-7179.997637,-383.047749
163556.693878,1702.473667,-8142.265362,-1532.190996
163556.694198,-74.020594,-10732.986159,1991.848295
163556.694518,-1110.308913,-9252.574275,383.047749
163556.694837,-888.247130,-8586.388927,-1149.143247
163556.695157,-1184.329507,-8956.491898,0.000000
163556.695477,-1258.350101,-9252.574275,-2451.505594
163556.695797,0.000000,-10140.821405,1991.848295
163556.696117,518.144159,-9326.594869,1072.533697
163556.696436,-74.020594,-10066.800811,-76.609550
163556.696756,-2442.679609,-8364.327145,-4213.525239
163556.697076,-74.020594,-9918.759623,-76.609550
163556.697396,592.164754,-8734.430116,-1302.362347
163556.697715,296.082377,-9548.656652,-153.219100
163556.698035,148.041188,-10140.821405,-383.047749
163556.698355,0.000000,-9474.636058,-76.609550
163556.698675,-74.020594,-8882.471304,-2528.115143
163556.698995,-1776.494261,-10066.800811,-1608.800546
163556.699314,-2368.659014,-9548.656652,0.000000
163556.699634,1110.308913,-9104.533087,0.000000
163556.699954,-666.185348,-7105.977043,-1685.410096
163556.700274,592.164754,-10807.006753,536.266849
163556.700594,888.247130,-8956.491898,1762.019645
163556.700913,1036.288319,-8438.347739,-229.828649
163556.701233,1110.308913,-10658.965565,2374.896044
163556.701553,-74.020594,-10658.965565,-76.609550
163556.701873,-74.020594,-11547.212695,-76.609550
163556.702193,-74.020594,-9178.553681,-689.485948
163556.702512,-2960.823768,-10436.903782,0.000000
163556.702832,-3552.988522,-8364.327145,0.000000
163556.703152,-370.102971,-8290.306550,-459.657299
163556.703472,-592.164754,-7624.121203,306.438199
163556.703792,-1702.473667,-8734.430116,-766.095498
163556.704111,-740.205942,-8512.368333,919.314598
163556.704431,1924.535449,-10066.800811,-76.609550
163556.704751,-3552.988522,-7179.997637,0.000000
163556.705071,-2368.659014,-9918.759623,0.000000
163556.705391,-1258.350101,-10362.883188,-76.609550
163556.705710,-74.020594,-10362.883188,-3140.991542
163556.706030,-3552.988522,-9548.656652,-2451.505594
163556.706350,444.123565,-11251.130318,1149.143247
163556.706670,592.164754,-9548.656652,-689.485948
163556.706989,666.185348,-9548.656652,383.047749
163556.707309,0.000000,-9474.636058,-76.609550
163556.707629,1184.329507,-9770.718434,2987.772442
163556.707949,666.185348,-7328.038826,919.314598
163556.708269,0.000000,-5995.668130,0.000000
163556.708588,-74.020594,-8882.471304,1149.143247
163556.708908,1480.411884,-7846.182985,153.219100
163556.709228,0.000000,-8364.327145,-2451.505594
163556.709548,1110.308913,-13323.706956,1685.410096
163556.709868,0.000000,-11843.295072,3370.820191
163556.710187,-3108.864956,-8586.388927,-306.438199
163556.710507,-1258.350101,-8290.306550,-689.485948
163556.710827,-74.020594,-8142.265362,-1915.238745
163556.711147,2738.761985,-7105.977043,2374.896044
163556.711467,1258.350101,-6291.750507,306.438199
163556.711786,1184.329507,-9252.574275,2451.505594
163556.712106,-2368.659014,-10732.986159,612.876398
163556.712426,-3849.070898,-9548.656652,-1378.971896
163556.712746,-3997.112087,-8882.471304,-3524.039291
163556.713066,-3552.988522,-10066.800811,-2145.067394
163556.713385,-592.164754,-8734.430116,-1455.581446
163556.713705,4071.132681,-11843.295072,-76.609550
163556.714025,2960.823768,-9844.739029,1532.190996
163556.714345,1998.556043,-10658.965565,-383.047749
163556.714665,-1406.391290,-9548.656652,842.705048
163556.714984,-4145.153275,-5995.668130,-4903.011187
163556.715304,-962.267725,-8290.306550,-2528.115143
163556.715624,74.020594,-9030.512492,-612.876398
163556.715944,2072.576638,-9178.553681,1838.629195
163556.716263,2146.597232,-9030.512492,689.485948
163556.716583,1998.556043,-12435.459826,2374.896044
163556.716903,-666.185348,-10955.047942,-536.266849
163556.717223,-3182.885551,-7994.224174,-2757.943793
163556.717543,-2368.659014,-7179.997637,-3524.039291
163556.717862,-3552.988522,-9548.656652,0.000000
163556.718182,2294.638420,-8290.306550,-76.609550
163556.718502,2072.576638,-8734.430116,842.705048
163556.718822,1036.288319,-7920.203579,229.828649
163556.719142,-1036.288319,-10140.821405,-536.266849
163556.719461,-2146.597232,-10214.842000,689.485948
163556.719781,-3552.988522,-7179.997637,-2451.505594
163556.720101,-2146.597232,-9474.636058,-612.876398
163556.720421,-666.185348,-9178.553681,0.000000
163556.720741,888.247130,-7772.162391,-689.485948
163556.721060,1702.473667,-7624.121203,-1302.362347
163556.721380,2294.638420,-9474.636058,-2298.286494
163556.721700,1702.473667,-13027.624579,-76.609550
163556.722020,-74.020594,-10362.883188,-1455.581446
163556.722340,-1480.411884,-8364.327145,-2221.676944
163556.722659,740.205942,-10140.821405,1685.410096
163556.722979,0.000000,-4811.338623,0.000000
163556.723299,3034.844362,-8660.409521,-1302.362347
163556.723619,2072.576638,-10436.903782,0.000000
163556.723939,1406.391290,-13027.624579,536.266849
163556.724258,-962.267725,-13619.789333,1149.143247
163556.724578,-2146.597232,-10584.944971,-383.047749
163556.724898,-2442.679609,-10658.965565,-76.609550
163556.725218,-74.020594,-7105.977043,-76.609550
163556.725537,962.267725,-5329.482782,-1762.019645
163556.725857,2368.659014,-5995.668130,2451.505594
163556.726177,1850.514855,-9548.656652,919.314598
163556.726497,888.247130,-12361.439231,3294.210641
163556.726817,-2368.659014,-9844.739029,-383.047749
163556.727136,-5773.606348,-9622.677246,-1149.143247
163556.727456,-3627.009116,-6291.750507,-3600.648841
163556.727776,592.164754,-6587.832884,-1532.190996
163556.728096,1184.329507,-6587.832884,0.000000
163556.728416,2960.823768,-10436.903782,3064.381992
163556.728735,0.000000,-11621.233289,2911.162892
163556.729055,-3552.988522,-8956.491898,-3677.258390
163556.729375,-5773.606348,-10732.986159,-1838.629195
163556.729695,-3627.009116,-8882.471304,-2834.553343
163556.730015,-888.247130,-6883.915261,-842.705048
163556.730334,3404.947333,-8290.306550,1149.143247
163556.730654,5625.565159,-9474.636058,2987.772442
163556.730974,4071.132681,-12435.459826,3600.648841
163556.731294,-666.185348,-11251.130318,-76.609550
163556.731614,-3182.885551,-10214.842000,-1762.019645
163556.731933,-5921.647536,-9548.656652,-3677.258390
163556.732253,-666.185348,-7698.141797,-2221.676944
163556.732573,1628.453072,-9400.615463,-383.047749
163556.732893,3478.967927,-9178.553681,1991.848295
163556.733213,1924.535449,-10288.862594,1302.362347
163556.733532,1110.308913,-11177.109724,1991.848295
163556.733852,-4441.235652,-7476.080014,-4290.134789
163556.734172,-4737.318029,-9548.656652,-1838.629195
163556.734492,-814.226536,-9252.574275,-1225.752797
163556.734811,3108.864956,-8290.306550,2374.896044
163556.735131,592.164754,-4811.338623,0.000000
163556.735451,2442.679609,-8734.430116,766.095498
163556.735771,0.000000,-11029.068536,76.609550
163556.736091,-2738.761985,-10955.047942,-1378.971896
163556.736410,-3997.112087,-11621.233289,-842.705048
163556.736730,-3552.988522,-9992.780217,-995.924147
163556.737050,0.000000,-6587.832884,-1225.752797
163556.737370,2664.741391,-4885.359217,-2221.676944
163556.737690,2368.659014,-6291.750507,0.000000
163556.738009,2812.782580,-11325.150913,2911.162892
163556.738329,-3256.906145,-9548.656652,0.000000
163556.738649,-1850.514855,-11843.295072,-842.705048
163556.738969,-3627.009116,-11177.109724,-612.876398
163556.739289,-1258.350101,-8068.244768,306.438199
163556.739608,3478.967927,-7698.141797,-76.609550
163556.739928,6735.874072,-7105.977043,2374.896044
163556.740248,3478.967927,-11843.295072,2987.772442
163556.740568,814.226536,-10066.800811,1762.019645
163556.740888,-4737.318029,-10140.821405,-1225.752797
163556.741207,-7105.977043,-10732.986159,0.000000
163556.741527,-6587.832884,-8512.368333,-4519.963438
163556.741847,-1924.535449,-6809.894666,-1685.410096
163556.742167,962.267725,-6217.729913,-1838.629195
163556.742487,1850.514855,-9474.636058,76.609550
163556.742806,3478.967927,-14211.954086,2068.457845
163556.743126,-2368.659014,-11917.315666,0.000000
163556.743446,-4145.153275,-12065.356855,0.000000
163556.743766,-4811.338623,-9474.636058,-1302.362347
163556.744085,-666.185348,-7994.224174,-689.485948
163556.744405,1776.494261,-4811.338623,-1838.629195
163556.744725,4959.379811,-7698.141797,1302.362347
163556.745045,3701.029710,-10658.965565,2451.505594
163556.745365,-518.144159,-10362.883188,612.876398
163556.745684,-4367.215058,-8660.409521,-4903.011187
163556.746004,-7031.956449,-10288.862594,-4979.620737
163556.746324,-4441.235652,-7328.038826,-3677.258390
163556.746644,1924.535449,-7179.997637,-3677.258390
163556.746964,7550.100608,-8734.430116,3907.087040
163556.747283,7031.956449,-10658.965565,4519.963438
163556.747603,0.000000,-7772.162391,2451.505594
163556.747923,-666.185348,-9474.636058,-1378.971896
163556.748243,-2220.617826,-9992.780217,-1302.362347
163556.748563,-2294.638420,-10140.821405,-995.924147
163556.748882,-74.020594,-8290.306550,-383.047749
163556.749202,2886.803174,-6809.894666,-995.924147
163556.749522,2886.803174,-9474.636058,-76.609550
163556.749842,0.000000,-8216.285956,-1838.629195
163556.750162,-3552.988522,-10732.986159,-1838.629195
163556.750481,-3256.906145,-13619.789333,-689.485948
163556.750801,-5921.647536,-10732.986159,-3677.258390
163556.751121,-666.185348,-9030.512492,0.000000
163556.751441,3256.906145,-6291.750507,76.609550
163556.751761,3034.844362,-7476.080014,1685.410096
163556.752080,1110.308913,-8290.306550,-2528.115143
163556.752400,-74.020594,-13619.789333,2374.896044
163556.752720,-1258.350101,-11843.295072,-2068.457845
163556.753040,-5699.585753,-11917.315666,-2757.943793
163556.753359,-6513.812290,-9548.656652,-1225.752797
163556.753679,-2368.659014,-5403.503377,-2451.505594
163556.753999,2886.803174,-6513.812290,-919.314598
163556.754319,1998.556043,-8438.347739,-459.657299
163556.754639,1776.494261,-9770.718434,919.314598
163556.754958,-74.020594,-11251.130318,-995.924147
163556.755278,-3034.844362,-11695.253884,229.828649
163556.755598,-4145.153275,-10140.821405,0.000000
163556.755918,222.061783,-8216.285956,2451.505594
163556.756238,4515.256246,-7698.141797,2374.896044
163556.756557,2886.803174,-5625.565159,0.000000
163556.756877,2886.803174,-9178.553681,1762.019645
163556.757197,-1332.370696,-9770.718434,153.219100
163556.757517,-3627.009116,-11325.150913,-1915.238745
163556.757837,-5773.606348,-11991.336260,-2145.067394
163556.758156,-2960.823768,-10288.862594,1532.190996
163556.758476,-444.123565,-5995.668130,-1915.238745
163556.758796,1850.514855,-6291.750507,153.219100
163556.759116,2368.659014,-7920.203579,76.609550
163556.759436,2368.659014,-9548.656652,1225.752797
163556.759755,518.144159,-10140.821405,-2374.896044
163556.760075,-2442.679609,-13027.624579,-995.924147
163556.760395,-4515.256246,-10732.986159,-1455.581446
163556.760715,-1480.411884,-8068.244768,-2451.505594
163556.761035,3478.967927,-7105.977043,-76.609550
163556.761354,3552.988522,-8956.491898,1532.190996
163556.761674,3775.050304,-10066.800811,2145.067394
163556.761994,1036.288319,-11251.130318,536.266849
163556.762314,-2812.782580,-11843.295072,306.438199
163556.762633,-6143.709319,-9252.574275,-3524.039291
163556.762953,-3478.967927,-7698.141797,-1532.190996
163556.763273,2590.720797,-7105.977043,-1302.362347
163556.763593,6883.915261,-9474.636058,3600.648841
163556.763913,4219.173869,-9548.656652,3753.867940
163556.764232,2294.638420,-11843.295072,4826.401637
163556.764552,-4737.318029,-8364.327145,-1838.629195
163556.764872,-6217.729913,-11917.315666,-3294.210641
163556.765192,-3627.009116,-9770.718434,-1838.629195
163556.765512,-148.041188,-9030.512492,0.000000
163556.765831,1184.329507,-5995.668130,2451.505594
163556.766151,2220.617826,-8068.244768,0.000000
163556.766471,0.000000,-8956.491898,1532.190996
163556.766791,-1850.514855,-8734.430116,-4366.744339
163556.767111,-5107.421000,-11695.253884,-3447.429741
163556.767430,-1110.308913,-14211.954086,-76.609550
163556.767750,0.000000,-9548.656652,0.000000
163556.768070,1924.535449,-8512.368333,536.266849
163556.768390,2146.597232,-7476.080014,76.609550
163556.768710,592.164754,-6587.832884,0.000000
163556.769029,0.000000,-5403.503377,-3064.381992
163556.769349,-3552.988522,-8364.327145,-2451.505594
163556.769669,-2368.659014,-12657.521608,-612.876398
163556.769989,-74.020594,-9770.718434,-76.609550
163556.770309,2294.638420,-8290.306550,-383.047749
163556.770628,3034.844362,-7772.162391,536.266849
163556.770948,1924.535449,-7846.182985,-1838.629195
163556.771268,1258.350101,-9696.697840,-842.705048
163556.771588,296.082377,-10658.965565,-1685.410096
