#time,accel_x,accel_y,accel_z
59540.103206,-296.082377,-8956.491898,1149.143247
59540.103516,0.000000,-9104.533087,1072.533697
59540.103825,-666.185348,-8586.388927,0.000000
59540.104135,962.267725,-9474.636058,1838.629195
59540.104445,1110.308913,-10658.965565,2374.896044
59540.104754,-1110.308913,-8142.265362,0.000000
59540.105064,222.061783,-11843.295072,3600.648841
59540.105373,-2664.741391,-7179.997637,0.000000
59540.105683,0.000000,-10362.883188,2757.943793
59540.105992,-74.020594,-9400.615463,689.485948
59540.106302,-444.123565,-9178.553681,766.095498
59540.106611,-222.061783,-9030.512492,995.924147
59540.106921,-74.020594,-8660.409521,0.000000
59540.107230,0.000000,-8660.409521,0.000000
59540.107540,592.164754,-9992.780217,2451.505594
59540.107850,-74.020594,-9400.615463,766.095498
59540.108159,0.000000,-8364.327145,1225.752797
59540.108469,-74.020594,-9178.553681,-76.609550
59540.108778,-1184.329507,-9548.656652,1225.752797
59540.109088,-74.020594,-9474.636058,1149.143247
59540.109397,-296.082377,-9030.512492,919.314598
59540.109707,-296.082377,-8956.491898,919.314598
59540.110016,-444.123565,-7994.224174,-383.047749
59540.110326,-1776.494261,-7772.162391,0.000000
59540.110635,0.000000,-8956.491898,1225.752797
59540.110945,-74.020594,-9326.594869,1072.533697
59540.111255,592.164754,-10732.986159,3064.381992
59540.111564,-666.185348,-7994.224174,-76.609550
59540.111874,-814.226536,-8364.327145,0.000000
59540.112183,-74.020594,-9326.594869,1149.143247
59540.112493,-518.144159,-9252.574275,919.314598
59540.112802,-592.164754,-9178.553681,536.266849
59540.113112,-222.061783,-8882.471304,1149.143247
59540.113421,-1480.411884,-7476.080014,0.000000
59540.113731,-2368.659014,-7772.162391,0.000000
59540.114041,-74.020594,-10066.800811,2374.896044
59540.114350,-2368.659014,-7179.997637,0.000000
59540.114660,-74.020594,-10658.965565,2374.896044
59540.114969,-1036.288319,-7179.997637,0.000000
59540.115279,-74.020594,-9474.636058,1455.581446
59540.115588,-148.041188,-9030.512492,689.485948
59540.115898,0.000000,-9030.512492,919.314598
59540.116207,-74.020594,-10658.965565,1762.019645
59540.116517,-814.226536,-7772.162391,-76.609550
59540.116826,-1924.535449,-7772.162391,0.000000
59540.117136,0.000000,-9622.677246,3524.039291
59540.117446,-1850.514855,-6957.935855,-1455.581446
59540.117755,592.164754,-10140.821405,1225.752797
59540.118065,-962.267725,-8068.244768,0.000000
59540.118374,-740.205942,-8660.409521,612.876398
59540.118684,-518.144159,-9030.512492,536.266849
59540.118993,-592.164754,-8956.491898,919.314598
59540.119303,-74.020594,-11843.295072,2374.896044
59540.119612,-74.020594,-9474.636058,1762.019645
59540.119922,-1924.535449,-7328.038826,0.000000
59540.120231,296.082377,-9696.697840,3064.381992
59540.120541,-74.020594,-7994.224174,-689.485948
59540.120851,-2368.659014,-7179.997637,0.000000
59540.121160,-666.185348,-8586.388927,536.266849
59540.121470,-444.123565,-8956.491898,766.095498
59540.121779,-148.041188,-9400.615463,842.705048
59540.122089,-370.102971,-9178.553681,842.705048
59540.122398,740.205942,-10066.800811,1685.410096
59540.122708,-74.020594,-10658.965565,2374.896044
59540.123017,-74.020594,-8882.471304,-76.609550
59540.123327,-1184.329507,-8364.327145,612.876398
59540.123636,-74.020594,-9474.636058,-76.609550
59540.123946,-1776.494261,-7179.997637,0.000000
59540.124256,-74.020594,-9474.636058,1149.143247
59540.124565,-888.247130,-8586.388927,536.266849
59540.124875,-296.082377,-8956.491898,842.705048
59540.125184,518.144159,-8956.491898,1302.362347
59540.125494,592.164754,-8364.327145,2451.505594
59540.125803,2294.638420,-10955.047942,2604.724693
59540.126113,2294.638420,-9474.636058,1149.143247
59540.126422,0.000000,-7772.162391,0.000000
59540.126732,4663.297435,-11251.130318,-76.609550
59540.127041,0.000000,-5995.668130,0.000000
59540.127351,3478.967927,-9474.636058,1762.019645
59540.127661,2368.659014,-8956.491898,842.705048
59540.127970,3256.906145,-9252.574275,1149.143247
59540.128280,2590.720797,-9400.615463,459.657299
59540.128589,592.164754,-7772.162391,0.000000
59540.128899,3997.112087,-9548.656652,1532.190996
59540.129208,4663.297435,-10362.883188,1762.019645
59540.129518,2664.741391,-8068.244768,0.000000
59540.129827,6439.791695,-9474.636058,1149.143247
59540.130137,3552.988522,-7624.121203,1991.848295
59540.130447,7624.121203,-10362.883188,2374.896044
59540.130756,6291.750507,-8734.430116,1455.581446
59540.131066,5847.626942,-8660.409521,1149.143247
59540.131375,5551.544565,-8660.409521,536.266849
59540.131685,4145.153275,-7476.080014,0.000000
59540.131994,4737.318029,-7772.162391,0.000000
59540.132304,7105.977043,-10807.006753,995.924147
59540.132613,5699.585753,-9548.656652,-3064.381992
59540.132923,7031.956449,-13471.748144,1991.848295
59540.133232,3923.091493,-13027.624579,-689.485948
59540.133542,3404.947333,-13397.727550,1225.752797
59540.133852,2294.638420,-11843.295072,536.266849
59540.134161,2294.638420,-10288.862594,766.095498
59540.134471,2812.782580,-7698.141797,1378.971896
59540.134780,2738.761985,-3923.091493,919.314598
59540.135090,2960.823768,-2442.679609,612.876398
59540.135399,6513.812290,-3330.926739,2451.505594
59540.135709,9400.615463,-4737.318029,3600.648841
59540.136018,7698.141797,-4811.338623,2451.505594
59540.136328,9400.615463,-11843.295072,3600.648841
59540.136637,2368.659014,-12509.480420,0.000000
59540.136947,-740.205942,-17172.777854,-2145.067394
59540.137257,-4145.153275,-18949.272115,-2911.162892
59540.137566,-3849.070898,-15026.180623,-3600.648841
59540.137876,-3627.009116,-11695.253884,-3140.991542
59540.138185,-3552.988522,-6291.750507,-2221.676944
59540.138495,0.000000,-5995.668130,1838.629195
59540.138804,5551.544565,-7105.977043,6665.030833
59540.139114,1184.329507,-3034.844362,3677.258390
59540.139423,6439.791695,-5773.606348,7584.345430
59540.139733,1332.370696,-2442.679609,2451.505594
59540.140042,1998.556043,-3108.864956,3217.601092
59540.140352,4663.297435,-1850.514855,2911.162892
59540.140662,3478.967927,-5921.647536,689.485948
59540.140971,-74.020594,-10658.965565,-1302.362347
59540.141281,-3034.844362,-15248.242405,-4060.306139
59540.141590,-7105.977043,-19023.292709,-4596.572988
59540.141900,-6513.812290,-19911.539840,-2451.505594
59540.142209,-3627.009116,-14211.954086,-3753.867940
59540.142519,-4737.318029,-7179.997637,0.000000
59540.142828,592.164754,-3627.009116,612.876398
59540.143138,4589.276840,-4811.338623,4673.182538
59540.143448,6069.688724,-4515.256246,5515.887586
59540.143757,6069.688724,-5107.421000,5898.935335
59540.144067,9400.615463,-4737.318029,7277.907231
59540.144376,11177.109724,-3552.988522,5439.278036
59540.144686,5329.482782,-2590.720797,3524.039291
59540.144995,3256.906145,-10436.903782,3677.258390
59540.145305,-74.020594,-15100.201217,-2834.553343
59540.145614,-4737.318029,-13101.645173,-6128.763984
59540.145924,-4515.256246,-16432.571912,-4979.620737
59540.146233,-4737.318029,-14434.015869,-4903.011187
59540.146543,-5551.544565,-13397.727550,-3753.867940
59540.146853,-1110.308913,-9030.512492,-2451.505594
59540.147162,7031.956449,-9474.636058,5286.058936
59540.147472,13545.768739,-4737.318029,7277.907231
59540.147781,14137.933492,0.000000,7890.783629
59540.148091,11843.295072,-666.185348,7354.516781
59540.148400,12953.603985,-8290.306550,7277.907231
59540.148710,4145.153275,-5995.668130,0.000000
59540.149019,2886.803174,-8882.471304,-995.924147
59540.149329,-1924.535449,-12583.501014,-3753.867940
59540.149638,-4071.132681,-16580.613101,-4826.401637
59540.149948,-1258.350101,-15914.427753,-3907.087040
59540.150258,4737.318029,-11917.315666,-919.314598
59540.150567,5699.585753,-11843.295072,1149.143247
59540.150877,3478.967927,-10658.965565,-76.609550
59540.151186,0.000000,-7772.162391,0.000000
59540.151496,10288.862594,-7105.977043,4826.401637
59540.151805,7550.100608,-444.123565,3447.429741
59540.152115,6439.791695,-4145.153275,3294.210641
59540.152424,3552.988522,-4959.379811,766.095498
59540.152734,5699.585753,-7772.162391,2068.457845
59540.153043,6957.935855,-7772.162391,2374.896044
59540.153353,0.000000,-10140.821405,1225.752797
59540.153663,-1924.535449,-11917.315666,-2298.286494
59540.153972,-1998.556043,-15396.283594,-2528.115143
59540.154282,-3775.050304,-10214.842000,-4826.401637
59540.154591,-296.082377,-12509.480420,612.876398
59540.154901,3478.967927,-7994.224174,-76.609550
59540.155210,9252.574275,-5921.647536,3600.648841
59540.155520,7328.038826,-6069.688724,3600.648841
59540.155829,4737.318029,-5625.565159,3140.991542
59540.156139,3256.906145,-6217.729913,2528.115143
59540.156448,0.000000,-4811.338623,306.438199
59540.156758,1184.329507,-7772.162391,306.438199
59540.157068,1036.288319,-11621.233289,2068.457845
59540.157377,-2368.659014,-8364.327145,-2451.505594
59540.157687,740.205942,-13323.706956,-76.609550
59540.157996,-74.020594,-14211.954086,-1302.362347
59540.158306,-2220.617826,-11843.295072,-459.657299
59540.158615,-370.102971,-10658.965565,919.314598
59540.158925,5255.462188,-5403.503377,2451.505594
59540.159234,5847.626942,-7698.141797,4749.792088
59540.159544,4145.153275,-2664.741391,1838.629195
59540.159854,2368.659014,-5995.668130,2757.943793
59540.160163,3552.988522,-7698.141797,3830.477490
59540.160473,518.144159,-6661.853478,-689.485948
59540.160782,1776.494261,-9548.656652,1532.190996
59540.161092,3478.967927,-10658.965565,-76.609550
59540.161401,-1036.288319,-10732.986159,0.000000
59540.161711,-222.061783,-9992.780217,-2068.457845
59540.162020,-1332.370696,-11325.150913,-1302.362347
59540.162330,1628.453072,-8142.265362,0.000000
59540.162639,4663.297435,-6439.791695,0.000000
59540.162949,4737.318029,-5699.585753,1225.752797
59540.163259,4737.318029,-7772.162391,3677.258390
59540.163568,6439.791695,-8882.471304,1149.143247
59540.163878,2368.659014,-9548.656652,1225.752797
59540.164187,5551.544565,-11843.295072,3600.648841
59540.164497,1184.329507,-8660.409521,0.000000
59540.164806,2960.823768,-9474.636058,0.000000
59540.165116,962.267725,-10955.047942,459.657299
59540.165425,0.000000,-8956.491898,-766.095498
59540.165735,2294.638420,-9474.636058,-76.609550
59540.166044,3997.112087,-4589.276840,0.000000
59540.166354,3552.988522,-7179.997637,0.000000
59540.166664,7031.956449,-9474.636058,2987.772442
59540.166973,1480.411884,-7179.997637,0.000000
59540.167283,6661.853478,-10732.986159,4290.134789
59540.167592,3849.070898,-7846.182985,306.438199
59540.167902,3552.988522,-9400.615463,0.000000
59540.168211,1184.329507,-9918.759623,-1532.190996
59540.168521,740.205942,-10955.047942,-1378.971896
59540.168830,4071.132681,-13027.624579,-76.609550
59540.169140,3478.967927,-9474.636058,-76.609550
59540.169449,1776.494261,-8364.327145,0.000000
59540.169759,5847.626942,-9474.636058,2987.772442
59540.170069,1776.494261,-7179.997637,1225.752797
59540.170378,5329.482782,-7772.162391,3370.820191
59540.170688,5921.647536,-4367.215058,2451.505594
59540.170997,4737.318029,-6883.915261,2528.115143
59540.171307,2368.659014,-7624.121203,-153.219100
59540.171616,-296.082377,-11103.089130,-229.828649
59540.171926,4367.215058,-11843.295072,-76.609550
59540.172236,2294.638420,-12731.542202,-76.609550
59540.172545,222.061783,-7328.038826,-4060.306139
59540.172855,1184.329507,-12509.480420,153.219100
59540.173164,3997.112087,-13027.624579,2681.334243
59540.173474,2368.659014,-6587.832884,0.000000
59540.173784,3108.864956,-9844.739029,3370.820191
59540.174093,1776.494261,-4811.338623,0.000000
59540.174403,2516.700203,-9252.574275,2451.505594
59540.174712,5551.544565,-5921.647536,2374.896044
59540.175022,5847.626942,-9474.636058,3600.648841
59540.175332,2886.803174,-7105.977043,-76.609550
59540.175641,296.082377,-9548.656652,0.000000
59540.175951,5847.626942,-13027.624579,3600.648841
59540.176260,1554.432478,-9548.656652,0.000000
59540.176570,0.000000,-9548.656652,2451.505594
59540.176879,-2368.659014,-9030.512492,-1532.190996
59540.177189,0.000000,-10807.006753,0.000000
59540.177499,3330.926739,-7846.182985,689.485948
59540.177808,3108.864956,-8438.347739,2451.505594
59540.178118,5551.544565,-8290.306550,3294.210641
59540.178427,3478.967927,-9474.636058,1762.019645
59540.178737,2442.679609,-7179.997637,0.000000
59540.179047,3478.967927,-11843.295072,2374.896044
59540.179356,-3552.988522,-7179.997637,-1532.190996
59540.179666,-4737.318029,-9548.656652,0.000000
59540.179975,0.000000,-9844.739029,-229.828649
59540.180285,666.185348,-9844.739029,1455.581446
59540.180595,1258.350101,-8808.450710,2681.334243
59540.180904,666.185348,-9548.656652,2068.457845
59540.181214,1628.453072,-9474.636058,2068.457845
59540.181523,-1258.350101,-11843.295072,2068.457845
59540.181833,-3627.009116,-5995.668130,-2221.676944
59540.182143,-2368.659014,-8660.409521,1838.629195
59540.182452,-1850.514855,-4885.359217,-1608.800546
59540.182762,-4145.153275,-5403.503377,0.000000
59540.183071,-2442.679609,-8290.306550,-76.609550
59540.183381,-1850.514855,-9400.615463,229.828649
59540.183690,-370.102971,-10066.800811,536.266849
59540.184000,-1258.350101,-10881.027347,229.828649
59540.184310,-3256.906145,-12213.398043,1378.971896
59540.184619,-1850.514855,-11843.295072,-76.609550
59540.184929,-370.102971,-9474.636058,-76.609550
59540.185238,0.000000,-5995.668130,612.876398
59540.185548,2220.617826,-9326.594869,3294.210641
59540.185858,814.226536,-6513.812290,612.876398
59540.186167,1702.473667,-8290.306550,2374.896044
59540.186477,-2590.720797,-9252.574275,919.314598
59540.186786,-4885.359217,-8438.347739,-919.314598
59540.187096,-4589.276840,-9474.636058,-689.485948
59540.187406,-2960.823768,-8364.327145,1225.752797
59540.187715,-296.082377,-9696.697840,1378.971896
59540.188025,-74.020594,-11843.295072,2374.896044
59540.188334,-1628.453072,-8364.327145,0.000000
59540.188644,1184.329507,-10436.903782,3064.381992
59540.188954,-370.102971,-8882.471304,-689.485948
59540.189263,-3034.844362,-9474.636058,-76.609550
59540.189573,-3256.906145,-8364.327145,-919.314598
59540.189882,0.000000,-8734.430116,536.266849
59540.190192,592.164754,-8438.347739,1072.533697
59540.190502,0.000000,-7179.997637,1532.190996
59540.190811,2368.659014,-9548.656652,2451.505594
59540.191121,4071.132681,-11843.295072,3600.648841
59540.191430,-3552.988522,-9548.656652,0.000000
59540.191740,-2738.761985,-10658.965565,-76.609550
59540.192049,-2442.679609,-11251.130318,-1915.238745
59540.192359,3923.091493,-8586.388927,1915.238745
59540.192669,2738.761985,-9474.636058,2681.334243
59540.192978,2294.638420,-7698.141797,2221.676944
59540.193288,1850.514855,-8438.347739,1991.848295
59540.193597,2368.659014,-5995.668130,2451.505594
59540.193907,1480.411884,-8364.327145,2604.724693
59540.194217,-2738.761985,-11843.295072,-76.609550
59540.194526,-5921.647536,-8364.327145,-3064.381992
59540.194836,-74.020594,-11251.130318,-383.047749
59540.195145,3182.885551,-8882.471304,-76.609550
59540.195455,1776.494261,-9844.739029,1915.238745
59540.195765,3997.112087,-8586.388927,1838.629195
59540.196074,5847.626942,-9030.512492,1455.581446
59540.196384,2072.576638,-10214.842000,2298.286494
59540.196693,-3552.988522,-9548.656652,0.000000
59540.197003,-2960.823768,-8364.327145,-1072.533697
59540.197313,2072.576638,-10510.924376,2374.896044
59540.197622,0.000000,-6291.750507,0.000000
59540.197932,1998.556043,-8364.327145,2681.334243
59540.198241,4663.297435,-9474.636058,3600.648841
59540.198551,2516.700203,-7179.997637,1838.629195
59540.198861,-814.226536,-9770.718434,0.000000
59540.199170,-4145.153275,-10214.842000,-1532.190996
59540.199480,-3627.009116,-10066.800811,-1991.848295
59540.199789,-2812.782580,-8364.327145,-3064.381992
59540.200099,-2368.659014,-8364.327145,-1225.752797
59540.200408,1184.329507,-9844.739029,3064.381992
59540.200718,4663.297435,-9474.636058,2068.457845
59540.201028,0.000000,-7179.997637,612.876398
59540.201337,-74.020594,-11843.295072,3600.648841
59540.201647,-5625.565159,-10140.821405,0.000000
59540.201956,-2664.741391,-9474.636058,-76.609550
59540.202266,-1924.535449,-7698.141797,76.609550
59540.202576,-814.226536,-7624.121203,1225.752797
59540.202885,1110.308913,-7994.224174,1685.410096
59540.203195,2072.576638,-6291.750507,1838.629195
59540.203504,2368.659014,-8364.327145,4903.011187
59540.203814,-74.020594,-11251.130318,1149.143247
59540.204124,-4737.318029,-10140.821405,0.000000
59540.204433,-1258.350101,-13027.624579,-76.609550
59540.204743,-4737.318029,-10140.821405,0.000000
59540.205052,-2516.700203,-10658.965565,-76.609550
59540.205362,-740.205942,-9474.636058,1225.752797
59540.205672,2146.597232,-7476.080014,2834.553343
59540.205981,1702.473667,-6809.894666,1991.848295
59540.206291,-2368.659014,-6291.750507,1532.190996
59540.206600,-2368.659014,-10732.986159,3370.820191
59540.206910,-2738.761985,-8290.306550,-1455.581446
59540.207220,-2368.659014,-9252.574275,0.000000
59540.207529,-74.020594,-11843.295072,2374.896044
59540.207839,0.000000,-8956.491898,1225.752797
59540.208148,3478.967927,-9178.553681,2987.772442
59540.208458,3108.864956,-8956.491898,2451.505594
59540.208767,-740.205942,-10214.842000,1685.410096
59540.209077,-2146.597232,-11399.171507,-76.609550
59540.209387,-3552.988522,-9548.656652,0.000000
59540.209696,-666.185348,-8586.388927,-383.047749
59540.210006,-2368.659014,-7179.997637,1225.752797
59540.210315,2294.638420,-7994.224174,1149.143247
59540.210625,0.000000,-4811.338623,2451.505594
59540.210935,4959.379811,-6069.688724,2604.724693
59540.211244,2738.761985,-8216.285956,2528.115143
59540.211554,-1258.350101,-9918.759623,0.000000
59540.211863,-2442.679609,-10436.903782,-1608.800546
59540.212173,-74.020594,-13619.789333,-76.609550
59540.212483,-74.020594,-11251.130318,-76.609550
59540.212792,962.267725,-7179.997637,-1838.629195
59540.213102,4737.318029,-8660.409521,3677.258390
59540.213411,4663.297435,-8882.471304,1762.019645
59540.213721,0.000000,-5995.668130,0.000000
59540.214031,-1702.473667,-9474.636058,-229.828649
59540.214340,-2220.617826,-8660.409521,-919.314598
59540.214650,-1850.514855,-8882.471304,-1378.971896
59540.214959,-1480.411884,-9104.533087,-306.438199
59540.215269,1850.514855,-10658.965565,1532.190996
59540.215579,5551.544565,-9474.636058,2374.896044
59540.215888,3775.050304,-8290.306550,-76.609550
59540.216198,0.000000,-9548.656652,1225.752797
59540.216507,-1850.514855,-13027.624579,-76.609550
59540.216817,-7105.977043,-7476.080014,-4290.134789
59540.217126,-3627.009116,-10658.965565,-1302.362347
59540.217436,-2368.659014,-9918.759623,153.219100
59540.217746,148.041188,-8956.491898,1378.971896
59540.218055,3552.988522,-6365.771101,2987.772442
59540.218365,4737.318029,-7179.997637,5822.325785
59540.218674,2812.782580,-7105.977043,4213.525239
59540.218984,-2442.679609,-8882.471304,-76.609550
59540.219294,-5921.647536,-8364.327145,-1838.629195
59540.219603,-3627.009116,-11103.089130,-689.485948
59540.219913,-6735.874072,-8660.409521,-4290.134789
59540.220222,-1258.350101,-11843.295072,-76.609550
59540.220532,370.102971,-7550.100608,536.266849
59540.220842,1628.453072,-10584.944971,3064.381992
59540.221151,2072.576638,-7179.997637,3064.381992
59540.221461,-2368.659014,-9548.656652,3983.696590
59540.221770,-518.144159,-7994.224174,1378.971896
59540.222080,-3330.926739,-9474.636058,-76.609550
59540.222390,-4145.153275,-6587.832884,306.438199
59540.222699,-74.020594,-9474.636058,2068.457845
59540.223009,2294.638420,-5329.482782,-383.047749
59540.223318,3923.091493,-7698.141797,2068.457845
59540.223628,-444.123565,-9548.656652,1608.800546
59540.223938,-2738.761985,-10881.027347,-842.705048
59540.224247,-4737.318029,-11325.150913,-1225.752797
59540.224557,-4737.318029,-9548.656652,0.000000
59540.224866,-1184.329507,-11029.068536,306.438199
59540.225176,2886.803174,-9474.636058,2374.896044
59540.225485,1184.329507,-5995.668130,2451.505594
59540.225795,5847.626942,-8882.471304,4213.525239
59540.226105,2294.638420,-7105.977043,1149.143247
59540.226414,962.267725,-9474.636058,2681.334243
59540.226724,-962.267725,-7402.059420,-76.609550
59540.227033,-2664.741391,-8956.491898,-1149.143247
59540.227343,-3775.050304,-9770.718434,-995.924147
59540.227653,-4145.153275,-9548.656652,0.000000
59540.227962,592.164754,-8956.491898,153.219100
59540.228272,4071.132681,-11325.150913,3983.696590
59540.228581,-74.020594,-8290.306550,-383.047749
59540.228891,-1184.329507,-10732.986159,1225.752797
59540.229201,-74.020594,-11843.295072,-76.609550
59540.229510,-592.164754,-10066.800811,153.219100
59540.229820,-1258.350101,-9474.636058,-76.609550
59540.230129,370.102971,-8956.491898,612.876398
59540.230439,4589.276840,-7402.059420,2374.896044
59540.230749,2368.659014,-5403.503377,2451.505594
59540.231058,0.000000,-7179.997637,1532.190996
59540.231368,-296.082377,-11621.233289,3370.820191
59540.231677,-74.020594,-9178.553681,-1302.362347
59540.231987,-4441.235652,-9548.656652,-2298.286494
59540.232297,-1258.350101,-12435.459826,-76.609550
59540.232606,-1776.494261,-10807.006753,0.000000
59540.232916,3182.885551,-8216.285956,1762.019645
59540.233225,3627.009116,-8068.244768,2374.896044
59540.233535,888.247130,-8068.244768,2298.286494
59540.233844,-1850.514855,-6513.812290,0.000000
59540.234154,-2072.576638,-5995.668130,0.000000
59540.234464,-1850.514855,-11843.295072,1762.019645
59540.234773,-5921.647536,-7772.162391,-1838.629195
59540.235083,-1258.350101,-11843.295072,-76.609550
59540.235392,3478.967927,-9474.636058,3447.429741
59540.235702,1776.494261,-8068.244768,2451.505594
59540.236012,814.226536,-8882.471304,2145.067394
59540.236321,-444.123565,-9474.636058,1455.581446
59540.236631,-370.102971,-8068.244768,842.705048
59540.236940,-1850.514855,-9474.636058,-1302.362347
59540.237250,-4663.297435,-8956.491898,-612.876398
59540.237560,-2368.659014,-11029.068536,1838.629195
59540.237869,3478.967927,-8290.306550,1762.019645
59540.238179,2368.659014,-7179.997637,2451.505594
59540.238488,296.082377,-6439.791695,2451.505594
59540.238798,-222.061783,-9326.594869,1762.019645
59540.239108,-1924.535449,-8438.347739,-689.485948
59540.239417,-4293.194464,-11621.233289,-689.485948
59540.239727,-4737.318029,-10732.986159,-919.314598
59540.240036,-2664.741391,-11843.295072,1762.019645
59540.240346,1702.473667,-9474.636058,3524.039291
59540.240656,3478.967927,-8290.306550,1762.019645
59540.240965,296.082377,-5995.668130,3064.381992
59540.241275,2886.803174,-8734.430116,4213.525239
59540.241584,-74.020594,-8290.306550,-76.609550
59540.241894,-4737.318029,-9548.656652,-1225.752797
59540.242203,-5329.482782,-11029.068536,-1455.581446
59540.242513,-3108.864956,-11103.089130,-995.924147
59540.242823,1554.432478,-8438.347739,1149.143247
59540.243132,1850.514855,-7179.997637,612.876398
59540.243442,888.247130,-7179.997637,0.000000
59540.243751,2294.638420,-11843.295072,3600.648841
59540.244061,-1850.514855,-6883.915261,-1072.533697
59540.244371,-1776.494261,-11029.068536,1225.752797
59540.244680,-2368.659014,-9252.574275,919.314598
59540.244990,-1258.350101,-10214.842000,-689.485948
59540.245299,962.267725,-7920.203579,459.657299
59540.245609,1406.391290,-7846.182985,1608.800546
59540.245919,1776.494261,-7254.018232,2451.505594
59540.246228,2886.803174,-9178.553681,2681.334243
59540.246538,1110.308913,-9474.636058,2374.896044
59540.246847,-4737.318029,-7772.162391,-2451.505594
59540.247157,-2442.679609,-12435.459826,-76.609550
59540.247467,-3256.906145,-8364.327145,-3447.429741
59540.247776,1036.288319,-7550.100608,0.000000
59540.248086,2812.782580,-8660.409521,1838.629195
59540.248395,2590.720797,-8586.388927,2221.676944
59540.248705,888.247130,-7328.038826,1915.238745
59540.249015,-2146.597232,-9548.656652,-76.609550
59540.249324,-1480.411884,-9548.656652,0.000000
59540.249634,-2368.659014,-7179.997637,0.000000
59540.249943,2294.638420,-11843.295072,2374.896044
59540.250253,888.247130,-4811.338623,0.000000
59540.250562,2886.803174,-13027.624579,4826.401637
59540.250872,2960.823768,-8290.306550,2987.772442
59540.251182,-1480.411884,-10955.047942,919.314598
59540.251491,-1184.329507,-8142.265362,0.000000
59540.251801,-2368.659014,-11547.212695,-229.828649
59540.252110,-2368.659014,-8512.368333,0.000000
59540.252420,-1258.350101,-11547.212695,-76.609550
59540.252730,2294.638420,-8882.471304,-76.609550
59540.253039,0.000000,-7179.997637,612.876398
59540.253349,2886.803174,-9474.636058,2374.896044
59540.253658,0.000000,-8364.327145,2451.505594
59540.253968,-2072.576638,-8364.327145,0.000000
59540.254278,-2516.700203,-10955.047942,-383.047749
59540.254587,-4219.173869,-11029.068536,-842.705048
59540.254897,-2812.782580,-10658.965565,-306.438199
59540.255206,1406.391290,-9474.636058,2374.896044
59540.255516,2368.659014,-6883.915261,1838.629195
59540.255826,2368.659014,-8068.244768,5209.449386
59540.256135,1110.308913,-7994.224174,2374.896044
59540.256445,-1480.411884,-7179.997637,2757.943793
59540.256754,-3478.967927,-5995.668130,-2221.676944
59540.257064,-2442.679609,-10658.965565,-76.609550
59540.257373,-3256.906145,-11029.068536,-153.219100
59540.257683,0.000000,-8364.327145,0.000000
59540.257993,1332.370696,-9030.512492,1532.190996
59540.258302,0.000000,-7179.997637,612.876398
59540.258612,-74.020594,-9474.636058,2068.457845
59540.258921,-222.061783,-7254.018232,-689.485948
59540.259231,-2072.576638,-11399.171507,995.924147
59540.259541,-4663.297435,-10140.821405,-3677.258390
59540.259850,-1184.329507,-13397.727550,3677.258390
59540.260160,1184.329507,-6735.874072,612.876398
59540.260469,3478.967927,-7179.997637,3064.381992
59540.260779,2960.823768,-5995.668130,3217.601092
59540.261089,2442.679609,-7031.956449,2757.943793
59540.261398,3478.967927,-8142.265362,2374.896044
59540.261708,-2072.576638,-8660.409521,0.000000
59540.262017,-2664.741391,-11843.295072,612.876398
59540.262327,-3849.070898,-11029.068536,-1915.238745
59540.262637,2294.638420,-12361.439231,2221.676944
59540.262946,1110.308913,-7402.059420,-1302.362347
59540.263256,2294.638420,-8290.306550,1149.143247
59540.263565,-666.185348,-8882.471304,536.266849
59540.263875,-148.041188,-8660.409521,-76.609550
59540.264185,-1776.494261,-11103.089130,383.047749
59540.264494,-2368.659014,-9548.656652,1838.629195
59540.264804,-74.020594,-10510.924376,-76.609550
59540.265113,592.164754,-6661.853478,0.000000
59540.265423,1776.494261,-8660.409521,3677.258390
59540.265732,3478.967927,-8290.306550,1762.019645
59540.266042,370.102971,-9474.636058,2987.772442
59540.266352,1184.329507,-7179.997637,1838.629195
59540.266661,-370.102971,-9844.739029,383.047749
59540.266971,-2442.679609,-10881.027347,-306.438199
59540.267280,-2738.761985,-12213.398043,-536.266849
59540.267590,-666.185348,-8882.471304,-2528.115143
59540.267900,-2368.659014,-9548.656652,0.000000
59540.268209,-74.020594,-9474.636058,1762.019645
59540.268519,814.226536,-4811.338623,0.000000
59540.268828,4663.297435,-9474.636058,3600.648841
59540.269138,-4441.235652,-5403.503377,0.000000
59540.269448,-2738.761985,-9696.697840,-229.828649
59540.269757,-2368.659014,-10732.986159,-383.047749
59540.270067,0.000000,-9400.615463,459.657299
59540.270376,0.000000,-9178.553681,1149.143247
59540.270686,1406.391290,-9474.636058,3753.867940
59540.270995,1110.308913,-8734.430116,2374.896044
59540.271305,592.164754,-5551.544565,919.314598
59540.271615,1110.308913,-11843.295072,4213.525239
59540.271924,-4145.153275,-7179.997637,-1608.800546
59540.272234,-74.020594,-13027.624579,-76.609550
59540.272543,-518.144159,-9918.759623,-76.609550
59540.272853,-518.144159,-10510.924376,689.485948
59540.273162,296.082377,-8068.244768,766.095498
59540.273472,148.041188,-6883.915261,0.000000
59540.273782,0.000000,-5403.503377,0.000000
59540.274091,0.000000,-9844.739029,2451.505594
59540.274401,-666.185348,-9474.636058,-76.609550
59540.274710,-2368.659014,-11029.068536,919.314598
59540.275020,1110.308913,-10658.965565,-76.609550
59540.275329,0.000000,-9548.656652,1225.752797
59540.275639,592.164754,-6883.915261,1838.629195
59540.275949,1406.391290,-6735.874072,2681.334243
59540.276258,2220.617826,-6069.688724,1302.362347
59540.276568,740.205942,-9548.656652,2145.067394
59540.276877,-74.020594,-11251.130318,1149.143247
59540.277187,-3552.988522,-10288.862594,-842.705048
59540.277496,-2072.576638,-9844.739029,1455.581446
59540.277806,-2442.679609,-7994.224174,-2221.676944
59540.278115,-1776.494261,-8660.409521,1225.752797
59540.278425,-1258.350101,-5921.647536,-995.924147
59540.278735,1702.473667,-7476.080014,2068.457845
59540.279044,444.123565,-9030.512492,2068.457845
59540.279354,-1332.370696,-9770.718434,919.314598
59540.279663,-2368.659014,-10362.883188,459.657299
59540.279973,-1776.494261,-8512.368333,0.000000
59540.280282,-370.102971,-8586.388927,766.095498
59540.280592,-888.247130,-7550.100608,766.095498
59540.280902,-370.102971,-8586.388927,842.705048
59540.281211,1702.473667,-8142.265362,1225.752797
59540.281521,518.144159,-8882.471304,612.876398
59540.281830,-2294.638420,-9548.656652,-2451.505594
59540.282140,-3552.988522,-11917.315666,1225.752797
59540.282449,-74.020594,-11251.130318,-76.609550
59540.282759,-888.247130,-8364.327145,306.438199
59540.283069,0.000000,-7476.080014,2451.505594
59540.283378,518.144159,-8216.285956,1762.019645
59540.283688,1406.391290,-7105.977043,842.705048
59540.283997,888.247130,-8660.409521,1302.362347
59540.284307,-1332.370696,-9548.656652,612.876398
59540.284616,-1850.514855,-8882.471304,-1302.362347
59540.284926,-1184.329507,-8068.244768,-3677.258390
59540.285235,1702.473667,-13471.748144,2374.896044
59540.285545,-4589.276840,-6587.832884,-2681.334243
59540.285855,-2072.576638,-11473.192101,1149.143247
59540.286164,2368.659014,-5995.668130,612.876398
59540.286474,2886.803174,-10584.944971,2987.772442
59540.286783,740.205942,-7846.182985,2068.457845
59540.287093,-2664.741391,-10140.821405,459.657299
59540.287402,-222.061783,-9104.533087,76.609550
59540.287712,-74.020594,-10066.800811,383.047749
59540.288022,-1480.411884,-8660.409521,0.000000
59540.288331,2294.638420,-9474.636058,2374.896044
59540.288641,74.020594,-6439.791695,766.095498
59540.288950,2960.823768,-7772.162391,2451.505594
59540.289260,0.000000,-7772.162391,2451.505594
59540.289569,-74.020594,-9178.553681,842.705048
59540.289879,-296.082377,-10214.842000,0.000000
59540.290189,-1480.411884,-10066.800811,76.609550
59540.290498,-3182.885551,-10807.006753,-536.266849
59540.290808,-1258.350101,-8882.471304,-1302.362347
59540.291117,-148.041188,-5773.606348,-1915.238745
59540.291427,0.000000,-7772.162391,2451.505594
59540.291736,-74.020594,-9474.636058,2374.896044
59540.292046,0.000000,-8068.244768,1225.752797
59540.292355,0.000000,-7179.997637,0.000000
59540.292665,-296.082377,-10066.800811,1455.581446
59540.292975,-2664.741391,-8586.388927,0.000000
59540.293284,-2072.576638,-8586.388927,153.219100
59540.293594,1110.308913,-7624.121203,76.609550
59540.293903,2294.638420,-9474.636058,-76.609550
59540.294213,-1036.288319,-8364.327145,-2374.896044
59540.294522,1036.288319,-11399.171507,2374.896044
59540.294832,-370.102971,-8808.450710,-76.609550
59540.295142,-2960.823768,-9548.656652,0.000000
59540.295451,-3701.029710,-8660.409521,-766.095498
59540.295761,-74.020594,-9770.718434,766.095498
59540.296070,2072.576638,-8068.244768,1915.238745
59540.296380,1850.514855,-8438.347739,2757.943793
59540.296689,0.000000,-8586.388927,2068.457845
59540.296999,-74.020594,-10362.883188,2068.457845
59540.297309,-962.267725,-8808.450710,0.000000
59540.297618,-74.020594,-11843.295072,3447.429741
59540.297928,-3849.070898,-7772.162391,0.000000
59540.298237,-370.102971,-8882.471304,1149.143247
59540.298547,-74.020594,-6513.812290,-1072.533697
59540.298856,-148.041188,-8808.450710,842.705048
59540.299166,-666.185348,-9622.677246,1149.143247
59540.299475,-148.041188,-10881.027347,536.266849
59540.299785,-2072.576638,-8512.368333,-459.657299
59540.300095,-1998.556043,-14804.118840,2987.772442
59540.300404,1702.473667,-9474.636058,-76.609550
59540.300714,0.000000,-7772.162391,1225.752797
59540.301023,4663.297435,-7105.977043,2374.896044
59540.301333,0.000000,-5995.668130,612.876398
59540.301642,1036.288319,-7698.141797,0.000000
59540.301952,1332.370696,-9252.574275,1302.362347
59540.302262,-2442.679609,-11177.109724,0.000000
59540.302571,-3182.885551,-9622.677246,-1915.238745
59540.302881,-3849.070898,-11251.130318,-76.609550
59540.303190,962.267725,-8882.471304,-76.609550
59540.303500,222.061783,-9474.636058,2374.896044
59540.303809,-2368.659014,-4811.338623,0.000000
59540.304119,1628.453072,-12361.439231,2604.724693
59540.304429,2294.638420,-9474.636058,2834.553343
59540.304738,1110.308913,-9178.553681,76.609550
59540.305048,-2220.617826,-8956.491898,919.314598
59540.305357,-1924.535449,-8438.347739,-383.047749
59540.305667,-370.102971,-8956.491898,1149.143247
59540.305976,962.267725,-8216.285956,2374.896044
59540.306286,296.082377,-9622.677246,3064.381992
59540.306595,-74.020594,-11843.295072,2374.896044
59540.306905,0.000000,-7920.203579,0.000000
59540.307215,1184.329507,-10807.006753,2298.286494
59540.307524,-1258.350101,-10362.883188,-76.609550
59540.307834,-1850.514855,-10066.800811,-1915.238745
59540.308143,-1184.329507,-8512.368333,-919.314598
59540.308453,1110.308913,-8734.430116,689.485948
59540.308762,1110.308913,-7920.203579,1608.800546
59540.309072,1406.391290,-8734.430116,3064.381992
59540.309382,1184.329507,-8364.327145,3370.820191
59540.309691,2886.803174,-11843.295072,3600.648841
59540.310001,-3552.988522,-7772.162391,0.000000
59540.310310,-2516.700203,-11399.171507,1225.752797
59540.310620,-1554.432478,-8586.388927,-995.924147
59540.310929,1110.308913,-9918.759623,-76.609550
59540.311239,444.123565,-7550.100608,995.924147
59540.311549,518.144159,-8438.347739,1685.410096
59540.311858,1184.329507,-8438.347739,1991.848295
59540.312168,296.082377,-9474.636058,1225.752797
59540.312477,-3552.988522,-8364.327145,612.876398
59540.312787,-4737.318029,-9548.656652,0.000000
59540.313096,-74.020594,-9474.636058,-76.609550
59540.313406,-1480.411884,-6587.832884,0.000000
59540.313715,740.205942,-8364.327145,1838.629195
59540.314025,1110.308913,-10362.883188,2374.896044
59540.314335,592.164754,-8660.409521,919.314598
59540.314644,592.164754,-10214.842000,1302.362347
59540.314954,-666.185348,-10214.842000,919.314598
59540.315263,-3108.864956,-10436.903782,0.000000
59540.315573,-3404.947333,-7772.162391,0.000000
59540.315882,0.000000,-7179.997637,0.000000
59540.316192,2886.803174,-9474.636058,2987.772442
59540.316502,0.000000,-7476.080014,919.314598
59540.316811,2590.720797,-8586.388927,3140.991542
59540.317121,1184.329507,-9474.636058,3600.648841
59540.317430,-2738.761985,-8734.430116,153.219100
59540.317740,-5403.503377,-10140.821405,-766.095498
59540.318049,-2368.659014,-9252.574275,-306.438199
59540.318359,0.000000,-8512.368333,0.000000
59540.318669,-1184.329507,-6587.832884,0.000000
59540.318978,0.000000,-9548.656652,2451.505594
59540.319288,4663.297435,-9474.636058,1762.019645
59540.319597,0.000000,-7179.997637,0.000000
59540.319907,-2960.823768,-10214.842000,612.876398
59540.320216,-4441.235652,-11843.295072,842.705048
59540.320526,-1702.473667,-9178.553681,-842.705048
59540.320835,888.247130,-8438.347739,612.876398
59540.321145,1332.370696,-7105.977043,1762.019645
59540.321455,1184.329507,-8364.327145,76.609550
59540.321764,2294.638420,-7179.997637,919.314598
59540.322074,0.000000,-7179.997637,153.219100
59540.322383,1110.308913,-11251.130318,2681.334243
59540.322693,-4145.153275,-9548.656652,-766.095498
59540.323002,-1036.288319,-9474.636058,-76.609550
59540.323312,-1184.329507,-10140.821405,766.095498
59540.323622,-74.020594,-9178.553681,536.266849
59540.323931,370.102971,-9474.636058,1532.190996
59540.324241,2590.720797,-7846.182985,2068.457845
59540.324550,1850.514855,-7179.997637,842.705048
59540.324860,-1258.350101,-9474.636058,-383.047749
59540.325169,-3034.844362,-9178.553681,-1302.362347
59540.325479,-3552.988522,-8364.327145,0.000000
59540.325789,1702.473667,-10658.965565,-76.609550
59540.326098,0.000000,-6291.750507,995.924147
59540.326408,-2368.659014,-8956.491898,2451.505594
59540.326717,3478.967927,-9400.615463,2681.334243
59540.327027,3182.885551,-8512.368333,2757.943793
59540.327336,-592.164754,-11177.109724,1762.019645
59540.327646,-3997.112087,-8734.430116,-383.047749
59540.327955,-2442.679609,-8882.471304,-76.609550
59540.328265,-1554.432478,-5995.668130,-1762.019645
59540.328575,0.000000,-10140.821405,2911.162892
59540.328884,-74.020594,-8290.306550,1149.143247
59540.329194,592.164754,-7179.997637,3064.381992
59540.329503,1776.494261,-6291.750507,1225.752797
59540.329813,-148.041188,-9918.759623,1455.581446
59540.330122,-4367.215058,-10732.986159,0.000000
59540.330432,-3923.091493,-9622.677246,-2681.334243
59540.330742,-3034.844362,-11843.295072,-76.609550
59540.331051,-74.020594,-9474.636058,-76.609550
59540.331361,-74.020594,-8586.388927,842.705048
59540.331670,2368.659014,-5995.668130,2451.505594
59540.331980,4071.132681,-9326.594869,3600.648841
59540.332289,-962.267725,-8068.244768,1378.971896
59540.332599,-3552.988522,-8660.409521,612.876398
59540.332909,-1554.432478,-8956.491898,459.657299
59540.333218,-962.267725,-9178.553681,-153.219100
59540.333528,-592.164754,-8586.388927,689.485948
59540.333837,1110.308913,-10362.883188,2987.772442
59540.334147,4663.297435,-8290.306550,2451.505594
59540.334456,1702.473667,-8882.471304,-76.609550
59540.334766,-4145.153275,-9548.656652,0.000000
59540.335075,-2442.679609,-12731.542202,-76.609550
59540.335385,-3478.967927,-9178.553681,-2298.286494
59540.335695,-4145.153275,-7772.162391,-3064.381992
59540.336004,-1258.350101,-8660.409521,76.609550
59540.336314,1036.288319,-8956.491898,2068.457845
59540.336623,4145.153275,-6661.853478,2681.334243
59540.336933,3775.050304,-8882.471304,4826.401637
59540.337242,1480.411884,-10066.800811,1838.629195
59540.337552,-74.020594,-11843.295072,2374.896044
59540.337862,-4145.153275,-7179.997637,-2145.067394
59540.338171,-1406.391290,-11251.130318,-76.609550
59540.338481,-2072.576638,-7772.162391,0.000000
59540.338790,-1110.308913,-7772.162391,-842.705048
59540.339100,2220.617826,-7772.162391,1532.190996
59540.339409,1554.432478,-9622.677246,2145.067394
59540.339719,-888.247130,-9178.553681,1149.143247
59540.340029,-1554.432478,-11695.253884,2068.457845
59540.340338,-1628.453072,-9622.677246,-766.095498
59540.340648,-74.020594,-11547.212695,1302.362347
59540.340957,-370.102971,-8734.430116,-76.609550
59540.341267,592.164754,-8956.491898,2451.505594
59540.341576,4663.297435,-7105.977043,1302.362347
59540.341886,2294.638420,-7994.224174,2221.676944
59540.342195,0.000000,-9252.574275,1608.800546
59540.342505,-2886.803174,-11103.089130,383.047749
59540.342815,-2590.720797,-10140.821405,-689.485948
59540.343124,-1850.514855,-11473.192101,0.000000
59540.343434,-1480.411884,-8956.491898,0.000000
59540.343743,1702.473667,-10584.944971,2681.334243
59540.344053,3478.967927,-5921.647536,842.705048
59540.344362,1184.329507,-7476.080014,0.000000
59540.344672,1628.453072,-8956.491898,1378.971896
59540.344982,-666.185348,-9474.636058,1149.143247
59540.345291,-1776.494261,-9548.656652,0.000000
59540.345601,-2664.741391,-8956.491898,-1225.752797
59540.345910,-2368.659014,-9474.636058,-76.609550
59540.346220,1184.329507,-8956.491898,1225.752797
59540.346529,3552.988522,-7179.997637,612.876398
59540.346839,5477.523971,-10436.903782,4366.744339
59540.347149,74.020594,-8068.244768,1149.143247
59540.347458,-2072.576638,-8956.491898,1225.752797
59540.347768,-666.185348,-9474.636058,-229.828649
59540.348077,-1258.350101,-11843.295072,-76.609550
59540.348387,-2442.679609,-8290.306550,-842.705048
59540.348696,-148.041188,-9548.656652,1455.581446
59540.349006,3552.988522,-7105.977043,1991.848295
59540.349315,2368.659014,-6587.832884,1838.629195
59540.349625,0.000000,-7179.997637,2374.896044
59540.349935,-2368.659014,-8956.491898,612.876398
59540.350244,-666.185348,-10658.965565,-76.609550
59540.350554,-3552.988522,-10732.986159,0.000000
59540.350863,-1554.432478,-10362.883188,-383.047749
59540.351173,-74.020594,-11251.130318,-76.609550
59540.351482,1554.432478,-7402.059420,229.828649
59540.351792,1406.391290,-8808.450710,1762.019645
59540.352102,-148.041188,-8364.327145,1608.800546
59540.352411,-4145.153275,-8364.327145,0.000000
59540.352721,-2960.823768,-8882.471304,1149.143247
59540.353030,-3552.988522,-8364.327145,0.000000
59540.353340,-74.020594,-9474.636058,1762.019645
59540.353649,0.000000,-7179.997637,0.000000
59540.353959,3923.091493,-8290.306550,2987.772442
59540.354269,3478.967927,-10066.800811,3600.648841
59540.354578,-222.061783,-8882.471304,1378.971896
59540.354888,-3034.844362,-10436.903782,0.000000
59540.355197,-4071.132681,-10436.903782,-1608.800546
59540.355507,-6217.729913,-9844.739029,-2451.505594
59540.355816,-3775.050304,-9400.615463,-536.266849
59540.356126,-2146.597232,-7476.080014,0.000000
59540.356435,2664.741391,-7179.997637,2451.505594
59540.356745,2886.803174,-7402.059420,76.609550
59540.357055,-592.164754,-8586.388927,2374.896044
59540.357364,-1184.329507,-12065.356855,2528.115143
59540.357674,1110.308913,-7994.224174,842.705048
59540.357983,-666.185348,-9844.739029,1149.143247
59540.358293,-592.164754,-8290.306550,459.657299
59540.358602,-1702.473667,-7550.100608,536.266849
59540.358912,1702.473667,-8586.388927,2145.067394
59540.359222,74.020594,-7476.080014,153.219100
59540.359531,0.000000,-10881.027347,2145.067394
59540.359841,-74.020594,-11843.295072,-76.609550
59540.360150,-1258.350101,-10288.862594,1149.143247
59540.360460,-2368.659014,-9548.656652,153.219100
59540.360769,-2146.597232,-9770.718434,536.266849
59540.361079,-370.102971,-7920.203579,459.657299
59540.361389,3330.926739,-7772.162391,2145.067394
59540.361698,4071.132681,-7105.977043,4213.525239
59540.362008,2146.597232,-8216.285956,3064.381992
59540.362317,-1258.350101,-7994.224174,612.876398
59540.362627,-1036.288319,-8956.491898,612.876398
59540.362936,-1850.514855,-11251.130318,-76.609550
59540.363246,-2442.679609,-10436.903782,612.876398
59540.363555,-2368.659014,-8364.327145,0.000000
59540.363865,1850.514855,-8734.430116,1685.410096
59540.364175,1480.411884,-8808.450710,1455.581446
59540.364484,-296.082377,-8956.491898,1225.752797
59540.364794,-1258.350101,-9474.636058,-76.609550
59540.365103,-1850.514855,-8512.368333,-919.314598
59540.365413,-1258.350101,-9474.636058,-689.485948
59540.365722,-2960.823768,-7920.203579,-1225.752797
59540.366032,2294.638420,-11843.295072,3600.648841
59540.366342,2960.823768,-7846.182985,2298.286494
59540.366651,0.000000,-8364.327145,1225.752797
59540.366961,518.144159,-9474.636058,1302.362347
59540.367270,-296.082377,-10807.006753,1149.143247
59540.367580,-1110.308913,-9770.718434,229.828649
59540.367889,-1258.350101,-11695.253884,-76.609550
59540.368199,-666.185348,-10955.047942,1149.143247
59540.368509,-74.020594,-9474.636058,-76.609550
59540.368818,296.082377,-5995.668130,612.876398
59540.369128,4071.132681,-11843.295072,4826.401637
59540.369437,0.000000,-7179.997637,2451.505594
59540.369747,-3478.967927,-7476.080014,153.219100
59540.370056,-2960.823768,-9400.615463,0.000000
59540.370366,-3849.070898,-9918.759623,-459.657299
59540.370675,-2368.659014,-8734.430116,-842.705048
59540.370985,1702.473667,-10436.903782,2145.067394
59540.371295,2590.720797,-6365.771101,919.314598
59540.371604,3478.967927,-9474.636058,2374.896044
59540.371914,0.000000,-8364.327145,1225.752797
59540.372223,-74.020594,-13027.624579,2374.896044
59540.372533,-4145.153275,-8660.409521,-2451.505594
59540.372842,-3923.091493,-9548.656652,-1608.800546
59540.373152,-2516.700203,-9548.656652,-689.485948
59540.373462,0.000000,-8512.368333,459.657299
59540.373771,2294.638420,-7328.038826,1915.238745
59540.374081,3478.967927,-9252.574275,3370.820191
59540.374390,1184.329507,-8068.244768,2604.724693
59540.374700,0.000000,-7328.038826,1225.752797
59540.375009,1998.556043,-9474.636058,2374.896044
59540.375319,-4737.318029,-7179.997637,0.000000
59540.375628,-3552.988522,-9548.656652,0.000000
59540.375938,-3256.906145,-8956.491898,-919.314598
59540.376248,2294.638420,-11843.295072,-76.609550
59540.376557,1406.391290,-7402.059420,1455.581446
59540.376867,0.000000,-8956.491898,1838.629195
59540.377176,-74.020594,-10658.965565,1072.533697
59540.377486,-2220.617826,-9252.574275,-536.266849
59540.377795,-666.185348,-11843.295072,-76.609550
59540.378105,-3923.091493,-8956.491898,-1838.629195
59540.378415,1480.411884,-11473.192101,3064.381992
59540.378724,1776.494261,-7476.080014,612.876398
59540.379034,2072.576638,-7772.162391,1455.581446
59540.379343,2960.823768,-8068.244768,3370.820191
59540.379653,1924.535449,-8734.430116,2451.505594
59540.379962,518.144159,-8364.327145,766.095498
59540.380272,-1406.391290,-11325.150913,919.314598
59540.380581,-2960.823768,-10732.986159,0.000000
59540.380891,-1258.350101,-12435.459826,-76.609550
59540.381201,-1776.494261,-7179.997637,-1838.629195
59540.381510,2294.638420,-12435.459826,3600.648841
59540.381820,0.000000,-7179.997637,0.000000
59540.382129,1406.391290,-7698.141797,1762.019645
59540.382439,1184.329507,-6957.935855,1378.971896
59540.382748,-814.226536,-8808.450710,995.924147
59540.383058,-2146.597232,-8808.450710,0.000000
59540.383368,592.164754,-10140.821405,1225.752797
59540.383677,962.267725,-6587.832884,0.000000
59540.383987,2294.638420,-10584.944971,2374.896044
59540.384296,0.000000,-8660.409521,536.266849
59540.384606,1184.329507,-9548.656652,2451.505594
59540.384915,-1850.514855,-8364.327145,-1838.629195
59540.385225,-2442.679609,-11251.130318,-689.485948
59540.385534,-2960.823768,-8216.285956,-306.438199
59540.385844,-1628.453072,-10658.965565,842.705048
59540.386154,1184.329507,-6957.935855,1378.971896
59540.386463,592.164754,-8364.327145,2451.505594
59540.386773,2294.638420,-6513.812290,2528.115143
59540.387082,2294.638420,-9474.636058,2987.772442
59540.387392,-888.247130,-7328.038826,0.000000
59540.387701,-1480.411884,-9548.656652,2451.505594
59540.388011,-3034.844362,-9326.594869,-229.828649
59540.388321,-74.020594,-10658.965565,-76.609550
59540.388630,-1406.391290,-9030.512492,-995.924147
59540.388940,-1184.329507,-9844.739029,-383.047749
59540.389249,-666.185348,-11325.150913,383.047749
59540.389559,0.000000,-7772.162391,0.000000
59540.389868,1480.411884,-9178.553681,1762.019645
59540.390178,0.000000,-7772.162391,1532.190996
59540.390487,-74.020594,-10362.883188,2221.676944
59540.390797,-3552.988522,-7179.997637,0.000000
59540.391107,1702.473667,-7698.141797,1149.143247
59540.391416,-74.020594,-9474.636058,2374.896044
59540.391726,-1776.494261,-7328.038826,842.705048
59540.392035,-666.185348,-8586.388927,919.314598
59540.392345,-74.020594,-8216.285956,536.266849
59540.392654,-3849.070898,-8660.409521,-1608.800546
59540.392964,-3034.844362,-10955.047942,-1302.362347
59540.393274,-4145.153275,-10732.986159,-1225.752797
59540.393583,2294.638420,-10658.965565,-76.609550
59540.393893,0.000000,-7179.997637,0.000000
59540.394202,2294.638420,-8882.471304,2987.772442
59540.394512,2738.761985,-9474.636058,3140.991542
59540.394821,1998.556043,-7698.141797,1378.971896
59540.395131,0.000000,-9326.594869,1762.019645
59540.395440,-2146.597232,-9918.759623,536.266849
59540.395750,-2738.761985,-8364.327145,-76.609550
59540.396060,-370.102971,-10066.800811,229.828649
59540.396369,-1184.329507,-8364.327145,1225.752797
59540.396679,-74.020594,-8882.471304,1762.019645
59540.396988,0.000000,-4811.338623,0.000000
59540.397298,3182.885551,-9474.636058,2374.896044
59540.397607,296.082377,-10584.944971,1532.190996
59540.397917,-1258.350101,-10658.965565,383.047749
59540.398226,0.000000,-9844.739029,383.047749
59540.398536,1480.411884,-9326.594869,919.314598
59540.398846,814.226536,-8290.306550,2221.676944
59540.399155,888.247130,-8660.409521,2068.457845
59540.399465,0.000000,-6291.750507,689.485948
59540.399774,2886.803174,-8586.388927,2374.896044
59540.400084,-1258.350101,-7105.977043,-689.485948
59540.400393,-1258.350101,-12435.459826,2068.457845
59540.400703,-1628.453072,-9548.656652,0.000000
59540.401013,-518.144159,-9474.636058,-76.609550
59540.401322,-296.082377,-8660.409521,995.924147
59540.401632,-666.185348,-8068.244768,842.705048
59540.401941,1110.308913,-7994.224174,1149.143247
59540.402251,888.247130,-9104.533087,1455.581446
59540.402560,0.000000,-8216.285956,842.705048
59540.402870,0.000000,-10140.821405,3064.381992
59540.403179,-74.020594,-9474.636058,-76.609550
59540.403489,-148.041188,-10658.965565,1072.533697
59540.403799,-2368.659014,-9548.656652,0.000000
59540.404108,-2146.597232,-9474.636058,229.828649
59540.404418,-2220.617826,-8438.347739,-76.609550
59540.404727,0.000000,-10066.800811,536.266849
59540.405037,2294.638420,-9474.636058,1991.848295
59540.405346,0.000000,-10214.842000,2451.505594
59540.405656,1110.308913,-8882.471304,1149.143247
59540.405966,-2072.576638,-7772.162391,0.000000
59540.406275,2294.638420,-11843.295072,2374.896044
59540.406585,-592.164754,-9548.656652,1838.629195
59540.406894,-1776.494261,-7179.997637,0.000000
59540.407204,-296.082377,-9252.574275,383.047749
59540.407513,-888.247130,-9104.533087,76.609550
59540.407823,-1406.391290,-10140.821405,842.705048
59540.408132,-74.020594,-10362.883188,1991.848295
59540.408442,-592.164754,-8290.306550,612.876398
59540.408752,-74.020594,-9178.553681,-76.609550
59540.409061,-2368.659014,-7772.162391,0.000000
59540.409371,-74.020594,-9474.636058,-76.609550
59540.409680,0.000000,-7772.162391,0.000000
59540.409990,-1776.494261,-8364.327145,153.219100
59540.410299,-592.164754,-9548.656652,1225.752797
59540.410609,1110.308913,-9326.594869,1608.800546
59540.410919,888.247130,-8290.306550,1225.752797
59540.411228,-74.020594,-9474.636058,1991.848295
59540.411538,-1332.370696,-9104.533087,919.314598
59540.411847,2886.803174,-8882.471304,1762.019645
59540.412157,1184.329507,-6587.832884,0.000000
59540.412466,2886.803174,-11547.212695,3294.210641
59540.412776,-3552.988522,-8364.327145,0.000000
59540.413085,-1776.494261,-9178.553681,-1302.362347
59540.413395,-1924.535449,-11029.068536,0.000000
59540.413705,-2886.803174,-10362.883188,-153.219100
59540.414014,-3330.926739,-9178.553681,-919.314598
59540.414324,-888.247130,-7772.162391,76.609550
59540.414633,0.000000,-8956.491898,1838.629195
59540.414943,2294.638420,-9474.636058,2374.896044
59540.415252,0.000000,-6587.832884,2451.505594
59540.415562,-74.020594,-8882.471304,-76.609550
59540.415872,0.000000,-7179.997637,0.000000
59540.416181,1110.308913,-7994.224174,1608.800546
59540.416491,-888.247130,-9770.718434,1455.581446
59540.416800,0.000000,-6661.853478,-612.876398
59540.417110,370.102971,-9474.636058,0.000000
59540.417419,592.164754,-8364.327145,766.095498
59540.417729,-3552.988522,-11325.150913,0.000000
59540.418038,-74.020594,-11843.295072,-76.609550
59540.418348,-1406.391290,-10066.800811,-1915.238745
59540.418658,-2368.659014,-8364.327145,0.000000
59540.418967,-2664.741391,-8512.368333,0.000000
59540.419277,-370.102971,-6365.771101,306.438199
59540.419586,1776.494261,-7772.162391,1149.143247
59540.419896,2886.803174,-8364.327145,3524.039291
59540.420205,1998.556043,-8142.265362,3217.601092
59540.420515,1776.494261,-8364.327145,2911.162892
59540.420825,0.000000,-8364.327145,919.314598
59540.421134,-74.020594,-10658.965565,-76.609550
59540.421444,-3552.988522,-9548.656652,0.000000
59540.421753,-74.020594,-9474.636058,-76.609550
59540.422063,-1776.494261,-7179.997637,-2451.505594
59540.422372,-1702.473667,-7476.080014,-2834.553343
59540.422682,-888.247130,-10288.862594,612.876398
59540.422991,962.267725,-9326.594869,1532.190996
59540.423301,518.144159,-9178.553681,1455.581446
59540.423611,-888.247130,-8364.327145,1838.629195
59540.423920,-1332.370696,-8068.244768,612.876398
59540.424230,2886.803174,-7994.224174,1762.019645
59540.424539,0.000000,-6587.832884,0.000000
59540.424849,1480.411884,-9474.636058,3217.601092
59540.425158,-2960.823768,-7772.162391,0.000000
59540.425468,1554.432478,-9400.615463,842.705048
59540.425777,-888.247130,-10288.862594,612.876398
59540.426087,-2886.803174,-10066.800811,306.438199
59540.426397,-2812.782580,-9844.739029,-306.438199
59540.426706,-1776.494261,-7179.997637,383.047749
59540.427016,0.000000,-8068.244768,612.876398
59540.427325,592.164754,-8956.491898,2451.505594
59540.427635,-74.020594,-8660.409521,-1072.533697
59540.427944,1184.329507,-9548.656652,2757.943793
59540.428254,-1406.391290,-7698.141797,0.000000
59540.428564,-1554.432478,-8882.471304,536.266849
59540.428873,-3034.844362,-8734.430116,-612.876398
59540.429183,-666.185348,-7698.141797,-229.828649
59540.429492,518.144159,-9548.656652,536.266849
59540.429802,0.000000,-8660.409521,1225.752797
59540.430111,-222.061783,-9770.718434,229.828649
59540.430421,296.082377,-8956.491898,1225.752797
59540.430730,-74.020594,-11843.295072,-76.609550
59540.431040,-4737.318029,-7772.162391,0.000000
59540.431350,-2738.761985,-8364.327145,-1302.362347
59540.431659,-74.020594,-8290.306550,842.705048
59540.431969,740.205942,-7920.203579,612.876398
59540.432278,2220.617826,-7846.182985,2528.115143
59540.432588,1924.535449,-9030.512492,2987.772442
59540.432897,592.164754,-7846.182985,1762.019645
59540.433207,518.144159,-10214.842000,842.705048
59540.433517,-2368.659014,-9844.739029,612.876398
59540.433826,-1258.350101,-11251.130318,-76.609550
59540.434136,-2368.659014,-7179.997637,0.000000
59540.434445,-74.020594,-8290.306550,-689.485948
59540.434755,-74.020594,-9474.636058,1149.143247
59540.435064,-518.144159,-10214.842000,689.485948
59540.435374,1998.556043,-9178.553681,1378.971896
59540.435683,1628.453072,-8808.450710,1762.019645
59540.435993,-1554.432478,-8734.430116,1149.143247
59540.436303,-1258.350101,-9474.636058,306.438199
59540.436612,-1480.411884,-7772.162391,0.000000
59540.436922,1998.556043,-11251.130318,2374.896044
59540.437231,-2220.617826,-5995.668130,0.000000
59540.437541,3478.967927,-9474.636058,2374.896044
59540.437850,3478.967927,-9918.759623,2528.115143
59540.438160,518.144159,-10584.944971,1532.190996
59540.438470,-2664.741391,-9992.780217,76.609550
59540.438779,-3182.885551,-10658.965565,-383.047749
59540.439089,-74.020594,-8216.285956,-76.609550
59540.439398,-74.020594,-10510.924376,-76.609550
59540.439708,-1776.494261,-7179.997637,0.000000
59540.440017,1554.432478,-13027.624579,3600.648841
59540.440327,0.000000,-5995.668130,0.000000
59540.440636,3478.967927,-10658.965565,3600.648841
59540.440946,-2072.576638,-9252.574275,1532.190996
59540.441256,-2294.638420,-10214.842000,229.828649
59540.441565,-666.185348,-7994.224174,0.000000
59540.441875,-1998.556043,-10066.800811,0.000000
59540.442184,-1998.556043,-8142.265362,1149.143247
59540.442494,-666.185348,-10881.027347,1685.410096
59540.442803,3256.906145,-6069.688724,1838.629195
59540.443113,2368.659014,-10140.821405,5209.449386
59540.443423,-74.020594,-9474.636058,1762.019645
59540.443732,-1702.473667,-11547.212695,1762.019645
59540.444042,-1776.494261,-7624.121203,-842.705048
59540.444351,-2294.638420,-9104.533087,-1225.752797
59540.444661,-3478.967927,-8808.450710,-536.266849
59540.444970,-2442.679609,-9696.697840,-76.609550
59540.445280,1110.308913,-9400.615463,3064.381992
59540.445589,2664.741391,-8364.327145,2911.162892
59540.445899,-370.102971,-7994.224174,2834.553343
59540.446209,-2368.659014,-7179.997637,2451.505594
59540.446518,-74.020594,-9474.636058,-76.609550
59540.446828,1332.370696,-10658.965565,2374.896044
59540.447137,-1776.494261,-7772.162391,612.876398
59540.447447,222.061783,-9992.780217,766.095498
59540.447756,2738.761985,-8068.244768,306.438199
59540.448066,1776.494261,-10140.821405,842.705048
59540.448376,-740.205942,-10066.800811,0.000000
59540.448685,-2442.679609,-11843.295072,-76.609550
59540.448995,-1258.350101,-9178.553681,-1608.800546
59540.449304,-4145.153275,-7772.162391,0.000000
59540.449614,2886.803174,-11251.130318,2987.772442
59540.449923,2368.659014,-10214.842000,4290.134789
59540.450233,3552.988522,-5995.668130,2451.505594
59540.450542,2368.659014,-9104.533087,2757.943793
59540.450852,-1406.391290,-8808.450710,1149.143247
59540.451162,-4441.235652,-9770.718434,-536.266849
59540.451471,-2368.659014,-8956.491898,-1838.629195
59540.451781,-2368.659014,-9548.656652,-1225.752797
59540.452090,-74.020594,-9474.636058,-76.609550
59540.452400,-3256.906145,-6587.832884,0.000000
59540.452709,4441.235652,-8734.430116,2757.943793
59540.453019,1184.329507,-8956.491898,2451.505594
59540.453328,-1554.432478,-8956.491898,0.000000
59540.453638,-2146.597232,-11177.109724,383.047749
59540.453948,-74.020594,-9770.718434,76.609550
59540.454257,-296.082377,-10362.883188,536.266849
59540.454567,592.164754,-8364.327145,0.000000
59540.454876,2516.700203,-9326.594869,3524.039291
59540.455186,4663.297435,-7105.977043,2987.772442
59540.455495,0.000000,-7179.997637,1225.752797
59540.455805,-74.020594,-11547.212695,2374.896044
59540.456115,-4145.153275,-9548.656652,612.876398
59540.456424,-2072.576638,-8068.244768,-612.876398
59540.456734,-2294.638420,-9622.677246,-536.266849
59540.457043,-962.267725,-8068.244768,0.000000
59540.457353,1332.370696,-8808.450710,1378.971896
59540.457662,3775.050304,-7179.997637,1915.238745
59540.457972,1776.494261,-8956.491898,2604.724693
59540.458281,-370.102971,-10066.800811,2374.896044
59540.458591,-5921.647536,-7772.162391,-2451.505594
59540.458901,-962.267725,-11547.212695,-76.609550
59540.459210,-4737.318029,-8364.327145,0.000000
59540.459520,-814.226536,-8068.244768,689.485948
59540.459829,1184.329507,-7920.203579,1991.848295
59540.460139,3997.112087,-6217.729913,2911.162892
59540.460448,1998.556043,-8512.368333,2987.772442
59540.460758,0.000000,-7772.162391,2068.457845
59540.461068,-2516.700203,-10066.800811,229.828649
59540.461377,-2812.782580,-9548.656652,0.000000
59540.461687,-1258.350101,-11843.295072,-1302.362347
59540.461996,-4737.318029,-8364.327145,-1838.629195
59540.462306,-2368.659014,-7179.997637,0.000000
59540.462615,3182.885551,-8290.306550,2298.286494
59540.462925,2886.803174,-8290.306550,2528.115143
59540.463234,0.000000,-8660.409521,1762.019645
59540.463544,-1924.535449,-10362.883188,383.047749
59540.463854,-2368.659014,-9178.553681,-76.609550
59540.464163,-4737.318029,-9696.697840,0.000000
59540.464473,-1554.432478,-10140.821405,2374.896044
59540.464782,-74.020594,-8290.306550,-689.485948
59540.465092,2368.659014,-5403.503377,1225.752797
59540.465401,1110.308913,-8364.327145,1302.362347
59540.465711,1110.308913,-10066.800811,2681.334243
59540.466021,-1850.514855,-10955.047942,995.924147
59540.466330,-1184.329507,-8216.285956,0.000000
59540.466640,-2738.761985,-9622.677246,-612.876398
59540.466949,-1924.535449,-9474.636058,1149.143247
59540.467259,0.000000,-7772.162391,0.000000
59540.467568,4145.153275,-7920.203579,3600.648841
59540.467878,0.000000,-6587.832884,0.000000
59540.468187,-74.020594,-11103.089130,2374.896044
59540.468497,-1554.432478,-9474.636058,-1915.238745
59540.468807,-1184.329507,-9104.533087,-306.438199
59540.469116,-1554.432478,-9326.594869,-383.047749
59540.469426,-1258.350101,-8882.471304,229.828649
59540.469735,518.144159,-9104.533087,1072.533697
59540.470045,3478.967927,-9474.636058,2987.772442
59540.470354,1258.350101,-8364.327145,1685.410096
59540.470664,296.082377,-9548.656652,2451.505594
59540.470974,2886.803174,-11251.130318,2374.896044
59540.471283,-2368.659014,-6291.750507,0.000000
59540.471593,-1258.350101,-9474.636058,-1302.362347
59540.471902,-1850.514855,-9474.636058,-76.609550
59540.472212,518.144159,-9474.636058,1378.971896
59540.472522,2442.679609,-7550.100608,1608.800546
59540.472831,814.226536,-8882.471304,2451.505594
59540.473141,-74.020594,-8734.430116,2987.772442
59540.473450,-296.082377,-9918.759623,1149.143247
59540.473760,-1924.535449,-7772.162391,0.000000
59540.474070,-1258.350101,-13471.748144,-76.609550
59540.474379,-3034.844362,-9474.636058,-1608.800546
59540.474689,2294.638420,-11843.295072,-76.609550
59540.474999,2960.823768,-7994.224174,2221.676944
59540.475308,1184.329507,-8068.244768,1838.629195
59540.475618,592.164754,-8586.388927,1915.238745
59540.475927,74.020594,-9622.677246,1149.143247
59540.476237,814.226536,-9992.780217,1915.238745
59540.476547,-1998.556043,-10362.883188,306.438199
59540.476856,-3108.864956,-8364.327145,-2911.162892
59540.477166,2368.659014,-11547.212695,3064.381992
59540.477475,2146.597232,-6957.935855,842.705048
59540.477785,2886.803174,-9178.553681,3294.210641
59540.478095,-2664.741391,-8068.244768,919.314598
59540.478404,-2368.659014,-9548.656652,306.438199
59540.478714,-2590.720797,-9474.636058,-459.657299
59540.479024,-4145.153275,-10214.842000,-536.266849
59540.479333,-2368.659014,-9252.574275,0.000000
59540.479643,-74.020594,-9474.636058,1149.143247
59540.479952,1332.370696,-5107.421000,0.000000
59540.480262,3478.967927,-8882.471304,2374.896044
59540.480572,-2072.576638,-6291.750507,612.876398
59540.480881,1628.453072,-10955.047942,3294.210641
59540.481191,-592.164754,-9548.656652,306.438199
59540.481501,-2368.659014,-11103.089130,0.000000
59540.481810,-2294.638420,-9918.759623,-76.609550
59540.482120,148.041188,-9770.718434,766.095498
59540.482429,1184.329507,-7179.997637,612.876398
59540.482739,0.000000,-8364.327145,1838.629195
59540.483049,-370.102971,-7550.100608,-383.047749
59540.483358,0.000000,-9548.656652,1225.752797
59540.483668,-74.020594,-10658.965565,1149.143247
59540.483978,-2368.659014,-10881.027347,2374.896044
59540.484287,-2886.803174,-8364.327145,-229.828649
59540.484597,0.000000,-9104.533087,1072.533697
59540.484906,2812.782580,-6365.771101,1532.190996
59540.485216,2072.576638,-8660.409521,2757.943793
59540.485526,0.000000,-7179.997637,612.876398
59540.485835,296.082377,-11103.089130,1302.362347
59540.486145,-74.020594,-10658.965565,-76.609550
59540.486454,-4737.318029,-9548.656652,0.000000
59540.486764,-1258.350101,-10658.965565,-689.485948
59540.487074,-1776.494261,-10140.821405,1225.752797
59540.487383,1924.535449,-8068.244768,1149.143247
59540.487693,2072.576638,-8956.491898,2757.943793
59540.488003,1776.494261,-7772.162391,2681.334243
59540.488312,1332.370696,-8364.327145,1838.629195
59540.488622,0.000000,-7179.997637,0.000000
59540.488931,-1776.494261,-10140.821405,766.095498
59540.489241,-666.185348,-13027.624579,-76.609550
59540.489551,-4737.318029,-8364.327145,0.000000
59540.489860,2664.741391,-9400.615463,2068.457845
59540.490170,-1776.494261,-8364.327145,1838.629195
59540.490480,-370.102971,-9770.718434,1455.581446
59540.490789,-1258.350101,-9252.574275,459.657299
59540.491099,-1110.308913,-9770.718434,153.219100
59540.491408,-1998.556043,-9770.718434,76.609550
59540.491718,-2590.720797,-8364.327145,-1532.190996
59540.492028,0.000000,-8364.327145,1225.752797
59540.492337,3701.029710,-9844.739029,4290.134789
59540.492647,1554.432478,-6587.832884,1072.533697
59540.492956,3627.009116,-8438.347739,3907.087040
59540.493266,296.082377,-7179.997637,1532.190996
59540.493576,-74.020594,-9474.636058,-76.609550
59540.493885,-3330.926739,-11251.130318,-689.485948
59540.494195,-4441.235652,-11399.171507,-1762.019645
59540.494505,-1776.494261,-10732.986159,153.219100
59540.494814,1998.556043,-7105.977043,-689.485948
59540.495124,0.000000,-6587.832884,1225.752797
59540.495433,1702.473667,-9474.636058,4826.401637
59540.495743,-2368.659014,-5995.668130,0.000000
59540.496053,-3256.906145,-9548.656652,612.876398
59540.496362,-7105.977043,-10140.821405,-1072.533697
59540.496672,-7031.956449,-11473.192101,-1149.143247
59540.496982,-4811.338623,-10066.800811,-76.609550
59540.497291,-1628.453072,-7624.121203,1149.143247
59540.497601,-1628.453072,-7624.121203,2528.115143
59540.497910,-666.185348,-6217.729913,2374.896044
59540.498220,-2368.659014,-7031.956449,1838.629195
59540.498530,-1184.329507,-9474.636058,4136.915689
59540.498839,-4811.338623,-11843.295072,-76.609550
59540.499149,-8290.306550,-9548.656652,-2221.676944
59540.499459,-7698.141797,-10732.986159,0.000000
59540.499768,-4293.194464,-8586.388927,-76.609550
59540.500078,-4737.318029,-8660.409521,1225.752797
59540.500387,-5107.421000,-8290.306550,1455.581446
59540.500697,-5995.668130,-8660.409521,1302.362347
59540.501007,-4811.338623,-9326.594869,842.705048
59540.501316,-5921.647536,-7772.162391,612.876398
59540.501626,-7698.141797,-8364.327145,2451.505594
59540.501935,-4811.338623,-8290.306550,-76.609550
59540.502245,-7476.080014,-9178.553681,0.000000
59540.502555,-5773.606348,-3034.844362,0.000000
59540.502864,-4737.318029,-10881.027347,3064.381992
59540.503174,-3923.091493,-7254.018232,1762.019645
59540.503484,-7550.100608,-9400.615463,-459.657299
59540.503793,-5403.503377,-9548.656652,0.000000
59540.504103,-4811.338623,-9326.594869,-229.828649
59540.504412,-9474.636058,-10140.821405,0.000000
59540.504722,-6587.832884,-11843.295072,-76.609550
59540.505032,-7179.997637,-10066.800811,-689.485948
59540.505341,-2368.659014,-7179.997637,2451.505594
59540.505651,74.020594,-5995.668130,5209.449386
59540.505961,814.226536,-5255.462188,4749.792088
59540.506270,-1924.535449,-5921.647536,2068.457845
59540.506580,-2442.679609,-7772.162391,459.657299
59540.506889,-1850.514855,-9992.780217,0.000000
59540.507199,-2442.679609,-9474.636058,-689.485948
59540.507509,-7105.977043,-10140.821405,-3983.696590
59540.507818,-8290.306550,-11917.315666,-2451.505594
59540.508128,-5403.503377,-14211.954086,-2528.115143
59540.508438,-4737.318029,-11325.150913,0.000000
59540.508747,-592.164754,-7624.121203,1225.752797
59540.509057,2294.638420,-7846.182985,4519.963438
59540.509366,1776.494261,-6809.894666,4136.915689
59540.509676,1406.391290,-6513.812290,3753.867940
59540.509986,1628.453072,-7624.121203,3600.648841
59540.510295,3182.885551,-6513.812290,2374.896044
59540.510605,0.000000,-5181.441594,0.000000
59540.510914,-4145.153275,-9548.656652,0.000000
59540.511224,-3034.844362,-11843.295072,-2528.115143
59540.511534,-8734.430116,-12509.480420,-4903.011187
59540.511843,-6809.894666,-12953.603985,-3677.258390
59540.512153,-2664.741391,-10140.821405,-612.876398
59540.512463,296.082377,-9548.656652,1915.238745
59540.512772,814.226536,-7624.121203,3140.991542
59540.513082,148.041188,-6513.812290,2528.115143
59540.513391,1702.473667,-9474.636058,4213.525239
59540.513701,-740.205942,-5847.626942,1378.971896
59540.514011,0.000000,-5403.503377,2451.505594
59540.514320,-74.020594,-9474.636058,2068.457845
59540.514630,-6513.812290,-8364.327145,-1838.629195
59540.514940,-7179.997637,-11251.130318,-4136.915689
59540.515249,-8068.244768,-13101.645173,-2145.067394
59540.515559,-7846.182985,-11843.295072,-919.314598
59540.515868,-3997.112087,-9104.533087,229.828649
59540.516178,-1332.370696,-8660.409521,3294.210641
59540.516488,-74.020594,-9474.636058,4826.401637
59540.516797,-1258.350101,-8882.471304,3600.648841
59540.517107,-4515.256246,-5995.668130,536.266849
59540.517416,-2960.823768,-6883.915261,2757.943793
59540.517726,-3627.009116,-6513.812290,-76.609550
59540.518036,-3034.844362,-7105.977043,-76.609550
59540.518345,-4145.153275,-7846.182985,612.876398
59540.518655,-6365.771101,-10436.903782,-612.876398
59540.518965,-9696.697840,-12731.542202,-2757.943793
59540.519274,-9844.739029,-13027.624579,-689.485948
59540.519584,-7031.956449,-13915.871710,1532.190996
59540.519893,-4811.338623,-10658.965565,2374.896044
59540.520203,-3627.009116,-5625.565159,1608.800546
59540.520513,0.000000,-4811.338623,5515.887586
59540.520822,4071.132681,-4737.318029,6052.154434
59540.521132,-74.020594,-5921.647536,2987.772442
59540.521442,-4737.318029,-7254.018232,1225.752797
59540.521751,-4219.173869,-7772.162391,0.000000
59540.522061,-6809.894666,-9030.512492,-1455.581446
59540.522370,-9252.574275,-10288.862594,-2298.286494
59540.522680,-7105.977043,-11917.315666,-612.876398
59540.522990,-2146.597232,-11547.212695,-76.609550
59540.523299,-4811.338623,-10658.965565,-2681.334243
59540.523609,-7105.977043,-13397.727550,612.876398
59540.523919,-3627.009116,-12435.459826,1149.143247
59540.524228,-74.020594,-10288.862594,3600.648841
59540.524538,0.000000,-5699.585753,3524.039291
59540.524847,-2368.659014,-5847.626942,3907.087040
59540.525157,-2442.679609,-7105.977043,2834.553343
59540.525467,2368.659014,-4885.359217,2604.724693
59540.525776,2368.659014,-4811.338623,3677.258390
59540.526086,-962.267725,-8734.430116,2987.772442
59540.526395,-8586.388927,-8364.327145,-4519.963438
59540.526705,-7105.977043,-13841.851115,-2451.505594
59540.527015,-5403.503377,-14211.954086,-3140.991542
59540.527324,-5329.482782,-14211.954086,-689.485948
59540.527634,-5551.544565,-11473.192101,-995.924147
59540.527944,-2886.803174,-9844.739029,0.000000
59540.528253,1628.453072,-7772.162391,3217.601092
59540.528563,5773.606348,-4811.338623,5515.887586
59540.528872,5033.400406,-2442.679609,6128.763984
59540.529182,4367.215058,-5699.585753,4903.011187
59540.529492,-1258.350101,-9474.636058,-383.047749
59540.529801,-6513.812290,-11917.315666,-1838.629195
59540.530111,-3627.009116,-13027.624579,-1608.800546
59540.530421,-5477.523971,-12435.459826,-1915.238745
59540.530730,-8660.409521,-11399.171507,-4673.182538
59540.531040,-9474.636058,-13397.727550,-2757.943793
59540.531349,-6513.812290,-13175.665768,-383.047749
59540.531659,-2590.720797,-7920.203579,612.876398
59540.531969,0.000000,-2442.679609,3064.381992
59540.532278,3627.009116,-3182.885551,7354.516781
59540.532588,8808.450710,-4737.318029,9422.974625
59540.532898,2442.679609,-3034.844362,3983.696590
59540.533207,-1776.494261,-8808.450710,1762.019645
59540.533517,-7994.224174,-14211.954086,-842.705048
59540.533826,-9252.574275,-15396.283594,-4060.306139
59540.534136,-8956.491898,-12731.542202,-4979.620737
59540.534446,-9252.574275,-11325.150913,-4366.744339
59540.534755,-8808.450710,-10732.986159,-4903.011187
59540.535065,-9474.636058,-11325.150913,-4290.134789
59540.535374,-6513.812290,-11917.315666,0.000000
59540.535684,-1776.494261,-11177.109724,6588.421283
59540.535994,-74.020594,-6513.812290,6971.469032
59540.536303,2960.823768,-370.102971,9806.022374
59540.536613,5921.647536,814.226536,11031.775171
59540.536923,5847.626942,148.041188,6971.469032
59540.537232,2368.659014,-3552.988522,3830.477490
59540.537542,-3404.947333,-10436.903782,0.000000
59540.537851,-10881.027347,-14285.974681,-7354.516781
59540.538161,-17246.798449,-19023.292709,-12257.527968
59540.538471,-18949.272115,-20799.786970,-11644.651570
59540.538780,-11917.315666,-18949.272115,-4979.620737
59540.539090,-9548.656652,-11399.171507,-3753.867940
59540.539400,-4737.318029,-5403.503377,1225.752797
59540.539709,0.000000,-3627.009116,7354.516781
59540.540019,6735.874072,-1628.453072,10035.851024
59540.540328,8290.306550,444.123565,11721.261119
59540.540638,6587.832884,-148.041188,10112.460574
59540.540948,3404.947333,-1628.453072,6511.811733
59540.541257,-666.185348,-7031.956449,1149.143247
59540.541567,-8808.450710,-12509.480420,-4903.011187
59540.541876,-9548.656652,-18949.272115,-4366.744339
59540.542186,-14878.139434,-17320.819043,-9729.412825
59540.542496,-14804.118840,-16654.633695,-7354.516781
59540.542805,-14211.954086,-16062.468941,-5515.887586
59540.543115,-6365.771101,-9770.718434,-2145.067394
59540.543425,370.102971,-6143.709319,1915.238745
59540.543734,4663.297435,-2146.597232,6205.373534
59540.544044,8734.430116,1184.329507,8503.660028
59540.544353,9400.615463,0.000000,8503.660028
59540.544663,5773.606348,-74.020594,4903.011187
59540.544973,4737.318029,-4219.173869,6128.763984
59540.545282,-74.020594,-7994.224174,-76.609550
59540.545592,-7105.977043,-8956.491898,-4290.134789
59540.545902,-11251.130318,-14878.139434,-7354.516781
59540.546211,-11843.295072,-19245.354492,-8963.317327
59540.546521,-11695.253884,-21243.910535,-7431.126331
59540.546830,-8290.306550,-17764.942608,-4136.915689
59540.547140,-3849.070898,-18949.272115,-76.609550
59540.547450,1702.473667,-11843.295072,4826.401637
59540.547759,4367.215058,-4441.235652,7277.907231
59540.548069,2960.823768,-74.020594,7967.393179
59540.548379,7624.121203,0.000000,10648.727422
59540.548688,2960.823768,-370.102971,7354.516781
59540.548998,888.247130,-1850.514855,3370.820191
59540.549307,-1702.473667,-7772.162391,2757.943793
59540.549617,-4811.338623,-10510.924376,-1149.143247
59540.549927,-8068.244768,-13841.851115,-4213.525239
59540.550236,-9548.656652,-18949.272115,-3140.991542
59540.550546,-7772.162391,-18949.272115,-2528.115143
59540.550855,-5995.668130,-17764.942608,-1302.362347
59540.551165,-4737.318029,-13101.645173,612.876398
59540.551475,2886.803174,-10658.965565,5975.544884
59540.551784,5921.647536,-4219.173869,5515.887586
59540.552094,8660.409521,-148.041188,9422.974625
59540.552404,9474.636058,1998.556043,10648.727422
59540.552713,8290.306550,-814.226536,11261.603821
59540.553023,6661.853478,-2294.638420,8350.440928
59540.553332,2886.803174,-9178.553681,6818.249932
59540.553642,-3034.844362,-14211.954086,6052.154434
59540.553952,-4811.338623,-14211.954086,2374.896044
59540.554261,-7179.997637,-14063.912898,-2528.115143
59540.554571,-7105.977043,-15766.386565,0.000000
59540.554881,-2442.679609,-14952.160028,306.438199
59540.555190,-1554.432478,-13915.871710,4213.525239
59540.555500,0.000000,-8068.244768,5209.449386
59540.555809,3256.906145,-5403.503377,8503.660028
59540.556119,5551.544565,-2368.659014,10035.851024
59540.556429,6809.894666,814.226536,11644.651570
59540.556738,5033.400406,-1702.473667,13483.280765
59540.557048,7031.956449,-3849.070898,12180.918418
59540.557358,2294.638420,-4737.318029,7277.907231
59540.557667,0.000000,-8660.409521,6435.202183
59540.557977,-666.185348,-13767.830521,4519.963438
59540.558286,-3627.009116,-17764.942608,4213.525239
59540.558596,-7179.997637,-18061.024985,2068.457845
59540.558906,-9252.574275,-17690.922014,2604.724693
59540.559215,-8364.327145,-13915.871710,4826.401637
59540.559525,0.000000,-3034.844362,7507.735880
59540.559834,3256.906145,-1258.350101,13483.280765
59540.560144,9178.553681,3182.885551,15628.348159
59540.560454,7031.956449,1184.329507,12793.794817
59540.560763,2368.659014,-1850.514855,12257.527968
59540.561073,2886.803174,-4737.318029,9116.536426
59540.561383,-74.020594,-9474.636058,6665.030833
59540.561692,-4737.318029,-8734.430116,4136.915689
59540.562002,-4441.235652,-10288.862594,2451.505594
59540.562311,-1776.494261,-11103.089130,2298.286494
59540.562621,-4737.318029,-14285.974681,1532.190996
59540.562931,-6513.812290,-14285.974681,2451.505594
59540.563240,-7105.977043,-19023.292709,4903.011187
59540.563550,-1258.350101,-14211.954086,4826.401637
59540.563860,0.000000,-5107.421000,5209.449386
59540.564169,3256.906145,-2960.823768,10342.289223
59540.564479,5847.626942,0.000000,9422.974625
59540.564788,5551.544565,2368.659014,6894.859482
59540.565098,4959.379811,814.226536,5975.544884
59540.565408,3552.988522,-4145.153275,4519.963438
59540.565717,-2960.823768,-10140.821405,1838.629195
59540.566027,-4737.318029,-12509.480420,0.000000
59540.566336,-5921.647536,-19319.375086,612.876398
59540.566646,-9548.656652,-20725.766376,-2528.115143
59540.566956,-9474.636058,-15470.304188,-4596.572988
59540.567265,-2738.761985,-15396.283594,-76.609550
59540.567575,1036.288319,-9696.697840,2374.896044
59540.567885,2294.638420,-5625.565159,2987.772442
59540.568194,5847.626942,-2516.700203,4903.011187
59540.568504,7402.059420,-2294.638420,6435.202183
59540.568813,5847.626942,962.267725,3753.867940
59540.569123,1184.329507,-2442.679609,2145.067394
59540.569433,0.000000,-4811.338623,1225.752797
59540.569742,-74.020594,-9474.636058,2068.457845
59540.570052,-1924.535449,-7772.162391,-2451.505594
59540.570362,-2442.679609,-11843.295072,-689.485948
59540.570671,-4737.318029,-13397.727550,-2451.505594
59540.570981,-3108.864956,-15248.242405,-2604.724693
59540.571290,-1258.350101,-14582.057057,-1685.410096
59540.571600,-1036.288319,-13323.706956,0.000000
59540.571910,-962.267725,-11251.130318,-76.609550
59540.572219,814.226536,-5847.626942,383.047749
59540.572529,2368.659014,-1258.350101,1225.752797
59540.572839,7105.977043,-4071.132681,6128.763984
59540.573148,3478.967927,-4441.235652,4213.525239
59540.573458,1924.535449,-6143.709319,4596.572988
59540.573767,592.164754,-7179.997637,1838.629195
59540.574077,814.226536,-10214.842000,536.266849
59540.574386,-2886.803174,-14137.933492,-383.047749
59540.574696,-5699.585753,-16802.674883,-919.314598
59540.575005,-3627.009116,-14211.954086,-1302.362347
59540.575315,-2442.679609,-11547.212695,-1302.362347
59540.575624,-2442.679609,-6587.832884,0.000000
59540.575934,592.164754,-4811.338623,2451.505594
59540.576243,4663.297435,-7105.977043,6665.030833
59540.576553,3478.967927,-7105.977043,6052.154434
59540.576862,-1184.329507,-6883.915261,4443.353888
59540.577172,-814.226536,-7920.203579,4903.011187
59540.577481,0.000000,-7846.182985,5286.058936
59540.577791,-444.123565,-6217.729913,4673.182538
59540.578100,1258.350101,-7994.224174,6128.763984
59540.578410,1480.411884,-9474.636058,8503.660028
59540.578719,1702.473667,-10658.965565,6052.154434
59540.579029,-3775.050304,-9622.677246,766.095498
59540.579338,-4737.318029,-12509.480420,2451.505594
59540.579648,-74.020594,-12361.439231,3907.087040
59540.579957,2294.638420,-7402.059420,5439.278036
59540.580267,-1184.329507,-7772.162391,5515.887586
59540.580576,-740.205942,-6143.709319,5362.668486
59540.580886,666.185348,-8438.347739,6894.859482
59540.581195,1776.494261,-8956.491898,8580.269578
59540.581505,-1480.411884,-10140.821405,9806.022374
59540.581814,-74.020594,-12731.542202,9116.536426
59540.582124,-2368.659014,-7179.997637,4596.572988
59540.582433,-2072.576638,-10140.821405,7354.516781
59540.582743,-1258.350101,-5921.647536,3600.648841
59540.583052,-74.020594,-6513.812290,4826.401637
59540.583362,-1036.288319,-7179.997637,5745.716235
59540.583671,2516.700203,-3775.050304,5669.106685
59540.583981,592.164754,-7772.162391,5515.887586
59540.584290,-1776.494261,-7772.162391,4903.011187
59540.584600,-2368.659014,-10732.986159,6435.202183
59540.584909,2294.638420,-12953.603985,9116.536426
59540.585219,-1258.350101,-8882.471304,4826.401637
59540.585528,-1184.329507,-7772.162391,6435.202183
59540.585838,-74.020594,-8882.471304,7277.907231
59540.586147,2886.803174,-8290.306550,6052.154434
59540.586457,-1110.308913,-7031.956449,3447.429741
59540.586766,-740.205942,-7476.080014,3983.696590
59540.587076,1406.391290,-5699.585753,3983.696590
59540.587385,0.000000,-5995.668130,2451.505594
59540.587695,-1776.494261,-5995.668130,2451.505594
59540.588004,-1776.494261,-9548.656652,4903.011187
59540.588313,-74.020594,-10658.965565,3600.648841
59540.588623,0.000000,-9548.656652,3677.258390
59540.588932,-74.020594,-11843.295072,4826.401637
59540.589242,814.226536,-12287.418637,6052.154434
59540.589551,-444.123565,-9400.615463,3830.477490
59540.589861,666.185348,-9252.574275,3524.039291
59540.590170,444.123565,-8808.450710,3907.087040
59540.590480,-2960.823768,-7179.997637,1225.752797
59540.590789,0.000000,-4811.338623,612.876398
59540.591099,0.000000,-7772.162391,3064.381992
59540.591408,2294.638420,-11547.212695,4519.963438
59540.591718,-1776.494261,-8512.368333,1532.190996
59540.592027,-666.185348,-11843.295072,3600.648841
59540.592337,370.102971,-9770.718434,3370.820191
59540.592646,222.061783,-8956.491898,3600.648841
59540.592956,1998.556043,-6365.771101,3294.210641
59540.593265,0.000000,-8068.244768,3677.258390
59540.593575,-666.185348,-7328.038826,2068.457845
59540.593884,-2072.576638,-7179.997637,689.485948
59540.594194,-3552.988522,-9548.656652,1225.752797
59540.594503,1998.556043,-11251.130318,4060.306139
59540.594813,-3775.050304,-9844.739029,1685.410096
59540.595122,-74.020594,-9474.636058,3600.648841
59540.595432,-1184.329507,-9548.656652,1838.629195
59540.595741,740.205942,-5995.668130,1762.019645
59540.596051,-1258.350101,-8808.450710,1991.848295
59540.596360,-370.102971,-8142.265362,1455.581446
59540.596670,-74.020594,-10066.800811,1149.143247
59540.596979,-962.267725,-10584.944971,2068.457845
59540.597289,0.000000,-9548.656652,2451.505594
59540.597598,-74.020594,-14211.954086,4826.401637
59540.597908,-1480.411884,-6735.874072,1838.629195
59540.598217,2294.638420,-10362.883188,6741.640382
59540.598527,0.000000,-5107.421000,3677.258390
59540.598836,-296.082377,-10214.842000,4060.306139
59540.599146,-518.144159,-8734.430116,2451.505594
59540.599455,-1776.494261,-10732.986159,2145.067394
59540.599765,-666.185348,-8882.471304,2374.896044
59540.600074,-1850.514855,-7994.224174,1762.019645
59540.600384,-666.185348,-5033.400406,1149.143247
59540.600693,0.000000,-7179.997637,2451.505594
59540.601003,1110.308913,-10362.883188,4519.963438
59540.601312,0.000000,-10807.006753,4290.134789
59540.601622,0.000000,-9548.656652,3064.381992
59540.601931,888.247130,-9030.512492,3140.991542
59540.602241,444.123565,-7624.121203,2757.943793
59540.602550,-518.144159,-9548.656652,3294.210641
59540.602860,-74.020594,-9474.636058,3600.648841
59540.603169,-74.020594,-9474.636058,2374.896044
59540.603479,-1258.350101,-5625.565159,-76.609550
59540.603788,0.000000,-4811.338623,1838.629195
59540.604098,2294.638420,-5921.647536,2987.772442
59540.604407,0.000000,-4811.338623,919.314598
59540.604717,-3256.906145,-7476.080014,-1225.752797
59540.605026,-3552.988522,-13841.851115,0.000000
59540.605336,-1628.453072,-12361.439231,0.000000
59540.605645,-1554.432478,-9918.759623,-766.095498
59540.605955,-74.020594,-8142.265362,-76.609550
59540.606264,2294.638420,-8290.306550,-76.609550
59540.606574,2886.803174,-7105.977043,-689.485948
59540.606883,592.164754,-12213.398043,1225.752797
59540.607193,1702.473667,-13915.871710,-76.609550
59540.607502,-4145.153275,-10732.986159,0.000000
59540.607812,-962.267725,-7772.162391,-1225.752797
59540.608121,1480.411884,-5255.462188,-689.485948
59540.608431,1702.473667,-4145.153275,-995.924147
59540.608740,1258.350101,-7476.080014,-153.219100
59540.609050,4071.132681,-12435.459826,1608.800546
59540.609359,4663.297435,-16580.613101,1685.410096
59540.609669,-74.020594,-15396.283594,-76.609550
59540.609978,-5329.482782,-11621.233289,-2451.505594
59540.610288,-1184.329507,-8956.491898,1225.752797
59540.610597,-666.185348,-4811.338623,-2451.505594
59540.610907,814.226536,-3256.906145,-1915.238745
59540.611216,0.000000,-5995.668130,-1225.752797
59540.611526,1406.391290,-9474.636058,-459.657299
59540.611835,1480.411884,-12287.418637,0.000000
59540.612145,-592.164754,-13397.727550,153.219100
59540.612454,-1480.411884,-13323.706956,-1838.629195
59540.612764,-74.020594,-10658.965565,-76.609550
59540.613073,-74.020594,-7105.977043,-1302.362347
59540.613383,0.000000,-4811.338623,-3677.258390
59540.613692,-1110.308913,-7254.018232,-2451.505594
59540.614002,1702.473667,-10066.800811,-1302.362347
59540.614311,518.144159,-12361.439231,153.219100
59540.614621,-592.164754,-12879.583391,76.609550
59540.614930,-2516.700203,-13175.665768,842.705048
59540.615240,-2368.659014,-8364.327145,306.438199
59540.615549,-1184.329507,-6883.915261,0.000000
59540.615858,-74.020594,-6513.812290,-76.609550
59540.616168,-74.020594,-5329.482782,-689.485948
59540.616477,0.000000,-5995.668130,0.000000
59540.616787,1406.391290,-11547.212695,-76.609550
59540.617096,-74.020594,-14211.954086,-76.609550
59540.617406,-3256.906145,-14730.098246,306.438199
59540.617715,-2294.638420,-11325.150913,689.485948
59540.618025,-740.205942,-6587.832884,306.438199
59540.618334,0.000000,-2738.761985,1225.752797
59540.618644,1184.329507,-2442.679609,0.000000
59540.618953,5625.565159,-8068.244768,5056.230287
59540.619263,4663.297435,-11251.130318,2987.772442
59540.619572,0.000000,-10140.821405,2451.505594
59540.619882,-74.020594,-13027.624579,2374.896044
59540.620191,-74.020594,-10658.965565,3294.210641
59540.620501,-444.123565,-6661.853478,1685.410096
59540.620810,222.061783,-5847.626942,1302.362347
59540.621120,666.185348,-8142.265362,2221.676944
59540.621429,0.000000,-6291.750507,1225.752797
59540.621739,0.000000,-9548.656652,306.438199
59540.622048,0.000000,-12509.480420,4136.915689
59540.622358,-666.185348,-11843.295072,2987.772442
59540.622667,-2368.659014,-5995.668130,1225.752797
59540.622977,-74.020594,-8290.306550,2374.896044
59540.623286,-592.164754,-5699.585753,1378.971896
59540.623596,-1702.473667,-8734.430116,919.314598
59540.623905,-666.185348,-10214.842000,919.314598
59540.624215,0.000000,-12139.377449,1762.019645
59540.624524,-3182.885551,-10214.842000,1072.533697
59540.624834,-4737.318029,-9548.656652,1149.143247
59540.625143,-4737.318029,-7179.997637,0.000000
59540.625453,-1924.535449,-9474.636058,2145.067394
59540.625762,-2294.638420,-5033.400406,0.000000
59540.626072,1110.308913,-10658.965565,4826.401637
59540.626381,2368.659014,-8068.244768,4290.134789
59540.626691,3108.864956,-9474.636058,5286.058936
59540.627000,1554.432478,-9400.615463,4903.011187
59540.627310,-1110.308913,-9622.677246,3983.696590
59540.627619,-3034.844362,-6217.729913,842.705048
59540.627929,-4219.173869,-5921.647536,-76.609550
59540.628238,-4737.318029,-4811.338623,0.000000
59540.628548,-74.020594,-9474.636058,2374.896044
59540.628857,-74.020594,-7476.080014,-689.485948
59540.629167,2664.741391,-12583.501014,5515.887586
59540.629476,592.164754,-11325.150913,3830.477490
59540.629786,-74.020594,-12139.377449,4213.525239
59540.630095,-666.185348,-7550.100608,1991.848295
59540.630405,-1036.288319,-5921.647536,1378.971896
59540.630714,-74.020594,-3552.988522,-76.609550
59540.631024,-74.020594,-7105.977043,-76.609550
59540.631333,0.000000,-6587.832884,0.000000
59540.631643,3478.967927,-11843.295072,2221.676944
59540.631952,0.000000,-11325.150913,0.000000
59540.632262,-296.082377,-13989.892304,2834.553343
59540.632571,-2368.659014,-10436.903782,0.000000
59540.632881,-962.267725,-8290.306550,-842.705048
59540.633190,-592.164754,-7105.977043,-1915.238745
59540.633500,-444.123565,-8142.265362,-1455.581446
59540.633809,3478.967927,-10658.965565,-76.609550
59540.634119,4663.297435,-14211.954086,2374.896044
59540.634428,1702.473667,-10658.965565,-76.609550
59540.634738,0.000000,-10732.986159,0.000000
59540.635047,-74.020594,-9474.636058,-76.609550
59540.635357,-2368.659014,-5995.668130,0.000000
59540.635666,-3256.906145,-5107.421000,-3064.381992
59540.635976,-2072.576638,-7328.038826,-2757.943793
59540.636285,-148.041188,-9400.615463,-2221.676944
59540.636595,1184.329507,-9548.656652,-1302.362347
59540.636904,2294.638420,-13027.624579,-76.609550
59540.637214,-74.020594,-15396.283594,2068.457845
59540.637523,-74.020594,-13027.624579,-689.485948
59540.637833,-3256.906145,-9548.656652,-1685.410096
59540.638142,-74.020594,-11843.295072,-76.609550
59540.638452,-2368.659014,-5107.421000,0.000000
59540.638761,1184.329507,-4811.338623,-1378.971896
59540.639071,3256.906145,-6439.791695,612.876398
59540.639380,2072.576638,-9104.533087,842.705048
59540.639690,-888.247130,-12065.356855,612.876398
59540.639999,-74.020594,-15100.201217,1302.362347
59540.640309,-666.185348,-12213.398043,1149.143247
59540.640618,-2442.679609,-9474.636058,-1302.362347
59540.640928,-4145.153275,-4219.173869,-2451.505594
59540.641237,1998.556043,-9474.636058,-76.609550
59540.641547,0.000000,-5995.668130,0.000000
59540.641856,740.205942,-10362.883188,229.828649
59540.642166,-1776.494261,-13101.645173,1225.752797
59540.642475,-2220.617826,-11103.089130,153.219100
59540.642785,-1628.453072,-7105.977043,-383.047749
59540.643094,444.123565,-6735.874072,383.047749
59540.643404,888.247130,-5995.668130,2451.505594
59540.643713,4071.132681,-8882.471304,2068.457845
59540.644022,1776.494261,-8956.491898,1532.190996
59540.644332,3256.906145,-13989.892304,6128.763984
59540.644641,-1332.370696,-10140.821405,1378.971896
59540.644951,-74.020594,-10066.800811,2374.896044
59540.645260,0.000000,-6883.915261,1685.410096
59540.645570,-592.164754,-7179.997637,1455.581446
59540.645879,-740.205942,-8142.265362,1838.629195
59540.646189,1776.494261,-9548.656652,3064.381992
59540.646498,1184.329507,-8364.327145,3677.258390
59540.646808,2886.803174,-11547.212695,5209.449386
59540.647117,-74.020594,-10066.800811,3600.648841
59540.647427,-2368.659014,-9548.656652,2757.943793
59540.647736,-1850.514855,-7105.977043,153.219100
59540.648046,-2442.679609,-7698.141797,1149.143247
59540.648355,-3404.947333,-7846.182985,1225.752797
59540.648665,-1110.308913,-8290.306550,995.924147
59540.648974,444.123565,-8808.450710,2221.676944
59540.649284,-2368.659014,-9548.656652,2451.505594
59540.649593,-4737.318029,-9548.656652,1838.629195
59540.649903,-74.020594,-12879.583391,4213.525239
59540.650212,-1850.514855,-7920.203579,995.924147
59540.650522,-2368.659014,-9548.656652,3677.258390
59540.650831,-2442.679609,-5921.647536,-689.485948
59540.651141,1702.473667,-9030.512492,2374.896044
59540.651450,2220.617826,-6809.894666,2451.505594
59540.651760,1036.288319,-8956.491898,2145.067394
59540.652069,-814.226536,-10288.862594,2451.505594
59540.652379,-3552.988522,-8364.327145,0.000000
59540.652688,-4737.318029,-5995.668130,0.000000
59540.652998,-2368.659014,-10807.006753,1532.190996
59540.653307,-2442.679609,-8290.306550,-689.485948
59540.653617,0.000000,-8364.327145,2451.505594
59540.653926,4663.297435,-9474.636058,1762.019645
59540.654236,2812.782580,-9474.636058,2987.772442
59540.654545,740.205942,-8734.430116,2374.896044
59540.654855,296.082377,-9104.533087,1455.581446
59540.655164,-296.082377,-7550.100608,536.266849
59540.655474,-4737.318029,-7476.080014,-2374.896044
59540.655783,-4589.276840,-4811.338623,-3370.820191
59540.656093,1184.329507,-10732.986159,1225.752797
59540.656402,3478.967927,-9178.553681,1149.143247
59540.656712,0.000000,-7179.997637,0.000000
59540.657021,3478.967927,-11843.295072,2374.896044
59540.657331,2294.638420,-11029.068536,1685.410096
59540.657640,666.185348,-8882.471304,-76.609550
59540.657950,-2368.659014,-10140.821405,-1072.533697
59540.658259,-1850.514855,-8734.430116,-1149.143247
59540.658569,-370.102971,-9622.677246,-689.485948
59540.658878,1110.308913,-8068.244768,0.000000
59540.659188,0.000000,-9548.656652,1225.752797
59540.659497,-74.020594,-8290.306550,-76.609550
59540.659807,0.000000,-5995.668130,0.000000
59540.660116,1998.556043,-8882.471304,-76.609550
59540.660426,-4145.153275,-9548.656652,-2145.067394
59540.660735,-3404.947333,-9030.512492,-2068.457845
59540.661045,-1628.453072,-10732.986159,-2145.067394
59540.661354,444.123565,-9474.636058,153.219100
59540.661664,1110.308913,-8586.388927,1762.019645
59540.661973,1110.308913,-6513.812290,-76.609550
59540.662283,0.000000,-7179.997637,0.000000
59540.662592,444.123565,-8734.430116,2451.505594
59540.662902,-3034.844362,-10658.965565,-2221.676944
59540.663211,-1850.514855,-12435.459826,1532.190996
59540.663521,0.000000,-8956.491898,0.000000
59540.663830,3182.885551,-7105.977043,1915.238745
59540.664140,2368.659014,-7920.203579,2528.115143
59540.664449,2072.576638,-7402.059420,2451.505594
59540.664759,2294.638420,-10658.965565,2987.772442
59540.665068,-74.020594,-9474.636058,-76.609550
59540.665378,-5033.400406,-8956.491898,-2068.457845
59540.665687,-2960.823768,-9548.656652,1455.581446
59540.665997,-666.185348,-8290.306550,-1302.362347
59540.666306,592.164754,-8956.491898,2451.505594
59540.666616,0.000000,-8956.491898,1225.752797
59540.666925,740.205942,-8956.491898,2145.067394
59540.667235,962.267725,-9844.739029,2298.286494
59540.667544,0.000000,-7846.182985,919.314598
59540.667854,-1258.350101,-9474.636058,689.485948
59540.668163,-74.020594,-9474.636058,-76.609550
59540.668473,-2220.617826,-7179.997637,-1225.752797
59540.668782,2294.638420,-8512.368333,2374.896044
59540.669092,-2664.741391,-7476.080014,0.000000
59540.669401,0.000000,-8660.409521,2451.505594
59540.669711,0.000000,-9918.759623,1225.752797
59540.670020,0.000000,-9252.574275,1378.971896
59540.670330,-1998.556043,-9992.780217,76.609550
59540.670639,-1258.350101,-7994.224174,383.047749
59540.670949,2294.638420,-10066.800811,1532.190996
59540.671258,4663.297435,-9474.636058,3600.648841
59540.671567,-962.267725,-9178.553681,459.657299
59540.671877,148.041188,-9548.656652,3677.258390
59540.672186,-74.020594,-8882.471304,-76.609550
59540.672496,-3552.988522,-5995.668130,0.000000
59540.672806,-4515.256246,-8364.327145,-1915.238745
59540.673115,-3108.864956,-8808.450710,-1455.581446
59540.673425,-1480.411884,-11917.315666,-612.876398
59540.673734,148.041188,-10214.842000,383.047749
59540.674044,-296.082377,-12213.398043,2451.505594
59540.674353,2368.659014,-9400.615463,4443.353888
59540.674663,3478.967927,-7698.141797,2987.772442
59540.674972,74.020594,-3034.844362,0.000000
59540.675282,-74.020594,-10658.965565,2987.772442
59540.675592,-3552.988522,-7179.997637,0.000000
59540.675901,-1258.350101,-13471.748144,229.828649
59540.676211,-592.164754,-11029.068536,842.705048
59540.676520,-1776.494261,-11029.068536,612.876398
59540.676830,-74.020594,-7994.224174,1455.581446
59540.677139,0.000000,-6587.832884,1838.629195
59540.677449,-666.185348,-6661.853478,842.705048
59540.677758,-1850.514855,-11843.295072,-76.609550
59540.678068,-4441.235652,-7179.997637,0.000000
59540.678377,-592.164754,-11325.150913,2451.505594
59540.678687,74.020594,-5921.647536,76.609550
59540.678997,1406.391290,-6513.812290,2374.896044
59540.679306,2664.741391,-4885.359217,2451.505594
59540.679616,2738.761985,-7402.059420,2221.676944
59540.679925,370.102971,-8734.430116,689.485948
59540.680235,-4737.318029,-10807.006753,0.000000
59540.680544,-5921.647536,-10140.821405,0.000000
59540.680854,-2072.576638,-11917.315666,0.000000
59540.681163,-74.020594,-9474.636058,-76.609550
59540.681473,-2368.659014,-8364.327145,0.000000
59540.681783,3182.885551,-7105.977043,1149.143247
59540.682092,3108.864956,-9104.533087,3370.820191
59540.682402,1702.473667,-7105.977043,1838.629195
59540.682711,-1110.308913,-9252.574275,1225.752797
59540.683021,-1036.288319,-8956.491898,766.095498
59540.683330,-1628.453072,-9770.718434,536.266849
59540.683640,0.000000,-7179.997637,0.000000
59540.683949,1332.370696,-11177.109724,3294.210641
59540.684259,1702.473667,-7179.997637,0.000000
59540.684569,2960.823768,-10436.903782,3983.696590
59540.684878,2294.638420,-8290.306550,-76.609550
59540.685188,-2220.617826,-11473.192101,689.485948
59540.685497,-2738.761985,-10658.965565,0.000000
59540.685807,-2368.659014,-11695.253884,0.000000
59540.686116,-1628.453072,-8956.491898,612.876398
59540.686426,-2886.803174,-8512.368333,1149.143247
59540.686735,74.020594,-4811.338623,229.828649
59540.687045,0.000000,-6291.750507,1838.629195
59540.687355,1702.473667,-5329.482782,-76.609550
59540.687664,-3552.988522,-8364.327145,0.000000
59540.687974,-74.020594,-11251.130318,-76.609550
59540.688283,-2368.659014,-12213.398043,0.000000
59540.688593,-1110.308913,-10362.883188,-76.609550
59540.688902,-888.247130,-10214.842000,842.705048
59540.689212,740.205942,-7105.977043,995.924147
59540.689521,2294.638420,-8290.306550,1762.019645
59540.689831,-518.144159,-5921.647536,-1455.581446
59540.690140,-3256.906145,-10732.986159,0.000000
59540.690450,-1258.350101,-11843.295072,-76.609550
59540.690760,-4737.318029,-9548.656652,0.000000
59540.691069,3182.885551,-8882.471304,-76.609550
59540.691379,0.000000,-8438.347739,919.314598
59540.691688,1998.556043,-7624.121203,1991.848295
59540.691998,2146.597232,-9548.656652,1762.019645
59540.692307,1554.432478,-7920.203579,919.314598
59540.692617,-74.020594,-9474.636058,1149.143247
59540.692926,-74.020594,-7105.977043,-1302.362347
59540.693236,-2368.659014,-9548.656652,-2298.286494
59540.693546,1036.288319,-11621.233289,1838.629195
59540.693855,-74.020594,-13027.624579,-689.485948
59540.694165,2072.576638,-13027.624579,2068.457845
59540.694474,888.247130,-8660.409521,766.095498
59540.694784,1480.411884,-6365.771101,919.314598
59540.695093,518.144159,-6957.935855,1072.533697
59540.695403,222.061783,-6513.812290,536.266849
59540.695712,1332.370696,-11251.130318,2298.286494
59540.696022,2294.638420,-11251.130318,-76.609550
59540.696332,-2368.659014,-9844.739029,0.000000
59540.696641,2294.638420,-11547.212695,4213.525239
59540.696951,814.226536,-4737.318029,-383.047749
59540.697260,0.000000,-6291.750507,612.876398
59540.697570,-1850.514855,-8882.471304,-1072.533697
59540.697879,-1110.308913,-11177.109724,-383.047749
59540.698189,-1406.391290,-13619.789333,229.828649
59540.698498,-1480.411884,-12213.398043,0.000000
59540.698808,-2368.659014,-11917.315666,1225.752797
59540.699118,2294.638420,-9474.636058,2374.896044
59540.699427,222.061783,-5033.400406,919.314598
59540.699737,2294.638420,-7105.977043,4213.525239
59540.700046,-1924.535449,-5699.585753,0.000000
59540.700356,0.000000,-10140.821405,2451.505594
59540.700665,-1258.350101,-12509.480420,689.485948
59540.700975,-2960.823768,-11325.150913,0.000000
59540.701284,-3552.988522,-10807.006753,459.657299
59540.701594,-296.082377,-7105.977043,1685.410096
59540.701903,888.247130,-5995.668130,1225.752797
59540.702213,1480.411884,-6587.832884,3064.381992
59540.702523,-666.185348,-9474.636058,1762.019645
59540.702832,-4145.153275,-7179.997637,0.000000
59540.703142,-74.020594,-13471.748144,3294.210641
59540.703451,-2960.823768,-8956.491898,1225.752797
59540.703761,-1628.453072,-9770.718434,2298.286494
59540.704070,370.102971,-6217.729913,1915.238745
59540.704380,2368.659014,-6365.771101,2604.724693
59540.704689,1258.350101,-4959.379811,1608.800546
59540.704999,-1776.494261,-6587.832884,0.000000
59540.705309,0.000000,-9548.656652,1225.752797
59540.705618,1110.308913,-13027.624579,2068.457845
59540.705928,-4737.318029,-9548.656652,0.000000
59540.706237,-74.020594,-14211.954086,2374.896044
59540.706547,-888.247130,-7772.162391,1302.362347
59540.706856,1702.473667,-7698.141797,2068.457845
59540.707166,1332.370696,-5403.503377,919.314598
59540.707475,370.102971,-7105.977043,1149.143247
59540.707785,1554.432478,-9326.594869,1302.362347
59540.708095,0.000000,-10140.821405,0.000000
59540.708404,-2368.659014,-11325.150913,612.876398
59540.708714,-814.226536,-13915.871710,1762.019645
59540.709023,-2368.659014,-7179.997637,0.000000
59540.709333,3478.967927,-9474.636058,2068.457845
59540.709642,-1776.494261,-3627.009116,0.000000
59540.709952,-1480.411884,-7846.182985,-76.609550
59540.710261,-666.185348,-9178.553681,-536.266849
59540.710571,-1036.288319,-11991.336260,0.000000
59540.710881,-2368.659014,-11917.315666,-229.828649
59540.711190,-4737.318029,-11325.150913,-689.485948
59540.711500,-2368.659014,-7179.997637,0.000000
59540.711809,2886.803174,-7698.141797,2374.896044
59540.712119,0.000000,-2442.679609,612.876398
59540.712428,2294.638420,-7994.224174,2374.896044
59540.712738,518.144159,-7254.018232,0.000000
59540.713047,148.041188,-11769.274478,1225.752797
59540.713357,-2516.700203,-11769.274478,-766.095498
59540.713666,-4219.173869,-12805.562797,-76.609550
59540.713976,-1332.370696,-8882.471304,-76.609550
59540.714286,518.144159,-7105.977043,-76.609550
59540.714595,-1924.535449,-3627.009116,0.000000
59540.714905,-666.185348,-7772.162391,2374.896044
59540.715214,-74.020594,-6217.729913,-1302.362347
59540.715524,592.164754,-10732.986159,1838.629195
59540.715833,-1258.350101,-9474.636058,0.000000
59540.716143,-2368.659014,-11251.130318,689.485948
59540.716452,962.267725,-8956.491898,612.876398
59540.716762,1998.556043,-7624.121203,995.924147
59540.717072,888.247130,-6217.729913,536.266849
59540.717381,-74.020594,-8882.471304,-76.609550
59540.717691,444.123565,-8290.306550,-1302.362347
59540.718000,0.000000,-10732.986159,0.000000
59540.718310,-74.020594,-14211.954086,-76.609550
59540.718619,-4737.318029,-11917.315666,-2145.067394
59540.718929,-74.020594,-10658.965565,-1302.362347
59540.719238,1332.370696,-8438.347739,1225.752797
59540.719548,518.144159,-5625.565159,383.047749
59540.719858,1110.308913,-5477.523971,766.095498
59540.720167,3034.844362,-7179.997637,3294.210641
59540.720477,4071.132681,-11843.295072,3600.648841
59540.720786,-666.185348,-11251.130318,229.828649
59540.721096,-4145.153275,-11917.315666,0.000000
59540.721405,-74.020594,-12731.542202,-76.609550
59540.721715,-2368.659014,-6587.832884,0.000000
59540.722024,-74.020594,-6217.729913,-76.609550
59540.722334,-1184.329507,-6439.791695,0.000000
59540.722644,962.267725,-8882.471304,612.876398
59540.722953,518.144159,-12361.439231,1762.019645
59540.723263,-1776.494261,-12731.542202,2604.724693
59540.723572,-1406.391290,-13027.624579,3600.648841
59540.723882,-74.020594,-9474.636058,2068.457845
59540.724191,0.000000,-4219.173869,612.876398
59540.724501,3478.967927,-6809.894666,2374.896044
59540.724810,-666.185348,-3997.112087,76.609550
59540.725120,2294.638420,-8216.285956,1762.019645
59540.725429,0.000000,-11325.150913,1225.752797
59540.725739,-3034.844362,-13989.892304,383.047749
59540.726049,-5107.421000,-13545.768739,-612.876398
59540.726358,-3404.947333,-10436.903782,0.000000
59540.726668,-592.164754,-7772.162391,1532.190996
59540.726977,-74.020594,-7105.977043,1149.143247
59540.727287,-1036.288319,-4811.338623,-2298.286494
59540.727596,1184.329507,-9548.656652,3677.258390
59540.727906,3478.967927,-9474.636058,2987.772442
59540.728215,592.164754,-9474.636058,3600.648841
59540.728525,-1924.535449,-8956.491898,2145.067394
59540.728835,-1332.370696,-8216.285956,0.000000
59540.729144,-888.247130,-7698.141797,0.000000
59540.729454,-1332.370696,-7846.182985,0.000000
59540.729763,0.000000,-9548.656652,1838.629195
59540.730073,3775.050304,-10955.047942,2374.896044
59540.730382,1110.308913,-10658.965565,-76.609550
59540.730692,-3552.988522,-10140.821405,0.000000
59540.731001,-74.020594,-13027.624579,2681.334243
59540.731311,888.247130,-11251.130318,2987.772442
59540.731621,814.226536,-6069.688724,689.485948
59540.731930,444.123565,-6587.832884,842.705048
59540.732240,1998.556043,-7624.121203,2221.676944
59540.732549,3552.988522,-7031.956449,919.314598
59540.732859,592.164754,-7179.997637,1225.752797
59540.733168,-740.205942,-11029.068536,1838.629195
59540.733478,-1554.432478,-10362.883188,-1608.800546
59540.733787,-592.164754,-12509.480420,612.876398
59540.734097,-1258.350101,-9178.553681,-1302.362347
59540.734407,-2368.659014,-8956.491898,-1225.752797
59540.734716,-74.020594,-10362.883188,-383.047749
59540.735026,1554.432478,-9548.656652,612.876398
59540.735335,962.267725,-11621.233289,1302.362347
59540.735645,-1184.329507,-10732.986159,0.000000
59540.735954,-3552.988522,-7179.997637,0.000000
59540.736264,0.000000,-7772.162391,1225.752797
59540.736573,-74.020594,-6809.894666,-76.609550
59540.736883,-2368.659014,-5995.668130,0.000000
59540.737192,-74.020594,-10066.800811,1762.019645
59540.737502,0.000000,-10288.862594,1225.752797
59540.737812,-296.082377,-12139.377449,1149.143247
59540.738121,-2664.741391,-12805.562797,995.924147
59540.738431,-2664.741391,-9992.780217,536.266849
59540.738740,-1850.514855,-6883.915261,-383.047749
59540.739050,-2664.741391,-3627.009116,-1838.629195
59540.739359,-1184.329507,-4811.338623,306.438199
59540.739669,3478.967927,-9474.636058,3600.648841
59540.739978,296.082377,-5995.668130,0.000000
59540.740288,2146.597232,-11399.171507,4826.401637
59540.740598,-444.123565,-11917.315666,1838.629195
59540.740907,-962.267725,-11769.274478,1455.581446
59540.741217,-1850.514855,-9622.677246,229.828649
59540.741526,-2294.638420,-7698.141797,-536.266849
59540.741836,-1776.494261,-7105.977043,-689.485948
59540.742145,222.061783,-6069.688724,-1915.238745
59540.742455,0.000000,-7179.997637,306.438199
59540.742764,1184.329507,-9548.656652,3677.258390
59540.743074,3478.967927,-13915.871710,4519.963438
59540.743384,-1184.329507,-9548.656652,2451.505594
59540.743693,-2072.576638,-8364.327145,0.000000
59540.744003,-1406.391290,-7402.059420,-536.266849
59540.744312,-1332.370696,-6957.935855,-995.924147
59540.744622,444.123565,-6957.935855,0.000000
59540.744931,1924.535449,-9474.636058,-76.609550
59540.745241,1998.556043,-10658.965565,-76.609550
59540.745550,-1776.494261,-12509.480420,0.000000
59540.745860,-3552.988522,-12509.480420,1225.752797
59540.746170,-666.185348,-13027.624579,-76.609550
59540.746479,-3552.988522,-5477.523971,0.000000
59540.746789,-2368.659014,-4811.338623,0.000000
59540.747098,1776.494261,-5773.606348,1838.629195
59540.747408,3256.906145,-8216.285956,2604.724693
59540.747717,2294.638420,-9400.615463,2757.943793
59540.748027,-74.020594,-13027.624579,2987.772442
59540.748336,-74.020594,-11547.212695,-76.609550
59540.748646,-3627.009116,-9400.615463,-1302.362347
59540.748955,-3552.988522,-6291.750507,0.000000
59540.749265,-2442.679609,-8290.306550,-1302.362347
59540.749575,-2368.659014,-6587.832884,0.000000
59540.749884,370.102971,-7476.080014,0.000000
59540.750194,1702.473667,-9770.718434,2145.067394
59540.750503,222.061783,-11621.233289,2145.067394
59540.750813,-814.226536,-10955.047942,2374.896044
59540.751122,-370.102971,-10658.965565,2298.286494
59540.751432,-74.020594,-7105.977043,-76.609550
59540.751741,-1850.514855,-7105.977043,-689.485948
59540.752051,0.000000,-7179.997637,1225.752797
59540.752361,3478.967927,-9474.636058,1762.019645
59540.752670,0.000000,-7179.997637,0.000000
59540.752980,-1110.308913,-10658.965565,383.047749
59540.753289,-1184.329507,-10288.862594,1225.752797
59540.753599,-1036.288319,-10288.862594,766.095498
59540.753908,-2072.576638,-7846.182985,-842.705048
59540.754218,-1554.432478,-9400.615463,1072.533697
59540.754527,1110.308913,-9474.636058,2374.896044
59540.754837,3182.885551,-7698.141797,1149.143247
59540.755147,0.000000,-5403.503377,0.000000
59540.755456,3478.967927,-13619.789333,3600.648841
59540.755766,0.000000,-10140.821405,0.000000
59540.756075,-74.020594,-11547.212695,-76.609550
59540.756385,-2590.720797,-7105.977043,-1225.752797
59540.756694,-3108.864956,-6809.894666,-1608.800546
59540.757004,518.144159,-6957.935855,459.657299
59540.757313,3552.988522,-8660.409521,3064.381992
59540.757623,3775.050304,-12435.459826,4826.401637
59540.757933,-74.020594,-13915.871710,3600.648841
59540.758242,-1850.514855,-10214.842000,0.000000
59540.758552,-74.020594,-11769.274478,2451.505594
59540.758861,-2738.761985,-4811.338623,-2221.676944
59540.759171,-1258.350101,-7105.977043,-383.047749
59540.759480,222.061783,-6735.874072,76.609550
59540.759790,2220.617826,-8882.471304,1455.581446
59540.760099,1406.391290,-9326.594869,1838.629195
59540.760409,-1184.329507,-10732.986159,2451.505594
59540.760718,-296.082377,-13101.645173,3677.258390
59540.761028,-74.020594,-12435.459826,2374.896044
59540.761338,-3627.009116,-5551.544565,-2374.896044
59540.761647,-2368.659014,-8216.285956,306.438199
59540.761957,-74.020594,-6513.812290,-76.609550
59540.762266,3182.885551,-9474.636058,1149.143247
59540.762576,1332.370696,-7920.203579,1838.629195
59540.762885,-592.164754,-11325.150913,1915.238745
59540.763195,-1184.329507,-11917.315666,1532.190996
59540.763504,-3552.988522,-10140.821405,0.000000
59540.763814,-2960.823768,-7179.997637,1225.752797
59540.764124,-2442.679609,-7698.141797,-76.609550
59540.764433,-4145.153275,-2442.679609,-2451.505594
59540.764743,2664.741391,-8364.327145,2221.676944
59540.765052,3478.967927,-8290.306550,2374.896044
59540.765362,2294.638420,-13027.624579,3447.429741
59540.765671,222.061783,-12287.418637,2145.067394
59540.765981,-1110.308913,-12657.521608,842.705048
59540.766290,-2072.576638,-9178.553681,229.828649
59540.766600,-4441.235652,-5995.668130,-3064.381992
59540.766910,0.000000,-3627.009116,0.000000
59540.767219,2664.741391,-6587.832884,3064.381992
59540.767529,4663.297435,-7105.977043,-76.609550
59540.767838,1184.329507,-11029.068536,3064.381992
59540.768148,2294.638420,-14211.954086,3600.648841
59540.768457,-222.061783,-13767.830521,2374.896044
59540.768767,-1998.556043,-8586.388927,-689.485948
59540.769076,-3330.926739,-7624.121203,-1838.629195
59540.769386,-518.144159,-6217.729913,-689.485948
59540.769696,592.164754,-5995.668130,-2298.286494
59540.770005,0.000000,-5995.668130,0.000000
59540.770315,0.000000,-12509.480420,0.000000
59540.770624,2294.638420,-15988.448347,3600.648841
59540.770934,-2590.720797,-10807.006753,0.000000
59540.771243,-2294.638420,-9474.636058,1149.143247
59540.771553,-3552.988522,-7920.203579,0.000000
59540.771862,-592.164754,-5477.523971,-306.438199
59540.772172,2294.638420,-6365.771101,1225.752797
59540.772481,2960.823768,-6661.853478,1838.629195
59540.772791,666.185348,-9770.718434,1149.143247
59540.773101,-1776.494261,-9548.656652,0.000000
59540.773410,-2072.576638,-11325.150913,0.000000
59540.773720,-1332.370696,-11177.109724,1685.410096
59540.774029,-5107.421000,-7402.059420,-2834.553343
59540.774339,-666.185348,-8216.285956,1455.581446
59540.774648,0.000000,-6587.832884,0.000000
59540.774958,1702.473667,-7698.141797,1378.971896
59540.775267,0.000000,-11029.068536,2528.115143
59540.775577,222.061783,-11177.109724,2834.553343
59540.775886,-74.020594,-11251.130318,2068.457845
59540.776196,-3627.009116,-6513.812290,-919.314598
59540.776505,-5329.482782,-6587.832884,-2451.505594
59540.776815,-74.020594,-8290.306550,2374.896044
59540.777124,222.061783,-4811.338623,0.000000
59540.777434,2368.659014,-7179.997637,2451.505594
59540.777743,0.000000,-9548.656652,1225.752797
59540.778053,74.020594,-12065.356855,1225.752797
59540.778362,-370.102971,-13027.624579,1762.019645
59540.778672,-3034.844362,-9918.759623,-842.705048
59540.778981,-3627.009116,-9474.636058,-689.485948
59540.779291,-1258.350101,-6809.894666,-1915.238745
59540.779601,74.020594,-5995.668130,-2451.505594
59540.779910,4145.153275,-9252.574275,3830.477490
59540.780220,2294.638420,-11251.130318,2374.896044
59540.780529,0.000000,-9548.656652,2757.943793
59540.780839,0.000000,-9548.656652,766.095498
59540.781148,-1776.494261,-8512.368333,459.657299
59540.781458,-3701.029710,-8586.388927,-1302.362347
59540.781767,-1480.411884,-8068.244768,-919.314598
59540.782077,2294.638420,-11251.130318,2374.896044
59540.782386,3478.967927,-9178.553681,-76.609550
59540.782696,-370.102971,-8882.471304,-689.485948
59540.783005,0.000000,-9548.656652,2451.505594
59540.783315,3182.885551,-13027.624579,3600.648841
59540.783624,-2368.659014,-7179.997637,0.000000
59540.783934,-4145.153275,-8956.491898,0.000000
59540.784243,-296.082377,-7846.182985,766.095498
59540.784553,1924.535449,-7550.100608,1608.800546
59540.784862,2146.597232,-6587.832884,2068.457845
59540.785172,2146.597232,-10658.965565,4826.401637
59540.785481,4663.297435,-9474.636058,3600.648841
59540.785791,-74.020594,-9474.636058,-76.609550
59540.786100,-4737.318029,-8364.327145,0.000000
59540.786410,-3034.844362,-11843.295072,-76.609550
59540.786719,-5329.482782,-7179.997637,-4290.134789
59540.787029,-666.185348,-7550.100608,-459.657299
59540.787338,0.000000,-7254.018232,229.828649
59540.787648,-296.082377,-9400.615463,2298.286494
59540.787957,1406.391290,-9992.780217,2528.115143
59540.788267,888.247130,-11473.192101,4290.134789
59540.788576,-74.020594,-10658.965565,2068.457845
59540.788886,-4515.256246,-8290.306550,-1915.238745
59540.789195,-3552.988522,-5995.668130,0.000000
59540.789505,1702.473667,-8290.306550,-76.609550
59540.789814,0.000000,-4811.338623,0.000000
59540.790124,1702.473667,-9178.553681,1149.143247
59540.790433,1776.494261,-9178.553681,2068.457845
59540.790743,1258.350101,-9400.615463,1455.581446
59540.791052,-1406.391290,-8068.244768,-383.047749
59540.791362,-3552.988522,-10732.986159,306.438199
59540.791671,-296.082377,-11547.212695,1378.971896
59540.791981,1110.308913,-11843.295072,-76.609550
59540.792290,0.000000,-8364.327145,0.000000
59540.792600,2738.761985,-10658.965565,2987.772442
59540.792909,2294.638420,-4959.379811,536.266849
59540.793219,4071.132681,-8882.471304,3600.648841
59540.793528,0.000000,-6883.915261,766.095498
59540.793838,-3256.906145,-10732.986159,0.000000
59540.794147,-740.205942,-10658.965565,-229.828649
59540.794457,0.000000,-9548.656652,1225.752797
59540.794766,0.000000,-8956.491898,1225.752797
59540.795076,2294.638420,-11843.295072,3600.648841
59540.795385,1554.432478,-6069.688724,536.266849
59540.795695,592.164754,-8512.368333,1838.629195
59540.796005,-74.020594,-10362.883188,-76.609550
59540.796314,-2442.679609,-13027.624579,1149.143247
59540.796624,-2072.576638,-10214.842000,-536.266849
59540.796933,-1480.411884,-9696.697840,612.876398
59540.797243,222.061783,-7105.977043,1762.019645
59540.797552,0.000000,-4811.338623,1225.752797
59540.797862,592.164754,-5995.668130,2451.505594
59540.798171,3478.967927,-11029.068536,6052.154434
59540.798481,-1850.514855,-7402.059420,-689.485948
59540.798790,-3552.988522,-11029.068536,306.438199
59540.799100,-666.185348,-11251.130318,-76.609550
59540.799409,-370.102971,-11843.295072,-76.609550
59540.799719,-1850.514855,-7920.203579,76.609550
59540.800028,-814.226536,-9252.574275,1455.581446
59540.800338,814.226536,-8216.285956,1455.581446
59540.800647,0.000000,-7179.997637,2451.505594
59540.800957,-1776.494261,-7772.162391,612.876398
59540.801266,-74.020594,-12435.459826,3600.648841
59540.801576,-2738.761985,-6587.832884,-1915.238745
59540.801885,1110.308913,-10658.965565,1915.238745
59540.802195,1110.308913,-8290.306550,-76.609550
59540.802504,2886.803174,-10658.965565,3983.696590
59540.802814,1776.494261,-8216.285956,2145.067394
59540.803123,1258.350101,-7846.182985,1685.410096
59540.803433,-740.205942,-7179.997637,-766.095498
59540.803742,-4737.318029,-7772.162391,0.000000
59540.804052,-2368.659014,-11029.068536,0.000000
59540.804361,-74.020594,-15396.283594,-76.609550
59540.804671,-2220.617826,-8956.491898,-1838.629195
59540.804980,1776.494261,-10436.903782,2604.724693
59540.805290,4663.297435,-6513.812290,-76.609550
59540.805599,3775.050304,-7994.224174,3294.210641
59540.805909,666.185348,-5403.503377,0.000000
59540.806218,-1554.432478,-10584.944971,0.000000
59540.806528,-1332.370696,-11843.295072,-153.219100
59540.806837,-3552.988522,-10732.986159,-1225.752797
59540.807147,0.000000,-9548.656652,1225.752797
59540.807456,2294.638420,-11843.295072,4213.525239
59540.807766,518.144159,-4811.338623,0.000000
59540.808075,2368.659014,-8068.244768,2298.286494
59540.808385,-74.020594,-7105.977043,-689.485948
59540.808694,-1554.432478,-11843.295072,-76.609550
59540.809004,-2664.741391,-10881.027347,-1455.581446
59540.809313,-1554.432478,-11547.212695,-76.609550
59540.809623,-1258.350101,-9770.718434,536.266849
59540.809932,-2368.659014,-7476.080014,1225.752797
59540.810242,592.164754,-7179.997637,3064.381992
59540.810551,3701.029710,-8956.491898,5592.497135
59540.810861,-74.020594,-5329.482782,-76.609550
59540.811170,-3256.906145,-7772.162391,1225.752797
59540.811480,-666.185348,-9474.636058,-76.609550
59540.811789,-814.226536,-11843.295072,995.924147
59540.812099,-1406.391290,-10658.965565,76.609550
59540.812409,-1554.432478,-10732.986159,1762.019645
59540.812718,0.000000,-9030.512492,1838.629195
59540.813028,0.000000,-5995.668130,0.000000
59540.813337,-3552.988522,-5995.668130,0.000000
59540.813647,-2368.659014,-8364.327145,2451.505594
59540.813956,-74.020594,-9474.636058,-76.609550
59540.814266,0.000000,-9548.656652,1225.752797
59540.814575,2294.638420,-11547.212695,3600.648841
59540.814885,888.247130,-9400.615463,3677.258390
59540.815194,2442.679609,-7994.224174,2834.553343
59540.815504,2590.720797,-7476.080014,2528.115143
59540.815813,1036.288319,-7772.162391,1532.190996
59540.816123,-2146.597232,-7920.203579,-2298.286494
59540.816432,-4145.153275,-7772.162391,-1838.629195
59540.816742,-2368.659014,-10140.821405,0.000000
59540.817051,-74.020594,-11843.295072,-76.609550
59540.817361,-1776.494261,-10732.986159,1225.752797
59540.817670,4663.297435,-13027.624579,4213.525239
59540.817980,1184.329507,-7476.080014,2451.505594
59540.818289,1702.473667,-7105.977043,2068.457845
59540.818599,518.144159,-6661.853478,1455.581446
59540.818908,666.185348,-6735.874072,1072.533697
59540.819218,-74.020594,-9326.594869,0.000000
59540.819527,-2368.659014,-8956.491898,-995.924147
59540.819837,-4737.318029,-9548.656652,0.000000
59540.820146,1776.494261,-12805.562797,2528.115143
59540.820456,-74.020594,-8290.306550,-76.609550
59540.820765,0.000000,-8364.327145,919.314598
59540.821075,-2368.659014,-7476.080014,0.000000
59540.821384,-1258.350101,-9474.636058,-536.266849
59540.821694,-1332.370696,-10288.862594,-306.438199
59540.822003,-1554.432478,-11029.068536,612.876398
59540.822313,-74.020594,-10658.965565,1149.143247
59540.822622,1110.308913,-7105.977043,1455.581446
59540.822932,0.000000,-2442.679609,0.000000
59540.823241,1776.494261,-7179.997637,2757.943793
59540.823551,-666.185348,-6809.894666,383.047749
59540.823860,0.000000,-10140.821405,1532.190996
59540.824170,-2368.659014,-10140.821405,0.000000
59540.824479,-2738.761985,-11251.130318,-842.705048
59540.824789,-2664.741391,-11251.130318,459.657299
59540.825098,-1184.329507,-8734.430116,459.657299
59540.825408,-74.020594,-7105.977043,-76.609550
59540.825717,-74.020594,-5921.647536,-76.609550
59540.826027,-4145.153275,-4811.338623,0.000000
59540.826336,0.000000,-9992.780217,1838.629195
59540.826646,-74.020594,-9474.636058,-76.609550
59540.826955,0.000000,-8364.327145,1225.752797
59540.827265,0.000000,-8216.285956,1072.533697
59540.827574,2294.638420,-8364.327145,2298.286494
59540.827884,2294.638420,-7254.018232,1302.362347
59540.828193,370.102971,-9474.636058,76.609550
59540.828503,-74.020594,-11251.130318,-76.609550
59540.828813,-74.020594,-11843.295072,-76.609550
59540.829122,-666.185348,-10066.800811,-2221.676944
59540.829432,-1776.494261,-11029.068536,612.876398
59540.829741,-74.020594,-10658.965565,1149.143247
59540.830051,0.000000,-7179.997637,1225.752797
59540.830360,1628.453072,-7031.956449,1149.143247
59540.830670,592.164754,-7254.018232,1225.752797
59540.830979,444.123565,-7846.182985,1455.581446
59540.831289,962.267725,-8512.368333,1378.971896
59540.831598,1702.473667,-11251.130318,3600.648841
59540.831908,-74.020594,-11843.295072,3600.648841
59540.832217,-1258.350101,-10066.800811,-689.485948
59540.832527,296.082377,-11917.315666,1838.629195
59540.832836,-222.061783,-8216.285956,76.609550
59540.833146,-4145.153275,-5403.503377,0.000000
59540.833455,-1554.432478,-7550.100608,-229.828649
59540.833765,-1406.391290,-9474.636058,229.828649
59540.834074,-1184.329507,-9326.594869,612.876398
59540.834384,-2368.659014,-10288.862594,766.095498
59540.834693,-888.247130,-11177.109724,4136.915689
59540.835003,2294.638420,-10510.924376,4290.134789
59540.835312,3478.967927,-5921.647536,2068.457845
59540.835622,0.000000,-5403.503377,1225.752797
59540.835931,1110.308913,-7698.141797,2374.896044
59540.836241,-2442.679609,-7179.997637,-1838.629195
59540.836550,-666.185348,-10955.047942,-76.609550
59540.836860,-3775.050304,-12065.356855,-766.095498
59540.837169,-3923.091493,-11325.150913,-459.657299
59540.837479,-1702.473667,-9622.677246,0.000000
59540.837788,0.000000,-6587.832884,2145.067394
59540.838098,666.185348,-8068.244768,2451.505594
59540.838407,-74.020594,-7105.977043,1149.143247
59540.838717,0.000000,-8364.327145,1225.752797
59540.839026,2294.638420,-10066.800811,3294.210641
59540.839336,-2442.679609,-7328.038826,-1302.362347
59540.839645,-74.020594,-8290.306550,1762.019645
59540.839955,1406.391290,-7476.080014,1225.752797
59540.840264,1850.514855,-8290.306550,1378.971896
59540.840574,-74.020594,-10436.903782,536.266849
59540.840883,0.000000,-9548.656652,612.876398
59540.841193,0.000000,-11917.315666,0.000000
59540.841502,1480.411884,-11177.109724,2145.067394
59540.841812,-666.185348,-10658.965565,-76.609550
59540.842121,-1184.329507,-8660.409521,1532.190996
59540.842431,2294.638420,-9474.636058,1149.143247
59540.842740,2886.803174,-8808.450710,2068.457845
59540.843050,962.267725,-7994.224174,1149.143247
59540.843359,1554.432478,-6069.688724,1532.190996
59540.843669,2442.679609,-8142.265362,1685.410096
59540.843978,0.000000,-7179.997637,0.000000
59540.844288,-3552.988522,-10732.986159,0.000000
59540.844597,-1184.329507,-13693.809927,1532.190996
59540.844907,-1850.514855,-10658.965565,-1302.362347
59540.845216,-592.164754,-7920.203579,1149.143247
59540.845526,-74.020594,-7105.977043,-76.609550
59540.845836,1776.494261,-6587.832884,1378.971896
59540.846145,666.185348,-10066.800811,1149.143247
59540.846455,222.061783,-10140.821405,1302.362347
59540.846764,-1850.514855,-12879.583391,1608.800546
59540.847074,-3552.988522,-7476.080014,0.000000
59540.847383,-2368.659014,-4811.338623,0.000000
59540.847693,296.082377,-5995.668130,1838.629195
59540.848002,-666.185348,-5921.647536,-76.609550
59540.848312,296.082377,-7179.997637,2145.067394
59540.848621,2294.638420,-13027.624579,-76.609550
59540.848931,-1776.494261,-12139.377449,612.876398
59540.849240,-3775.050304,-14063.912898,-153.219100
59540.849550,-2738.761985,-11473.192101,153.219100
