#time,accel_x,accel_y,accel_z
163427.355651,0.000000,-8956.491898,0.000000
163427.355970,0.000000,-10732.986159,1838.629195
163427.356290,74.020594,-8882.471304,-306.438199
163427.356609,296.082377,-9696.697840,0.000000
163427.356929,444.123565,-9252.574275,229.828649
163427.357248,0.000000,-7179.997637,0.000000
163427.357568,-1998.556043,-7476.080014,-1225.752797
163427.357887,-962.267725,-8882.471304,-383.047749
163427.358207,-2960.823768,-8364.327145,0.000000
163427.358526,-74.020594,-9474.636058,-76.609550
163427.358846,-74.020594,-11547.212695,-76.609550
163427.359165,-1776.494261,-9548.656652,0.000000
163427.359485,-1332.370696,-9178.553681,-766.095498
163427.359804,-1258.350101,-8882.471304,-459.657299
163427.360124,-1036.288319,-9400.615463,-689.485948
163427.360443,-2812.782580,-7328.038826,-2451.505594
163427.360763,-74.020594,-11103.089130,-76.609550
163427.361082,-2294.638420,-7550.100608,-1532.190996
163427.361402,1184.329507,-10066.800811,-76.609550
163427.361721,518.144159,-11251.130318,-76.609550
163427.362041,2294.638420,-10658.965565,-76.609550
163427.362360,-1036.288319,-8956.491898,0.000000
163427.362680,148.041188,-9770.718434,-459.657299
163427.362999,370.102971,-9622.677246,-689.485948
163427.363319,74.020594,-9548.656652,1149.143247
163427.363638,814.226536,-9400.615463,-76.609550
163427.363958,1628.453072,-10436.903782,1302.362347
163427.364277,1110.308913,-9474.636058,612.876398
163427.364597,2294.638420,-10658.965565,1762.019645
163427.364916,-518.144159,-7179.997637,-2145.067394
163427.365236,2294.638420,-10658.965565,-76.609550
163427.365555,-814.226536,-9622.677246,0.000000
163427.365875,-1036.288319,-9178.553681,0.000000
163427.366194,-1406.391290,-9178.553681,-229.828649
163427.366514,-1184.329507,-9844.739029,0.000000
163427.366833,-2072.576638,-8956.491898,0.000000
163427.367153,-814.226536,-9992.780217,0.000000
163427.367472,-74.020594,-11251.130318,1762.019645
163427.367792,-74.020594,-9474.636058,-383.047749
163427.368112,-1850.514855,-7179.997637,-2987.772442
163427.368431,-74.020594,-10658.965565,-76.609550
163427.368751,-1258.350101,-9474.636058,-689.485948
163427.369070,-296.082377,-10066.800811,-76.609550
163427.369390,-148.041188,-9548.656652,-995.924147
163427.369709,0.000000,-9548.656652,1225.752797
163427.370029,-370.102971,-7772.162391,-2528.115143
163427.370348,0.000000,-9548.656652,612.876398
163427.370668,2294.638420,-10658.965565,-76.609550
163427.370987,888.247130,-10658.965565,-76.609550
163427.371307,1998.556043,-10658.965565,-76.609550
163427.371626,148.041188,-8660.409521,153.219100
163427.371946,222.061783,-9030.512492,153.219100
163427.372265,-222.061783,-9178.553681,459.657299
163427.372585,0.000000,-8956.491898,612.876398
163427.372904,-666.185348,-9622.677246,-153.219100
163427.373224,-74.020594,-10658.965565,-76.609550
163427.373543,-1480.411884,-8660.409521,-1072.533697
163427.373863,-2368.659014,-8364.327145,612.876398
163427.374182,2294.638420,-11843.295072,2374.896044
163427.374502,-1776.494261,-8956.491898,306.438199
163427.374821,-1258.350101,-9326.594869,0.000000
163427.375141,-1332.370696,-9030.512492,-459.657299
163427.375460,-1036.288319,-9326.594869,-612.876398
163427.375780,-2146.597232,-7476.080014,-3524.039291
163427.376099,-666.185348,-9992.780217,-995.924147
163427.376419,-1406.391290,-9622.677246,-1302.362347
163427.376738,-296.082377,-9770.718434,-842.705048
163427.377058,0.000000,-9326.594869,-995.924147
163427.377377,1998.556043,-11843.295072,2374.896044
163427.377697,1702.473667,-11843.295072,2068.457845
163427.378016,518.144159,-8364.327145,-995.924147
163427.378336,0.000000,-8438.347739,0.000000
163427.378655,1554.432478,-9474.636058,1225.752797
163427.378975,0.000000,-6587.832884,0.000000
163427.379294,2294.638420,-9622.677246,536.266849
163427.379614,1332.370696,-8660.409521,153.219100
163427.379933,1406.391290,-9326.594869,229.828649
163427.380253,2886.803174,-9474.636058,-76.609550
163427.380572,2294.638420,-9474.636058,-689.485948
163427.380892,592.164754,-8956.491898,0.000000
163427.381212,2220.617826,-10140.821405,1225.752797
163427.381531,4071.132681,-10955.047942,1762.019645
163427.381851,2368.659014,-8364.327145,1225.752797
163427.382170,2516.700203,-7550.100608,0.000000
163427.382490,2886.803174,-9474.636058,383.047749
163427.382809,3627.009116,-9104.533087,0.000000
163427.383129,4219.173869,-9104.533087,-76.609550
163427.383448,4663.297435,-9770.718434,-1302.362347
163427.383768,4367.215058,-9474.636058,-919.314598
163427.384087,4145.153275,-10066.800811,-919.314598
163427.384407,6439.791695,-10658.965565,-1302.362347
163427.384726,3552.988522,-8660.409521,-2451.505594
163427.385046,4737.318029,-8956.491898,153.219100
163427.385365,6513.812290,-9252.574275,-1302.362347
163427.385685,7624.121203,-8586.388927,-153.219100
163427.386004,8142.265362,-9844.739029,536.266849
163427.386324,7846.182985,-9548.656652,0.000000
163427.386643,6143.709319,-9696.697840,-2528.115143
163427.386963,4367.215058,-11843.295072,-689.485948
163427.387282,0.000000,-11325.150913,0.000000
163427.387602,3478.967927,-12435.459826,1455.581446
163427.387921,4071.132681,-11251.130318,2374.896044
163427.388241,2960.823768,-7179.997637,2451.505594
163427.388560,4367.215058,-6069.688724,842.705048
163427.388880,3849.070898,-4367.215058,-153.219100
163427.389199,3627.009116,-4737.318029,-995.924147
163427.389519,3478.967927,-4959.379811,-2987.772442
163427.389838,4441.235652,-8364.327145,-1838.629195
163427.390158,4071.132681,-11843.295072,-1915.238745
163427.390477,1406.391290,-13619.789333,-1915.238745
163427.390797,0.000000,-14285.974681,-2145.067394
163427.391116,4071.132681,-17764.942608,2987.772442
163427.391436,1480.411884,-11473.192101,1838.629195
163427.391755,1480.411884,-7920.203579,229.828649
163427.392075,1258.350101,-5847.626942,-995.924147
163427.392394,1554.432478,-5329.482782,-842.705048
163427.392714,2294.638420,-5921.647536,-612.876398
163427.393033,1776.494261,-6735.874072,0.000000
163427.393353,-74.020594,-8808.450710,-919.314598
163427.393672,-666.185348,-10658.965565,-76.609550
163427.393992,-666.185348,-10658.965565,-536.266849
163427.394312,2886.803174,-13027.624579,2987.772442
163427.394631,1628.453072,-9844.739029,612.876398
163427.394951,2294.638420,-10955.047942,-76.609550
163427.395270,1406.391290,-10955.047942,1225.752797
163427.395590,1184.329507,-8364.327145,1225.752797
163427.395909,592.164754,-6587.832884,0.000000
163427.396229,0.000000,-7476.080014,-4903.011187
163427.396548,-1184.329507,-8364.327145,-3370.820191
163427.396868,1036.288319,-11547.212695,-1762.019645
163427.397187,2886.803174,-11399.171507,1149.143247
163427.397507,4663.297435,-11843.295072,3983.696590
163427.397826,592.164754,-7550.100608,2451.505594
163427.398146,518.144159,-7179.997637,-689.485948
163427.398465,3404.947333,-8142.265362,612.876398
163427.398785,4737.318029,-7179.997637,2757.943793
163427.399104,4737.318029,-9474.636058,5439.278036
163427.399424,1036.288319,-6143.709319,0.000000
163427.399743,-888.247130,-7105.977043,-3830.477490
163427.400063,-1258.350101,-12435.459826,-6205.373534
163427.400382,-370.102971,-13027.624579,-6818.249932
163427.400702,-296.082377,-14285.974681,-2911.162892
163427.401021,222.061783,-12583.501014,-2221.676944
163427.401341,1776.494261,-11177.109724,-2451.505594
163427.401660,5329.482782,-10140.821405,536.266849
163427.401980,9474.636058,-8364.327145,5439.278036
163427.402299,14730.098246,-6439.791695,9729.412825
163427.402619,10066.800811,-1998.556043,6128.763984
163427.402938,7105.977043,-3627.009116,3064.381992
163427.403258,6143.709319,-8290.306550,-1225.752797
163427.403577,4663.297435,-11251.130318,-1302.362347
163427.403897,1036.288319,-12361.439231,-1685.410096
163427.404216,-2664.741391,-13101.645173,-4979.620737
163427.404536,-3404.947333,-12731.542202,-7048.078582
163427.404855,-74.020594,-13915.871710,-3753.867940
163427.405175,3552.988522,-12139.377449,-229.828649
163427.405494,5847.626942,-9474.636058,1762.019645
163427.405814,8216.285956,-9474.636058,3600.648841
163427.406133,6291.750507,-4515.256246,1762.019645
163427.406453,2368.659014,-2442.679609,0.000000
163427.406772,4663.297435,-7105.977043,2987.772442
163427.407092,5625.565159,-9400.615463,3600.648841
163427.407412,4959.379811,-8586.388927,2987.772442
163427.407731,2294.638420,-8586.388927,-766.095498
163427.408051,-74.020594,-12435.459826,-2528.115143
163427.408370,-3108.864956,-11917.315666,-7354.516781
163427.408690,-4737.318029,-13101.645173,-4903.011187
163427.409009,-3256.906145,-14063.912898,-4673.182538
163427.409329,-4219.173869,-14211.954086,-2528.115143
163427.409648,-2442.679609,-11547.212695,-2528.115143
163427.409968,-1998.556043,-8216.285956,1532.190996
163427.410287,148.041188,-6143.709319,2528.115143
163427.410607,2294.638420,-5699.585753,4519.963438
163427.410926,4367.215058,-6513.812290,7890.783629
163427.411246,0.000000,-4737.318029,5439.278036
163427.411565,-74.020594,-9178.553681,2374.896044
163427.411885,-4737.318029,-9548.656652,-1838.629195
163427.412204,-8290.306550,-9548.656652,-4903.011187
163427.412524,-7476.080014,-12435.459826,-3753.867940
163427.412843,-7994.224174,-13397.727550,-4519.963438
163427.413163,-8438.347739,-12805.562797,-4213.525239
163427.413482,-5181.441594,-11325.150913,-1149.143247
163427.413802,-2516.700203,-8586.388927,766.095498
163427.414121,-2368.659014,-4811.338623,2451.505594
163427.414441,296.082377,-3923.091493,3983.696590
163427.414760,0.000000,-4811.338623,2451.505594
163427.415080,-74.020594,-9178.553681,2987.772442
163427.415399,-2442.679609,-8956.491898,306.438199
163427.415719,-4441.235652,-10732.986159,1532.190996
163427.416038,-6217.729913,-10140.821405,-2987.772442
163427.416358,-6143.709319,-10955.047942,-4519.963438
163427.416677,-5033.400406,-11251.130318,-4826.401637
163427.416997,-2738.761985,-10288.862594,-4903.011187
163427.417316,-74.020594,-9474.636058,-3753.867940
163427.417636,-740.205942,-9992.780217,0.000000
163427.417955,1258.350101,-8734.430116,1685.410096
163427.418275,3256.906145,-7920.203579,3677.258390
163427.418594,6957.935855,-8586.388927,4903.011187
163427.418914,7031.956449,-7698.141797,5822.325785
163427.419233,3552.988522,-7179.997637,3983.696590
163427.419553,2590.720797,-10066.800811,2987.772442
163427.419872,-74.020594,-11843.295072,-1915.238745
163427.420189,-4737.318029,-8956.491898,-6128.763984
163427.420509,-1850.514855,-11843.295072,-4673.182538
163427.420829,-3108.864956,-11547.212695,-4903.011187
163427.421148,-1998.556043,-10436.903782,-3907.087040
163427.421468,1110.308913,-8216.285956,-995.924147
163427.421787,4367.215058,-7105.977043,2068.457845
163427.422107,5699.585753,-6809.894666,2068.457845
163427.422426,5403.503377,-7698.141797,3600.648841
163427.422746,3256.906145,-5403.503377,3217.601092
163427.423065,4737.318029,-8956.491898,3217.601092
163427.423385,1776.494261,-9548.656652,0.000000
163427.423704,3108.864956,-11399.171507,229.828649
163427.424024,0.000000,-10658.965565,-2145.067394
163427.424343,-3182.885551,-12213.398043,-5362.668486
163427.424663,-5625.565159,-10732.986159,-8044.002729
163427.424982,-1850.514855,-12435.459826,-2528.115143
163427.425302,-74.020594,-11843.295072,-76.609550
163427.425621,518.144159,-6661.853478,-1991.848295
163427.425941,1480.411884,-6291.750507,1838.629195
163427.426260,2368.659014,-2442.679609,3677.258390
163427.426580,2368.659014,-3627.009116,3677.258390
163427.426899,3701.029710,-7402.059420,3370.820191
163427.427219,1924.535449,-8956.491898,2604.724693
163427.427538,-1036.288319,-9918.759623,1149.143247
163427.427858,-666.185348,-13027.624579,-76.609550
163427.428178,-2368.659014,-12213.398043,-1838.629195
163427.428497,-666.185348,-13027.624579,-2528.115143
163427.428817,-5107.421000,-11843.295072,-3140.991542
163427.429136,-4811.338623,-10955.047942,-5592.497135
163427.429456,-5921.647536,-10732.986159,-766.095498
163427.429775,-4145.153275,-7920.203579,-1378.971896
163427.430095,-1258.350101,-6365.771101,153.219100
163427.430414,-148.041188,-5699.585753,1762.019645
163427.430734,592.164754,-5403.503377,3370.820191
163427.431053,1554.432478,-4737.318029,2451.505594
163427.431373,0.000000,-7772.162391,2145.067394
163427.431692,-1702.473667,-10362.883188,1149.143247
163427.432012,-2442.679609,-11843.295072,-1302.362347
163427.432331,-4219.173869,-12361.439231,-3140.991542
163427.432651,-2664.741391,-14730.098246,-76.609550
163427.432970,-1702.473667,-11547.212695,-2221.676944
163427.433290,-1998.556043,-10362.883188,-1225.752797
163427.433609,-2442.679609,-9474.636058,-1915.238745
163427.433929,-4441.235652,-8364.327145,-4596.572988
163427.434248,-4441.235652,-6291.750507,0.000000
163427.434568,0.000000,-7179.997637,0.000000
163427.434887,2368.659014,-7179.997637,4290.134789
163427.435207,4071.132681,-7105.977043,4519.963438
163427.435527,4663.297435,-7105.977043,3600.648841
163427.435846,1924.535449,-8290.306550,2145.067394
163427.436166,-1110.308913,-8660.409521,-306.438199
163427.436485,-1998.556043,-9992.780217,-1149.143247
163427.436805,-1776.494261,-10362.883188,-1378.971896
163427.437124,-2368.659014,-10140.821405,-3370.820191
163427.437444,296.082377,-11843.295072,-76.609550
163427.437763,1406.391290,-8956.491898,-1532.190996
163427.438083,-1036.288319,-8808.450710,-1838.629195
163427.438402,-888.247130,-11029.068536,-1838.629195
163427.438722,-74.020594,-9474.636058,-3753.867940
163427.439041,592.164754,-9992.780217,0.000000
163427.439361,2368.659014,-9400.615463,766.095498
163427.439680,2812.782580,-9178.553681,1378.971896
163427.440000,2812.782580,-7994.224174,2374.896044
163427.440319,1110.308913,-6735.874072,842.705048
163427.440639,2294.638420,-9178.553681,-76.609550
163427.440958,518.144159,-9474.636058,-76.609550
163427.441278,0.000000,-7179.997637,0.000000
163427.441597,2368.659014,-9548.656652,0.000000
163427.441917,4071.132681,-9474.636058,-76.609550
163427.442236,1554.432478,-9548.656652,-459.657299
163427.442556,-444.123565,-10066.800811,-2145.067394
163427.442876,-2738.761985,-10732.986159,-3830.477490
163427.443195,-2146.597232,-13249.686362,-1608.800546
163427.443515,-1776.494261,-11621.233289,-383.047749
163427.443834,518.144159,-10584.944971,2374.896044
163427.444154,1702.473667,-8290.306550,842.705048
163427.444473,0.000000,-5995.668130,1838.629195
163427.444793,0.000000,-4219.173869,0.000000
163427.445112,962.267725,-6957.935855,536.266849
163427.445432,-1110.308913,-8438.347739,0.000000
163427.445751,-1406.391290,-9474.636058,612.876398
163427.446071,-1258.350101,-9474.636058,306.438199
163427.446390,592.164754,-11843.295072,2221.676944
163427.446710,-592.164754,-10288.862594,0.000000
163427.447029,-1776.494261,-10140.821405,-1532.190996
163427.447349,-3923.091493,-11325.150913,-2528.115143
163427.447668,-3627.009116,-14211.954086,-2528.115143
163427.447988,-3627.009116,-12731.542202,-4979.620737
163427.448307,-4145.153275,-10584.944971,-1532.190996
163427.448627,-1702.473667,-9326.594869,0.000000
163427.448946,296.082377,-8142.265362,1685.410096
163427.449266,2886.803174,-7772.162391,5439.278036
163427.449585,296.082377,-5033.400406,3907.087040
163427.449905,1702.473667,-5921.647536,1149.143247
163427.450225,0.000000,-7179.997637,1378.971896
163427.450544,0.000000,-7179.997637,1225.752797
163427.450864,2886.803174,-11251.130318,2987.772442
163427.451183,2368.659014,-12139.377449,2221.676944
163427.451503,518.144159,-10955.047942,76.609550
163427.451822,-2664.741391,-10658.965565,-1532.190996
163427.452142,-5329.482782,-11399.171507,-4290.134789
163427.452461,-7698.141797,-9844.739029,-6128.763984
163427.452781,-4589.276840,-11325.150913,-2987.772442
163427.453100,-1998.556043,-10584.944971,-1072.533697
163427.453420,-74.020594,-9474.636058,-76.609550
163427.453739,-1184.329507,-6291.750507,76.609550
163427.454059,2368.659014,-8956.491898,5745.716235
163427.454378,962.267725,-5403.503377,1532.190996
163427.454698,518.144159,-6439.791695,0.000000
163427.455017,444.123565,-9104.533087,1838.629195
163427.455337,3552.988522,-9178.553681,1532.190996
163427.455656,3478.967927,-9474.636058,-76.609550
163427.455976,2368.659014,-11843.295072,459.657299
163427.456295,1258.350101,-11029.068536,-2528.115143
163427.456615,-1998.556043,-11547.212695,-4136.915689
163427.456934,-3034.844362,-13323.706956,-4749.792088
163427.457254,-2442.679609,-13619.789333,-4979.620737
163427.457574,-1184.329507,-11325.150913,-1838.629195
163427.457893,3701.029710,-9770.718434,1532.190996
163427.458213,5847.626942,-8734.430116,3447.429741
163427.458532,1184.329507,-4219.173869,2451.505594
163427.458852,4071.132681,-4737.318029,3294.210641
163427.459171,3330.926739,-5033.400406,2451.505594
163427.459491,2146.597232,-7328.038826,1455.581446
163427.459810,1332.370696,-7994.224174,1838.629195
163427.460130,962.267725,-9622.677246,1149.143247
163427.460449,148.041188,-11547.212695,-459.657299
163427.460769,-296.082377,-11547.212695,-4903.011187
163427.461088,-3256.906145,-12657.521608,-2911.162892
163427.461408,-3923.091493,-12879.583391,-5745.716235
163427.461727,-8290.306550,-11325.150913,-6128.763984
163427.462047,-3034.844362,-12287.418637,-4366.744339
163427.462366,-888.247130,-9474.636058,-919.314598
163427.462686,2072.576638,-8808.450710,2068.457845
163427.463005,3701.029710,-5329.482782,2528.115143
163427.463325,4071.132681,-5625.565159,3600.648841
163427.463644,1702.473667,-4737.318029,2987.772442
163427.463964,0.000000,-4811.338623,0.000000
163427.464283,222.061783,-8660.409521,2068.457845
163427.464603,2294.638420,-11695.253884,2374.896044
163427.464923,0.000000,-9844.739029,0.000000
163427.465242,-518.144159,-12657.521608,-689.485948
163427.465562,-1850.514855,-12213.398043,-1915.238745
163427.465881,-4811.338623,-11029.068536,-3753.867940
163427.466201,-6587.832884,-9770.718434,-4979.620737
163427.466520,-3923.091493,-12361.439231,-2681.334243
163427.466840,-666.185348,-11547.212695,-76.609550
163427.467159,74.020594,-7920.203579,2068.457845
163427.467479,1998.556043,-5329.482782,2681.334243
163427.467798,3404.947333,-7105.977043,6358.592633
163427.468118,0.000000,-4811.338623,2911.162892
163427.468437,-1110.308913,-5921.647536,995.924147
163427.468757,-2960.823768,-7772.162391,-1302.362347
163427.469076,-2738.761985,-9474.636058,-842.705048
163427.469396,-2146.597232,-11251.130318,-919.314598
163427.469715,-1332.370696,-12731.542202,-995.924147
163427.470035,-74.020594,-12435.459826,-1302.362347
163427.470354,-74.020594,-11843.295072,-2528.115143
163427.470674,-4219.173869,-10510.924376,-5132.839837
163427.470993,-1554.432478,-14211.954086,-1302.362347
163427.471313,-1776.494261,-10881.027347,-2451.505594
163427.471632,1924.535449,-9844.739029,919.314598
163427.471952,4071.132681,-8956.491898,2604.724693
163427.472272,3552.988522,-7179.997637,3677.258390
163427.472591,2368.659014,-4811.338623,2757.943793
163427.472911,1850.514855,-6291.750507,612.876398
163427.473230,888.247130,-9474.636058,536.266849
163427.473550,-74.020594,-10066.800811,-76.609550
163427.473869,1998.556043,-8882.471304,-76.609550
163427.474189,3478.967927,-11251.130318,2374.896044
163427.474508,1628.453072,-9992.780217,153.219100
163427.474828,296.082377,-8882.471304,-459.657299
163427.475147,-2590.720797,-9326.594869,-2604.724693
163427.475467,-4737.318029,-9548.656652,-3677.258390
163427.475786,-3552.988522,-11103.089130,-4366.744339
163427.476106,-2960.823768,-9548.656652,-2451.505594
163427.476425,0.000000,-10288.862594,229.828649
163427.476745,1406.391290,-11843.295072,1762.019645
163427.477064,2886.803174,-6513.812290,-383.047749
163427.477384,2146.597232,-7846.182985,1915.238745
163427.477703,148.041188,-7105.977043,-536.266849
163427.478023,-666.185348,-8216.285956,-612.876398
163427.478342,518.144159,-9326.594869,1072.533697
163427.478662,0.000000,-8364.327145,1225.752797
163427.478981,2294.638420,-10658.965565,1149.143247
163427.479301,1776.494261,-8956.491898,689.485948
163427.479621,0.000000,-7179.997637,0.000000
163427.479940,-2072.576638,-10140.821405,-2451.505594
163427.480260,-3627.009116,-9548.656652,-5439.278036
163427.480579,-3404.947333,-11769.274478,-3064.381992
163427.480899,-1924.535449,-10955.047942,-1608.800546
163427.481218,-666.185348,-10362.883188,0.000000
163427.481538,1702.473667,-11547.212695,2987.772442
163427.481857,1554.432478,-8142.265362,2374.896044
163427.482177,222.061783,-5847.626942,1149.143247
163427.482496,-1702.473667,-4811.338623,0.000000
163427.482816,1480.411884,-8216.285956,3064.381992
163427.483135,0.000000,-5995.668130,2451.505594
163427.483455,1406.391290,-7994.224174,2068.457845
163427.483774,1628.453072,-9992.780217,1455.581446
163427.484094,148.041188,-9548.656652,0.000000
163427.484413,-2738.761985,-9992.780217,-2451.505594
163427.484733,-2886.803174,-13027.624579,-2528.115143
163427.485052,-5329.482782,-12583.501014,-5515.887586
163427.485372,-2442.679609,-14211.954086,-2528.115143
163427.485691,-1258.350101,-11843.295072,-1685.410096
163427.486011,-1554.432478,-7920.203579,-1915.238745
163427.486331,1110.308913,-7994.224174,-1915.238745
163427.486650,1554.432478,-6217.729913,1838.629195
163427.486970,814.226536,-5329.482782,1455.581446
163427.487289,666.185348,-6439.791695,1915.238745
163427.487609,2294.638420,-8882.471304,3600.648841
163427.487928,1184.329507,-7550.100608,3600.648841
163427.488248,1332.370696,-7994.224174,919.314598
163427.488567,1184.329507,-10140.821405,1225.752797
163427.488887,148.041188,-10732.986159,306.438199
163427.489206,-1850.514855,-11251.130318,-3140.991542
163427.489526,-3034.844362,-13619.789333,-3753.867940
163427.489845,-4219.173869,-12435.459826,-4596.572988
163427.490165,-2590.720797,-11769.274478,-2221.676944
163427.490484,-666.185348,-9474.636058,-459.657299
163427.490804,0.000000,-7179.997637,1838.629195
163427.491123,666.185348,-6439.791695,1838.629195
163427.491443,1702.473667,-5921.647536,2451.505594
163427.491762,2294.638420,-7105.977043,-76.609550
163427.492082,0.000000,-7179.997637,306.438199
163427.492401,2146.597232,-10510.924376,3600.648841
163427.492721,592.164754,-8956.491898,1225.752797
163427.493040,592.164754,-10140.821405,-842.705048
163427.493360,-962.267725,-10658.965565,-1378.971896
163427.493680,-1184.329507,-10510.924376,-3064.381992
163427.493999,-3627.009116,-9548.656652,-6128.763984
163427.494319,-2220.617826,-12287.418637,-4136.915689
163427.494638,-1702.473667,-11251.130318,-2681.334243
163427.494958,296.082377,-11177.109724,459.657299
163427.495277,2294.638420,-11103.089130,919.314598
163427.495597,1406.391290,-9178.553681,1149.143247
163427.495916,2886.803174,-8142.265362,3600.648841
163427.496236,1554.432478,-5921.647536,536.266849
163427.496555,-2220.617826,-5995.668130,0.000000
163427.496875,0.000000,-7179.997637,2451.505594
163427.497194,666.185348,-6513.812290,1838.629195
163427.497514,814.226536,-8734.430116,1225.752797
163427.497833,592.164754,-9622.677246,-306.438199
163427.498153,-222.061783,-9622.677246,-612.876398
163427.498472,-1258.350101,-9770.718434,-2681.334243
163427.498792,-2738.761985,-11399.171507,-4060.306139
163427.499111,-3552.988522,-11029.068536,-5745.716235
163427.499431,-4145.153275,-11325.150913,-3370.820191
163427.499750,-1258.350101,-11621.233289,-1149.143247
163427.500070,-2368.659014,-10732.986159,0.000000
163427.500389,370.102971,-8882.471304,459.657299
163427.500709,518.144159,-7402.059420,1455.581446
163427.501029,962.267725,-6587.832884,842.705048
163427.501348,666.185348,-6883.915261,0.000000
163427.501668,1998.556043,-6365.771101,689.485948
163427.501987,2516.700203,-5551.544565,842.705048
163427.502307,2368.659014,-8364.327145,2451.505594
163427.502626,2294.638420,-9474.636058,536.266849
163427.502946,-74.020594,-9474.636058,-76.609550
163427.503265,-2368.659014,-10140.821405,-3064.381992
163427.503585,-2812.782580,-11991.336260,-4749.792088
163427.503904,-3478.967927,-12731.542202,-4290.134789
163427.504224,-3552.988522,-12213.398043,-3294.210641
163427.504543,-3182.885551,-10140.821405,-3370.820191
163427.504863,-74.020594,-10658.965565,-76.609550
163427.505182,2886.803174,-8290.306550,2068.457845
163427.505502,1332.370696,-5107.421000,2145.067394
163427.505821,0.000000,-4811.338623,1225.752797
163427.506141,3330.926739,-9474.636058,4826.401637
163427.506460,0.000000,-5995.668130,3830.477490
163427.506780,1110.308913,-7550.100608,2528.115143
163427.507099,888.247130,-8586.388927,766.095498
163427.507419,-740.205942,-8734.430116,-383.047749
163427.507738,-2072.576638,-9104.533087,-3064.381992
163427.508058,-2442.679609,-12583.501014,-4366.744339
163427.508378,-3923.091493,-13619.789333,-5515.887586
163427.508697,-2146.597232,-14211.954086,-3753.867940
163427.509017,-3775.050304,-12435.459826,-4366.744339
163427.509336,-666.185348,-14211.954086,-689.485948
163427.509656,0.000000,-9326.594869,0.000000
163427.509975,1776.494261,-7105.977043,1838.629195
163427.510295,2072.576638,-5773.606348,2145.067394
163427.510614,2368.659014,-6143.709319,3677.258390
163427.510934,2368.659014,-5403.503377,5209.449386
163427.511253,4367.215058,-6143.709319,5209.449386
163427.511573,4663.297435,-9474.636058,3600.648841
163427.511892,1110.308913,-8882.471304,383.047749
163427.512212,-1258.350101,-7772.162391,-2528.115143
163427.512531,-1258.350101,-12435.459826,-2528.115143
163427.512851,-3923.091493,-12509.480420,-5209.449386
163427.513170,-4515.256246,-13027.624579,-5362.668486
163427.513490,-3849.070898,-12583.501014,-3830.477490
163427.513809,-3552.988522,-10732.986159,-1838.629195
163427.514129,-2368.659014,-9548.656652,-1608.800546
163427.514448,0.000000,-8660.409521,1838.629195
163427.514768,1110.308913,-7105.977043,2068.457845
163427.515087,518.144159,-7105.977043,2987.772442
163427.515407,1110.308913,-5403.503377,1302.362347
163427.515727,3849.070898,-7105.977043,5592.497135
163427.516046,2738.761985,-6217.729913,3370.820191
163427.516366,2146.597232,-7772.162391,1378.971896
163427.516685,370.102971,-9104.533087,-536.266849
163427.517005,-3552.988522,-9548.656652,-3064.381992
163427.517324,-3034.844362,-12435.459826,-5592.497135
163427.517644,-5477.523971,-12583.501014,-6971.469032
163427.517963,-7105.977043,-11917.315666,-7354.516781
163427.518283,-3849.070898,-13249.686362,-2451.505594
163427.518602,-2442.679609,-10140.821405,-3524.039291
163427.518922,2590.720797,-9770.718434,1685.410096
163427.519241,3552.988522,-6883.915261,2528.115143
163427.519561,3552.988522,-5255.462188,3447.429741
163427.519880,4663.297435,-8290.306550,4519.963438
163427.520200,4663.297435,-8290.306550,6052.154434
163427.520519,3478.967927,-5921.647536,4749.792088
163427.520839,0.000000,-4811.338623,612.876398
163427.521158,0.000000,-8364.327145,612.876398
163427.521478,-2368.659014,-8364.327145,0.000000
163427.521797,-3627.009116,-10362.883188,-4749.792088
163427.522117,-4441.235652,-13101.645173,-5592.497135
163427.522436,-5329.482782,-13101.645173,-6358.592633
163427.522756,-5773.606348,-11769.274478,-4979.620737
163427.523075,-2442.679609,-13027.624579,-3140.991542
163427.523395,-1184.329507,-11843.295072,-76.609550
163427.523714,2886.803174,-8882.471304,1149.143247
163427.524034,1184.329507,-4811.338623,2757.943793
163427.524353,2886.803174,-5773.606348,3064.381992
163427.524673,814.226536,-4737.318029,0.000000
163427.524992,2072.576638,-7698.141797,4290.134789
163427.525312,1480.411884,-7772.162391,2757.943793
163427.525631,1332.370696,-9030.512492,229.828649
163427.525951,-296.082377,-11251.130318,-689.485948
163427.526270,-3552.988522,-9548.656652,-2528.115143
163427.526590,-4737.318029,-10214.842000,-5209.449386
163427.526909,-3552.988522,-12509.480420,-4903.011187
163427.527229,-1702.473667,-13989.892304,-1302.362347
163427.527548,-1850.514855,-10658.965565,-3140.991542
163427.527868,-74.020594,-11843.295072,-76.609550
163427.528187,1702.473667,-9252.574275,1532.190996
163427.528507,2886.803174,-6587.832884,3524.039291
163427.528826,2738.761985,-5921.647536,3447.429741
163427.529146,1184.329507,-6587.832884,4903.011187
163427.529465,740.205942,-7846.182985,2987.772442
163427.529785,1406.391290,-8290.306550,4826.401637
163427.530104,-74.020594,-8290.306550,842.705048
163427.530424,-1628.453072,-8068.244768,-1072.533697
163427.530743,-74.020594,-11251.130318,-76.609550
163427.531063,-3552.988522,-9770.718434,-3524.039291
163427.531382,-3997.112087,-11695.253884,-5286.058936
163427.531702,-3701.029710,-12213.398043,-5286.058936
163427.532021,-3182.885551,-11843.295072,-3217.601092
163427.532341,-4737.318029,-9548.656652,-4290.134789
163427.532660,-74.020594,-10807.006753,0.000000
163427.532980,2664.741391,-8364.327145,2068.457845
163427.533299,4145.153275,-6957.935855,3753.867940
163427.533619,4663.297435,-7105.977043,1762.019645
163427.533938,1702.473667,-7698.141797,2221.676944
163427.534257,2886.803174,-8882.471304,3600.648841
163427.534577,1480.411884,-8438.347739,1762.019645
163427.534896,1998.556043,-9474.636058,-76.609550
163427.535216,0.000000,-9548.656652,306.438199
163427.535535,-2220.617826,-7179.997637,-2145.067394
163427.535855,-1406.391290,-9178.553681,-2604.724693
163427.536174,-2294.638420,-11177.109724,-3907.087040
163427.536494,-2368.659014,-11695.253884,-2911.162892
163427.536813,-1850.514855,-10436.903782,-2451.505594
163427.537133,-2442.679609,-10658.965565,-1608.800546
163427.537452,-592.164754,-10140.821405,0.000000
163427.537772,2886.803174,-10658.965565,2374.896044
163427.538091,1110.308913,-7105.977043,536.266849
163427.538411,0.000000,-8364.327145,2451.505594
163427.538730,-518.144159,-8364.327145,1149.143247
163427.539050,222.061783,-7846.182985,1915.238745
163427.539369,740.205942,-7476.080014,842.705048
163427.539689,222.061783,-8290.306550,0.000000
163427.540008,-1554.432478,-7476.080014,-2451.505594
163427.540328,-1628.453072,-7179.997637,-3447.429741
163427.540647,-4145.153275,-9548.656652,-3677.258390
163427.540967,-1850.514855,-12731.542202,-3753.867940
163427.541286,-1554.432478,-13027.624579,-1608.800546
163427.541606,-1184.329507,-12213.398043,766.095498
163427.541925,222.061783,-11177.109724,-383.047749
163427.542245,1036.288319,-10214.842000,229.828649
163427.542564,1184.329507,-9030.512492,1225.752797
163427.542884,-2220.617826,-5995.668130,0.000000
163427.543203,-962.267725,-9474.636058,2374.896044
163427.543523,222.061783,-6661.853478,1685.410096
163427.543842,1184.329507,-6587.832884,3064.381992
163427.544162,2368.659014,-6291.750507,3064.381992
163427.544481,3478.967927,-8290.306550,2374.896044
163427.544801,0.000000,-7179.997637,1225.752797
163427.545120,-1110.308913,-8882.471304,-1915.238745
163427.545440,-2960.823768,-11251.130318,-3907.087040
163427.545759,-4589.276840,-12287.418637,-4213.525239
163427.546079,-4293.194464,-11917.315666,-3447.429741
163427.546398,-2442.679609,-13619.789333,-2834.553343
163427.546717,-1998.556043,-11843.295072,-1915.238745
163427.547037,-1554.432478,-8068.244768,-2451.505594
163427.547356,-1184.329507,-7920.203579,0.000000
163427.547676,-74.020594,-8882.471304,-76.609550
163427.547995,1702.473667,-8068.244768,2834.553343
163427.548315,2738.761985,-6809.894666,3830.477490
163427.548634,2886.803174,-6661.853478,2987.772442
163427.548954,2738.761985,-7179.997637,2681.334243
163427.549273,2442.679609,-7772.162391,3370.820191
163427.549593,1702.473667,-7994.224174,-76.609550
163427.549912,-1332.370696,-11251.130318,-2528.115143
163427.550232,-3627.009116,-10807.006753,-5592.497135
163427.550551,-4145.153275,-11621.233289,-4903.011187
163427.550871,-3034.844362,-11843.295072,-4673.182538
163427.551190,-1776.494261,-12657.521608,-1685.410096
163427.551510,148.041188,-10807.006753,-612.876398
163427.551829,1258.350101,-8142.265362,919.314598
163427.552149,2590.720797,-8882.471304,2374.896044
163427.552468,1702.473667,-8882.471304,3294.210641
163427.552788,2368.659014,-8956.491898,5362.668486
163427.553107,4663.297435,-7105.977043,3600.648841
163427.553427,1628.453072,-6291.750507,1991.848295
163427.553746,0.000000,-5995.668130,0.000000
163427.554066,-74.020594,-8586.388927,-76.609550
163427.554385,-2590.720797,-9474.636058,-2834.553343
163427.554705,-4367.215058,-11325.150913,-5515.887586
163427.555024,-4737.318029,-12361.439231,-5515.887586
163427.555344,-1850.514855,-14730.098246,-3217.601092
163427.555663,-4737.318029,-10732.986159,-3677.258390
163427.555983,0.000000,-11917.315666,-919.314598
163427.556302,3034.844362,-10066.800811,1838.629195
163427.556622,4071.132681,-8882.471304,-76.609550
163427.556941,0.000000,-5995.668130,0.000000
163427.557261,1406.391290,-9474.636058,2068.457845
163427.557580,2368.659014,-8586.388927,3524.039291
163427.557900,2812.782580,-8660.409521,3447.429741
163427.558219,1702.473667,-7179.997637,1762.019645
163427.558539,814.226536,-7476.080014,1149.143247
163427.558858,-1776.494261,-6587.832884,0.000000
163427.559177,-1850.514855,-8660.409521,-4290.134789
163427.559497,-3256.906145,-10436.903782,-2451.505594
163427.559816,-1258.350101,-13323.706956,-689.485948
163427.560136,-5921.647536,-9548.656652,-2451.505594
163427.560455,-2294.638420,-10881.027347,-2068.457845
163427.560775,-1332.370696,-10436.903782,-1455.581446
163427.561094,-962.267725,-9104.533087,-1149.143247
163427.561414,-1258.350101,-8290.306550,-3140.991542
163427.561733,-1850.514855,-9178.553681,-995.924147
163427.562053,-1110.308913,-9474.636058,1149.143247
163427.562372,0.000000,-7179.997637,1838.629195
163427.562692,2886.803174,-9030.512492,2987.772442
163427.563011,3478.967927,-10658.965565,4826.401637
163427.563331,0.000000,-6069.688724,1225.752797
163427.563650,-518.144159,-7772.162391,-612.876398
163427.563970,-444.123565,-9400.615463,-1991.848295
163427.564289,-1332.370696,-10436.903782,-2145.067394
163427.564609,-1554.432478,-9548.656652,-2528.115143
163427.564928,-370.102971,-13027.624579,-689.485948
163427.565248,-74.020594,-11251.130318,-2528.115143
163427.565567,-592.164754,-10362.883188,-2374.896044
163427.565887,-3552.988522,-8364.327145,-1991.848295
163427.566206,-4737.318029,-8364.327145,-2451.505594
163427.566526,-2146.597232,-9992.780217,76.609550
163427.566845,0.000000,-9252.574275,2604.724693
163427.567165,3108.864956,-7254.018232,4903.011187
163427.567484,4663.297435,-4737.318029,4060.306139
163427.567804,3034.844362,-4811.338623,4903.011187
163427.568123,1184.329507,-4811.338623,2451.505594
163427.568443,148.041188,-7179.997637,0.000000
163427.568762,-1554.432478,-11399.171507,-2528.115143
163427.569082,-6513.812290,-10140.821405,-4903.011187
163427.569401,-4959.379811,-12139.377449,-5439.278036
163427.569721,-3478.967927,-13767.830521,-4290.134789
163427.570040,-1702.473667,-12583.501014,-3447.429741
163427.570360,-666.185348,-9918.759623,-2451.505594
163427.570679,-74.020594,-11547.212695,-1302.362347
163427.570999,-814.226536,-9400.615463,-459.657299
163427.571318,1332.370696,-8734.430116,2145.067394
163427.571637,3997.112087,-7328.038826,4903.011187
163427.571957,5699.585753,-6217.729913,7277.907231
163427.572276,4737.318029,-6587.832884,4903.011187
163427.572596,2960.823768,-4811.338623,3677.258390
163427.572915,2294.638420,-7698.141797,-76.609550
163427.573235,-2368.659014,-8956.491898,-4290.134789
163427.573554,-4145.153275,-11029.068536,-7354.516781
163427.573874,-2442.679609,-14211.954086,-4979.620737
163427.574193,-3997.112087,-13989.892304,-4136.915689
163427.574513,-1628.453072,-12953.603985,-1915.238745
163427.574832,-370.102971,-10288.862594,-1685.410096
163427.575152,0.000000,-7772.162391,0.000000
163427.575471,-74.020594,-7698.141797,536.266849
163427.575791,0.000000,-7179.997637,1991.848295
163427.576110,2368.659014,-6883.915261,3064.381992
163427.576430,5329.482782,-7105.977043,6971.469032
163427.576749,2294.638420,-4811.338623,1991.848295
163427.577069,3330.926739,-8290.306550,2987.772442
163427.577388,-1480.411884,-7402.059420,-1225.752797
163427.577708,-5625.565159,-9548.656652,-5056.230287
163427.578027,-6439.791695,-11399.171507,-7124.688131
163427.578347,-5995.668130,-14211.954086,-5592.497135
163427.578666,-4737.318029,-13101.645173,-4903.011187
163427.578986,-1776.494261,-11325.150913,-2528.115143
163427.579305,0.000000,-8660.409521,0.000000
163427.579625,2294.638420,-8660.409521,1762.019645
163427.579944,-2072.576638,-4811.338623,0.000000
163427.580264,-74.020594,-8734.430116,2068.457845
163427.580583,1406.391290,-8438.347739,3983.696590
163427.580903,3627.009116,-7476.080014,5515.887586
163427.581222,3775.050304,-8290.306550,4519.963438
163427.581542,3478.967927,-9474.636058,4213.525239
163427.581861,-74.020594,-11251.130318,-76.609550
163427.582181,-3034.844362,-8290.306550,-3600.648841
163427.582500,-5625.565159,-9548.656652,-5822.325785
163427.582820,-5329.482782,-11325.150913,-4290.134789
163427.583139,-6439.791695,-9548.656652,-5515.887586
163427.583459,-2368.659014,-11843.295072,-1378.971896
163427.583778,-222.061783,-10214.842000,383.047749
163427.584097,962.267725,-8586.388927,919.314598
163427.584417,2294.638420,-8290.306550,1608.800546
163427.584736,0.000000,-7179.997637,612.876398
163427.585056,-74.020594,-10066.800811,1762.019645
163427.585375,1702.473667,-9326.594869,2987.772442
163427.585695,0.000000,-6587.832884,1532.190996
163427.586014,2368.659014,-8956.491898,3217.601092
163427.586334,296.082377,-8364.327145,0.000000
163427.586653,-1110.308913,-8512.368333,-1915.238745
163427.586973,-3330.926739,-9252.574275,-4213.525239
163427.587292,-4071.132681,-10881.027347,-5515.887586
163427.587612,-2590.720797,-11251.130318,-4596.572988
163427.587931,-740.205942,-11695.253884,-1608.800546
163427.588251,1628.453072,-10955.047942,995.924147
163427.588570,4663.297435,-9474.636058,-76.609550
163427.588890,1776.494261,-7179.997637,1302.362347
163427.589209,3478.967927,-8882.471304,2374.896044
163427.589529,-888.247130,-7772.162391,0.000000
163427.589848,518.144159,-10066.800811,1685.410096
163427.590168,2146.597232,-9474.636058,3677.258390
163427.590487,2368.659014,-9548.656652,3830.477490
163427.590807,1184.329507,-7179.997637,2451.505594
163427.591126,-74.020594,-7476.080014,0.000000
163427.591446,-1184.329507,-9474.636058,-689.485948
163427.591765,-2442.679609,-9474.636058,-3830.477490
163427.592085,-3627.009116,-10362.883188,-5592.497135
163427.592404,-1258.350101,-11843.295072,-1915.238745
163427.592724,-1776.494261,-10140.821405,-1378.971896
163427.593043,74.020594,-10140.821405,612.876398
163427.593363,1480.411884,-8660.409521,536.266849
163427.593682,592.164754,-7179.997637,612.876398
163427.594002,-2072.576638,-7476.080014,-1302.362347
163427.594321,-1776.494261,-9844.739029,919.314598
163427.594641,1406.391290,-11251.130318,1762.019645
163427.594960,0.000000,-7179.997637,383.047749
163427.595280,1998.556043,-7624.121203,0.000000
163427.595599,2220.617826,-8586.388927,1149.143247
163427.595919,-444.123565,-7402.059420,-612.876398
163427.596238,-1628.453072,-8956.491898,-1915.238745
163427.596557,-2516.700203,-10214.842000,-3753.867940
163427.596877,-4737.318029,-10140.821405,-2374.896044
163427.597196,-1998.556043,-9474.636058,-2221.676944
163427.597516,-1776.494261,-8956.491898,0.000000
163427.597835,1776.494261,-10584.944971,2911.162892
163427.598155,1998.556043,-8882.471304,1532.190996
163427.598474,-1554.432478,-5477.523971,-2068.457845
163427.598794,-592.164754,-8364.327145,-76.609550
163427.599113,-592.164754,-9918.759623,1225.752797
163427.599433,148.041188,-9104.533087,1915.238745
163427.599752,2294.638420,-11547.212695,2374.896044
163427.600072,1702.473667,-11251.130318,1608.800546
163427.600391,-666.185348,-8882.471304,-76.609550
163427.600711,-666.185348,-9474.636058,-1302.362347
163427.601030,-4367.215058,-8364.327145,-4136.915689
163427.601350,-4737.318029,-9548.656652,-3677.258390
163427.601669,-2738.761985,-9548.656652,-3600.648841
163427.601989,-370.102971,-9844.739029,-383.047749
163427.602308,0.000000,-9548.656652,-536.266849
163427.602628,1110.308913,-8956.491898,153.219100
163427.602947,3478.967927,-9474.636058,-76.609550
163427.603267,0.000000,-7994.224174,-76.609550
163427.603586,1702.473667,-11843.295072,-76.609550
163427.603906,0.000000,-9548.656652,766.095498
163427.604225,1480.411884,-8364.327145,842.705048
163427.604545,222.061783,-7328.038826,0.000000
163427.604864,1036.288319,-9474.636058,689.485948
163427.605184,0.000000,-8290.306550,153.219100
163427.605503,-1036.288319,-8512.368333,-1991.848295
163427.605823,-1628.453072,-9474.636058,-1915.238745
163427.606142,-2368.659014,-8660.409521,-1915.238745
163427.606462,-2368.659014,-7476.080014,0.000000
163427.606781,1258.350101,-9400.615463,1378.971896
163427.607101,1702.473667,-11251.130318,-76.609550
163427.607420,74.020594,-6439.791695,-2221.676944
163427.607740,-74.020594,-9474.636058,-76.609550
163427.608059,-2146.597232,-9474.636058,-1991.848295
163427.608379,-1480.411884,-10881.027347,-995.924147
163427.608698,-296.082377,-11621.233289,919.314598
163427.609018,0.000000,-9844.739029,2451.505594
163427.609337,370.102971,-9992.780217,-76.609550
163427.609656,518.144159,-9474.636058,1762.019645
163427.609976,-74.020594,-7698.141797,-1302.362347
163427.610295,-2368.659014,-6587.832884,-2451.505594
163427.610615,-74.020594,-11251.130318,-689.485948
163427.610934,-1480.411884,-9548.656652,-1149.143247
163427.611254,-296.082377,-9844.739029,229.828649
163427.611573,740.205942,-8808.450710,0.000000
163427.611893,1332.370696,-9548.656652,1149.143247
163427.612212,0.000000,-5403.503377,-2451.505594
163427.612532,-370.102971,-8734.430116,-459.657299
163427.612851,-1406.391290,-10066.800811,-612.876398
163427.613171,0.000000,-11473.192101,919.314598
163427.613490,1998.556043,-9474.636058,1149.143247
163427.613810,2590.720797,-9104.533087,1991.848295
163427.614129,1628.453072,-9326.594869,2068.457845
163427.614449,-370.102971,-7846.182985,306.438199
163427.614768,-1702.473667,-6587.832884,-1608.800546
163427.615088,-2072.576638,-8364.327145,-1838.629195
163427.615407,-4737.318029,-8364.327145,-3370.820191
163427.615727,-2442.679609,-10288.862594,-842.705048
163427.616046,-1036.288319,-10436.903782,0.000000
163427.616366,0.000000,-9844.739029,-689.485948
163427.616685,148.041188,-7772.162391,-1762.019645
163427.617005,-666.185348,-8808.450710,-1302.362347
163427.617324,-740.205942,-9548.656652,-2451.505594
163427.617644,-296.082377,-11029.068536,306.438199
163427.617963,1110.308913,-10658.965565,842.705048
163427.618283,1184.329507,-10584.944971,3753.867940
163427.618602,1480.411884,-9104.533087,229.828649
163427.618922,1776.494261,-9622.677246,995.924147
163427.619241,592.164754,-8660.409521,689.485948
163427.619561,-666.185348,-8956.491898,-2451.505594
163427.619880,-3256.906145,-7772.162391,-4903.011187
163427.620200,-2368.659014,-9548.656652,-3524.039291
163427.620519,-2368.659014,-9548.656652,0.000000
163427.620839,1406.391290,-10510.924376,919.314598
163427.621158,1998.556043,-9474.636058,-76.609550
163427.621477,1776.494261,-8068.244768,2604.724693
163427.621797,-148.041188,-7031.956449,0.000000
163427.622116,-1036.288319,-9104.533087,-2068.457845
163427.622436,-666.185348,-11325.150913,0.000000
163427.622755,0.000000,-9548.656652,0.000000
163427.623075,-962.267725,-11251.130318,1762.019645
163427.623394,-814.226536,-9104.533087,-1149.143247
163427.623714,0.000000,-9622.677246,-306.438199
163427.624033,-74.020594,-11103.089130,536.266849
163427.624352,-1258.350101,-9474.636058,-2528.115143
163427.624672,-2368.659014,-10140.821405,-2068.457845
163427.624991,-2368.659014,-9844.739029,-1302.362347
163427.625311,-444.123565,-9400.615463,-383.047749
163427.625630,0.000000,-8364.327145,612.876398
163427.625950,1850.514855,-6291.750507,0.000000
163427.626269,1850.514855,-7105.977043,919.314598
163427.626589,3478.967927,-9178.553681,-76.609550
163427.626908,-888.247130,-8364.327145,-1072.533697
163427.627227,0.000000,-11621.233289,0.000000
163427.627547,1998.556043,-12879.583391,2374.896044
163427.627866,0.000000,-11103.089130,459.657299
163427.628186,-370.102971,-9474.636058,306.438199
163427.628505,-888.247130,-9178.553681,-383.047749
163427.628825,-888.247130,-9252.574275,1225.752797
163427.629144,-592.164754,-8660.409521,612.876398
163427.629464,-740.205942,-8660.409521,0.000000
163427.629783,-296.082377,-9844.739029,1532.190996
163427.630102,-1258.350101,-7402.059420,-536.266849
163427.630422,-1776.494261,-5403.503377,-2221.676944
163427.630741,2294.638420,-9474.636058,-76.609550
163427.631061,-962.267725,-8734.430116,-842.705048
163427.631380,-1776.494261,-10510.924376,-2221.676944
163427.631700,-1998.556043,-11769.274478,-1608.800546
163427.632019,-1480.411884,-11917.315666,1378.971896
163427.632338,-2368.659014,-10732.986159,-2451.505594
163427.632658,0.000000,-11325.150913,306.438199
163427.632977,1702.473667,-10658.965565,-76.609550
163427.633297,0.000000,-8290.306550,-76.609550
163427.633616,-1850.514855,-5995.668130,-3677.258390
163427.633936,-74.020594,-10214.842000,-689.485948
163427.634255,-370.102971,-8808.450710,229.828649
163427.634575,296.082377,-8216.285956,995.924147
163427.634894,740.205942,-8734.430116,-536.266849
163427.635213,0.000000,-8068.244768,766.095498
163427.635533,518.144159,-7476.080014,0.000000
163427.635852,0.000000,-7772.162391,0.000000
163427.636172,-2368.659014,-9548.656652,0.000000
163427.636491,-74.020594,-12287.418637,919.314598
163427.636811,-3256.906145,-7772.162391,0.000000
163427.637130,-740.205942,-9992.780217,1225.752797
163427.637450,740.205942,-9622.677246,1149.143247
163427.637769,962.267725,-7846.182985,1072.533697
163427.638088,-74.020594,-8290.306550,-76.609550
163427.638408,-370.102971,-8290.306550,-1302.362347
163427.638727,-2146.597232,-9030.512492,-1455.581446
163427.639047,-3552.988522,-7476.080014,-2145.067394
163427.639366,1036.288319,-9474.636058,-76.609550
163427.639686,-1184.329507,-9548.656652,0.000000
163427.640005,0.000000,-8142.265362,-1838.629195
163427.640325,370.102971,-9030.512492,-1149.143247
163427.640644,-962.267725,-10140.821405,-1378.971896
163427.640963,-1036.288319,-10732.986159,-1915.238745
163427.641283,-74.020594,-11547.212695,-689.485948
163427.641602,-74.020594,-11251.130318,1225.752797
163427.641922,4071.132681,-11843.295072,2068.457845
163427.642241,2368.659014,-8364.327145,1532.190996
163427.642561,3108.864956,-7846.182985,0.000000
163427.642880,592.164754,-8364.327145,1532.190996
163427.643199,-1036.288319,-8734.430116,-1838.629195
163427.643519,-1924.535449,-10584.944971,-919.314598
163427.643838,-1554.432478,-10658.965565,0.000000
163427.644158,-888.247130,-9104.533087,-2298.286494
163427.644477,-74.020594,-9474.636058,-612.876398
163427.644797,0.000000,-8512.368333,306.438199
163427.645116,-74.020594,-8808.450710,-383.047749
163427.645436,-74.020594,-11843.295072,-76.609550
163427.645755,-74.020594,-9548.656652,1225.752797
163427.646074,-2220.617826,-7179.997637,0.000000
163427.646394,1110.308913,-9474.636058,1302.362347
163427.646713,962.267725,-9400.615463,1072.533697
163427.647033,518.144159,-9326.594869,842.705048
163427.647352,-74.020594,-9474.636058,-1302.362347
163427.647672,-2738.761985,-10066.800811,-2987.772442
163427.647991,-3923.091493,-10807.006753,-3907.087040
163427.648311,-6513.812290,-9548.656652,-3983.696590
163427.648630,-2368.659014,-11029.068536,-919.314598
163427.648949,-666.185348,-6735.874072,-2911.162892
163427.649269,1998.556043,-8290.306550,-76.609550
163427.649588,1776.494261,-6587.832884,1149.143247
163427.649908,518.144159,-7105.977043,612.876398
163427.650227,1184.329507,-9252.574275,842.705048
163427.650547,2072.576638,-11769.274478,4673.182538
163427.650866,1184.329507,-9252.574275,1838.629195
163427.651186,814.226536,-10066.800811,995.924147
163427.651505,1406.391290,-10288.862594,536.266849
163427.651824,0.000000,-9548.656652,-1225.752797
163427.652144,-2960.823768,-9548.656652,-1225.752797
163427.652463,-3923.091493,-9474.636058,-4136.915689
163427.652783,-4737.318029,-9770.718434,-3830.477490
163427.653102,-3627.009116,-8364.327145,-2528.115143
163427.653422,-74.020594,-9474.636058,-76.609550
163427.653741,0.000000,-9252.574275,1532.190996
163427.654060,1036.288319,-6439.791695,1378.971896
163427.654380,1554.432478,-5773.606348,995.924147
163427.654699,666.185348,-7698.141797,306.438199
163427.655019,814.226536,-9548.656652,1072.533697
163427.655338,592.164754,-10140.821405,766.095498
163427.655658,518.144159,-11547.212695,-76.609550
163427.655977,-370.102971,-9844.739029,-2221.676944
163427.656297,-1776.494261,-11029.068536,-1838.629195
163427.656616,-74.020594,-10658.965565,-3140.991542
163427.656935,-2368.659014,-10732.986159,-3447.429741
163427.657255,-2294.638420,-10362.883188,-2757.943793
163427.657574,-1850.514855,-9918.759623,-1302.362347
163427.657894,-666.185348,-9030.512492,536.266849
163427.658213,1184.329507,-8956.491898,2451.505594
163427.658533,3182.885551,-7698.141797,4826.401637
163427.658852,4663.297435,-7105.977043,2374.896044
163427.659172,1184.329507,-5403.503377,919.314598
163427.659491,0.000000,-8364.327145,0.000000
163427.659810,-74.020594,-10658.965565,-76.609550
163427.660130,-592.164754,-11103.089130,919.314598
163427.660449,-666.185348,-11399.171507,0.000000
163427.660769,-666.185348,-10436.903782,-1302.362347
163427.661088,-592.164754,-10658.965565,-76.609550
163427.661408,-2960.823768,-10140.821405,-4903.011187
163427.661727,-4441.235652,-10140.821405,-3677.258390
163427.662047,-2442.679609,-11769.274478,-1685.410096
163427.662366,-1258.350101,-11843.295072,-76.609550
163427.662685,-2960.823768,-4811.338623,0.000000
163427.663005,1702.473667,-7105.977043,1149.143247
163427.663324,1998.556043,-7550.100608,1991.848295
163427.663644,1850.514855,-7105.977043,1149.143247
163427.663963,0.000000,-7994.224174,0.000000
163427.664283,-1036.288319,-9548.656652,383.047749
163427.664602,-1924.535449,-9844.739029,0.000000
163427.664921,-1036.288319,-11029.068536,612.876398
163427.665241,296.082377,-10140.821405,1225.752797
163427.665560,1776.494261,-10362.883188,766.095498
163427.665880,-2368.659014,-6587.832884,-2451.505594
163427.666199,-1110.308913,-9696.697840,-2681.334243
163427.666519,-2368.659014,-10658.965565,-2451.505594
163427.666838,-1628.453072,-10807.006753,-459.657299
163427.667158,-444.123565,-9030.512492,-76.609550
163427.667477,1406.391290,-7994.224174,-76.609550
163427.667796,1258.350101,-7624.121203,1685.410096
163427.668116,0.000000,-4811.338623,1225.752797
163427.668435,2146.597232,-7920.203579,1455.581446
163427.668755,-74.020594,-9474.636058,1072.533697
163427.669074,-4737.318029,-7179.997637,0.000000
163427.669394,-740.205942,-9474.636058,76.609550
163427.669713,0.000000,-10140.821405,-383.047749
163427.670033,666.185348,-10658.965565,536.266849
163427.670352,-74.020594,-9474.636058,-1915.238745
163427.670671,-1258.350101,-9474.636058,-1915.238745
163427.670991,-2442.679609,-11251.130318,-4979.620737
163427.671310,-3627.009116,-10732.986159,-4366.744339
163427.671630,-2664.741391,-10732.986159,-3370.820191
163427.671949,1480.411884,-10732.986159,2374.896044
163427.672269,888.247130,-7772.162391,0.000000
163427.672588,3182.885551,-7772.162391,2374.896044
163427.672908,2738.761985,-5921.647536,1532.190996
163427.673227,1406.391290,-7105.977043,612.876398
163427.673546,1702.473667,-9474.636058,536.266849
163427.673866,1184.329507,-9696.697840,2757.943793
163427.674185,3182.885551,-10658.965565,2987.772442
163427.674505,2812.782580,-10658.965565,2374.896044
163427.674824,1406.391290,-9918.759623,-153.219100
163427.675144,-296.082377,-11547.212695,-76.609550
163427.675463,-4071.132681,-9844.739029,-4596.572988
163427.675782,-4885.359217,-11769.274478,-4979.620737
163427.676102,-4737.318029,-12509.480420,-3294.210641
163427.676421,-4737.318029,-10140.821405,-2451.505594
163427.676741,-2960.823768,-7179.997637,0.000000
163427.677060,0.000000,-6883.915261,1149.143247
163427.677380,1702.473667,-7105.977043,3600.648841
163427.677699,0.000000,-3627.009116,153.219100
163427.678019,1110.308913,-7105.977043,1149.143247
163427.678338,1628.453072,-9474.636058,3217.601092
163427.678657,0.000000,-9178.553681,1378.971896
163427.678977,518.144159,-10362.883188,459.657299
163427.679296,814.226536,-10807.006753,-612.876398
163427.679616,0.000000,-9548.656652,-2451.505594
163427.679935,-3775.050304,-10140.821405,-4213.525239
163427.680255,-7105.977043,-9548.656652,-7048.078582
163427.680574,-3404.947333,-12953.603985,-4826.401637
163427.680894,-2590.720797,-10658.965565,-2528.115143
163427.681213,-74.020594,-9474.636058,-76.609550
163427.681532,2960.823768,-7624.121203,2987.772442
163427.681852,3478.967927,-5921.647536,4136.915689
163427.682171,3330.926739,-3923.091493,4136.915689
163427.682491,2294.638420,-5255.462188,2987.772442
163427.682810,0.000000,-6291.750507,612.876398
163427.683130,1998.556043,-7994.224174,842.705048
163427.683449,0.000000,-9104.533087,1225.752797
163427.683769,0.000000,-12065.356855,0.000000
163427.684088,-1776.494261,-12879.583391,-1608.800546
163427.684407,-2812.782580,-13027.624579,-2987.772442
163427.684727,-6069.688724,-11399.171507,-6128.763984
163427.685046,-5477.523971,-11991.336260,-6128.763984
163427.685366,-4589.276840,-11843.295072,-3983.696590
163427.685685,-4737.318029,-9548.656652,0.000000
163427.686005,1480.411884,-7031.956449,1991.848295
163427.686324,4071.132681,-7550.100608,3907.087040
163427.686643,4441.235652,-6513.812290,4826.401637
163427.686963,0.000000,-3034.844362,2451.505594
163427.687282,1480.411884,-8956.491898,3600.648841
163427.687602,0.000000,-9548.656652,0.000000
163427.687921,-592.164754,-10881.027347,-689.485948
163427.688241,-888.247130,-11991.336260,-1149.143247
163427.688560,-666.185348,-12139.377449,-1685.410096
163427.688880,-1258.350101,-11547.212695,-5592.497135
163427.689199,-2072.576638,-10955.047942,-3064.381992
163427.689518,-3775.050304,-10066.800811,-4136.915689
163427.689838,-2738.761985,-9844.739029,-2298.286494
163427.690157,518.144159,-9474.636058,1149.143247
163427.690477,3182.885551,-9474.636058,2681.334243
163427.690796,3849.070898,-6883.915261,5669.106685
163427.691116,4071.132681,-5921.647536,4213.525239
163427.691435,1036.288319,-5181.441594,2987.772442
163427.691755,0.000000,-4811.338623,0.000000
163427.692074,-1850.514855,-7698.141797,-2221.676944
163427.692393,-1258.350101,-10584.944971,-689.485948
163427.692713,-444.123565,-11547.212695,-919.314598
163427.693032,-74.020594,-12139.377449,-995.924147
163427.693352,296.082377,-11029.068536,-1378.971896
163427.693671,-1258.350101,-11251.130318,-3907.087040
163427.693991,-5329.482782,-10140.821405,-5822.325785
163427.694310,-6513.812290,-9548.656652,-6128.763984
163427.694630,-1554.432478,-13323.706956,-1225.752797
163427.694949,-2368.659014,-9548.656652,612.876398
163427.695268,2294.638420,-8290.306550,1762.019645
163427.695588,3701.029710,-6661.853478,3370.820191
163427.695907,4219.173869,-5403.503377,3677.258390
163427.696227,2960.823768,-5107.421000,2451.505594
163427.696546,1702.473667,-7698.141797,-229.828649
163427.696866,0.000000,-9548.656652,0.000000
163427.697185,-2368.659014,-8660.409521,-1378.971896
163427.697504,-1184.329507,-10288.862594,0.000000
163427.697824,0.000000,-10807.006753,-995.924147
163427.698143,0.000000,-10140.821405,0.000000
163427.698463,-1998.556043,-10214.842000,-3447.429741
163427.698782,-3256.906145,-9844.739029,-3907.087040
163427.699102,-2960.823768,-10732.986159,-3677.258390
163427.699421,-1406.391290,-9770.718434,-1149.143247
163427.699741,1110.308913,-7698.141797,2374.896044
163427.700060,3478.967927,-7105.977043,1762.019645
163427.700379,1184.329507,-5551.544565,2451.505594
163427.700699,1702.473667,-6143.709319,2451.505594
163427.701018,1702.473667,-8882.471304,2374.896044
163427.701338,-3552.988522,-7328.038826,-1225.752797
163427.701657,-1924.535449,-10807.006753,-1225.752797
163427.701977,-1702.473667,-11177.109724,-995.924147
163427.702296,-814.226536,-10807.006753,-1302.362347
163427.702616,-74.020594,-10658.965565,-1685.410096
163427.702935,-666.185348,-11473.192101,-1915.238745
163427.703254,-3034.844362,-10066.800811,-4060.306139
163427.703574,-3034.844362,-11251.130318,-3140.991542
163427.703893,-3108.864956,-9548.656652,-1838.629195
163427.704213,1998.556043,-12435.459826,4826.401637
163427.704532,1184.329507,-7772.162391,1838.629195
163427.704852,2294.638420,-7105.977043,2528.115143
163427.705171,2072.576638,-6587.832884,2834.553343
163427.705491,296.082377,-6587.832884,1838.629195
163427.705810,-1480.411884,-6735.874072,0.000000
163427.706129,-1776.494261,-9770.718434,-459.657299
163427.706449,-740.205942,-10436.903782,1532.190996
163427.706768,1702.473667,-11547.212695,-76.609550
163427.707088,814.226536,-9548.656652,-689.485948
163427.707407,2294.638420,-11843.295072,-76.609550
163427.707727,-1480.411884,-9030.512492,-1762.019645
163427.708046,-2146.597232,-9992.780217,-2681.334243
163427.708366,-1628.453072,-10955.047942,-2068.457845
163427.708685,-1776.494261,-10140.821405,612.876398
163427.709004,0.000000,-9548.656652,1225.752797
163427.709324,0.000000,-8364.327145,612.876398
163427.709643,2146.597232,-9474.636058,1149.143247
163427.709963,-814.226536,-7179.997637,229.828649
163427.710282,-74.020594,-5477.523971,-2834.553343
163427.710602,-74.020594,-9178.553681,-229.828649
163427.710921,370.102971,-9400.615463,306.438199
163427.711240,2220.617826,-9030.512492,1532.190996
163427.711560,2590.720797,-8660.409521,2068.457845
163427.711879,2368.659014,-8364.327145,612.876398
163427.712199,1110.308913,-8882.471304,-842.705048
163427.712518,-2368.659014,-8364.327145,-2757.943793
163427.712838,-2960.823768,-10140.821405,-4903.011187
163427.713157,-1036.288319,-13619.789333,-1302.362347
163427.713477,-1850.514855,-9844.739029,-3677.258390
163427.713796,-222.061783,-11177.109724,-76.609550
163427.714115,592.164754,-9252.574275,536.266849
163427.714435,592.164754,-7698.141797,612.876398
163427.714754,740.205942,-7105.977043,2374.896044
163427.715074,296.082377,-7105.977043,1762.019645
163427.715393,0.000000,-6735.874072,383.047749
163427.715713,888.247130,-7772.162391,0.000000
163427.716032,1776.494261,-9844.739029,3983.696590
163427.716352,592.164754,-8956.491898,1838.629195
163427.716671,-1258.350101,-7698.141797,-1378.971896
163427.716990,-2368.659014,-10362.883188,-2987.772442
163427.717310,-4737.318029,-11547.212695,-4903.011187
163427.717629,-4071.132681,-13397.727550,-4979.620737
163427.717949,-666.185348,-14211.954086,-1302.362347
163427.718268,-74.020594,-12435.459826,-689.485948
163427.718588,1110.308913,-9474.636058,-76.609550
163427.718907,0.000000,-5995.668130,612.876398
163427.719227,2886.803174,-6809.894666,2374.896044
163427.719546,0.000000,-4219.173869,1532.190996
163427.719865,-814.226536,-5403.503377,459.657299
163427.720185,0.000000,-7994.224174,1991.848295
163427.720504,1924.535449,-8586.388927,2987.772442
163427.720824,2368.659014,-8956.491898,2681.334243
163427.721143,3478.967927,-10658.965565,2221.676944
163427.721463,-1332.370696,-10436.903782,-306.438199
163427.721782,-3627.009116,-11547.212695,-4060.306139
163427.722101,-6365.771101,-11251.130318,-6052.154434
163427.722421,-6291.750507,-11917.315666,-4903.011187
163427.722740,-2738.761985,-10807.006753,-3524.039291
163427.723060,-296.082377,-9918.759623,229.828649
163427.723379,370.102971,-8364.327145,229.828649
163427.723699,1332.370696,-6883.915261,1608.800546
163427.724018,2294.638420,-8290.306550,2987.772442
163427.724337,962.267725,-5477.523971,995.924147
163427.724657,-1036.288319,-7179.997637,229.828649
163427.724976,740.205942,-8956.491898,0.000000
163427.725296,1184.329507,-8956.491898,3064.381992
163427.725615,1998.556043,-8586.388927,229.828649
163427.725935,1110.308913,-10658.965565,-1608.800546
163427.726254,-3034.844362,-10288.862594,-3294.210641
163427.726573,-5625.565159,-9844.739029,-7354.516781
163427.726893,-4589.276840,-12287.418637,-4979.620737
163427.727212,-2368.659014,-13101.645173,-2145.067394
163427.727532,-666.185348,-10658.965565,-1225.752797
163427.727851,888.247130,-9326.594869,689.485948
163427.728170,2368.659014,-7846.182985,2604.724693
163427.728490,3182.885551,-6513.812290,2451.505594
163427.728809,1702.473667,-4219.173869,1302.362347
163427.729129,3478.967927,-7105.977043,1762.019645
163427.729448,0.000000,-6883.915261,1532.190996
163427.729768,1776.494261,-9104.533087,2451.505594
163427.730087,1850.514855,-9474.636058,2374.896044
163427.730406,0.000000,-9548.656652,153.219100
163427.730726,-2220.617826,-9326.594869,-2451.505594
163427.731045,-3627.009116,-10510.924376,-3983.696590
163427.731365,-4071.132681,-11251.130318,-5209.449386
163427.731684,-4441.235652,-10732.986159,-4290.134789
163427.732003,-3256.906145,-10732.986159,-2451.505594
163427.732323,-666.185348,-11251.130318,-1915.238745
163427.732642,-962.267725,-7179.997637,-2911.162892
163427.732962,0.000000,-7179.997637,1532.190996
163427.733281,4071.132681,-7105.977043,3294.210641
163427.733601,1480.411884,-5995.668130,1762.019645
163427.733920,222.061783,-7254.018232,536.266849
163427.734239,740.205942,-8956.491898,2298.286494
163427.734559,1776.494261,-8660.409521,2681.334243
163427.734878,1554.432478,-8660.409521,1608.800546
163427.735198,444.123565,-9992.780217,-459.657299
163427.735517,-1850.514855,-9474.636058,-2528.115143
163427.735836,-5625.565159,-8364.327145,-4903.011187
163427.736156,-4737.318029,-11473.192101,-4749.792088
163427.736475,-1258.350101,-13027.624579,-3140.991542
163427.736795,-2146.597232,-11325.150913,-1838.629195
163427.737114,-1406.391290,-9548.656652,76.609550
163427.737434,296.082377,-9326.594869,1225.752797
163427.737753,3034.844362,-8660.409521,4060.306139
163427.738072,592.164754,-7179.997637,4903.011187
163427.738392,0.000000,-5995.668130,1838.629195
163427.738711,1702.473667,-9474.636058,2987.772442
163427.739031,0.000000,-7179.997637,2987.772442
163427.739350,0.000000,-5995.668130,0.000000
163427.739669,-74.020594,-9178.553681,-76.609550
163427.739989,-1924.535449,-9548.656652,-2681.334243
163427.740308,-2960.823768,-9992.780217,-3447.429741
163427.740628,-3330.926739,-10955.047942,-4826.401637
163427.740947,-2960.823768,-12213.398043,-4596.572988
163427.741267,-4737.318029,-11473.192101,-4290.134789
163427.741586,-3404.947333,-10732.986159,-1838.629195
163427.741905,-74.020594,-10658.965565,612.876398
163427.742225,3478.967927,-10658.965565,1149.143247
163427.742544,0.000000,-5995.668130,0.000000
163427.742864,2738.761985,-7698.141797,2068.457845
163427.743183,1924.535449,-6587.832884,2757.943793
163427.743502,2812.782580,-7846.182985,4136.915689
163427.743822,3330.926739,-7179.997637,3907.087040
163427.744141,1924.535449,-7105.977043,2068.457845
163427.744461,148.041188,-7994.224174,-842.705048
163427.744780,-888.247130,-8068.244768,-3140.991542
163427.745100,-3552.988522,-9548.656652,-3370.820191
163427.745419,-2368.659014,-12213.398043,-2757.943793
163427.745738,-6513.812290,-10140.821405,-7354.516781
163427.746058,-4071.132681,-13175.665768,-3753.867940
163427.746377,-3256.906145,-12139.377449,-2604.724693
163427.746697,-814.226536,-10807.006753,-306.438199
163427.747016,1702.473667,-8882.471304,-76.609550
163427.747335,3478.967927,-7105.977043,2374.896044
163427.747655,1998.556043,-7105.977043,2374.896044
163427.747974,962.267725,-5477.523971,1762.019645
163427.748294,740.205942,-6291.750507,2757.943793
163427.748613,1776.494261,-7772.162391,3064.381992
163427.748933,0.000000,-7476.080014,-1532.190996
163427.749252,74.020594,-10140.821405,-1455.581446
163427.749571,-1998.556043,-10066.800811,-2681.334243
163427.749891,-3923.091493,-11251.130318,-4596.572988
163427.750210,-2442.679609,-13619.789333,-5592.497135
163427.750530,-2960.823768,-13693.809927,-3370.820191
163427.750849,-2442.679609,-13397.727550,-1532.190996
163427.751168,-1850.514855,-10510.924376,-76.609550
163427.751488,518.144159,-7328.038826,842.705048
163427.751807,2516.700203,-7476.080014,5515.887586
163427.752127,3034.844362,-4811.338623,3524.039291
163427.752446,1628.453072,-5477.523971,3294.210641
163427.752766,1480.411884,-7624.121203,4060.306139
163427.753085,1406.391290,-7402.059420,2451.505594
163427.753404,888.247130,-8956.491898,0.000000
163427.753724,-1776.494261,-9548.656652,-1225.752797
163427.754043,-2368.659014,-9548.656652,-3677.258390
163427.754363,-3552.988522,-11325.150913,-3370.820191
163427.754682,-3034.844362,-13027.624579,-4366.744339
163427.755001,-3552.988522,-13841.851115,-3447.429741
163427.755321,-4515.256246,-12657.521608,-4443.353888
163427.755640,-3256.906145,-11843.295072,-1838.629195
163427.755960,-592.164754,-10140.821405,0.000000
163427.756279,0.000000,-5995.668130,612.876398
163427.756599,2812.782580,-5995.668130,3064.381992
163427.756918,3256.906145,-5995.668130,1225.752797
163427.757237,2664.741391,-7624.121203,4596.572988
163427.757557,2886.803174,-8142.265362,3447.429741
163427.757876,3478.967927,-8882.471304,2374.896044
163427.758196,1184.329507,-8956.491898,-689.485948
163427.758515,-1332.370696,-9696.697840,-2374.896044
163427.758834,-2220.617826,-10732.986159,-2757.943793
163427.759154,-2072.576638,-11325.150913,-3370.820191
163427.759473,-3552.988522,-9548.656652,-4903.011187
163427.759793,-1036.288319,-11251.130318,-2528.115143
163427.760112,-2368.659014,-9548.656652,-2374.896044
163427.760432,666.185348,-10584.944971,1149.143247
163427.760751,3775.050304,-10732.986159,3983.696590
163427.761070,2960.823768,-9252.574275,5745.716235
163427.761390,1850.514855,-6439.791695,2451.505594
163427.761709,1110.308913,-7105.977043,1762.019645
163427.762029,74.020594,-7476.080014,1225.752797
163427.762348,0.000000,-7772.162391,0.000000
163427.762667,888.247130,-8364.327145,306.438199
163427.762987,962.267725,-10658.965565,-76.609550
163427.763306,-370.102971,-9474.636058,-76.609550
163427.763626,-2442.679609,-8290.306550,-3447.429741
163427.763945,-4441.235652,-10140.821405,-3370.820191
163427.764265,-4737.318029,-11029.068536,-6128.763984
163427.764584,-2960.823768,-12879.583391,-3370.820191
163427.764903,-2812.782580,-11991.336260,-1838.629195
163427.765223,-1258.350101,-11177.109724,-689.485948
163427.765542,2294.638420,-10658.965565,-76.609550
163427.765862,2516.700203,-8290.306550,2681.334243
163427.766181,2146.597232,-6661.853478,1762.019645
163427.766500,1554.432478,-7550.100608,2604.724693
163427.766820,1998.556043,-8068.244768,4213.525239
163427.767139,3108.864956,-9252.574275,5515.887586
163427.767459,2738.761985,-9474.636058,3983.696590
163427.767778,-666.185348,-7402.059420,-1225.752797
163427.768098,-2368.659014,-8364.327145,-1072.533697
163427.768417,-2072.576638,-9548.656652,-3677.258390
163427.768736,-1554.432478,-10658.965565,-4060.306139
163427.769056,-4145.153275,-12509.480420,-3217.601092
163427.769375,-3923.091493,-12139.377449,-1838.629195
163427.769695,-2664.741391,-10436.903782,-1915.238745
163427.770014,-74.020594,-11029.068536,766.095498
163427.770333,1406.391290,-8882.471304,2298.286494
163427.770653,0.000000,-6587.832884,919.314598
163427.770972,-148.041188,-8290.306550,1225.752797
163427.771292,-74.020594,-10362.883188,2374.896044
163427.771611,0.000000,-7179.997637,612.876398
163427.771931,962.267725,-7698.141797,536.266849
163427.772250,-296.082377,-8734.430116,-842.705048
163427.772569,-1036.288319,-9326.594869,-1608.800546
163427.772889,-1480.411884,-9844.739029,-1991.848295
163427.773208,-518.144159,-10955.047942,-2221.676944
163427.773528,-370.102971,-11843.295072,-3370.820191
163427.773847,-2368.659014,-10510.924376,-3140.991542
163427.774166,-2368.659014,-9696.697840,-1838.629195
163427.774486,592.164754,-10140.821405,153.219100
163427.774805,592.164754,-8364.327145,1225.752797
163427.775125,2442.679609,-8290.306550,1991.848295
163427.775444,1036.288319,-7772.162391,995.924147
163427.775764,592.164754,-8142.265362,1378.971896
163427.776083,888.247130,-7920.203579,1838.629195
163427.776402,2294.638420,-7698.141797,1762.019645
163427.776722,370.102971,-7105.977043,-76.609550
163427.777041,0.000000,-7179.997637,612.876398
163427.777361,0.000000,-8068.244768,0.000000
163427.777680,-74.020594,-9474.636058,1762.019645
163427.777999,-3552.988522,-9548.656652,-3677.258390
163427.778319,-2368.659014,-10807.006753,-3907.087040
163427.778638,-3552.988522,-11843.295072,-3370.820191
163427.778958,-2664.741391,-11399.171507,-2528.115143
163427.779277,-74.020594,-11103.089130,-1302.362347
163427.779597,2294.638420,-11547.212695,766.095498
163427.779916,2294.638420,-9474.636058,-76.609550
163427.780235,-1036.288319,-7624.121203,0.000000
163427.780555,1184.329507,-8364.327145,2451.505594
163427.780874,4071.132681,-9474.636058,5592.497135
163427.781194,2664.741391,-7179.997637,2451.505594
163427.781513,2812.782580,-7254.018232,1455.581446
163427.781832,1480.411884,-8142.265362,995.924147
163427.782152,1110.308913,-8660.409521,0.000000
163427.782471,-74.020594,-9992.780217,-2145.067394
163427.782791,-1184.329507,-11695.253884,-2681.334243
163427.783110,-2590.720797,-12435.459826,-1608.800546
163427.783430,-1554.432478,-13027.624579,-3140.991542
163427.783749,-4145.153275,-10807.006753,-2451.505594
163427.784068,1554.432478,-13027.624579,2987.772442
163427.784388,-666.185348,-8142.265362,0.000000
163427.784707,0.000000,-6957.935855,459.657299
163427.785027,0.000000,-7031.956449,1225.752797
163427.785346,0.000000,-7476.080014,2451.505594
163427.785665,592.164754,-5403.503377,3064.381992
163427.785985,1628.453072,-6513.812290,0.000000
163427.786304,1776.494261,-9474.636058,2451.505594
163427.786624,-1258.350101,-7994.224174,-766.095498
163427.786943,-2738.761985,-9178.553681,-3140.991542
163427.787263,-2442.679609,-12435.459826,-3753.867940
163427.787582,-5033.400406,-11843.295072,-4903.011187
163427.787901,-4367.215058,-11843.295072,-3677.258390
163427.788221,-3108.864956,-10881.027347,-2451.505594
163427.788540,0.000000,-9548.656652,0.000000
163427.788860,296.082377,-8216.285956,536.266849
163427.789179,1184.329507,-7772.162391,2451.505594
163427.789498,1554.432478,-7105.977043,536.266849
163427.789818,0.000000,-7179.997637,0.000000
163427.790137,2294.638420,-8290.306550,2374.896044
163427.790457,2590.720797,-9474.636058,4519.963438
163427.790776,1184.329507,-8068.244768,1685.410096
163427.791096,-592.164754,-8660.409521,0.000000
163427.791415,-2368.659014,-9104.533087,-1302.362347
163427.791734,-4737.318029,-8364.327145,-2987.772442
163427.792054,-2442.679609,-10658.965565,-4366.744339
163427.792373,-3404.947333,-9548.656652,-3677.258390
163427.792693,-2368.659014,-10140.821405,0.000000
163427.793012,-74.020594,-10658.965565,-1225.752797
163427.793331,-74.020594,-7698.141797,-1608.800546
163427.793651,1332.370696,-8956.491898,536.266849
163427.793970,-74.020594,-8734.430116,76.609550
163427.794290,-1258.350101,-9030.512492,-459.657299
163427.794609,-74.020594,-11843.295072,2987.772442
163427.794929,1332.370696,-10214.842000,3600.648841
163427.795248,1406.391290,-8956.491898,1149.143247
163427.795567,0.000000,-5995.668130,0.000000
163427.795887,1850.514855,-8512.368333,1608.800546
163427.796206,-2220.617826,-5403.503377,0.000000
163427.796526,-1702.473667,-7846.182985,-3677.258390
163427.796845,-1554.432478,-10140.821405,-3217.601092
163427.797164,-1776.494261,-10732.986159,-2451.505594
163427.797484,-370.102971,-11177.109724,-1149.143247
163427.797803,3478.967927,-13027.624579,-76.609550
163427.798123,1702.473667,-10658.965565,612.876398
163427.798442,3182.885551,-11251.130318,-76.609550
163427.798762,222.061783,-9326.594869,-689.485948
163427.799081,0.000000,-8068.244768,-842.705048
163427.799400,1702.473667,-9178.553681,383.047749
163427.799720,2590.720797,-9178.553681,3830.477490
163427.800039,3256.906145,-6809.894666,3677.258390
163427.800359,2516.700203,-6069.688724,2451.505594
163427.800678,1258.350101,-7698.141797,2374.896044
163427.800997,-2368.659014,-5995.668130,-2068.457845
163427.801317,-5329.482782,-7476.080014,-4903.011187
163427.801636,-4737.318029,-11325.150913,-4749.792088
163427.801956,-4145.153275,-12509.480420,-2145.067394
163427.802275,-1258.350101,-12435.459826,-2528.115143
163427.802595,-74.020594,-11843.295072,-1302.362347
163427.802914,-962.267725,-9696.697840,-1225.752797
163427.803233,-1184.329507,-9030.512492,-919.314598
163427.803553,-1110.308913,-8512.368333,76.609550
163427.803872,0.000000,-7772.162391,2451.505594
163427.804192,2368.659014,-8956.491898,3600.648841
163427.804511,3478.967927,-8586.388927,5286.058936
163427.804830,3478.967927,-7105.977043,2374.896044
163427.805150,74.020594,-5699.585753,1225.752797
163427.805469,1480.411884,-9474.636058,1762.019645
163427.805789,-2072.576638,-8660.409521,-3140.991542
163427.806108,-3849.070898,-10436.903782,-4826.401637
163427.806428,-4145.153275,-11991.336260,-3600.648841
163427.806747,-2442.679609,-13101.645173,-1838.629195
163427.807066,-2664.741391,-9548.656652,-2451.505594
163427.807386,296.082377,-9992.780217,229.828649
163427.807705,-1184.329507,-7772.162391,229.828649
163427.808025,-1554.432478,-7920.203579,-689.485948
163427.808344,-74.020594,-9474.636058,1762.019645
163427.808663,1998.556043,-7920.203579,3294.210641
163427.808983,3330.926739,-8068.244768,5132.839837
163427.809302,2294.638420,-7402.059420,2068.457845
163427.809622,-1628.453072,-6587.832884,0.000000
163427.809941,0.000000,-8364.327145,612.876398
163427.810261,-3404.947333,-7179.997637,-4290.134789
163427.810580,-3627.009116,-11103.089130,-5515.887586
163427.810899,-3997.112087,-12435.459826,-5209.449386
163427.811219,-2442.679609,-12657.521608,-3064.381992
163427.811538,222.061783,-11103.089130,-1762.019645
163427.811858,2664.741391,-11251.130318,-76.609550
163427.812177,2368.659014,-8956.491898,0.000000
163427.812496,2886.803174,-8660.409521,1915.238745
163427.812816,1702.473667,-8290.306550,842.705048
163427.813135,2368.659014,-9548.656652,4290.134789
163427.813455,3404.947333,-8660.409521,3753.867940
163427.813774,3330.926739,-8364.327145,3907.087040
163427.814094,2294.638420,-7772.162391,1455.581446
163427.814413,962.267725,-8512.368333,0.000000
163427.814732,-1184.329507,-7179.997637,-3677.258390
163427.815052,-3478.967927,-6587.832884,-6052.154434
163427.815371,-6513.812290,-9548.656652,-4903.011187
163427.815691,-3256.906145,-11621.233289,-3294.210641
163427.816010,-814.226536,-13027.624579,-1302.362347
163427.816329,0.000000,-11621.233289,1225.752797
163427.816649,518.144159,-9770.718434,383.047749
163427.816968,0.000000,-8956.491898,0.000000
163427.817288,-1184.329507,-8142.265362,0.000000
163427.817607,-2960.823768,-6587.832884,0.000000
163427.817927,518.144159,-10658.965565,3447.429741
163427.818246,1406.391290,-7550.100608,2068.457845
163427.818565,1480.411884,-8364.327145,2451.505594
163427.818885,1184.329507,-9252.574275,2145.067394
163427.819204,-74.020594,-9474.636058,-76.609550
163427.819524,-3256.906145,-8956.491898,-2451.505594
163427.819843,-4145.153275,-10436.903782,-4826.401637
163427.820162,-3627.009116,-11473.192101,-3907.087040
163427.820482,-1776.494261,-10881.027347,-1302.362347
163427.820801,740.205942,-9696.697840,612.876398
163427.821121,2294.638420,-10066.800811,1762.019645
163427.821440,370.102971,-7624.121203,383.047749
163427.821760,-2368.659014,-5995.668130,0.000000
163427.822079,-2294.638420,-8660.409521,0.000000
163427.822398,-74.020594,-10658.965565,2374.896044
163427.822718,592.164754,-9992.780217,2834.553343
163427.823037,1554.432478,-8586.388927,3294.210641
163427.823357,962.267725,-8068.244768,1685.410096
163427.823676,-74.020594,-8660.409521,1915.238745
163427.823995,-2294.638420,-8364.327145,0.000000
163427.824315,-3182.885551,-8660.409521,-3064.381992
163427.824634,-4145.153275,-11325.150913,-3753.867940
163427.824954,-2738.761985,-11843.295072,-3140.991542
163427.825273,-3256.906145,-8956.491898,-2451.505594
163427.825593,-74.020594,-10658.965565,-76.609550
163427.825912,888.247130,-9252.574275,153.219100
163427.826231,740.205942,-8882.471304,153.219100
163427.826551,0.000000,-8956.491898,-383.047749
163427.826870,-592.164754,-10140.821405,1225.752797
163427.827190,0.000000,-8660.409521,153.219100
163427.827509,1776.494261,-10140.821405,3064.381992
163427.827829,1184.329507,-7179.997637,2451.505594
163427.828148,4367.215058,-9474.636058,2681.334243
163427.828468,74.020594,-6883.915261,0.000000
163427.828787,-74.020594,-8290.306550,-2528.115143
163427.829106,-2664.741391,-8586.388927,-4136.915689
163427.829426,-2738.761985,-9844.739029,-3294.210641
163427.829745,-888.247130,-10214.842000,-1532.190996
163427.830065,2738.761985,-11843.295072,1149.143247
163427.830384,296.082377,-8068.244768,0.000000
163427.830704,2886.803174,-9474.636058,1072.533697
163427.831023,1110.308913,-8882.471304,-76.609550
163427.831343,-1924.535449,-7772.162391,-1915.238745
163427.831662,0.000000,-10140.821405,612.876398
163427.831981,962.267725,-10955.047942,1378.971896
163427.832301,1184.329507,-10510.924376,1991.848295
163427.832620,1184.329507,-9918.759623,1072.533697
163427.832940,0.000000,-6809.894666,-1455.581446
163427.833259,-1850.514855,-7402.059420,-1762.019645
163427.833579,-4145.153275,-7476.080014,-3677.258390
163427.833898,-5329.482782,-7476.080014,-5515.887586
163427.834218,-814.226536,-11843.295072,-1302.362347
163427.834537,-74.020594,-11843.295072,2374.896044
163427.834856,0.000000,-8956.491898,612.876398
163427.835176,740.205942,-9400.615463,76.609550
163427.835495,518.144159,-8660.409521,383.047749
163427.835815,-666.185348,-8290.306550,0.000000
163427.836134,-1480.411884,-7772.162391,-2298.286494
163427.836454,0.000000,-9696.697840,612.876398
163427.836773,0.000000,-8364.327145,306.438199
163427.837093,1184.329507,-9696.697840,2451.505594
163427.837412,1110.308913,-9474.636058,1838.629195
163427.837731,-2368.659014,-7179.997637,612.876398
163427.838051,-1258.350101,-7402.059420,-995.924147
163427.838370,-2664.741391,-8216.285956,-2451.505594
163427.838690,-2886.803174,-9326.594869,-2221.676944
163427.839009,-1924.535449,-9548.656652,-1838.629195
163427.839329,1554.432478,-10658.965565,306.438199
163427.839648,592.164754,-9474.636058,1302.362347
163427.839968,-1258.350101,-7846.182985,-1302.362347
163427.840287,-2960.823768,-7772.162391,-3677.258390
163427.840606,-2368.659014,-10140.821405,-1225.752797
163427.840926,-3478.967927,-9030.512492,-3064.381992
163427.841245,-1332.370696,-11695.253884,-153.219100
163427.841565,0.000000,-11029.068536,153.219100
163427.841884,888.247130,-10362.883188,459.657299
163427.842204,2886.803174,-10658.965565,2374.896044
163427.842523,0.000000,-7772.162391,459.657299
163427.842843,-1258.350101,-6883.915261,-1838.629195
163427.843162,-1850.514855,-6439.791695,-4290.134789
163427.843481,0.000000,-8956.491898,-1225.752797
163427.843801,-74.020594,-8438.347739,-1149.143247
163427.844120,1776.494261,-9770.718434,1149.143247
163427.844440,1036.288319,-9548.656652,612.876398
163427.844759,0.000000,-8586.388927,-76.609550
163427.845079,-1332.370696,-8216.285956,-689.485948
163427.845398,-1184.329507,-10732.986159,1225.752797
163427.845718,296.082377,-9326.594869,153.219100
163427.846037,1332.370696,-9992.780217,1991.848295
163427.846356,1850.514855,-8956.491898,1838.629195
163427.846676,0.000000,-7179.997637,306.438199
163427.846995,-74.020594,-9474.636058,1455.581446
163427.847315,-370.102971,-7550.100608,-842.705048
163427.847634,-2960.823768,-7179.997637,-2451.505594
163427.847954,-4737.318029,-7179.997637,-3677.258390
163427.848273,-74.020594,-13027.624579,-76.609550
163427.848593,296.082377,-10955.047942,1149.143247
163427.848912,592.164754,-9474.636058,-536.266849
163427.849231,0.000000,-9326.594869,-1149.143247
163427.849551,-666.185348,-8956.491898,-995.924147
163427.849870,-666.185348,-8068.244768,-1532.190996
163427.850190,0.000000,-9178.553681,-1302.362347
163427.850509,814.226536,-11103.089130,-76.609550
163427.850829,0.000000,-9548.656652,306.438199
163427.851148,3701.029710,-11547.212695,2604.724693
163427.851468,3478.967927,-9474.636058,-76.609550
163427.851787,592.164754,-9844.739029,229.828649
163427.852106,-814.226536,-9104.533087,-383.047749
163427.852426,-592.164754,-8956.491898,-1608.800546
163427.852745,-740.205942,-9326.594869,-383.047749
163427.853065,-592.164754,-10510.924376,2298.286494
163427.853384,-666.185348,-8882.471304,2987.772442
163427.853704,-74.020594,-7698.141797,-689.485948
163427.854023,-2072.576638,-6587.832884,0.000000
163427.854343,-2072.576638,-7179.997637,0.000000
163427.854662,-1258.350101,-7994.224174,-1915.238745
163427.854981,-1406.391290,-9548.656652,-612.876398
163427.855301,-1406.391290,-11029.068536,229.828649
163427.855620,-1110.308913,-11399.171507,-229.828649
163427.855940,-74.020594,-12435.459826,1149.143247
163427.856259,-370.102971,-10732.986159,-1838.629195
163427.856579,-1480.411884,-9548.656652,153.219100
163427.856898,-1258.350101,-9326.594869,-1915.238745
163427.857218,-666.185348,-10658.965565,-689.485948
163427.857537,-2368.659014,-7772.162391,-2451.505594
163427.857856,518.144159,-8882.471304,-76.609550
163427.858176,444.123565,-8364.327145,0.000000
163427.858495,444.123565,-8364.327145,536.266849
163427.858815,1554.432478,-8290.306550,383.047749
163427.859134,2220.617826,-7772.162391,842.705048
163427.859454,0.000000,-8660.409521,0.000000
163427.859773,0.000000,-10732.986159,76.609550
163427.860093,0.000000,-9548.656652,0.000000
163427.860412,0.000000,-11029.068536,919.314598
163427.860731,-1776.494261,-9548.656652,0.000000
163427.861051,222.061783,-9474.636058,76.609550
163427.861370,-666.185348,-8438.347739,-842.705048
163427.861690,-1036.288319,-8142.265362,-1225.752797
163427.862009,-592.164754,-7402.059420,-2068.457845
163427.862329,814.226536,-9178.553681,-383.047749
163427.862648,370.102971,-8068.244768,0.000000
163427.862968,1184.329507,-9252.574275,2604.724693
163427.863287,-74.020594,-9178.553681,-76.609550
163427.863606,962.267725,-9252.574275,1072.533697
163427.863926,0.000000,-8364.327145,0.000000
163427.864245,222.061783,-9474.636058,-1685.410096
163427.864565,-444.123565,-10362.883188,-612.876398
163427.864884,222.061783,-10510.924376,-766.095498
163427.865204,-74.020594,-10658.965565,-1608.800546
163427.865523,-74.020594,-11251.130318,-76.609550
163427.865843,-74.020594,-9030.512492,-1915.238745
163427.866162,-2368.659014,-7476.080014,-1838.629195
163427.866481,0.000000,-8956.491898,-919.314598
163427.866801,3256.906145,-11251.130318,3907.087040
163427.867120,1480.411884,-7179.997637,1991.848295
163427.867440,3034.844362,-7105.977043,1762.019645
163427.867759,2294.638420,-7624.121203,842.705048
163427.868079,1628.453072,-7920.203579,1072.533697
163427.868398,1702.473667,-9474.636058,-76.609550
163427.868718,814.226536,-11695.253884,-76.609550
163427.869037,-1406.391290,-11843.295072,-1302.362347
163427.869356,-3034.844362,-11251.130318,-689.485948
163427.869676,-3182.885551,-10288.862594,-1225.752797
163427.869995,-74.020594,-13619.789333,2987.772442
163427.870315,-1924.535449,-8586.388927,0.000000
163427.870634,-1850.514855,-7402.059420,-153.219100
163427.870954,-2368.659014,-7328.038826,-1685.410096
163427.871273,-2960.823768,-8364.327145,0.000000
163427.871593,-2368.659014,-8364.327145,306.438199
163427.871912,-740.205942,-9104.533087,1378.971896
163427.872231,-74.020594,-10658.965565,2374.896044
163427.872551,-1258.350101,-8882.471304,-689.485948
163427.872870,-1258.350101,-7698.141797,-1915.238745
163427.873190,-1258.350101,-9474.636058,-1302.362347
163427.873509,-2590.720797,-10881.027347,-2374.896044
163427.873829,-1924.535449,-11695.253884,-1302.362347
163427.874148,-1036.288319,-11547.212695,-306.438199
163427.874468,0.000000,-9548.656652,1225.752797
163427.874787,0.000000,-9548.656652,766.095498
163427.875106,0.000000,-7179.997637,306.438199
163427.875426,1628.453072,-8068.244768,1685.410096
163427.875745,1406.391290,-7254.018232,-76.609550
163427.876065,2294.638420,-8142.265362,842.705048
163427.876384,1110.308913,-9474.636058,1378.971896
163427.876704,-1258.350101,-8882.471304,0.000000
163427.877023,-2368.659014,-8808.450710,-1991.848295
163427.877343,-2368.659014,-9770.718434,-1762.019645
163427.877662,-3552.988522,-8068.244768,-2145.067394
163427.877981,-3552.988522,-7772.162391,-3064.381992
163427.878301,-1184.329507,-10140.821405,0.000000
163427.878620,1406.391290,-10955.047942,-76.609550
163427.878940,1702.473667,-9474.636058,-1455.581446
163427.879259,3478.967927,-10658.965565,-76.609550
163427.879579,592.164754,-9030.512492,995.924147
163427.879898,888.247130,-8660.409521,0.000000
163427.880218,592.164754,-8660.409521,-1072.533697
163427.880537,444.123565,-9252.574275,306.438199
163427.880856,-666.185348,-10510.924376,-1378.971896
163427.881176,-666.185348,-9696.697840,-2221.676944
163427.881495,0.000000,-8808.450710,-3370.820191
163427.881815,148.041188,-10140.821405,612.876398
163427.882134,1702.473667,-8290.306550,-689.485948
163427.882454,1702.473667,-9326.594869,536.266849
163427.882773,2368.659014,-9770.718434,2298.286494
163427.883093,2590.720797,-9178.553681,2145.067394
163427.883412,2960.823768,-8512.368333,2374.896044
163427.883731,0.000000,-9548.656652,1838.629195
163427.884051,1702.473667,-9622.677246,995.924147
163427.884370,888.247130,-9326.594869,766.095498
163427.884690,-740.205942,-8882.471304,-1225.752797
163427.885009,-3256.906145,-9548.656652,-4290.134789
163427.885329,-3034.844362,-11251.130318,-4903.011187
163427.885648,-3997.112087,-10732.986159,-1685.410096
163427.885968,-1850.514855,-9474.636058,-766.095498
163427.886287,-74.020594,-9474.636058,-1302.362347
163427.886606,-1258.350101,-7105.977043,-76.609550
163427.886926,740.205942,-7179.997637,1991.848295
163427.887245,1258.350101,-6513.812290,612.876398
163427.887565,1110.308913,-8660.409521,1378.971896
163427.887884,1258.350101,-9770.718434,1532.190996
163427.888204,-888.247130,-8586.388927,-76.609550
163427.888523,-1776.494261,-11029.068536,-766.095498
163427.888843,-2146.597232,-12287.418637,-3217.601092
163427.889162,-3552.988522,-11325.150913,-4903.011187
163427.889481,-4145.153275,-9844.739029,-3064.381992
163427.889801,-74.020594,-11843.295072,-1915.238745
163427.890120,-1480.411884,-10436.903782,0.000000
163427.890440,-222.061783,-8142.265362,919.314598
163427.890759,1110.308913,-6883.915261,1608.800546
163427.891079,1924.535449,-5699.585753,2451.505594
163427.891398,1480.411884,-4811.338623,2451.505594
163427.891718,1110.308913,-5995.668130,1225.752797
163427.892037,-74.020594,-9474.636058,-76.609550
163427.892357,-4145.153275,-8364.327145,0.000000
163427.892676,-3552.988522,-11325.150913,-919.314598
163427.892995,-370.102971,-11843.295072,-1302.362347
163427.893315,-2220.617826,-12213.398043,-1149.143247
163427.893634,-1924.535449,-10807.006753,-1072.533697
163427.893954,-2220.617826,-9622.677246,-1838.629195
163427.894273,-148.041188,-10288.862594,-919.314598
163427.894593,-2072.576638,-9548.656652,0.000000
163427.894912,-2368.659014,-7179.997637,0.000000
163427.895232,1702.473667,-8882.471304,1149.143247
163427.895551,740.205942,-6587.832884,842.705048
163427.895870,592.164754,-5403.503377,0.000000
163427.896190,3478.967927,-7994.224174,1762.019645
163427.896509,592.164754,-8364.327145,-536.266849
163427.896829,-1406.391290,-10732.986159,-1302.362347
163427.897148,-1628.453072,-11251.130318,-1225.752797
163427.897468,296.082377,-11917.315666,0.000000
163427.897787,1702.473667,-11251.130318,-383.047749
163427.898107,1184.329507,-9548.656652,0.000000
163427.898426,1184.329507,-8364.327145,0.000000
163427.898745,0.000000,-8660.409521,-229.828649
163427.899065,-2812.782580,-7476.080014,-4290.134789
163427.899384,-222.061783,-9474.636058,-153.219100
163427.899704,-592.164754,-8882.471304,842.705048
163427.900023,518.144159,-8290.306550,1532.190996
163427.900343,888.247130,-7846.182985,1608.800546
163427.900662,888.247130,-7105.977043,1149.143247
163427.900982,370.102971,-6513.812290,153.219100
163427.901301,-1184.329507,-6957.935855,-1302.362347
163427.901620,-3552.988522,-9548.656652,0.000000
163427.901940,-592.164754,-11251.130318,1762.019645
163427.902259,-3552.988522,-7179.997637,-3677.258390
163427.902579,370.102971,-10807.006753,-383.047749
163427.902898,-222.061783,-10288.862594,-1378.971896
163427.903218,-1776.494261,-10288.862594,-2068.457845
163427.903537,-1850.514855,-9474.636058,-3753.867940
163427.903857,-74.020594,-11251.130318,-3140.991542
163427.904176,-370.102971,-11251.130318,-689.485948
163427.904495,0.000000,-8364.327145,612.876398
163427.904815,2516.700203,-8882.471304,2221.676944
163427.905134,1924.535449,-7476.080014,2451.505594
163427.905454,0.000000,-5107.421000,306.438199
163427.905773,296.082377,-7179.997637,459.657299
163427.906093,-592.164754,-9030.512492,0.000000
163427.906412,-1258.350101,-9622.677246,536.266849
163427.906732,-74.020594,-10362.883188,-76.609550
163427.907051,1110.308913,-11029.068536,1532.190996
163427.907370,1110.308913,-11695.253884,-76.609550
163427.907690,-1258.350101,-9770.718434,-76.609550
163427.908009,-1850.514855,-11843.295072,-2528.115143
163427.908329,-3552.988522,-11029.068536,-2451.505594
163427.908648,-3997.112087,-10066.800811,-2604.724693
163427.908968,-1924.535449,-9992.780217,-842.705048
163427.909287,-592.164754,-8882.471304,306.438199
163427.909607,444.123565,-7328.038826,0.000000
163427.909926,1406.391290,-6735.874072,0.000000
163427.910245,592.164754,-6587.832884,1685.410096
163427.910565,-74.020594,-7105.977043,-76.609550
163427.910884,-74.020594,-8882.471304,-383.047749
163427.911204,0.000000,-9178.553681,-76.609550
163427.911523,1628.453072,-11843.295072,2374.896044
163427.911843,1110.308913,-10881.027347,-995.924147
163427.912162,74.020594,-11917.315666,-1608.800546
163427.912482,-1776.494261,-10881.027347,-2528.115143
163427.912801,-4737.318029,-9548.656652,-4903.011187
163427.913120,-3552.988522,-10436.903782,-4136.915689
163427.913440,-1332.370696,-10732.986159,-2451.505594
163427.913759,2368.659014,-11029.068536,2911.162892
163427.914079,3478.967927,-7105.977043,1991.848295
163427.914398,4663.297435,-7105.977043,3600.648841
163427.914718,4737.318029,-6587.832884,4673.182538
163427.915037,2738.761985,-5181.441594,1685.410096
163427.915357,814.226536,-6883.915261,229.828649
163427.915676,0.000000,-9474.636058,1225.752797
163427.915995,0.000000,-7179.997637,0.000000
163427.916315,74.020594,-10214.842000,-2068.457845
163427.916634,0.000000,-11325.150913,-2145.067394
163427.916954,-1480.411884,-12139.377449,-2145.067394
163427.917273,-4293.194464,-12509.480420,-2987.772442
163427.917593,-4737.318029,-13027.624579,-3294.210641
163427.917912,-4737.318029,-11325.150913,-3677.258390
163427.918232,-1036.288319,-10066.800811,-76.609550
163427.918551,2146.597232,-7698.141797,2068.457845
163427.918870,1776.494261,-4811.338623,1838.629195
163427.919190,4367.215058,-5255.462188,4290.134789
163427.919509,3404.947333,-6365.771101,3600.648841
163427.919829,814.226536,-6217.729913,153.219100
163427.920148,-3552.988522,-7179.997637,0.000000
163427.920468,0.000000,-10732.986159,3064.381992
163427.920787,0.000000,-9548.656652,0.000000
163427.921107,-148.041188,-11917.315666,-766.095498
163427.921426,-1554.432478,-12435.459826,-2298.286494
163427.921745,-3627.009116,-11399.171507,-3830.477490
163427.922065,-3627.009116,-11547.212695,-5592.497135
163427.922384,-4145.153275,-11843.295072,-2911.162892
163427.922704,-2072.576638,-10436.903782,-383.047749
163427.923023,1406.391290,-7994.224174,2681.334243
163427.923343,3849.070898,-6439.791695,4519.963438
163427.923662,4737.318029,-6661.853478,7277.907231
163427.923982,1184.329507,-4811.338623,5515.887586
163427.924301,-74.020594,-6513.812290,1455.581446
163427.924620,-2738.761985,-6735.874072,-2145.067394
163427.924940,-3701.029710,-10140.821405,-2451.505594
163427.925259,-1850.514855,-10362.883188,-2528.115143
163427.925578,-1332.370696,-12805.562797,-2374.896044
163427.925898,-1628.453072,-13249.686362,-2834.553343
163427.926217,-3404.947333,-12213.398043,-4060.306139
163427.926536,-3627.009116,-11547.212695,-3524.039291
163427.926856,-3627.009116,-11029.068536,-3600.648841
163427.927175,-2368.659014,-9696.697840,-2451.505594
163427.927494,2368.659014,-7772.162391,0.000000
163427.927814,3552.988522,-6587.832884,4903.011187
163427.928133,2960.823768,-4811.338623,3677.258390
163427.928452,5255.462188,-6069.688724,3907.087040
163427.928772,592.164754,-5403.503377,1838.629195
163427.929091,-666.185348,-7920.203579,-1302.362347
163427.929410,-2664.741391,-9770.718434,-2145.067394
163427.929730,-1406.391290,-10658.965565,-1915.238745
163427.930049,-1776.494261,-11621.233289,-1532.190996
163427.930368,148.041188,-10436.903782,-2374.896044
163427.930688,-1776.494261,-10140.821405,-1225.752797
163427.931007,-1480.411884,-9548.656652,-1532.190996
163427.931326,-4737.318029,-7179.997637,-2451.505594
163427.931646,-1776.494261,-9992.780217,-2221.676944
163427.931965,-74.020594,-9696.697840,76.609550
163427.932284,2664.741391,-8956.491898,2374.896044
163427.932604,2886.803174,-6587.832884,1762.019645
163427.932923,2886.803174,-7105.977043,1149.143247
163427.933242,-888.247130,-7105.977043,-76.609550
163427.933562,-2368.659014,-6587.832884,-1838.629195
163427.933881,-2368.659014,-9844.739029,-2145.067394
163427.934200,-74.020594,-11843.295072,-76.609550
163427.934520,0.000000,-9548.656652,0.000000
163427.934839,2146.597232,-10732.986159,383.047749
163427.935158,2220.617826,-10732.986159,0.000000
163427.935478,0.000000,-9252.574275,-1072.533697
163427.935797,-2442.679609,-8290.306550,-2528.115143
163427.936116,-1258.350101,-11843.295072,-1915.238745
163427.936436,-74.020594,-12435.459826,-1608.800546
163427.936755,0.000000,-9844.739029,383.047749
163427.937074,0.000000,-7476.080014,1225.752797
163427.937394,4293.194464,-10658.965565,4826.401637
163427.937713,0.000000,-6439.791695,1532.190996
163427.938032,-222.061783,-6217.729913,919.314598
163427.938352,-1480.411884,-7254.018232,-612.876398
163427.938671,-962.267725,-8438.347739,-153.219100
163427.938990,-370.102971,-9400.615463,306.438199
163427.939310,1702.473667,-10658.965565,2374.896044
163427.939629,74.020594,-9770.718434,-229.828649
163427.939948,-3552.988522,-7772.162391,0.000000
163427.940268,-2664.741391,-10140.821405,-1302.362347
163427.940587,-2738.761985,-14211.954086,-689.485948
163427.940906,-4885.359217,-11917.315666,-3907.087040
163427.941226,-2294.638420,-12213.398043,-1225.752797
163427.941545,-814.226536,-10140.821405,76.609550
163427.941864,0.000000,-8364.327145,0.000000
163427.942184,0.000000,-5995.668130,0.000000
163427.942503,962.267725,-7328.038826,919.314598
163427.942822,-74.020594,-8882.471304,-76.609550
163427.943141,-2960.823768,-7179.997637,-2451.505594
163427.943461,-370.102971,-9030.512492,-76.609550
163427.943780,2886.803174,-11843.295072,3524.039291
163427.944099,2442.679609,-9844.739029,1915.238745
163427.944419,2294.638420,-10214.842000,1455.581446
163427.944738,222.061783,-9844.739029,536.266849
163427.945057,-3552.988522,-7772.162391,0.000000
163427.945377,-3552.988522,-8734.430116,-4366.744339
163427.945696,-4145.153275,-10140.821405,-3370.820191
163427.946015,-1924.535449,-12213.398043,-306.438199
163427.946335,-962.267725,-11843.295072,-76.609550
163427.946654,-74.020594,-7105.977043,-1915.238745
163427.946973,-148.041188,-7994.224174,919.314598
163427.947293,148.041188,-6809.894666,612.876398
163427.947612,222.061783,-6365.771101,766.095498
163427.947931,222.061783,-8438.347739,1072.533697
163427.948251,0.000000,-7920.203579,2604.724693
163427.948570,3182.885551,-8290.306550,2298.286494
163427.948889,1998.556043,-8142.265362,842.705048
163427.949209,0.000000,-7772.162391,0.000000
163427.949528,-1480.411884,-9844.739029,0.000000
163427.949847,-2442.679609,-8882.471304,-5209.449386
163427.950167,-3404.947333,-11843.295072,-4979.620737
163427.950486,-3256.906145,-13323.706956,-4290.134789
163427.950805,-1554.432478,-12213.398043,-2451.505594
163427.951125,1702.473667,-11695.253884,-76.609550
163427.951444,2442.679609,-9474.636058,1762.019645
163427.951763,1850.514855,-7105.977043,842.705048
163427.952083,0.000000,-4811.338623,0.000000
163427.952402,3478.967927,-8142.265362,2987.772442
163427.952721,592.164754,-5403.503377,3064.381992
163427.953041,2886.803174,-7179.997637,3294.210641
163427.953360,3404.947333,-8438.347739,3370.820191
163427.953679,2516.700203,-9400.615463,995.924147
163427.953999,0.000000,-9548.656652,-459.657299
163427.954318,-1258.350101,-12435.459826,-1608.800546
163427.954637,-4219.173869,-12213.398043,-3830.477490
163427.954957,-2442.679609,-14211.954086,-4060.306139
163427.955276,-3034.844362,-11769.274478,-3140.991542
163427.955595,-2072.576638,-10140.821405,-3677.258390
163427.955915,-74.020594,-8290.306550,-1915.238745
163427.956234,370.102971,-7476.080014,1149.143247
163427.956553,0.000000,-5847.626942,2068.457845
163427.956873,0.000000,-5995.668130,1225.752797
163427.957192,1406.391290,-8290.306550,2987.772442
163427.957511,2886.803174,-7698.141797,4213.525239
163427.957831,1184.329507,-7476.080014,3677.258390
163427.958150,-74.020594,-9178.553681,-76.609550
163427.958469,-1406.391290,-9474.636058,-1302.362347
163427.958789,-1850.514855,-10066.800811,-2528.115143
163427.959108,-5107.421000,-10732.986159,-5975.544884
163427.959427,-4145.153275,-12731.542202,-5515.887586
163427.959747,-2960.823768,-12139.377449,-3064.381992
163427.960066,-1258.350101,-11621.233289,-1608.800546
163427.960385,-74.020594,-9474.636058,-76.609550
163427.960705,0.000000,-8364.327145,0.000000
163427.961024,0.000000,-7179.997637,3370.820191
163427.961343,2738.761985,-6513.812290,3600.648841
163427.961663,1110.308913,-5921.647536,2374.896044
163427.961982,0.000000,-4811.338623,766.095498
163427.962301,4071.132681,-9178.553681,3600.648841
163427.962621,1776.494261,-8364.327145,2451.505594
163427.962940,-740.205942,-8808.450710,306.438199
163427.963259,-3034.844362,-10288.862594,-2681.334243
163427.963578,-4737.318029,-11029.068536,-1838.629195
163427.963898,-4219.173869,-11103.089130,-5362.668486
163427.964217,-3627.009116,-13027.624579,-4366.744339
163427.964536,-5255.462188,-10140.821405,-4903.011187
163427.964856,-2072.576638,-11029.068536,-1455.581446
163427.965175,2294.638420,-11843.295072,-76.609550
163427.965494,1850.514855,-8142.265362,1532.190996
163427.965814,3256.906145,-7698.141797,3064.381992
163427.966133,3330.926739,-6291.750507,2451.505594
163427.966452,2368.659014,-6661.853478,3600.648841
163427.966772,0.000000,-5995.668130,1838.629195
163427.967091,3034.844362,-8142.265362,2757.943793
163427.967410,2146.597232,-8512.368333,1149.143247
163427.967730,814.226536,-9030.512492,-1072.533697
163427.968049,-74.020594,-10362.883188,-2221.676944
163427.968368,-74.020594,-11769.274478,-2528.115143
163427.968688,-1850.514855,-12879.583391,-3907.087040
163427.969007,-2738.761985,-12731.542202,-2528.115143
163427.969326,-666.185348,-12731.542202,-3140.991542
163427.969646,296.082377,-11621.233289,1685.410096
163427.969965,0.000000,-7772.162391,0.000000
163427.970284,2368.659014,-8142.265362,2987.772442
163427.970604,2368.659014,-6217.729913,2911.162892
163427.970923,1554.432478,-6735.874072,2068.457845
163427.971242,962.267725,-7179.997637,2145.067394
163427.971562,1776.494261,-7920.203579,4519.963438
163427.971881,2294.638420,-8586.388927,3677.258390
163427.972200,2294.638420,-9474.636058,1149.143247
163427.972520,-666.185348,-9474.636058,-1302.362347
163427.972839,-1776.494261,-10881.027347,-383.047749
163427.973158,-3997.112087,-10140.821405,-4749.792088
163427.973478,-3923.091493,-13175.665768,-5209.449386
163427.973797,-3849.070898,-13915.871710,-4290.134789
163427.974116,-4219.173869,-12213.398043,-3677.258390
163427.974436,-4145.153275,-9548.656652,-4290.134789
163427.974755,-296.082377,-8364.327145,0.000000
163427.975074,1184.329507,-7772.162391,3753.867940
163427.975394,3182.885551,-6365.771101,3907.087040
163427.975713,1850.514855,-5773.606348,2374.896044
163427.976032,4145.153275,-9104.533087,6741.640382
163427.976352,3182.885551,-7105.977043,4366.744339
163427.976671,1776.494261,-7920.203579,2221.676944
163427.976990,-740.205942,-9178.553681,-689.485948
163427.977310,-4737.318029,-8364.327145,-4290.134789
163427.977629,-4737.318029,-10658.965565,-3753.867940
163427.977948,-4219.173869,-11991.336260,-6052.154434
163427.978268,-5329.482782,-13101.645173,-5592.497135
163427.978587,-7105.977043,-11325.150913,-4903.011187
163427.978906,-74.020594,-11843.295072,-1302.362347
163427.979226,296.082377,-9918.759623,1762.019645
163427.979545,1332.370696,-7624.121203,2068.457845
163427.979864,2146.597232,-5995.668130,2911.162892
163427.980184,1998.556043,-5329.482782,2221.676944
163427.980503,814.226536,-6291.750507,3217.601092
163427.980822,2220.617826,-8882.471304,3294.210641
163427.981142,148.041188,-7179.997637,842.705048
163427.981461,-2368.659014,-7772.162391,0.000000
163427.981780,-1776.494261,-11325.150913,-2145.067394
163427.982100,-1258.350101,-11251.130318,-4979.620737
163427.982419,-3034.844362,-11251.130318,-3677.258390
163427.982738,-3627.009116,-12583.501014,-4519.963438
163427.983058,-2516.700203,-11843.295072,-3677.258390
163427.983377,-666.185348,-11843.295072,-76.609550
163427.983696,1480.411884,-11621.233289,2604.724693
163427.984016,2886.803174,-8882.471304,2834.553343
163427.984335,4663.297435,-7105.977043,4826.401637
163427.984654,2368.659014,-3923.091493,2451.505594
163427.984973,592.164754,-5403.503377,1225.752797
163427.985293,1702.473667,-8734.430116,2374.896044
163427.985612,888.247130,-8734.430116,2604.724693
163427.985931,592.164754,-9252.574275,766.095498
163427.986251,-1036.288319,-9622.677246,-919.314598
163427.986570,-592.164754,-11769.274478,-76.609550
163427.986889,-2368.659014,-10140.821405,-4903.011187
163427.987209,-4737.318029,-10732.986159,-4596.572988
163427.987528,-2442.679609,-13471.748144,-4060.306139
163427.987847,-2738.761985,-13619.789333,-2528.115143
163427.988167,-4737.318029,-9548.656652,-2451.505594
163427.988486,-74.020594,-10066.800811,-76.609550
163427.988805,1776.494261,-9252.574275,2681.334243
163427.989125,2812.782580,-7031.956449,3370.820191
163427.989444,2294.638420,-6069.688724,1991.848295
163427.989763,2220.617826,-7254.018232,2604.724693
163427.990083,0.000000,-7179.997637,2451.505594
163427.990402,2886.803174,-9252.574275,2834.553343
163427.990721,2294.638420,-11843.295072,2374.896044
163427.991041,-74.020594,-10584.944971,-76.609550
163427.991360,-4737.318029,-8364.327145,-3677.258390
163427.991679,-2146.597232,-11547.212695,-2834.553343
163427.991999,-2516.700203,-11917.315666,-3140.991542
163427.992318,-2146.597232,-11547.212695,-2451.505594
163427.992637,-222.061783,-10066.800811,-1302.362347
163427.992957,-74.020594,-9474.636058,-76.609550
163427.993276,0.000000,-8364.327145,1532.190996
163427.993595,0.000000,-5403.503377,1838.629195
163427.993915,3997.112087,-7105.977043,2987.772442
163427.994234,1998.556043,-7846.182985,2834.553343
163427.994553,-2368.659014,-6735.874072,0.000000
163427.994873,-296.082377,-9104.533087,1455.581446
163427.995192,740.205942,-9696.697840,-76.609550
163427.995511,-1110.308913,-9770.718434,-1838.629195
163427.995831,-666.185348,-9474.636058,-3140.991542
163427.996150,-2368.659014,-8734.430116,-2834.553343
163427.996469,-3627.009116,-8216.285956,-5362.668486
163427.996789,-2368.659014,-11917.315666,-3064.381992
163427.997108,-740.205942,-11843.295072,-1302.362347
163427.997427,-3552.988522,-8364.327145,-2451.505594
163427.997747,962.267725,-10510.924376,1149.143247
163427.998066,2072.576638,-8882.471304,2221.676944
163427.998385,2886.803174,-7550.100608,2911.162892
163427.998705,2960.823768,-5181.441594,842.705048
163427.999024,1480.411884,-9104.533087,536.266849
163427.999343,0.000000,-8364.327145,2451.505594
163427.999663,2886.803174,-9474.636058,2987.772442
163427.999982,3478.967927,-10658.965565,2987.772442
163428.000301,222.061783,-8364.327145,-2145.067394
163428.000621,-74.020594,-8882.471304,-2221.676944
163428.000940,-1702.473667,-8808.450710,-2451.505594
163428.001259,-1998.556043,-11103.089130,-3677.258390
163428.001579,-2738.761985,-11843.295072,-3294.210641
163428.001898,-814.226536,-13471.748144,-76.609550
163428.002217,-1406.391290,-10288.862594,-229.828649
163428.002537,-222.061783,-10066.800811,-76.609550
163428.002856,-2368.659014,-6587.832884,0.000000
163428.003175,1406.391290,-8882.471304,1762.019645
163428.003495,-74.020594,-8290.306550,-689.485948
163428.003814,-1258.350101,-9252.574275,919.314598
163428.004133,74.020594,-8808.450710,1608.800546
163428.004453,592.164754,-8438.347739,1532.190996
163428.004772,814.226536,-8734.430116,842.705048
163428.005091,0.000000,-8364.327145,0.000000
163428.005411,-1258.350101,-8660.409521,-1378.971896
163428.005730,-2516.700203,-9770.718434,-3677.258390
163428.006049,-2368.659014,-11843.295072,-2987.772442
163428.006368,-1850.514855,-10658.965565,-2298.286494
163428.006688,-370.102971,-9844.739029,0.000000
163428.007007,-74.020594,-11843.295072,1762.019645
163428.007326,518.144159,-9474.636058,1608.800546
163428.007646,-2294.638420,-5995.668130,0.000000
163428.007965,1554.432478,-9474.636058,2374.896044
163428.008284,-2368.659014,-7772.162391,919.314598
163428.008604,222.061783,-8364.327145,2757.943793
163428.008923,1628.453072,-7550.100608,3370.820191
163428.009242,518.144159,-7105.977043,1608.800546
163428.009562,-1184.329507,-7476.080014,0.000000
163428.009881,-2516.700203,-7254.018232,-1762.019645
163428.010200,-2442.679609,-8734.430116,-2528.115143
163428.010520,-3627.009116,-8660.409521,-5822.325785
163428.010839,-4293.194464,-11325.150913,-4290.134789
163428.011158,-814.226536,-15100.201217,-689.485948
163428.011478,-3108.864956,-11325.150913,-2987.772442
163428.011797,-148.041188,-11103.089130,-766.095498
163428.012116,1480.411884,-9548.656652,383.047749
163428.012436,2368.659014,-7920.203579,1532.190996
163428.012755,592.164754,-7179.997637,612.876398
163428.013074,1924.535449,-8512.368333,2451.505594
163428.013394,4663.297435,-9474.636058,4826.401637
163428.013713,2812.782580,-6661.853478,1532.190996
163428.014032,1184.329507,-6883.915261,0.000000
163428.014352,2294.638420,-11251.130318,1762.019645
163428.014671,-888.247130,-9178.553681,-1532.190996
163428.014990,-666.185348,-9696.697840,-2145.067394
163428.015310,-1184.329507,-10881.027347,-3447.429741
163428.015629,-2368.659014,-11029.068536,-2451.505594
163428.015948,-2368.659014,-10881.027347,-1302.362347
163428.016268,-666.185348,-10584.944971,-689.485948
163428.016587,0.000000,-9548.656652,0.000000
163428.016906,2886.803174,-9252.574275,3217.601092
163428.017226,1110.308913,-5921.647536,-1302.362347
163428.017545,1110.308913,-8290.306550,1149.143247
163428.017864,-444.123565,-7698.141797,1225.752797
163428.018184,1258.350101,-8068.244768,1915.238745
163428.018503,1258.350101,-8364.327145,842.705048
163428.018822,-2368.659014,-8956.491898,0.000000
163428.019142,-2516.700203,-7179.997637,-1532.190996
163428.019461,-1776.494261,-7179.997637,-1838.629195
163428.019780,-4145.153275,-7179.997637,-4290.134789
163428.020100,-2812.782580,-10732.986159,-3907.087040
163428.020419,-2442.679609,-9918.759623,-4903.011187
163428.020738,-1036.288319,-11547.212695,-1225.752797
163428.021058,370.102971,-11621.233289,-306.438199
163428.021377,1480.411884,-10658.965565,459.657299
163428.021696,2220.617826,-9474.636058,-76.609550
163428.022016,2294.638420,-10658.965565,2374.896044
163428.022335,1110.308913,-9918.759623,1762.019645
163428.022654,2886.803174,-9474.636058,2987.772442
163428.022974,2368.659014,-7476.080014,4290.134789
163428.023293,2368.659014,-7179.997637,2451.505594
163428.023612,-666.185348,-6291.750507,76.609550
163428.023932,-962.267725,-7994.224174,766.095498
163428.024251,-1850.514855,-8512.368333,-995.924147
163428.024570,-3404.947333,-9030.512492,-2911.162892
163428.024890,-2442.679609,-13027.624579,-1915.238745
163428.025209,-2442.679609,-12657.521608,-2145.067394
163428.025528,-1776.494261,-12287.418637,-689.485948
163428.025848,-1850.514855,-10955.047942,-1302.362347
163428.026167,-2812.782580,-8734.430116,-1302.362347
163428.026486,-4441.235652,-7179.997637,0.000000
163428.026806,-3330.926739,-7698.141797,-1991.848295
163428.027125,-1332.370696,-9696.697840,842.705048
163428.027444,1258.350101,-9030.512492,2911.162892
163428.027763,2072.576638,-7994.224174,2528.115143
163428.028083,2886.803174,-9474.636058,2834.553343
163428.028402,0.000000,-5995.668130,0.000000
163428.028721,296.082377,-8512.368333,229.828649
163428.029041,-74.020594,-11251.130318,-76.609550
163428.029360,-370.102971,-11843.295072,-1608.800546
163428.029679,-2368.659014,-10732.986159,0.000000
163428.029999,-1258.350101,-11621.233289,-2221.676944
163428.030318,-814.226536,-11399.171507,-1302.362347
163428.030637,0.000000,-10362.883188,-612.876398
163428.030957,-888.247130,-7179.997637,-1915.238745
163428.031276,-814.226536,-7402.059420,-1608.800546
163428.031595,-2368.659014,-8956.491898,0.000000
163428.031915,296.082377,-8956.491898,3677.258390
163428.032234,3478.967927,-8290.306550,3600.648841
163428.032553,3182.885551,-9474.636058,4826.401637
163428.032873,0.000000,-7179.997637,2451.505594
163428.033192,518.144159,-7031.956449,1149.143247
163428.033511,-1184.329507,-6513.812290,-1225.752797
163428.033830,-2442.679609,-8882.471304,-4060.306139
163428.034150,-4071.132681,-9548.656652,-6128.763984
163428.034469,-3108.864956,-11399.171507,-2528.115143
163428.034788,-1850.514855,-10510.924376,-3447.429741
163428.035108,-2368.659014,-11029.068536,-2451.505594
163428.035427,1110.308913,-11695.253884,-153.219100
163428.035746,0.000000,-7772.162391,-1838.629195
163428.036066,518.144159,-8808.450710,-229.828649
163428.036385,1406.391290,-9844.739029,1915.238745
163428.036704,3627.009116,-8882.471304,4136.915689
163428.037024,4145.153275,-7179.997637,3064.381992
163428.037343,5255.462188,-9474.636058,3677.258390
163428.037662,3108.864956,-8290.306550,4290.134789
163428.037982,2146.597232,-7105.977043,-76.609550
163428.038301,-1406.391290,-8290.306550,-3140.991542
163428.038620,-4737.318029,-9548.656652,-6128.763984
163428.038940,-4663.297435,-11251.130318,-4903.011187
163428.039259,-2442.679609,-12361.439231,-2604.724693
163428.039578,-1702.473667,-11843.295072,-1378.971896
163428.039897,-518.144159,-10807.006753,-536.266849
163428.040217,2294.638420,-10658.965565,-76.609550
163428.040536,-1184.329507,-8438.347739,-383.047749
163428.040855,-962.267725,-7920.203579,689.485948
163428.041175,1480.411884,-8364.327145,4903.011187
163428.041494,4663.297435,-8290.306550,4519.963438
163428.041813,1406.391290,-5255.462188,0.000000
163428.042133,1332.370696,-8290.306550,1915.238745
163428.042452,-814.226536,-7994.224174,-153.219100
163428.042771,-2590.720797,-8512.368333,-3217.601092
163428.043091,-3849.070898,-9696.697840,-5592.497135
163428.043410,-4737.318029,-13101.645173,-3524.039291
163428.043729,-2590.720797,-12287.418637,-3217.601092
163428.044049,-666.185348,-11843.295072,-1378.971896
163428.044368,148.041188,-11103.089130,-153.219100
163428.044687,0.000000,-8364.327145,-1072.533697
163428.045007,-1480.411884,-7179.997637,0.000000
163428.045326,-74.020594,-7105.977043,-76.609550
163428.045645,0.000000,-8068.244768,2451.505594
163428.045965,1776.494261,-7179.997637,4903.011187
163428.046284,4663.297435,-9474.636058,4826.401637
163428.046603,1776.494261,-7772.162391,3064.381992
163428.046922,-666.185348,-7402.059420,0.000000
163428.047242,-2146.597232,-8586.388927,-1762.019645
163428.047561,-3478.967927,-9104.533087,-4596.572988
163428.047880,-4737.318029,-9844.739029,-5515.887586
163428.048200,-5181.441594,-11621.233289,-4903.011187
163428.048519,-2442.679609,-11843.295072,-1302.362347
163428.048838,-74.020594,-11251.130318,-1302.362347
163428.049158,0.000000,-8956.491898,0.000000
163428.049477,2294.638420,-9474.636058,-76.609550
163428.049796,-1184.329507,-7328.038826,0.000000
163428.050116,370.102971,-8142.265362,1149.143247
163428.050435,2294.638420,-8586.388927,3600.648841
163428.050754,3552.988522,-8808.450710,6052.154434
163428.051074,2960.823768,-8364.327145,3677.258390
163428.051393,1998.556043,-9474.636058,1838.629195
163428.051712,-74.020594,-9474.636058,-689.485948
163428.052032,-2738.761985,-8142.265362,-3830.477490
163428.052351,-2960.823768,-9548.656652,-6128.763984
163428.052670,-666.185348,-11843.295072,-3753.867940
163428.052989,-2368.659014,-11251.130318,-1991.848295
163428.053309,-1036.288319,-10881.027347,-383.047749
163428.053628,592.164754,-9548.656652,919.314598
163428.053947,2368.659014,-8956.491898,3677.258390
163428.054267,1184.329507,-5995.668130,383.047749
163428.054586,592.164754,-7624.121203,2374.896044
163428.054905,1554.432478,-8586.388927,2068.457845
163428.055225,1776.494261,-7476.080014,1225.752797
163428.055544,1184.329507,-7328.038826,1225.752797
163428.055863,1702.473667,-9474.636058,536.266849
163428.056183,-592.164754,-9030.512492,-1072.533697
163428.056502,-2294.638420,-8734.430116,-2145.067394
163428.056821,-3404.947333,-9104.533087,-3907.087040
163428.057141,-4737.318029,-10955.047942,-4749.792088
163428.057460,-2442.679609,-11251.130318,-3140.991542
163428.057779,-2072.576638,-9696.697840,-1685.410096
163428.058099,0.000000,-8364.327145,0.000000
163428.058418,1702.473667,-10288.862594,2068.457845
163428.058737,0.000000,-5995.668130,0.000000
163428.059056,814.226536,-7105.977043,842.705048
163428.059376,-370.102971,-8660.409521,0.000000
163428.059695,222.061783,-10214.842000,1532.190996
163428.060014,1702.473667,-10066.800811,2374.896044
163428.060334,2886.803174,-10658.965565,2068.457845
163428.060653,222.061783,-9474.636058,-76.609550
163428.060972,-2146.597232,-7846.182985,-2528.115143
163428.061292,-3552.988522,-7179.997637,-2451.505594
163428.061611,-2368.659014,-8660.409521,-1838.629195
163428.061930,-4145.153275,-8364.327145,-3370.820191
163428.062250,-814.226536,-9992.780217,-229.828649
163428.062569,222.061783,-9400.615463,1149.143247
163428.062888,740.205942,-8512.368333,1225.752797
163428.063208,2294.638420,-8882.471304,2374.896044
163428.063527,1998.556043,-8882.471304,612.876398
163428.063846,2294.638420,-9474.636058,-76.609550
163428.064166,-1554.432478,-9326.594869,-1455.581446
163428.064485,-1480.411884,-9548.656652,-1838.629195
163428.064804,296.082377,-10732.986159,2451.505594
163428.065123,-1702.473667,-9252.574275,-995.924147
163428.065443,-1184.329507,-9992.780217,-919.314598
163428.065762,-1332.370696,-8512.368333,-1532.190996
163428.066081,-1702.473667,-8364.327145,-2528.115143
163428.066401,-74.020594,-10362.883188,-2528.115143
163428.066720,0.000000,-10732.986159,0.000000
163428.067039,2886.803174,-10362.883188,1149.143247
163428.067359,1924.535449,-7772.162391,0.000000
163428.067678,1184.329507,-9548.656652,2451.505594
163428.067997,1924.535449,-9252.574275,2451.505594
163428.068317,518.144159,-8216.285956,-689.485948
163428.068636,296.082377,-10140.821405,-1455.581446
163428.068955,370.102971,-11621.233289,383.047749
163428.069275,0.000000,-9548.656652,0.000000
163428.069594,0.000000,-9548.656652,0.000000
163428.069913,296.082377,-9992.780217,995.924147
163428.070233,-1184.329507,-7179.997637,612.876398
163428.070552,-74.020594,-8142.265362,-76.609550
163428.070871,-1258.350101,-7105.977043,-689.485948
163428.071191,-1776.494261,-9992.780217,-459.657299
163428.071510,-1332.370696,-9252.574275,-459.657299
163428.071829,-740.205942,-9326.594869,459.657299
163428.072148,-592.164754,-9844.739029,-536.266849
163428.072468,-3256.906145,-7328.038826,-2451.505594
163428.072787,-1924.535449,-8660.409521,-2145.067394
163428.073106,-3923.091493,-7772.162391,-3677.258390
163428.073426,-592.164754,-12435.459826,459.657299
163428.073745,814.226536,-11843.295072,842.705048
163428.074064,3478.967927,-10658.965565,2987.772442
163428.074384,0.000000,-9252.574275,1838.629195
163428.074703,74.020594,-8586.388927,536.266849
163428.075022,148.041188,-7550.100608,766.095498
163428.075342,0.000000,-7402.059420,-76.609550
163428.075661,-2960.823768,-7179.997637,-3370.820191
163428.075980,-74.020594,-10658.965565,-1302.362347
163428.076300,-1776.494261,-8956.491898,0.000000
163428.076619,-1036.288319,-9548.656652,-2451.505594
163428.076938,-3552.988522,-10658.965565,229.828649
163428.077258,-2812.782580,-10140.821405,-306.438199
163428.077577,-5255.462188,-8734.430116,-2145.067394
163428.077896,-6365.771101,-9992.780217,-2221.676944
163428.078215,-5625.565159,-10881.027347,0.000000
163428.078535,-5921.647536,-7179.997637,0.000000
163428.078854,-3552.988522,-7624.121203,1378.971896
163428.079173,-3182.885551,-9474.636058,1608.800546
163428.079493,-3034.844362,-8290.306550,2374.896044
163428.079812,-3478.967927,-4885.359217,766.095498
163428.080131,-3552.988522,-7179.997637,1838.629195
163428.080451,-8290.306550,-7772.162391,-5515.887586
163428.080770,-7920.203579,-12435.459826,-3830.477490
163428.081089,-7772.162391,-12287.418637,-2374.896044
163428.081409,-8660.409521,-11547.212695,-2451.505594
163428.081728,-7179.997637,-10658.965565,-3140.991542
163428.082047,-5033.400406,-10066.800811,-766.095498
163428.082367,-962.267725,-7698.141797,2757.943793
163428.082686,-592.164754,-5699.585753,3294.210641
163428.083005,-2146.597232,-7698.141797,3600.648841
163428.083325,-3256.906145,-7772.162391,1455.581446
163428.083644,-4737.318029,-8956.491898,0.000000
163428.083963,-3034.844362,-12287.418637,1149.143247
163428.084282,-7920.203579,-10658.965565,-76.609550
163428.084602,-9474.636058,-9548.656652,-3677.258390
163428.084921,-5995.668130,-9474.636058,-3753.867940
163428.085240,-3627.009116,-10955.047942,-612.876398
163428.085560,-3182.885551,-9770.718434,2298.286494
163428.085879,-3108.864956,-6291.750507,1838.629195
163428.086198,-2960.823768,-4737.318029,-689.485948
163428.086518,-3034.844362,-7105.977043,-3753.867940
163428.086837,-3256.906145,-10732.986159,-1838.629195
163428.087156,-4737.318029,-9548.656652,0.000000
163428.087476,-3404.947333,-11917.315666,3140.991542
163428.087795,-7105.977043,-7772.162391,0.000000
163428.088114,-4885.359217,-8734.430116,-3447.429741
163428.088434,-3330.926739,-9474.636058,-1915.238745
163428.088753,666.185348,-10140.821405,842.705048
163428.089072,1258.350101,-9992.780217,2987.772442
163428.089392,-74.020594,-8586.388927,2374.896044
163428.089711,-3330.926739,-6365.771101,-1225.752797
163428.090030,-5921.647536,-4811.338623,-4903.011187
163428.090350,-2072.576638,-8512.368333,-3524.039291
163428.090669,-1406.391290,-11177.109724,-2528.115143
163428.090988,-4737.318029,-10732.986159,0.000000
163428.091307,-3034.844362,-13471.748144,-306.438199
163428.091627,-3108.864956,-13027.624579,612.876398
163428.091946,-2590.720797,-11177.109724,1455.581446
163428.092265,-1332.370696,-7031.956449,995.924147
163428.092585,-74.020594,-4737.318029,2068.457845
163428.092904,1110.308913,-4589.276840,995.924147
163428.093223,0.000000,-5107.421000,1685.410096
163428.093543,-1184.329507,-7772.162391,0.000000
163428.093862,-1776.494261,-10881.027347,3294.210641
163428.094181,-6513.812290,-9696.697840,-2451.505594
163428.094501,-6439.791695,-11399.171507,-3064.381992
163428.094820,-7105.977043,-10881.027347,-3064.381992
163428.095139,-6513.812290,-9844.739029,-2145.067394
163428.095459,-2442.679609,-8882.471304,-1915.238745
163428.095778,-222.061783,-9104.533087,-153.219100
163428.096097,-666.185348,-7105.977043,-1302.362347
163428.096417,-2442.679609,-9474.636058,-76.609550
163428.096736,-4959.379811,-10362.883188,-2221.676944
163428.097055,-4811.338623,-15100.201217,2068.457845
163428.097374,-6143.709319,-12287.418637,1378.971896
163428.097694,-4145.153275,-11103.089130,3370.820191
163428.098013,-2738.761985,-8660.409521,4060.306139
163428.098332,-1924.535449,-5477.523971,2451.505594
163428.098652,-2368.659014,-3034.844362,0.000000
163428.098971,-3256.906145,-5107.421000,-1838.629195
163428.099290,-5329.482782,-6587.832884,-3677.258390
163428.099610,-5107.421000,-10658.965565,-3753.867940
163428.099929,-7179.997637,-11103.089130,-5592.497135
163428.100248,-3923.091493,-15396.283594,-2528.115143
163428.100568,-4367.215058,-12805.562797,-919.314598
163428.100887,-2294.638420,-12509.480420,1991.848295
163428.101206,-814.226536,-10288.862594,3753.867940
163428.101526,0.000000,-7476.080014,3677.258390
163428.101845,-2368.659014,-7179.997637,3217.601092
163428.102164,-3256.906145,-5403.503377,1838.629195
163428.102484,-4441.235652,-5995.668130,1225.752797
163428.102803,-4959.379811,-7254.018232,-2451.505594
163428.103122,-5403.503377,-9178.553681,-4060.306139
163428.103441,-5551.544565,-10658.965565,-2681.334243
