#time,accel_x,accel_y,accel_z
59515.614819,0.000000,-8956.491898,1225.752797
59515.615128,-74.020594,-9474.636058,1149.143247
59515.615438,592.164754,-10436.903782,2451.505594
59515.615748,2294.638420,-11251.130318,2374.896044
59515.616058,-296.082377,-9622.677246,1225.752797
59515.616368,74.020594,-9400.615463,842.705048
59515.616678,-74.020594,-9400.615463,766.095498
59515.616987,-370.102971,-9030.512492,842.705048
59515.617297,-666.185348,-8142.265362,842.705048
59515.617607,-74.020594,-8882.471304,-76.609550
59515.617917,-2368.659014,-7772.162391,0.000000
59515.618227,296.082377,-10066.800811,2987.772442
59515.618536,-2294.638420,-7179.997637,-919.314598
59515.618846,592.164754,-10362.883188,2221.676944
59515.619156,0.000000,-9252.574275,1378.971896
59515.619466,0.000000,-9104.533087,995.924147
59515.619776,-444.123565,-8882.471304,612.876398
59515.620085,-444.123565,-9030.512492,383.047749
59515.620395,-74.020594,-8290.306550,1762.019645
59515.620705,-74.020594,-9474.636058,-76.609550
59515.621015,-2368.659014,-7179.997637,0.000000
59515.621325,518.144159,-9992.780217,2221.676944
59515.621634,-3552.988522,-5995.668130,0.000000
59515.621944,1184.329507,-10955.047942,3140.991542
59515.622254,-1184.329507,-8364.327145,612.876398
59515.622564,-222.061783,-9104.533087,842.705048
59515.622874,-370.102971,-9178.553681,842.705048
59515.623184,-222.061783,-8956.491898,612.876398
59515.623493,-74.020594,-9474.636058,1455.581446
59515.623803,2294.638420,-11251.130318,2374.896044
59515.624113,-2368.659014,-7179.997637,0.000000
59515.624423,592.164754,-10436.903782,2374.896044
59515.624733,-3256.906145,-7179.997637,0.000000
59515.625042,0.000000,-10140.821405,3064.381992
59515.625352,-1184.329507,-8068.244768,383.047749
59515.625662,-370.102971,-9178.553681,536.266849
59515.625972,148.041188,-9030.512492,689.485948
59515.626282,-148.041188,-9104.533087,919.314598
59515.626591,-74.020594,-10658.965565,1532.190996
59515.626901,0.000000,-9548.656652,1532.190996
59515.627211,-74.020594,-9474.636058,1149.143247
59515.627521,-2294.638420,-7772.162391,612.876398
59515.627831,-74.020594,-8290.306550,-76.609550
59515.628140,-2368.659014,-7772.162391,1225.752797
59515.628450,-888.247130,-8364.327145,153.219100
59515.628760,-888.247130,-8660.409521,766.095498
59515.629070,-444.123565,-8956.491898,612.876398
59515.629380,-296.082377,-9030.512492,995.924147
59515.629689,592.164754,-10288.862594,1378.971896
59515.629999,-1184.329507,-8364.327145,459.657299
59515.630309,1110.308913,-10362.883188,2068.457845
59515.630619,-1776.494261,-7772.162391,0.000000
59515.630929,-74.020594,-10658.965565,-76.609550
59515.631239,-2368.659014,-7179.997637,0.000000
59515.631548,-74.020594,-9104.533087,842.705048
59515.631858,-444.123565,-8808.450710,459.657299
59515.632168,-296.082377,-9178.553681,842.705048
59515.632478,-74.020594,-9030.512492,995.924147
59515.632788,0.000000,-8364.327145,1378.971896
59515.633097,0.000000,-8364.327145,306.438199
59515.633407,1702.473667,-10658.965565,2068.457845
59515.633717,-888.247130,-7179.997637,-2298.286494
59515.634027,888.247130,-10288.862594,2911.162892
59515.634337,-1702.473667,-7179.997637,0.000000
59515.634646,-74.020594,-9326.594869,842.705048
59515.634956,-296.082377,-9178.553681,536.266849
59515.635266,0.000000,-9104.533087,1072.533697
59515.635576,-370.102971,-9178.553681,766.095498
59515.635886,0.000000,-7772.162391,612.876398
59515.636195,-2368.659014,-7772.162391,0.000000
59515.636505,814.226536,-10362.883188,1991.848295
59515.636815,-740.205942,-8364.327145,0.000000
59515.637125,1702.473667,-11547.212695,2374.896044
59515.637435,-666.185348,-7698.141797,-1149.143247
59515.637745,0.000000,-9178.553681,919.314598
59515.638054,-74.020594,-9474.636058,842.705048
59515.638364,-296.082377,-8808.450710,766.095498
59515.638674,0.000000,-9104.533087,459.657299
59515.638984,-1776.494261,-8290.306550,995.924147
59515.639294,-814.226536,-8290.306550,153.219100
59515.639603,0.000000,-8364.327145,612.876398
59515.639913,-74.020594,-8956.491898,0.000000
59515.640223,2294.638420,-10955.047942,2987.772442
59515.640533,2294.638420,-8290.306550,-76.609550
59515.640843,740.205942,-8660.409521,1225.752797
59515.641152,1184.329507,-8882.471304,995.924147
59515.641462,1480.411884,-8882.471304,536.266849
59515.641772,1406.391290,-8808.450710,383.047749
59515.642082,1110.308913,-8734.430116,1149.143247
59515.642392,3182.885551,-9474.636058,536.266849
59515.642701,1480.411884,-8364.327145,612.876398
59515.643011,4071.132681,-9474.636058,-76.609550
59515.643321,3108.864956,-10140.821405,1838.629195
59515.643631,4663.297435,-11251.130318,-76.609550
59515.643941,2368.659014,-8956.491898,306.438199
59515.644251,3775.050304,-9178.553681,1149.143247
59515.644560,4589.276840,-9178.553681,1378.971896
59515.644870,5181.441594,-8808.450710,1455.581446
59515.645180,7031.956449,-9474.636058,2987.772442
59515.645490,7031.956449,-9474.636058,1762.019645
59515.645800,4737.318029,-7179.997637,0.000000
59515.646109,6587.832884,-9474.636058,-76.609550
59515.646419,4737.318029,-8364.327145,0.000000
59515.646729,8216.285956,-10658.965565,1762.019645
59515.647039,5181.441594,-8660.409521,0.000000
59515.647349,5773.606348,-9474.636058,153.219100
59515.647658,5255.462188,-10584.944971,-536.266849
59515.647968,4515.256246,-11473.192101,-229.828649
59515.648278,5255.462188,-13323.706956,1149.143247
59515.648588,4071.132681,-13619.789333,1149.143247
59515.648898,666.185348,-9548.656652,-1072.533697
59515.649207,3182.885551,-10362.883188,-76.609550
59515.649517,2368.659014,-6587.832884,1225.752797
59515.649827,5033.400406,-6809.894666,3907.087040
59515.650137,5477.523971,-3701.029710,2145.067394
59515.650447,7402.059420,-4219.173869,2911.162892
59515.650757,9326.594869,-5033.400406,3064.381992
59515.651066,9326.594869,-7105.977043,2757.943793
59515.651376,7105.977043,-10732.986159,1225.752797
59515.651686,2812.782580,-15396.283594,-76.609550
59515.651996,-3034.844362,-16728.654289,-4826.401637
59515.652306,-5921.647536,-15470.304188,-4903.011187
59515.652615,-1850.514855,-15988.448347,-1608.800546
59515.652925,-3552.988522,-10140.821405,-1225.752797
59515.653235,-1702.473667,-8068.244768,229.828649
59515.653545,2146.597232,-4663.297435,2604.724693
59515.653855,5329.482782,-4885.359217,4979.620737
59515.654164,4959.379811,-3849.070898,5515.887586
59515.654474,2960.823768,-3627.009116,3677.258390
59515.654784,1480.411884,-3775.050304,3830.477490
59515.655094,2886.803174,-4441.235652,3600.648841
59515.655404,0.000000,-3034.844362,0.000000
59515.655713,4589.276840,-7698.141797,1608.800546
59515.656023,0.000000,-12213.398043,-1225.752797
59515.656333,-3034.844362,-16358.551318,-2834.553343
59515.656643,-6735.874072,-19615.457463,-4060.306139
59515.656953,-6957.935855,-17172.777854,-3830.477490
59515.657263,-5033.400406,-11177.109724,-3830.477490
59515.657572,-2072.576638,-5403.503377,-1838.629195
59515.657882,1184.329507,-3627.009116,2451.505594
59515.658192,6069.688724,-5329.482782,7277.907231
59515.658502,4071.132681,-1924.535449,3064.381992
59515.658812,6513.812290,-4811.338623,6741.640382
59515.659121,8734.430116,-2294.638420,5515.887586
59515.659431,9696.697840,-4293.194464,6358.592633
59515.659741,5403.503377,-5625.565159,3294.210641
59515.660051,888.247130,-11103.089130,76.609550
59515.660361,-1406.391290,-16506.592507,-2528.115143
59515.660670,-2590.720797,-15766.386565,-5439.278036
59515.660980,-3701.029710,-15100.201217,-5745.716235
59515.661290,-5921.647536,-13693.809927,-8580.269578
59515.661600,-2960.823768,-14063.912898,-2145.067394
59515.661910,1110.308913,-9474.636058,-1915.238745
59515.662219,6513.812290,-3034.844362,2757.943793
59515.662529,12953.603985,-1406.391290,6818.249932
59515.662839,13989.892304,-962.267725,7814.174080
59515.663149,12879.583391,-4145.153275,7354.516781
59515.663459,10807.006753,-6883.915261,5745.716235
59515.663769,5921.647536,-7698.141797,2374.896044
59515.664078,-2368.659014,-8364.327145,-4596.572988
59515.664388,-2072.576638,-12509.480420,-4903.011187
59515.664698,-74.020594,-17764.942608,-3753.867940
59515.665008,-1480.411884,-11621.233289,-6052.154434
59515.665318,1998.556043,-10362.883188,-3677.258390
59515.665627,3923.091493,-8586.388927,-612.876398
59515.665937,1702.473667,-10436.903782,153.219100
59515.666247,3182.885551,-7920.203579,1072.533697
59515.666557,7328.038826,-5329.482782,3907.087040
59515.666867,8216.285956,-5921.647536,4826.401637
59515.667176,6439.791695,-4441.235652,2068.457845
59515.667486,3923.091493,-4885.359217,-76.609550
59515.667796,7698.141797,-8364.327145,4290.134789
59515.668106,7031.956449,-10362.883188,2374.896044
59515.668416,-74.020594,-12583.501014,-1455.581446
59515.668725,-3404.947333,-14434.015869,-3370.820191
59515.669035,-2368.659014,-14804.118840,-3677.258390
59515.669345,-2072.576638,-13323.706956,-1608.800546
59515.669655,-444.123565,-10066.800811,1149.143247
59515.669965,5255.462188,-9474.636058,2987.772442
59515.670275,9400.615463,-5625.565159,3907.087040
59515.670584,6883.915261,-5329.482782,2374.896044
59515.670894,3552.988522,-7772.162391,4903.011187
59515.671204,2294.638420,-7031.956449,1762.019645
59515.671514,2442.679609,-7105.977043,-76.609550
59515.671824,1184.329507,-8512.368333,0.000000
59515.672133,1406.391290,-11325.150913,536.266849
59515.672443,296.082377,-11103.089130,-689.485948
59515.672753,-740.205942,-12287.418637,-1532.190996
59515.673063,-666.185348,-16062.468941,-842.705048
59515.673373,-1258.350101,-13619.789333,-76.609550
59515.673682,0.000000,-9474.636058,-76.609550
59515.673992,2368.659014,-5995.668130,1838.629195
59515.674302,7031.956449,-8142.265362,4826.401637
59515.674612,7550.100608,-4737.318029,5439.278036
59515.674922,4293.194464,-5477.523971,3370.820191
59515.675231,1702.473667,-7846.182985,1608.800546
59515.675541,2886.803174,-8216.285956,842.705048
59515.675851,3182.885551,-9474.636058,612.876398
59515.676161,592.164754,-11325.150913,1225.752797
59515.676471,-3849.070898,-10658.965565,-1915.238745
59515.676781,-1850.514855,-14211.954086,-2528.115143
59515.677090,0.000000,-8364.327145,-2834.553343
59515.677400,3404.947333,-11251.130318,2604.724693
59515.677710,6365.771101,-7105.977043,3294.210641
59515.678020,4663.297435,-7476.080014,2681.334243
59515.678330,6291.750507,-6661.853478,2834.553343
59515.678639,4737.318029,-7920.203579,1991.848295
59515.678949,2886.803174,-8660.409521,306.438199
59515.679259,2368.659014,-6587.832884,612.876398
59515.679569,3849.070898,-10732.986159,2451.505594
59515.679879,4663.297435,-14211.954086,4213.525239
59515.680188,-2960.823768,-9548.656652,-1762.019645
59515.680498,0.000000,-10732.986159,153.219100
59515.680808,2960.823768,-11029.068536,1072.533697
59515.681118,4663.297435,-6513.812290,1455.581446
59515.681428,2516.700203,-8808.450710,1532.190996
59515.681737,3404.947333,-5477.523971,-306.438199
59515.682047,2738.761985,-7772.162391,-1991.848295
59515.682357,2664.741391,-8364.327145,0.000000
59515.682667,5625.565159,-9400.615463,1838.629195
59515.682977,4663.297435,-11843.295072,-76.609550
59515.683287,0.000000,-9548.656652,0.000000
59515.683596,2590.720797,-13619.789333,-76.609550
59515.683906,2442.679609,-12509.480420,612.876398
59515.684216,3108.864956,-9474.636058,842.705048
59515.684525,2294.638420,-10362.883188,766.095498
59515.684835,2072.576638,-6069.688724,-153.219100
59515.685144,1998.556043,-8660.409521,842.705048
59515.685454,5921.647536,-4811.338623,2145.067394
59515.685763,8808.450710,-7994.224174,5745.716235
59515.686073,4663.297435,-5329.482782,842.705048
59515.686382,2368.659014,-8364.327145,1225.752797
59515.686692,222.061783,-10362.883188,-689.485948
59515.687002,2368.659014,-7179.997637,0.000000
59515.687311,2294.638420,-11843.295072,-76.609550
59515.687621,666.185348,-10140.821405,-2451.505594
59515.687930,1036.288319,-12657.521608,-919.314598
59515.688240,4515.256246,-11251.130318,1302.362347
59515.688549,2664.741391,-9548.656652,1225.752797
59515.688859,592.164754,-7772.162391,1838.629195
59515.689168,-74.020594,-7994.224174,-689.485948
59515.689478,-2368.659014,-9548.656652,1225.752797
59515.689787,3478.967927,-8290.306550,2068.457845
59515.690097,0.000000,-8660.409521,1225.752797
59515.690407,2664.741391,-7105.977043,1991.848295
59515.690716,1332.370696,-9548.656652,2451.505594
59515.691026,1924.535449,-7846.182985,3677.258390
59515.691335,222.061783,-9548.656652,2834.553343
59515.691645,-3552.988522,-7476.080014,383.047749
59515.691954,-7698.141797,-9548.656652,-2451.505594
59515.692264,-5699.585753,-13249.686362,1608.800546
59515.692573,-4219.173869,-7105.977043,-2528.115143
59515.692883,-5921.647536,-8364.327145,0.000000
59515.693192,-4071.132681,-4811.338623,-1225.752797
59515.693502,-2738.761985,-9918.759623,1762.019645
59515.693812,0.000000,-7105.977043,2451.505594
59515.694121,-2220.617826,-8512.368333,2298.286494
59515.694431,-4811.338623,-8068.244768,1149.143247
59515.694740,-6883.915261,-8290.306550,-689.485948
59515.695050,-4737.318029,-8956.491898,0.000000
59515.695359,-1776.494261,-9548.656652,3524.039291
59515.695669,-2442.679609,-8290.306550,-76.609550
59515.695978,-3552.988522,-6587.832884,306.438199
59515.696288,-1258.350101,-10066.800811,612.876398
59515.696597,1184.329507,-7476.080014,2911.162892
59515.696907,-2294.638420,-9622.677246,2374.896044
59515.697217,-5403.503377,-7105.977043,-1149.143247
59515.697526,-6365.771101,-10214.842000,-1225.752797
59515.697836,-3627.009116,-8586.388927,-76.609550
59515.698145,-1924.535449,-6883.915261,-383.047749
59515.698455,-888.247130,-8216.285956,2757.943793
59515.698764,-74.020594,-8882.471304,-76.609550
59515.699074,-2368.659014,-9844.739029,306.438199
59515.699383,2886.803174,-10066.800811,0.000000
59515.699693,592.164754,-11325.150913,2834.553343
59515.700002,370.102971,-7920.203579,842.705048
59515.700312,-1554.432478,-10066.800811,0.000000
59515.700622,0.000000,-7254.018232,536.266849
59515.700931,2294.638420,-8882.471304,-76.609550
59515.701241,1406.391290,-6365.771101,0.000000
59515.701550,1480.411884,-8660.409521,1225.752797
59515.701860,5847.626942,-11251.130318,-76.609550
59515.702169,2960.823768,-6587.832884,612.876398
59515.702479,4071.132681,-11103.089130,842.705048
59515.702788,-444.123565,-9548.656652,-766.095498
59515.703098,-1924.535449,-12361.439231,-2451.505594
59515.703407,1554.432478,-11325.150913,-766.095498
59515.703717,2812.782580,-10807.006753,2911.162892
59515.704027,4663.297435,-9474.636058,3294.210641
59515.704336,2294.638420,-9474.636058,1149.143247
59515.704646,2368.659014,-6587.832884,0.000000
59515.704955,8216.285956,-9474.636058,3600.648841
59515.705265,592.164754,-6587.832884,1378.971896
59515.705574,-74.020594,-7698.141797,-76.609550
59515.705884,-1184.329507,-10732.986159,-689.485948
59515.706193,2220.617826,-8216.285956,0.000000
59515.706503,148.041188,-9622.677246,612.876398
59515.706812,0.000000,-8808.450710,612.876398
59515.707122,666.185348,-11103.089130,1225.752797
59515.707432,1702.473667,-11843.295072,-76.609550
59515.707741,592.164754,-10066.800811,536.266849
59515.708051,0.000000,-8364.327145,3677.258390
59515.708360,-2442.679609,-8290.306550,-76.609550
59515.708670,-2442.679609,-9252.574275,-76.609550
59515.708979,-1480.411884,-6661.853478,0.000000
59515.709289,148.041188,-7105.977043,1991.848295
59515.709598,-962.267725,-5921.647536,1149.143247
59515.709908,-1998.556043,-8956.491898,0.000000
59515.710217,1184.329507,-9548.656652,1225.752797
59515.710527,2294.638420,-11843.295072,3447.429741
59515.710837,-2738.761985,-9548.656652,0.000000
59515.711146,-3627.009116,-11843.295072,-76.609550
59515.711456,-7105.977043,-9844.739029,-3370.820191
59515.711765,-2072.576638,-9474.636058,1149.143247
59515.712075,-2368.659014,-9770.718434,2068.457845
59515.712384,-814.226536,-7105.977043,1608.800546
59515.712694,-148.041188,-8956.491898,2298.286494
59515.713003,2664.741391,-5625.565159,1225.752797
59515.713313,0.000000,-7179.997637,3064.381992
59515.713622,-1628.453072,-9104.533087,2834.553343
59515.713932,-5699.585753,-7179.997637,-3907.087040
59515.714242,-2960.823768,-11251.130318,306.438199
59515.714551,-370.102971,-9178.553681,-689.485948
59515.714861,-1184.329507,-11473.192101,4366.744339
59515.715170,222.061783,-8438.347739,689.485948
59515.715480,0.000000,-11251.130318,2068.457845
59515.715789,3108.864956,-8364.327145,2374.896044
59515.716099,740.205942,-10140.821405,2451.505594
59515.716408,-2368.659014,-5995.668130,0.000000
59515.716718,-4367.215058,-10140.821405,-612.876398
59515.717027,-1554.432478,-9474.636058,-1302.362347
59515.717337,1184.329507,-8364.327145,2451.505594
59515.717647,3478.967927,-7994.224174,3294.210641
59515.717956,0.000000,-7179.997637,1225.752797
59515.718266,814.226536,-10955.047942,842.705048
59515.718575,4071.132681,-9030.512492,1532.190996
59515.718885,1184.329507,-10732.986159,2757.943793
59515.719194,-740.205942,-7994.224174,-1302.362347
59515.719504,-5329.482782,-11029.068536,-4903.011187
59515.719813,-1776.494261,-10140.821405,-1532.190996
59515.720123,2886.803174,-9474.636058,-76.609550
59515.720432,1776.494261,-7179.997637,3677.258390
59515.720742,3182.885551,-8290.306550,2374.896044
59515.721052,2072.576638,-8364.327145,3064.381992
59515.721361,5847.626942,-7105.977043,3447.429741
59515.721671,2516.700203,-9474.636058,4290.134789
59515.721980,-1332.370696,-6291.750507,-766.095498
59515.722290,-4071.132681,-10658.965565,-1302.362347
59515.722599,-1554.432478,-7772.162391,-4673.182538
59515.722909,-1776.494261,-10140.821405,-1225.752797
59515.723218,1924.535449,-11547.212695,3447.429741
59515.723528,-666.185348,-11547.212695,-1302.362347
59515.723837,0.000000,-9548.656652,766.095498
59515.724147,2960.823768,-7772.162391,2451.505594
59515.724457,2368.659014,-8882.471304,4060.306139
59515.724766,-888.247130,-6439.791695,153.219100
59515.725076,-4219.173869,-10362.883188,-612.876398
59515.725385,962.267725,-7698.141797,-689.485948
59515.725695,1110.308913,-9474.636058,1149.143247
59515.726004,0.000000,-5403.503377,153.219100
59515.726314,-74.020594,-11769.274478,2374.896044
59515.726623,2294.638420,-9474.636058,-76.609550
59515.726933,1184.329507,-8364.327145,2451.505594
59515.727242,0.000000,-7772.162391,2451.505594
59515.727552,-3701.029710,-9622.677246,-612.876398
59515.727862,-5329.482782,-11251.130318,-2145.067394
59515.728171,-2146.597232,-9104.533087,-1762.019645
59515.728481,-1998.556043,-11843.295072,1762.019645
59515.728790,-74.020594,-6513.812290,-76.609550
59515.729100,-3182.885551,-8216.285956,76.609550
59515.729409,5329.482782,-8068.244768,6128.763984
59515.729719,4663.297435,-7105.977043,4213.525239
59515.730028,0.000000,-5995.668130,3677.258390
59515.730338,-5033.400406,-6661.853478,-1608.800546
59515.730647,-5107.421000,-11251.130318,-1378.971896
59515.730957,-2516.700203,-10362.883188,-1532.190996
59515.731267,-2590.720797,-11177.109724,995.924147
59515.731576,-1258.350101,-10510.924376,-76.609550
59515.731886,-666.185348,-13027.624579,-76.609550
59515.732195,1406.391290,-7402.059420,229.828649
59515.732505,0.000000,-7179.997637,2451.505594
59515.732814,3404.947333,-8290.306550,5439.278036
59515.733124,-1998.556043,-8290.306550,-1225.752797
59515.733433,-3627.009116,-7994.224174,-1608.800546
59515.733743,-1776.494261,-8660.409521,0.000000
59515.734052,-1406.391290,-8808.450710,1532.190996
59515.734362,-1628.453072,-7179.997637,-689.485948
59515.734672,-666.185348,-12065.356855,1072.533697
59515.734981,5255.462188,-11843.295072,3600.648841
59515.735291,4071.132681,-11251.130318,4213.525239
59515.735600,-1554.432478,-5995.668130,76.609550
59515.735910,-4737.318029,-10732.986159,-919.314598
59515.736219,-2442.679609,-9992.780217,-3140.991542
59515.736529,-370.102971,-9474.636058,-76.609550
59515.736838,-1036.288319,-7550.100608,1532.190996
59515.737148,-1406.391290,-6957.935855,-306.438199
59515.737457,222.061783,-9104.533087,689.485948
59515.737767,5921.647536,-6291.750507,3677.258390
59515.738077,6809.894666,-11473.192101,7890.783629
59515.738386,3478.967927,-7698.141797,3600.648841
59515.738696,-4589.276840,-8364.327145,-3294.210641
59515.739005,-1776.494261,-10732.986159,-612.876398
59515.739315,-666.185348,-10658.965565,-1302.362347
59515.739624,-666.185348,-9474.636058,-76.609550
59515.739934,-3256.906145,-9918.759623,-2068.457845
59515.740243,-370.102971,-9918.759623,0.000000
59515.740553,4441.235652,-7624.121203,2681.334243
59515.740862,2368.659014,-7772.162391,4903.011187
59515.741172,0.000000,-6291.750507,3064.381992
59515.741482,-1850.514855,-11251.130318,-76.609550
59515.741791,-3552.988522,-5403.503377,-3677.258390
59515.742101,444.123565,-10955.047942,2145.067394
59515.742410,-1850.514855,-7105.977043,-689.485948
59515.742720,-74.020594,-12435.459826,-76.609550
59515.743029,3552.988522,-7402.059420,1532.190996
59515.743339,5033.400406,-10140.821405,3830.477490
59515.743648,3775.050304,-8216.285956,3600.648841
59515.743958,-2368.659014,-9548.656652,0.000000
59515.744267,-2368.659014,-9548.656652,0.000000
59515.744577,-2072.576638,-10807.006753,0.000000
59515.744887,-74.020594,-11251.130318,-76.609550
59515.745196,-4441.235652,-7179.997637,0.000000
59515.745506,-74.020594,-9474.636058,-76.609550
59515.745815,3330.926739,-9474.636058,2681.334243
59515.746125,3478.967927,-8216.285956,4136.915689
59515.746434,2368.659014,-7624.121203,4136.915689
59515.746744,-888.247130,-9030.512492,1685.410096
59515.747053,-4145.153275,-8364.327145,-1838.629195
59515.747363,-3552.988522,-7179.997637,0.000000
59515.747672,-1776.494261,-10436.903782,1532.190996
59515.747982,-74.020594,-9474.636058,-76.609550
59515.748292,-3552.988522,-9548.656652,0.000000
59515.748601,2886.803174,-11843.295072,3600.648841
59515.748911,2664.741391,-8956.491898,4903.011187
59515.749220,1554.432478,-7105.977043,3830.477490
59515.749530,-2516.700203,-8142.265362,0.000000
59515.749839,-2960.823768,-9844.739029,0.000000
59515.750149,-1850.514855,-7624.121203,-1302.362347
59515.750458,-5921.647536,-7772.162391,0.000000
59515.750768,-4737.318029,-7179.997637,0.000000
59515.751077,-2442.679609,-11843.295072,-76.609550
59515.751387,0.000000,-7179.997637,1838.629195
59515.751697,6439.791695,-11843.295072,7277.907231
59515.752006,2368.659014,-6143.709319,4290.134789
59515.752316,-2072.576638,-8808.450710,612.876398
59515.752625,-2072.576638,-8734.430116,-612.876398
59515.752935,-1184.329507,-8882.471304,-306.438199
59515.753244,-2442.679609,-9474.636058,-383.047749
59515.753554,-5107.421000,-5921.647536,-3600.648841
59515.753863,-3552.988522,-10140.821405,-2451.505594
59515.754173,6439.791695,-10658.965565,3600.648841
59515.754482,2368.659014,-8290.306550,2145.067394
59515.754792,2960.823768,-7476.080014,4596.572988
59515.755102,-3552.988522,-9548.656652,0.000000
59515.755411,-518.144159,-9992.780217,-229.828649
59515.755721,-148.041188,-10881.027347,842.705048
59515.756030,-1924.535449,-9326.594869,1072.533697
59515.756340,-666.185348,-9178.553681,-76.609550
59515.756649,-74.020594,-9178.553681,-76.609550
59515.756959,3552.988522,-5995.668130,0.000000
59515.757268,7031.956449,-11251.130318,6052.154434
59515.757578,740.205942,-4811.338623,459.657299
59515.757887,-2368.659014,-9548.656652,0.000000
59515.758197,-2220.617826,-8956.491898,-2145.067394
59515.758507,-1776.494261,-10807.006753,-612.876398
59515.758816,-2664.741391,-9770.718434,-1225.752797
59515.759126,-2738.761985,-9844.739029,-2374.896044
59515.759435,1110.308913,-13027.624579,-76.609550
59515.759745,5847.626942,-9474.636058,2374.896044
59515.760054,2072.576638,-7402.059420,1762.019645
59515.760364,4145.153275,-7179.997637,4596.572988
59515.760673,74.020594,-7550.100608,689.485948
59515.760983,0.000000,-6291.750507,612.876398
59515.761292,-1776.494261,-8364.327145,0.000000
59515.761602,-2664.741391,-8438.347739,0.000000
59515.761912,-3108.864956,-10140.821405,-1378.971896
59515.762221,-1036.288319,-10732.986159,-306.438199
59515.762531,3404.947333,-11251.130318,3600.648841
59515.762840,4663.297435,-11843.295072,4213.525239
59515.763150,-1258.350101,-6513.812290,-76.609550
59515.763459,-4737.318029,-9548.656652,0.000000
59515.763769,2294.638420,-9474.636058,1762.019645
59515.764078,-4145.153275,-7179.997637,0.000000
59515.764388,-2146.597232,-7402.059420,-76.609550
59515.764697,-2960.823768,-9844.739029,0.000000
59515.765007,1406.391290,-8586.388927,1455.581446
59515.765317,3256.906145,-7698.141797,2681.334243
59515.765626,1776.494261,-8364.327145,4903.011187
59515.765936,-74.020594,-9474.636058,2374.896044
59515.766245,-1258.350101,-11843.295072,-76.609550
59515.766555,-4737.318029,-8364.327145,-2451.505594
59515.766864,-4441.235652,-12879.583391,842.705048
59515.767174,-5699.585753,-8734.430116,-2834.553343
59515.767483,-2442.679609,-11251.130318,-689.485948
59515.767793,592.164754,-7920.203579,1608.800546
59515.768102,2960.823768,-7476.080014,3677.258390
59515.768412,2812.782580,-5995.668130,4596.572988
59515.768722,592.164754,-5995.668130,2451.505594
59515.769031,592.164754,-10881.027347,3370.820191
59515.769341,1702.473667,-9474.636058,-76.609550
59515.769650,-4737.318029,-7772.162391,0.000000
59515.769960,-2442.679609,-9474.636058,-1302.362347
59515.770269,-4885.359217,-10288.862594,-3830.477490
59515.770579,1702.473667,-11103.089130,-76.609550
59515.770888,1998.556043,-11547.212695,1762.019645
59515.771198,1998.556043,-8364.327145,2451.505594
59515.771507,-666.185348,-8882.471304,842.705048
59515.771817,-2368.659014,-7179.997637,0.000000
59515.772127,296.082377,-7772.162391,1225.752797
59515.772436,-74.020594,-11843.295072,4826.401637
59515.772746,-2442.679609,-5995.668130,-995.924147
59515.773055,0.000000,-9548.656652,1532.190996
59515.773365,4663.297435,-8290.306550,2374.896044
59515.773674,3775.050304,-9474.636058,4136.915689
59515.773984,1110.308913,-7698.141797,2374.896044
59515.774293,-2146.597232,-9770.718434,-306.438199
59515.774603,-888.247130,-9918.759623,-306.438199
59515.774912,-2368.659014,-8364.327145,-2451.505594
59515.775222,-4441.235652,-9548.656652,0.000000
59515.775532,-3552.988522,-10732.986159,0.000000
59515.775841,-3627.009116,-10658.965565,-2528.115143
59515.776151,1480.411884,-9252.574275,766.095498
59515.776460,4071.132681,-11251.130318,4826.401637
59515.776770,2590.720797,-6587.832884,3370.820191
59515.777079,-296.082377,-8956.491898,1838.629195
59515.777389,518.144159,-7846.182985,1149.143247
59515.777698,-1776.494261,-8216.285956,0.000000
59515.778008,-4071.132681,-9548.656652,0.000000
59515.778317,-3997.112087,-4811.338623,-2451.505594
59515.778627,-592.164754,-13249.686362,3830.477490
59515.778937,4071.132681,-5921.647536,-76.609550
59515.779246,0.000000,-10140.821405,3217.601092
59515.779556,4071.132681,-8290.306550,4213.525239
59515.779865,-2368.659014,-10732.986159,306.438199
59515.780175,-444.123565,-8586.388927,-153.219100
59515.780484,-1258.350101,-10362.883188,-229.828649
59515.780794,-2146.597232,-9104.533087,229.828649
59515.781103,-2738.761985,-8586.388927,-4060.306139
59515.781413,-4737.318029,-8956.491898,-2221.676944
59515.781722,1998.556043,-11103.089130,2834.553343
59515.782032,222.061783,-9548.656652,1838.629195
59515.782342,3478.967927,-7105.977043,3907.087040
59515.782651,-74.020594,-11029.068536,4213.525239
59515.782961,1184.329507,-5995.668130,1225.752797
59515.783273,1184.329507,-9474.636058,2451.505594
59515.783583,-1110.308913,-8068.244768,919.314598
59515.783893,-4515.256246,-10510.924376,-1532.190996
59515.784202,-74.020594,-11547.212695,-1302.362347
59515.784512,2294.638420,-7994.224174,-76.609550
59515.784822,0.000000,-7179.997637,612.876398
59515.785132,-296.082377,-8512.368333,1378.971896
59515.785441,-1258.350101,-10066.800811,-76.609550
59515.785751,2516.700203,-9400.615463,2451.505594
59515.786061,666.185348,-9992.780217,1991.848295
59515.786371,-1702.473667,-8956.491898,2298.286494
59515.786680,-3034.844362,-11103.089130,-995.924147
59515.786990,666.185348,-8586.388927,383.047749
59515.787300,2590.720797,-7550.100608,76.609550
59515.787610,0.000000,-4811.338623,1532.190996
59515.787920,-592.164754,-8660.409521,2451.505594
59515.788229,-74.020594,-9474.636058,-76.609550
59515.788539,0.000000,-7476.080014,0.000000
59515.788849,-74.020594,-11843.295072,4213.525239
59515.789159,-4145.153275,-8364.327145,-1225.752797
59515.789468,-3775.050304,-11843.295072,-1915.238745
59515.789778,518.144159,-9474.636058,-306.438199
59515.790088,2220.617826,-10436.903782,2298.286494
59515.790398,2294.638420,-7994.224174,2681.334243
59515.790707,-1850.514855,-6143.709319,0.000000
59515.791017,-3552.988522,-7179.997637,0.000000
59515.791327,4071.132681,-10658.965565,3294.210641
59515.791637,-2072.576638,-7772.162391,1378.971896
59515.791947,-1776.494261,-8956.491898,1378.971896
59515.792256,-5329.482782,-10436.903782,-2451.505594
59515.792566,296.082377,-9548.656652,-536.266849
59515.792876,518.144159,-10807.006753,2374.896044
59515.793186,-592.164754,-7254.018232,1762.019645
59515.793495,-666.185348,-9474.636058,-76.609550
59515.793805,-74.020594,-7698.141797,-995.924147
59515.794115,0.000000,-5995.668130,0.000000
59515.794425,296.082377,-9696.697840,3677.258390
59515.794734,-2442.679609,-7698.141797,-1455.581446
59515.795044,-4145.153275,-10732.986159,0.000000
59515.795354,592.164754,-8364.327145,306.438199
59515.795664,2072.576638,-10214.842000,3140.991542
59515.795973,1406.391290,-6291.750507,2068.457845
59515.796283,-1554.432478,-9252.574275,-76.609550
59515.796593,2886.803174,-9474.636058,-76.609550
59515.796903,2886.803174,-10658.965565,1762.019645
59515.797213,-2960.823768,-5995.668130,0.000000
59515.797522,-1036.288319,-10584.944971,689.485948
59515.797832,-1850.514855,-11251.130318,-995.924147
59515.798142,0.000000,-9548.656652,1225.752797
59515.798452,-296.082377,-9326.594869,2374.896044
59515.798761,-1110.308913,-7105.977043,1302.362347
59515.799071,-1258.350101,-9178.553681,612.876398
59515.799381,2220.617826,-7105.977043,842.705048
59515.799691,4219.173869,-10658.965565,4826.401637
59515.800000,-74.020594,-9474.636058,4213.525239
59515.800310,-1554.432478,-9474.636058,-1302.362347
59515.800620,-3552.988522,-9548.656652,0.000000
59515.800930,2886.803174,-11843.295072,2374.896044
59515.801239,0.000000,-7179.997637,1532.190996
59515.801549,-666.185348,-6957.935855,-76.609550
59515.801859,-1258.350101,-10881.027347,153.219100
59515.802169,2516.700203,-7772.162391,1149.143247
59515.802479,1776.494261,-9992.780217,3217.601092
59515.802788,1036.288319,-9474.636058,3524.039291
59515.803098,-666.185348,-11251.130318,1455.581446
59515.803408,-1258.350101,-9178.553681,-1915.238745
59515.803718,592.164754,-8660.409521,1838.629195
59515.804027,1110.308913,-9178.553681,2987.772442
59515.804337,-4145.153275,-4811.338623,0.000000
59515.804647,-1554.432478,-10066.800811,-383.047749
59515.804957,740.205942,-8216.285956,229.828649
59515.805266,518.144159,-10066.800811,2681.334243
59515.805576,-962.267725,-8068.244768,612.876398
59515.805886,-4145.153275,-11029.068536,766.095498
59515.806196,-962.267725,-11399.171507,306.438199
59515.806506,2294.638420,-11843.295072,-76.609550
59515.806815,-1924.535449,-7179.997637,919.314598
59515.807125,-1776.494261,-7772.162391,919.314598
59515.807435,-3627.009116,-7550.100608,-2528.115143
59515.807745,1110.308913,-8882.471304,1455.581446
59515.808054,2590.720797,-8290.306550,2987.772442
59515.808364,-148.041188,-8290.306550,1608.800546
59515.808674,-2960.823768,-10584.944971,-842.705048
59515.808984,-1776.494261,-10140.821405,0.000000
59515.809293,2368.659014,-10881.027347,1225.752797
59515.809603,3478.967927,-10658.965565,3600.648841
59515.809913,-3997.112087,-7179.997637,-1838.629195
59515.810223,-1184.329507,-10362.883188,1149.143247
59515.810532,3478.967927,-8290.306550,842.705048
59515.810842,3256.906145,-9474.636058,4213.525239
59515.811152,-1258.350101,-7031.956449,536.266849
59515.811462,-3478.967927,-9696.697840,-1072.533697
59515.811772,814.226536,-9844.739029,-689.485948
59515.812081,0.000000,-8364.327145,1225.752797
59515.812391,0.000000,-7179.997637,0.000000
59515.812701,-74.020594,-10658.965565,2221.676944
59515.813011,-74.020594,-8290.306550,-1302.362347
59515.813320,1184.329507,-9548.656652,0.000000
59515.813630,2886.803174,-11843.295072,2374.896044
59515.813940,-962.267725,-9030.512492,-76.609550
59515.814250,-5107.421000,-12435.459826,-1762.019645
59515.814559,1406.391290,-10658.965565,153.219100
59515.814869,2590.720797,-8882.471304,3294.210641
59515.815179,0.000000,-5403.503377,1225.752797
59515.815489,-2960.823768,-4811.338623,-2221.676944
59515.815798,0.000000,-9548.656652,1838.629195
59515.816108,4663.297435,-7105.977043,2374.896044
59515.816418,0.000000,-9844.739029,4443.353888
59515.816728,-74.020594,-9474.636058,-76.609550
59515.817038,-2960.823768,-12509.480420,-842.705048
59515.817347,1406.391290,-9474.636058,-689.485948
59515.817657,0.000000,-12213.398043,1915.238745
59515.817967,-2516.700203,-6809.894666,459.657299
59515.818277,-4737.318029,-9548.656652,-2757.943793
59515.818586,-1702.473667,-7179.997637,-2528.115143
59515.818896,0.000000,-7179.997637,1225.752797
59515.819206,2294.638420,-8882.471304,4213.525239
59515.819516,-2072.576638,-5995.668130,2221.676944
59515.819825,2294.638420,-11843.295072,2374.896044
59515.820135,1480.411884,-8364.327145,1532.190996
59515.820445,-296.082377,-9696.697840,2528.115143
59515.820755,-2442.679609,-7624.121203,0.000000
59515.821065,-3775.050304,-10066.800811,-1149.143247
59515.821374,1110.308913,-7698.141797,-1915.238745
59515.821684,-814.226536,-9474.636058,-76.609550
59515.821994,-3552.988522,-5995.668130,612.876398
59515.822304,-1258.350101,-11843.295072,-76.609550
59515.822613,-2886.803174,-8364.327145,-2451.505594
59515.822923,1406.391290,-12731.542202,3907.087040
59515.823233,-1776.494261,-8956.491898,2451.505594
59515.823543,-1628.453072,-7698.141797,842.705048
59515.823852,-1554.432478,-9548.656652,459.657299
59515.824162,2294.638420,-7476.080014,995.924147
59515.824472,2294.638420,-8882.471304,2374.896044
59515.824782,-74.020594,-6513.812290,-76.609550
59515.825091,-4737.318029,-8364.327145,0.000000
59515.825401,1110.308913,-11843.295072,1072.533697
59515.825711,518.144159,-9548.656652,-1302.362347
59515.826021,0.000000,-11325.150913,4290.134789
59515.826331,-3552.988522,-8068.244768,-1225.752797
59515.826640,-2368.659014,-9844.739029,-612.876398
59515.826950,1332.370696,-8142.265362,612.876398
59515.827260,222.061783,-8734.430116,2987.772442
59515.827570,2294.638420,-7105.977043,2374.896044
59515.827879,-74.020594,-11843.295072,2374.896044
59515.828189,592.164754,-6143.709319,0.000000
59515.828499,2590.720797,-11251.130318,3830.477490
59515.828809,-1184.329507,-7328.038826,0.000000
59515.829118,-4145.153275,-9548.656652,612.876398
59515.829428,-3478.967927,-9992.780217,-1378.971896
59515.829738,592.164754,-8956.491898,0.000000
59515.830048,222.061783,-9252.574275,2374.896044
59515.830358,592.164754,-7105.977043,919.314598
59515.830667,1998.556043,-11843.295072,2374.896044
59515.830977,4663.297435,-11843.295072,3600.648841
59515.831287,-74.020594,-8882.471304,995.924147
59515.831597,-1776.494261,-7772.162391,1225.752797
59515.831906,-2516.700203,-8956.491898,-3140.991542
59515.832216,-2368.659014,-7772.162391,0.000000
59515.832526,1110.308913,-8290.306550,536.266849
59515.832836,666.185348,-8660.409521,2145.067394
59515.833145,148.041188,-7179.997637,76.609550
59515.833455,-296.082377,-11473.192101,919.314598
59515.833765,3182.885551,-11695.253884,2451.505594
59515.834075,1184.329507,-12805.562797,4596.572988
59515.834384,-2368.659014,-7179.997637,-1225.752797
59515.834694,-2442.679609,-11251.130318,-76.609550
59515.835004,-2738.761985,-7476.080014,-3677.258390
59515.835314,-1776.494261,-7179.997637,0.000000
59515.835624,2294.638420,-7105.977043,2604.724693
59515.835933,1036.288319,-6809.894666,1302.362347
59515.836243,444.123565,-9252.574275,1225.752797
59515.836553,1332.370696,-8808.450710,1072.533697
59515.836863,-1480.411884,-11029.068536,2451.505594
59515.837172,-2368.659014,-9548.656652,612.876398
59515.837482,-3627.009116,-12435.459826,-1915.238745
59515.837792,-2368.659014,-8364.327145,-1838.629195
59515.838102,1998.556043,-11843.295072,3600.648841
59515.838411,0.000000,-5995.668130,0.000000
59515.838721,1110.308913,-8290.306550,1149.143247
59515.839031,1480.411884,-9252.574275,2374.896044
59515.839341,3849.070898,-8660.409521,2451.505594
59515.839650,740.205942,-9918.759623,2681.334243
59515.839960,-2368.659014,-7772.162391,0.000000
59515.840270,-4737.318029,-9548.656652,0.000000
59515.840580,-74.020594,-9474.636058,-76.609550
59515.840890,-1776.494261,-8364.327145,0.000000
59515.841199,2294.638420,-9474.636058,3600.648841
59515.841509,-666.185348,-8290.306550,-1455.581446
59515.841819,962.267725,-10732.986159,1991.848295
59515.842129,2294.638420,-9030.512492,2221.676944
59515.842438,-814.226536,-9770.718434,2298.286494
59515.842748,-3034.844362,-8068.244768,-536.266849
59515.843058,-6513.812290,-8956.491898,-1838.629195
59515.843368,-3552.988522,-5403.503377,0.000000
59515.843677,2886.803174,-10658.965565,3600.648841
59515.843987,592.164754,-4293.194464,536.266849
59515.844297,1110.308913,-11547.212695,3294.210641
59515.844607,2294.638420,-8882.471304,-76.609550
59515.844917,1480.411884,-10436.903782,2451.505594
59515.845226,0.000000,-9696.697840,1838.629195
59515.845536,-2664.741391,-8660.409521,-612.876398
59515.845846,-4219.173869,-11621.233289,-919.314598
59515.846156,-2368.659014,-6587.832884,-2221.676944
59515.846465,-4589.276840,-5995.668130,0.000000
59515.846775,2886.803174,-8290.306550,3600.648841
59515.847085,-74.020594,-7550.100608,995.924147
59515.847395,0.000000,-7179.997637,2451.505594
59515.847704,4663.297435,-10658.965565,2374.896044
59515.848014,-2368.659014,-8364.327145,0.000000
59515.848324,-4959.379811,-9104.533087,-1915.238745
59515.848634,-4589.276840,-10732.986159,-2145.067394
59515.848943,-814.226536,-9548.656652,-1225.752797
59515.849253,-666.185348,-8882.471304,229.828649
59515.849563,-2220.617826,-4811.338623,-2145.067394
59515.849873,0.000000,-11325.150913,2757.943793
59515.850183,4663.297435,-9474.636058,2987.772442
59515.850492,0.000000,-7179.997637,1225.752797
59515.850802,3478.967927,-9474.636058,3600.648841
59515.851112,-3108.864956,-8216.285956,0.000000
59515.851422,-2886.803174,-9844.739029,-1149.143247
59515.851731,-296.082377,-9030.512492,-306.438199
59515.852041,-666.185348,-9252.574275,1149.143247
59515.852351,-74.020594,-7994.224174,-76.609550
59515.852661,-666.185348,-10510.924376,-383.047749
59515.852970,592.164754,-7179.997637,0.000000
59515.853280,2368.659014,-11177.109724,4826.401637
59515.853590,-2442.679609,-6291.750507,-689.485948
59515.853900,-2812.782580,-10955.047942,-76.609550
59515.854209,-2368.659014,-8956.491898,-2145.067394
59515.854519,888.247130,-9400.615463,612.876398
59515.854829,1184.329507,-8068.244768,2068.457845
59515.855139,296.082377,-6661.853478,689.485948
59515.855449,-74.020594,-10658.965565,2374.896044
59515.855758,4663.297435,-7105.977043,-76.609550
59515.856068,0.000000,-9548.656652,3064.381992
59515.856378,-74.020594,-9474.636058,1762.019645
59515.856688,-7105.977043,-7772.162391,-2451.505594
59515.856997,-1628.453072,-11621.233289,-76.609550
59515.857307,-1258.350101,-9770.718434,0.000000
59515.857617,-1110.308913,-8660.409521,995.924147
59515.857927,-1924.535449,-7846.182985,-383.047749
59515.858236,-74.020594,-10362.883188,1608.800546
59515.858546,6439.791695,-8290.306550,4519.963438
59515.858856,4663.297435,-11843.295072,6052.154434
59515.859166,-2960.823768,-4811.338623,0.000000
59515.859476,-3627.009116,-11103.089130,-76.609550
59515.859785,-3552.988522,-7772.162391,0.000000
59515.860095,0.000000,-11325.150913,2451.505594
59515.860405,-1406.391290,-8882.471304,689.485948
59515.860715,-4737.318029,-8512.368333,-1991.848295
59515.861024,-222.061783,-11177.109724,1838.629195
59515.861334,6587.832884,-6143.709319,3140.991542
59515.861644,4145.153275,-13027.624579,6665.030833
59515.861954,-74.020594,-7994.224174,2068.457845
59515.862263,-5995.668130,-11547.212695,-2221.676944
59515.862573,0.000000,-7179.997637,0.000000
59515.862883,-74.020594,-13027.624579,2374.896044
59515.863193,-3552.988522,-7179.997637,1532.190996
59515.863502,-1998.556043,-8586.388927,-919.314598
59515.863812,2146.597232,-9104.533087,1991.848295
59515.864122,5329.482782,-9104.533087,2528.115143
59515.864432,0.000000,-9992.780217,3447.429741
59515.864742,-3256.906145,-7772.162391,-919.314598
59515.865051,-3627.009116,-14730.098246,-76.609550
59515.865361,-666.185348,-8290.306550,-1915.238745
59515.865671,-2072.576638,-11325.150913,2451.505594
59515.865981,-74.020594,-7105.977043,-76.609550
59515.866290,-2960.823768,-7179.997637,0.000000
59515.866600,4515.256246,-7846.182985,2528.115143
59515.866910,4663.297435,-8290.306550,3983.696590
59515.867220,1110.308913,-8216.285956,3140.991542
59515.867529,-3404.947333,-7698.141797,-612.876398
59515.867839,-5329.482782,-11917.315666,-3064.381992
59515.868149,-1184.329507,-11325.150913,0.000000
59515.868459,-666.185348,-10658.965565,-76.609550
59515.868768,-2960.823768,-5995.668130,0.000000
59515.869078,1702.473667,-11843.295072,2987.772442
59515.869388,3849.070898,-5403.503377,2604.724693
59515.869698,6957.935855,-9474.636058,5209.449386
59515.870008,2220.617826,-7846.182985,2757.943793
59515.870317,-4219.173869,-9104.533087,-1838.629195
59515.870627,-4737.318029,-11843.295072,-2374.896044
59515.870937,-2368.659014,-9548.656652,-1838.629195
59515.871247,-2368.659014,-9548.656652,1225.752797
59515.871556,-74.020594,-8142.265362,-76.609550
59515.871866,-1702.473667,-7772.162391,0.000000
59515.872176,6809.894666,-9252.574275,5132.839837
59515.872486,3775.050304,-7476.080014,4903.011187
59515.872795,592.164754,-7550.100608,2221.676944
59515.873105,-5107.421000,-8364.327145,-1762.019645
59515.873415,-4885.359217,-11621.233289,-2298.286494
59515.873725,-1776.494261,-9992.780217,-689.485948
59515.874035,-2960.823768,-7179.997637,0.000000
59515.874344,-4737.318029,-5107.421000,0.000000
59515.874654,-74.020594,-11103.089130,1915.238745
59515.874964,4071.132681,-6439.791695,-383.047749
59515.875274,2368.659014,-10732.986159,4903.011187
59515.875583,518.144159,-7105.977043,0.000000
59515.875893,-3849.070898,-10214.842000,-766.095498
59515.876203,-2442.679609,-10510.924376,-995.924147
59515.876513,-370.102971,-9918.759623,766.095498
59515.876822,-74.020594,-8882.471304,2528.115143
59515.877132,-2368.659014,-5477.523971,0.000000
59515.877442,0.000000,-7179.997637,0.000000
59515.877752,5847.626942,-8290.306550,4136.915689
59515.878061,3182.885551,-8882.471304,2987.772442
59515.878371,-3552.988522,-5995.668130,0.000000
59515.878681,-3034.844362,-10955.047942,-3294.210641
59515.878991,-2368.659014,-10732.986159,-2145.067394
59515.879301,-1850.514855,-11399.171507,-459.657299
59515.879610,-2368.659014,-8734.430116,0.000000
59515.879920,-2294.638420,-9178.553681,-76.609550
59515.880230,370.102971,-8882.471304,2068.457845
59515.880540,3552.988522,-5403.503377,1532.190996
59515.880849,5477.523971,-9178.553681,7354.516781
59515.881159,1702.473667,-5773.606348,0.000000
59515.881469,-2368.659014,-10436.903782,1378.971896
59515.881779,-74.020594,-10066.800811,-1608.800546
59515.882088,-2294.638420,-10732.986159,459.657299
59515.882398,-1924.535449,-8438.347739,-383.047749
59515.882708,-2812.782580,-9474.636058,-1302.362347
59515.883018,1480.411884,-9030.512492,1762.019645
59515.883327,2886.803174,-9474.636058,2987.772442
59515.883637,518.144159,-7105.977043,1455.581446
59515.883947,-1924.535449,-7772.162391,76.609550
59515.884257,-2738.761985,-10658.965565,-2528.115143
59515.884566,-2368.659014,-9548.656652,0.000000
59515.884876,-74.020594,-11843.295072,2374.896044
59515.885186,-1702.473667,-6291.750507,153.219100
59515.885496,-1554.432478,-9104.533087,536.266849
59515.885805,2960.823768,-7179.997637,612.876398
59515.886115,4293.194464,-9474.636058,4903.011187
59515.886425,3478.967927,-8290.306550,4213.525239
59515.886735,-1850.514855,-6513.812290,-689.485948
59515.887044,-3552.988522,-10732.986159,0.000000
59515.887354,-74.020594,-10658.965565,-1302.362347
59515.887664,-3552.988522,-10732.986159,0.000000
59515.887974,-1554.432478,-8882.471304,-76.609550
59515.888283,-3552.988522,-9548.656652,-1225.752797
59515.888593,1702.473667,-8364.327145,1685.410096
59515.888903,2664.741391,-9548.656652,3447.429741
59515.889213,888.247130,-6587.832884,2451.505594
59515.889522,-74.020594,-9474.636058,2374.896044
59515.889832,3478.967927,-9474.636058,2068.457845
59515.890142,0.000000,-7476.080014,1225.752797
59515.890452,-74.020594,-9474.636058,2374.896044
59515.890761,-6217.729913,-5995.668130,-3064.381992
59515.891071,-2368.659014,-11843.295072,1762.019645
59515.891381,1702.473667,-9622.677246,842.705048
59515.891691,1702.473667,-10288.862594,3294.210641
59515.892000,148.041188,-7105.977043,689.485948
59515.892310,-2294.638420,-8512.368333,-1838.629195
59515.892620,-74.020594,-10658.965565,612.876398
59515.892930,-74.020594,-12435.459826,1762.019645
59515.893239,-4071.132681,-7846.182985,-1915.238745
59515.893549,-2146.597232,-11843.295072,-76.609550
59515.893859,-2072.576638,-7772.162391,0.000000
59515.894169,4145.153275,-9326.594869,4443.353888
59515.894478,5551.544565,-9474.636058,4826.401637
59515.894788,4145.153275,-7698.141797,3064.381992
59515.895098,0.000000,-9030.512492,1608.800546
59515.895408,-1110.308913,-9548.656652,-1838.629195
59515.895718,-1776.494261,-10140.821405,1225.752797
59515.896027,-1850.514855,-11769.274478,1455.581446
59515.896337,-2442.679609,-8882.471304,-1915.238745
59515.896647,-3552.988522,-9548.656652,0.000000
59515.896957,4663.297435,-10362.883188,3600.648841
59515.897266,2442.679609,-9474.636058,4826.401637
59515.897576,370.102971,-6365.771101,919.314598
59515.897886,-2294.638420,-9474.636058,459.657299
59515.898196,-1702.473667,-9400.615463,-689.485948
59515.898505,-2294.638420,-9548.656652,-2298.286494
59515.898815,-2368.659014,-9622.677246,383.047749
59515.899125,-74.020594,-10658.965565,-76.609550
59515.899435,0.000000,-8660.409521,1378.971896
59515.899744,7031.956449,-10658.965565,6052.154434
59515.900054,1110.308913,-7624.121203,2374.896044
59515.900364,148.041188,-5995.668130,1225.752797
59515.900674,-962.267725,-10066.800811,-76.609550
59515.900983,-1036.288319,-9252.574275,0.000000
59515.901293,-3330.926739,-10288.862594,-383.047749
59515.901603,-4885.359217,-9696.697840,-1302.362347
59515.901913,-4737.318029,-10436.903782,-2451.505594
59515.902222,-1776.494261,-9548.656652,1225.752797
59515.902532,4071.132681,-8290.306550,3600.648841
59515.902842,1184.329507,-6291.750507,2451.505594
59515.903152,4663.297435,-9474.636058,4826.401637
59515.903461,-2294.638420,-8068.244768,1378.971896
59515.903771,-74.020594,-9474.636058,995.924147
59515.904081,-2664.741391,-10807.006753,306.438199
59515.904391,-3478.967927,-8364.327145,-1608.800546
59515.904700,-3108.864956,-10955.047942,-1762.019645
59515.905010,296.082377,-7772.162391,1225.752797
59515.905320,2368.659014,-7179.997637,2757.943793
59515.905630,4663.297435,-9474.636058,4213.525239
59515.905939,-1184.329507,-5995.668130,-3370.820191
59515.906249,-592.164754,-12213.398043,2145.067394
59515.906559,-1554.432478,-8142.265362,-1838.629195
59515.906869,-2220.617826,-11029.068536,76.609550
59515.907178,-2590.720797,-8660.409521,-1455.581446
59515.907488,-2368.659014,-10510.924376,-383.047749
59515.907798,2886.803174,-9178.553681,2681.334243
59515.908108,2960.823768,-5995.668130,3370.820191
59515.908417,592.164754,-4811.338623,2451.505594
59515.908727,0.000000,-8364.327145,2298.286494
59515.909037,-1036.288319,-9622.677246,-842.705048
59515.909347,0.000000,-9992.780217,612.876398
59515.909656,-3552.988522,-9622.677246,0.000000
59515.909966,-3404.947333,-7476.080014,-2451.505594
59515.910276,-2664.741391,-10436.903782,-1072.533697
59515.910586,2294.638420,-9178.553681,1225.752797
59515.910895,2294.638420,-9104.533087,3524.039291
59515.911205,0.000000,-5995.668130,1532.190996
59515.911515,-2368.659014,-6291.750507,0.000000
59515.911825,2368.659014,-10140.821405,2757.943793
59515.912134,1998.556043,-6809.894666,-689.485948
59515.912444,-2368.659014,-9548.656652,1838.629195
59515.912754,-2442.679609,-8734.430116,-3370.820191
59515.913064,-888.247130,-11325.150913,0.000000
59515.913373,2368.659014,-9030.512492,1378.971896
59515.913683,2146.597232,-9474.636058,2451.505594
59515.913993,1036.288319,-7698.141797,2068.457845
59515.914303,-2368.659014,-8068.244768,-689.485948
59515.914612,-2368.659014,-7846.182985,-1685.410096
59515.914922,-962.267725,-10510.924376,1072.533697
59515.915232,-4737.318029,-8956.491898,-2451.505594
59515.915542,-2960.823768,-10436.903782,0.000000
59515.915851,-666.185348,-11251.130318,-995.924147
59515.916161,3034.844362,-7476.080014,2757.943793
59515.916471,3701.029710,-8216.285956,4903.011187
59515.916781,2442.679609,-5181.441594,2528.115143
59515.917090,-814.226536,-9030.512492,1762.019645
59515.917400,0.000000,-8882.471304,536.266849
59515.917710,-1998.556043,-7772.162391,-1149.143247
59515.918020,-2220.617826,-11103.089130,-76.609550
59515.918329,-5403.503377,-7328.038826,-5592.497135
59515.918639,-3552.988522,-12065.356855,0.000000
59515.918949,3478.967927,-9474.636058,0.000000
59515.919259,1998.556043,-9770.718434,3140.991542
59515.919568,1924.535449,-6217.729913,1915.238745
59515.919878,74.020594,-9400.615463,1532.190996
59515.920188,3256.906145,-7476.080014,4136.915689
59515.920498,1702.473667,-8882.471304,2374.896044
59515.920807,-1554.432478,-6957.935855,-689.485948
59515.921117,-4737.318029,-9548.656652,-1225.752797
59515.921427,-666.185348,-11843.295072,-76.609550
59515.921737,0.000000,-7179.997637,0.000000
59515.922046,2886.803174,-9918.759623,3600.648841
59515.922356,0.000000,-6291.750507,612.876398
59515.922666,-1554.432478,-9918.759623,306.438199
59515.922976,740.205942,-8364.327145,612.876398
59515.923285,-1924.535449,-10288.862594,1225.752797
59515.923595,-1850.514855,-9178.553681,-689.485948
59515.923905,-2442.679609,-11251.130318,-1302.362347
59515.924215,0.000000,-8068.244768,0.000000
59515.924524,4663.297435,-9474.636058,4826.401637
59515.924834,0.000000,-5995.668130,2451.505594
59515.925144,1850.514855,-7105.977043,2987.772442
59515.925454,-1036.288319,-9326.594869,306.438199
59515.925763,814.226536,-9474.636058,766.095498
59515.926073,-1924.535449,-8956.491898,459.657299
59515.926383,-4885.359217,-10288.862594,-1225.752797
59515.926693,-1258.350101,-11843.295072,-689.485948
59515.927002,2294.638420,-11251.130318,-76.609550
59515.927312,296.082377,-8660.409521,1685.410096
59515.927622,2294.638420,-10288.862594,4826.401637
59515.927932,-3478.967927,-5995.668130,0.000000
59515.928241,0.000000,-8734.430116,2987.772442
59515.928551,370.102971,-8290.306550,995.924147
59515.928861,-740.205942,-8142.265362,689.485948
59515.929171,-2590.720797,-8882.471304,-995.924147
59515.929480,-2368.659014,-10732.986159,-1838.629195
59515.929790,1998.556043,-11103.089130,2145.067394
59515.930100,3478.967927,-11547.212695,4213.525239
59515.930410,0.000000,-7179.997637,1225.752797
59515.930719,-74.020594,-11843.295072,3600.648841
59515.931029,-2146.597232,-8068.244768,-1149.143247
59515.931339,0.000000,-9474.636058,2681.334243
59515.931649,-1554.432478,-9474.636058,842.705048
59515.931958,-2664.741391,-7846.182985,-1378.971896
59515.932268,-3256.906145,-10510.924376,-919.314598
59515.932578,1258.350101,-7772.162391,0.000000
59515.932888,1776.494261,-9992.780217,2451.505594
59515.933197,2294.638420,-8586.388927,3524.039291
59515.933507,-666.185348,-8882.471304,-76.609550
59515.933817,0.000000,-5995.668130,0.000000
59515.934127,3478.967927,-9474.636058,2374.896044
59515.934436,-1480.411884,-10288.862594,2528.115143
59515.934746,-2442.679609,-8586.388927,-1072.533697
59515.935056,-3330.926739,-11991.336260,-536.266849
59515.935366,1850.514855,-9474.636058,842.705048
59515.935675,1924.535449,-9548.656652,1991.848295
59515.935985,1184.329507,-6587.832884,0.000000
59515.936295,-1776.494261,-10140.821405,1532.190996
59515.936605,1998.556043,-8882.471304,1149.143247
59515.936914,0.000000,-7179.997637,1225.752797
59515.937224,2294.638420,-11251.130318,3600.648841
59515.937534,-2664.741391,-7476.080014,0.000000
59515.937844,-1480.411884,-11251.130318,153.219100
59515.938153,1924.535449,-9992.780217,1455.581446
59515.938463,1036.288319,-10807.006753,2987.772442
59515.938773,370.102971,-5625.565159,1149.143247
59515.939083,-1776.494261,-8364.327145,0.000000
59515.939392,1776.494261,-7179.997637,1225.752797
59515.939702,2294.638420,-10658.965565,2987.772442
59515.940012,-4737.318029,-7179.997637,0.000000
59515.940322,-2442.679609,-11843.295072,-76.609550
59515.940631,-2960.823768,-9548.656652,0.000000
59515.940941,370.102971,-9622.677246,1149.143247
59515.941251,-296.082377,-9252.574275,2757.943793
59515.941561,-962.267725,-6587.832884,229.828649
59515.941870,-2146.597232,-9474.636058,1149.143247
59515.942180,518.144159,-5551.544565,-689.485948
59515.942490,0.000000,-8364.327145,1532.190996
59515.942800,-888.247130,-8290.306550,2374.896044
59515.943109,-5403.503377,-8068.244768,-3140.991542
59515.943419,592.164754,-12213.398043,2145.067394
59515.943729,0.000000,-8364.327145,919.314598
59515.944039,0.000000,-9474.636058,2221.676944
59515.944348,-1554.432478,-8068.244768,-76.609550
59515.944658,-1258.350101,-9548.656652,229.828649
59515.944968,2442.679609,-9474.636058,2374.896044
59515.945278,0.000000,-8364.327145,1762.019645
59515.945587,-3552.988522,-5995.668130,0.000000
59515.945897,-2442.679609,-11843.295072,-76.609550
59515.946207,-1258.350101,-7179.997637,-1915.238745
59515.946517,0.000000,-9548.656652,2451.505594
59515.946826,-1480.411884,-5995.668130,153.219100
59515.947136,-2072.576638,-7846.182985,-459.657299
59515.947446,-1480.411884,-8956.491898,0.000000
59515.947756,1036.288319,-8808.450710,1225.752797
59515.948065,1998.556043,-9474.636058,3600.648841
59515.948375,-74.020594,-7105.977043,-76.609550
59515.948685,-3849.070898,-9548.656652,-2145.067394
59515.948995,1332.370696,-11029.068536,2374.896044
59515.949304,0.000000,-8364.327145,0.000000
59515.949614,444.123565,-9030.512492,612.876398
59515.949924,-2442.679609,-8142.265362,-1915.238745
59515.950234,148.041188,-8438.347739,306.438199
59515.950544,2738.761985,-7846.182985,1685.410096
59515.950853,1258.350101,-9400.615463,2451.505594
59515.951163,-74.020594,-9178.553681,1991.848295
59515.951473,-1258.350101,-13027.624579,1762.019645
59515.951783,1110.308913,-8290.306550,-153.219100
59515.952092,0.000000,-9844.739029,4443.353888
59515.952402,-74.020594,-7105.977043,-689.485948
59515.952712,-2368.659014,-8364.327145,0.000000
59515.953022,1998.556043,-10066.800811,1149.143247
59515.953331,1702.473667,-8216.285956,2068.457845
59515.953641,-222.061783,-8882.471304,1762.019645
59515.953951,-592.164754,-7698.141797,153.219100
59515.954261,-296.082377,-11325.150913,2528.115143
59515.954570,3478.967927,-10658.965565,3907.087040
59515.954880,-74.020594,-10066.800811,1762.019645
59515.955190,-3552.988522,-6439.791695,0.000000
59515.955500,-2442.679609,-9474.636058,-1915.238745
59515.955809,-3552.988522,-7179.997637,-3064.381992
59515.956119,2294.638420,-9474.636058,2374.896044
59515.956429,740.205942,-8660.409521,1991.848295
59515.956739,814.226536,-8216.285956,842.705048
59515.957048,1258.350101,-11029.068536,1991.848295
59515.957358,1184.329507,-8364.327145,2451.505594
59515.957668,-2442.679609,-11991.336260,2987.772442
59515.957978,-2442.679609,-9474.636058,-383.047749
59515.958287,-3404.947333,-7179.997637,-2451.505594
59515.958597,2886.803174,-11547.212695,3600.648841
59515.958907,-1554.432478,-4219.173869,0.000000
59515.959217,-370.102971,-8882.471304,1762.019645
59515.959526,-1480.411884,-8068.244768,-459.657299
59515.959836,-666.185348,-11695.253884,689.485948
59515.960146,148.041188,-8882.471304,1225.752797
59515.960456,-3552.988522,-8364.327145,0.000000
59515.960765,-888.247130,-7179.997637,306.438199
59515.961075,-370.102971,-11843.295072,-76.609550
59515.961385,-370.102971,-5995.668130,-2068.457845
59515.961695,592.164754,-10140.821405,2604.724693
59515.962004,1110.308913,-9474.636058,-76.609550
59515.962314,-74.020594,-11547.212695,1302.362347
59515.962624,814.226536,-10955.047942,1685.410096
59515.962934,1850.514855,-9178.553681,2451.505594
59515.963243,296.082377,-7772.162391,1915.238745
59515.963553,-2368.659014,-5403.503377,-2451.505594
59515.963863,-1776.494261,-9548.656652,306.438199
59515.964173,2368.659014,-8438.347739,1991.848295
59515.964482,518.144159,-9548.656652,0.000000
59515.964792,3256.906145,-9474.636058,2528.115143
59515.965102,-74.020594,-11843.295072,-76.609550
59515.965412,2368.659014,-9844.739029,1838.629195
59515.965721,518.144159,-10510.924376,1149.143247
59515.966031,-2294.638420,-10288.862594,-459.657299
59515.966341,-3256.906145,-10066.800811,-1455.581446
59515.966651,-3330.926739,-9548.656652,-1915.238745
59515.966960,0.000000,-5403.503377,0.000000
59515.967270,0.000000,-8364.327145,3370.820191
59515.967580,2294.638420,-4737.318029,-76.609550
59515.967890,0.000000,-9844.739029,2451.505594
59515.968199,4663.297435,-9474.636058,3600.648841
59515.968509,0.000000,-9992.780217,2451.505594
59515.968819,-1998.556043,-8882.471304,383.047749
59515.969129,-3552.988522,-9400.615463,-1762.019645
59515.969438,-2664.741391,-11769.274478,-612.876398
59515.969748,-666.185348,-8290.306550,-1302.362347
59515.970058,-3256.906145,-8364.327145,0.000000
59515.970368,296.082377,-6143.709319,0.000000
59515.970677,2812.782580,-14211.954086,5439.278036
59515.970987,222.061783,-5995.668130,306.438199
59515.971297,2294.638420,-13323.706956,5439.278036
59515.971607,-2368.659014,-6587.832884,0.000000
59515.971916,-3182.885551,-9474.636058,-995.924147
59515.972226,-518.144159,-9400.615463,153.219100
59515.972536,1184.329507,-7772.162391,1455.581446
59515.972846,1998.556043,-8290.306550,2987.772442
59515.973155,0.000000,-6217.729913,0.000000
59515.973465,0.000000,-10732.986159,2451.505594
59515.973775,4663.297435,-11843.295072,4826.401637
59515.974085,-4145.153275,-9548.656652,0.000000
59515.974394,-2368.659014,-8956.491898,1225.752797
59515.974704,-6513.812290,-9844.739029,-2451.505594
59515.975014,-1480.411884,-8660.409521,-842.705048
59515.975324,-518.144159,-8290.306550,536.266849
59515.975633,148.041188,-6957.935855,995.924147
59515.975943,3182.885551,-8290.306550,2374.896044
59515.976253,2294.638420,-9326.594869,1762.019645
59515.976563,1184.329507,-7179.997637,1838.629195
59515.976872,-74.020594,-13027.624579,4213.525239
59515.977182,-4589.276840,-6587.832884,0.000000
59515.977492,-1924.535449,-11029.068536,612.876398
59515.977802,-1702.473667,-7476.080014,-919.314598
59515.978111,0.000000,-8512.368333,1072.533697
59515.978421,1480.411884,-7476.080014,2221.676944
59515.978731,1110.308913,-8142.265362,1149.143247
59515.979041,2886.803174,-11547.212695,3600.648841
59515.979350,3478.967927,-9474.636058,1149.143247
59515.979660,-1776.494261,-8956.491898,76.609550
59515.979970,-2442.679609,-9474.636058,-76.609550
59515.980280,-5921.647536,-11029.068536,-2451.505594
59515.980589,0.000000,-7772.162391,0.000000
59515.980899,-370.102971,-9178.553681,995.924147
59515.981209,888.247130,-6957.935855,689.485948
59515.981519,-370.102971,-9474.636058,1149.143247
59515.981828,2738.761985,-9474.636058,2451.505594
59515.982138,5181.441594,-11103.089130,5056.230287
59515.982448,2294.638420,-11251.130318,2987.772442
59515.982758,-3034.844362,-7328.038826,-1532.190996
59515.983067,-2072.576638,-12805.562797,1838.629195
59515.983377,518.144159,-7105.977043,-1302.362347
59515.983687,-2368.659014,-7772.162391,0.000000
59515.983997,-74.020594,-6809.894666,-383.047749
59515.984306,-1776.494261,-10362.883188,0.000000
59515.984616,1480.411884,-9770.718434,1225.752797
59515.984926,740.205942,-10066.800811,2068.457845
59515.985236,0.000000,-10140.821405,3064.381992
59515.985545,-1554.432478,-10658.965565,-76.609550
59515.985855,-2442.679609,-10955.047942,-1302.362347
59515.986165,0.000000,-7698.141797,-995.924147
59515.986475,0.000000,-9548.656652,2451.505594
59515.986784,1702.473667,-5329.482782,536.266849
59515.987094,-2368.659014,-5995.668130,0.000000
59515.987404,4737.318029,-9548.656652,4443.353888
59515.987714,2886.803174,-9474.636058,3600.648841
59515.988023,-4293.194464,-9252.574275,-383.047749
59515.988333,-4071.132681,-11251.130318,-1302.362347
59515.988643,-2442.679609,-11843.295072,-1302.362347
59515.988953,-1850.514855,-8882.471304,-995.924147
59515.989262,-444.123565,-10881.027347,3524.039291
59515.989572,-1258.350101,-6217.729913,-689.485948
59515.989882,0.000000,-7179.997637,0.000000
59515.990192,4071.132681,-7550.100608,3447.429741
59515.990501,2442.679609,-7476.080014,3753.867940
59515.990811,74.020594,-6957.935855,1225.752797
59515.991121,-3108.864956,-8364.327145,-1072.533697
59515.991431,-1628.453072,-11621.233289,766.095498
59515.991740,-74.020594,-11251.130318,-76.609550
59515.992050,-666.185348,-10066.800811,-76.609550
59515.992360,0.000000,-7179.997637,0.000000
59515.992670,2294.638420,-13619.789333,2374.896044
59515.992979,2886.803174,-7550.100608,0.000000
59515.993289,3182.885551,-10066.800811,3294.210641
59515.993599,518.144159,-7328.038826,842.705048
59515.993909,-2738.761985,-9918.759623,-919.314598
59515.994218,-888.247130,-9548.656652,-459.657299
59515.994528,0.000000,-9548.656652,1838.629195
59515.994838,-74.020594,-9474.636058,2528.115143
59515.995148,-74.020594,-7105.977043,-76.609550
59515.995457,0.000000,-7179.997637,0.000000
59515.995767,6439.791695,-9474.636058,3907.087040
59515.996077,0.000000,-9178.553681,995.924147
59515.996387,-74.020594,-8882.471304,-76.609550
59515.996696,-5107.421000,-11843.295072,-1915.238745
59515.997006,-2146.597232,-9918.759623,-1838.629195
59515.997316,-1924.535449,-11473.192101,459.657299
59515.997626,-3552.988522,-7179.997637,306.438199
59515.997935,-1184.329507,-8808.450710,1378.971896
59515.998245,4663.297435,-9474.636058,4826.401637
59515.998555,4737.318029,-2590.720797,1991.848295
59515.998865,5033.400406,-9844.739029,6435.202183
59515.999175,-666.185348,-5329.482782,-1302.362347
59515.999484,-4811.338623,-12879.583391,-1302.362347
59515.999794,-2960.823768,-10288.862594,-2757.943793
59516.000104,-4071.132681,-12139.377449,-1378.971896
59516.000414,-2516.700203,-8734.430116,-1072.533697
59516.000723,-4145.153275,-7179.997637,0.000000
59516.001033,2960.823768,-8956.491898,3217.601092
59516.001343,7031.956449,-9474.636058,6052.154434
59516.001653,0.000000,-4811.338623,2451.505594
59516.001962,-74.020594,-5921.647536,-76.609550
59516.002272,-3330.926739,-10658.965565,-1302.362347
59516.002582,-1036.288319,-9178.553681,-383.047749
59516.002892,-2368.659014,-11695.253884,536.266849
59516.003201,-962.267725,-7328.038826,0.000000
59516.003511,-1184.329507,-9104.533087,0.000000
59516.003821,0.000000,-5995.668130,0.000000
59516.004131,2368.659014,-7476.080014,3677.258390
59516.004440,3256.906145,-9400.615463,4903.011187
59516.004750,-74.020594,-7105.977043,-689.485948
59516.005060,-4145.153275,-11917.315666,0.000000
59516.005370,-74.020594,-11843.295072,-76.609550
59516.005679,-2368.659014,-11917.315666,1225.752797
59516.005989,-962.267725,-7254.018232,-306.438199
59516.006299,-1850.514855,-9030.512492,229.828649
59516.006609,3775.050304,-7254.018232,2528.115143
59516.006918,4367.215058,-6809.894666,2298.286494
59516.007228,0.000000,-5995.668130,2451.505594
59516.007538,-2960.823768,-8660.409521,1762.019645
59516.007848,-6809.894666,-9548.656652,-3677.258390
59516.008157,-74.020594,-11843.295072,-76.609550
59516.008467,-1258.350101,-12731.542202,2374.896044
59516.008777,-1184.329507,-7179.997637,0.000000
59516.009087,1184.329507,-9474.636058,1838.629195
59516.009396,6365.771101,-7031.956449,3600.648841
59516.009706,4367.215058,-8956.491898,4290.134789
59516.010016,-74.020594,-7105.977043,1455.581446
59516.010326,-7105.977043,-7772.162391,-4673.182538
59516.010635,-5921.647536,-11621.233289,-3677.258390
59516.010945,-74.020594,-11251.130318,-689.485948
59516.011255,-4737.318029,-8512.368333,0.000000
59516.011565,592.164754,-7920.203579,1915.238745
59516.011874,0.000000,-8956.491898,919.314598
59516.012184,5995.668130,-6661.853478,3600.648841
59516.012494,3034.844362,-9844.739029,4443.353888
59516.012804,296.082377,-7698.141797,2068.457845
59516.013113,-2442.679609,-10658.965565,-1302.362347
59516.013423,-2442.679609,-9474.636058,-2681.334243
59516.013733,-3552.988522,-8660.409521,-2451.505594
59516.014043,-74.020594,-11547.212695,2374.896044
59516.014352,-3404.947333,-6291.750507,-2451.505594
59516.014662,0.000000,-11917.315666,3064.381992
59516.014972,2368.659014,-6587.832884,1532.190996
59516.015282,1184.329507,-10584.944971,4290.134789
59516.015591,-296.082377,-5773.606348,766.095498
59516.015901,-3552.988522,-10066.800811,-612.876398
59516.016211,-74.020594,-9474.636058,-76.609550
59516.016521,-74.020594,-10658.965565,-76.609550
59516.016830,-1702.473667,-6587.832884,0.000000
59516.017140,1998.556043,-10362.883188,2987.772442
59516.017450,1406.391290,-8438.347739,1608.800546
59516.017760,4737.318029,-7179.997637,4903.011187
59516.018069,2072.576638,-9030.512492,3140.991542
59516.018379,-1184.329507,-6217.729913,-1072.533697
59516.018689,-5033.400406,-12361.439231,-2145.067394
59516.018999,-1924.535449,-10510.924376,-1225.752797
59516.019308,-1258.350101,-14211.954086,2374.896044
59516.019618,-74.020594,-9178.553681,1149.143247
59516.019928,-1480.411884,-6735.874072,0.000000
59516.020238,5847.626942,-9474.636058,4826.401637
59516.020547,3552.988522,-4811.338623,3064.381992
59516.020857,0.000000,-7179.997637,4903.011187
59516.021167,-74.020594,-5625.565159,-153.219100
59516.021477,-4071.132681,-11251.130318,-919.314598
59516.021786,-1184.329507,-9326.594869,-1225.752797
59516.022096,-3330.926739,-11843.295072,-536.266849
59516.022406,-2220.617826,-10658.965565,-76.609550
59516.022716,-1258.350101,-11843.295072,-76.609550
59516.023025,1406.391290,-8290.306550,-76.609550
59516.023335,3552.988522,-9548.656652,4290.134789
59516.023645,3478.967927,-9178.553681,3600.648841
59516.023955,-3256.906145,-4811.338623,0.000000
59516.024264,-1258.350101,-11251.130318,536.266849
59516.024574,148.041188,-7920.203579,-306.438199
59516.024884,-2516.700203,-11029.068536,1378.971896
59516.025194,-2220.617826,-6439.791695,-766.095498
59516.025503,-2368.659014,-11325.150913,1225.752797
59516.025813,4663.297435,-9178.553681,3217.601092
59516.026123,4071.132681,-9474.636058,2987.772442
59516.026433,0.000000,-7179.997637,2451.505594
59516.026742,-666.185348,-9474.636058,-76.609550
59516.027052,-5699.585753,-9548.656652,-4213.525239
59516.027362,-962.267725,-10066.800811,-689.485948
59516.027672,-4515.256246,-10955.047942,0.000000
59516.027981,-2812.782580,-7105.977043,-1455.581446
59516.028291,-1480.411884,-10140.821405,766.095498
59516.028601,3552.988522,-5995.668130,4290.134789
59516.028911,5477.523971,-8512.368333,6128.763984
59516.029220,3182.885551,-6513.812290,3600.648841
59516.029530,-4737.318029,-5995.668130,0.000000
59516.029840,-74.020594,-13027.624579,-76.609550
59516.030150,-1850.514855,-9178.553681,-2528.115143
59516.030459,-3701.029710,-13915.871710,-76.609550
59516.030769,-3627.009116,-8956.491898,-2298.286494
59516.031079,-962.267725,-11695.253884,0.000000
59516.031389,5403.503377,-7179.997637,3294.210641
59516.031698,2368.659014,-5995.668130,4903.011187
59516.032008,2368.659014,-5107.421000,3677.258390
59516.032318,-74.020594,-11547.212695,3294.210641
59516.032628,-3034.844362,-7772.162391,-1838.629195
59516.032937,-1480.411884,-10584.944971,612.876398
59516.033247,-2442.679609,-11251.130318,-76.609550
59516.033557,-2960.823768,-8882.471304,-1685.410096
59516.033867,-1998.556043,-12287.418637,76.609550
59516.034176,3701.029710,-7772.162391,2681.334243
59516.034486,3701.029710,-9696.697840,4979.620737
59516.034796,592.164754,-3034.844362,612.876398
59516.035106,-3256.906145,-8956.491898,0.000000
59516.035416,592.164754,-11325.150913,2757.943793
59516.035725,-1258.350101,-9474.636058,-1302.362347
59516.036035,-3552.988522,-9844.739029,612.876398
59516.036345,-74.020594,-10658.965565,-76.609550
59516.036655,0.000000,-10362.883188,1378.971896
59516.036964,4737.318029,-6217.729913,3140.991542
59516.037274,2220.617826,-8364.327145,4366.744339
59516.037584,222.061783,-6143.709319,995.924147
59516.037894,-4219.173869,-9548.656652,-2451.505594
59516.038203,-1776.494261,-7179.997637,-1685.410096
59516.038513,-2368.659014,-12065.356855,2451.505594
59516.038823,-3627.009116,-8882.471304,-1608.800546
59516.039133,-4737.318029,-9548.656652,-1838.629195
59516.039442,3478.967927,-14211.954086,3600.648841
59516.039752,3552.988522,-7179.997637,2911.162892
59516.040062,2590.720797,-8586.388927,4213.525239
59516.040372,814.226536,-5107.421000,536.266849
59516.040681,-1332.370696,-11251.130318,306.438199
59516.040991,1110.308913,-7105.977043,-2068.457845
59516.041301,-4737.318029,-11695.253884,-766.095498
59516.041611,-4737.318029,-7179.997637,0.000000
59516.041920,-2442.679609,-12731.542202,-1302.362347
59516.042230,0.000000,-7772.162391,612.876398
59516.042540,5921.647536,-9474.636058,7507.735880
59516.042850,1924.535449,-6291.750507,3677.258390
59516.043159,666.185348,-5625.565159,536.266849
59516.043469,-1628.453072,-11325.150913,306.438199
59516.043779,0.000000,-8660.409521,-612.876398
59516.044089,-2442.679609,-13027.624579,-689.485948
59516.044398,-3923.091493,-7550.100608,-2757.943793
59516.044708,-4737.318029,-10732.986159,0.000000
59516.045018,4663.297435,-10658.965565,2374.896044
59516.045328,1184.329507,-7772.162391,1838.629195
59516.045637,962.267725,-4959.379811,2451.505594
59516.045947,1110.308913,-7402.059420,536.266849
59516.046257,814.226536,-10658.965565,1455.581446
59516.046567,1406.391290,-8364.327145,995.924147
59516.046876,-2368.659014,-11547.212695,1072.533697
59516.047186,-2960.823768,-9104.533087,306.438199
59516.047496,-1998.556043,-12435.459826,612.876398
59516.047806,4663.297435,-8290.306550,-76.609550
59516.048115,0.000000,-7772.162391,2451.505594
59516.048425,2886.803174,-7994.224174,3294.210641
59516.048735,-74.020594,-10658.965565,-76.609550
59516.049045,-2072.576638,-10732.986159,0.000000
59516.049354,-1184.329507,-9474.636058,-383.047749
59516.049664,-3034.844362,-11029.068536,842.705048
59516.049974,-1480.411884,-7328.038826,-842.705048
59516.050284,-1702.473667,-9918.759623,153.219100
59516.050593,2368.659014,-4811.338623,0.000000
59516.050903,3256.906145,-10658.965565,6128.763984
59516.051213,1702.473667,-4737.318029,2068.457845
59516.051523,-888.247130,-9252.574275,3370.820191
59516.051832,-1628.453072,-8364.327145,229.828649
59516.052142,-2738.761985,-10214.842000,-689.485948
59516.052452,-7105.977043,-12139.377449,-1149.143247
59516.052762,-8216.285956,-10362.883188,-3830.477490
59516.053071,-7698.141797,-13545.768739,-1532.190996
59516.053381,-74.020594,-9474.636058,2145.067394
59516.053691,-74.020594,-12731.542202,6971.469032
59516.054001,-1258.350101,-4737.318029,1762.019645
59516.054310,-6809.894666,-7772.162391,1838.629195
59516.054620,-2738.761985,-8290.306550,-76.609550
59516.054930,-2738.761985,-7994.224174,0.000000
59516.055240,-6809.894666,-7772.162391,766.095498
59516.055549,-8216.285956,-7698.141797,-1915.238745
59516.055859,-8808.450710,-10807.006753,-1072.533697
59516.056169,-4441.235652,-10510.924376,1991.848295
59516.056479,-5921.647536,-8956.491898,1225.752797
59516.056788,-7105.977043,-4811.338623,0.000000
59516.057098,-6513.812290,-7772.162391,0.000000
59516.057408,-4219.173869,-9474.636058,1149.143247
59516.057718,-5921.647536,-7179.997637,0.000000
59516.058027,-4737.318029,-9252.574275,2604.724693
59516.058337,-5995.668130,-8734.430116,-76.609550
59516.058647,-7476.080014,-9252.574275,-1378.971896
59516.058957,-7402.059420,-9844.739029,76.609550
59516.059266,-5181.441594,-9548.656652,612.876398
59516.059576,-2146.597232,-7994.224174,3600.648841
59516.059886,-74.020594,-9474.636058,3600.648841
59516.060196,-3330.926739,-6661.853478,1149.143247
59516.060505,-4737.318029,-7179.997637,3064.381992
59516.060815,-4811.338623,-8586.388927,-1072.533697
59516.061125,-5329.482782,-6439.791695,-1225.752797
59516.061435,-3256.906145,-8956.491898,-612.876398
59516.061744,-4737.318029,-10288.862594,0.000000
59516.062054,-6587.832884,-9844.739029,-1532.190996
59516.062364,-5995.668130,-13619.789333,-76.609550
59516.062674,-4737.318029,-9844.739029,-536.266849
59516.062983,-2368.659014,-5995.668130,612.876398
59516.063293,2220.617826,-8882.471304,4826.401637
59516.063603,1110.308913,-6513.812290,2068.457845
59516.063913,0.000000,-6291.750507,1838.629195
59516.064222,-74.020594,-11547.212695,2987.772442
59516.064532,-1850.514855,-9474.636058,689.485948
59516.064842,-592.164754,-7550.100608,153.219100
59516.065152,-1850.514855,-9474.636058,536.266849
59516.065461,-5921.647536,-8364.327145,-2451.505594
59516.065771,-4811.338623,-12139.377449,-612.876398
59516.066081,-5403.503377,-13027.624579,-1302.362347
59516.066391,-5921.647536,-8364.327145,0.000000
59516.066700,-74.020594,-11251.130318,4213.525239
59516.067010,0.000000,-4811.338623,2757.943793
59516.067320,296.082377,-4811.338623,3064.381992
59516.067630,1924.535449,-8216.285956,3677.258390
59516.067939,-370.102971,-9178.553681,2068.457845
59516.068249,-2664.741391,-8290.306550,0.000000
59516.068559,-1850.514855,-10658.965565,-76.609550
59516.068869,-3552.988522,-8364.327145,-2298.286494
59516.069178,-3552.988522,-8956.491898,0.000000
59516.069488,-3627.009116,-11843.295072,-1302.362347
59516.069798,-9474.636058,-9548.656652,-4903.011187
59516.070108,-5107.421000,-13915.871710,-76.609550
59516.070417,-3034.844362,-12435.459826,1762.019645
59516.070727,-3849.070898,-7994.224174,1762.019645
59516.071037,-2590.720797,-6587.832884,2911.162892
59516.071347,1184.329507,-5033.400406,4519.963438
59516.071656,0.000000,-2442.679609,3677.258390
59516.071966,-74.020594,-7105.977043,4213.525239
59516.072276,-4811.338623,-9178.553681,-76.609550
59516.072586,-5921.647536,-8956.491898,0.000000
59516.072896,-4811.338623,-11843.295072,-2528.115143
59516.073205,-9474.636058,-10732.986159,-2145.067394
59516.073515,-8290.306550,-10732.986159,-2451.505594
59516.073825,-3108.864956,-10066.800811,-842.705048
59516.074135,-3182.885551,-10955.047942,842.705048
59516.074444,-5255.462188,-11843.295072,1149.143247
59516.074754,-3627.009116,-10658.965565,1762.019645
59516.075064,-2368.659014,-6587.832884,3064.381992
59516.075374,296.082377,-6291.750507,4979.620737
59516.075683,-4219.173869,-5995.668130,459.657299
59516.075993,-3256.906145,-8808.450710,4136.915689
59516.076303,-1554.432478,-4145.153275,0.000000
59516.076613,1998.556043,-6365.771101,1762.019645
59516.076922,-2812.782580,-7254.018232,76.609550
59516.077232,-7105.977043,-11769.274478,-1072.533697
59516.077542,-7920.203579,-13397.727550,-3447.429741
59516.077852,-7698.141797,-12509.480420,-1225.752797
59516.078161,-5403.503377,-13915.871710,-383.047749
59516.078471,-6883.915261,-10807.006753,-766.095498
59516.078781,-7105.977043,-7179.997637,0.000000
59516.079091,-74.020594,-9474.636058,3600.648841
59516.079400,4663.297435,-6513.812290,8503.660028
59516.079710,4737.318029,-2738.761985,7354.516781
59516.080020,1924.535449,-3627.009116,4136.915689
59516.080330,-4811.338623,-8956.491898,-153.219100
59516.080639,-6883.915261,-12139.377449,-2221.676944
59516.080949,-5403.503377,-12139.377449,-4060.306139
59516.081259,-7994.224174,-10140.821405,-3677.258390
59516.081569,-8734.430116,-11843.295072,-1991.848295
59516.081878,-5995.668130,-14211.954086,-2528.115143
59516.082188,-7105.977043,-11917.315666,0.000000
59516.082498,-3552.988522,-7772.162391,3064.381992
59516.082808,1406.391290,-4737.318029,4213.525239
59516.083117,3256.906145,-2664.741391,5592.497135
59516.083427,6439.791695,-2368.659014,7048.078582
59516.083737,5255.462188,-6143.709319,6052.154434
59516.084046,-888.247130,-10658.965565,4060.306139
59516.084356,-6735.874072,-12583.501014,-2451.505594
59516.084666,-7550.100608,-13841.851115,-3447.429741
59516.084975,-7328.038826,-11399.171507,-3983.696590
59516.085285,-7476.080014,-10658.965565,-3907.087040
59516.085595,-8882.471304,-8364.327145,-4596.572988
59516.085904,-6957.935855,-12213.398043,-4290.134789
59516.086214,-3849.070898,-13101.645173,2604.724693
59516.086524,-2442.679609,-10658.965565,3600.648841
59516.086833,-1776.494261,-4589.276840,4826.401637
59516.087143,3552.988522,-666.185348,7048.078582
59516.087453,6735.874072,0.000000,5209.449386
59516.087762,6069.688724,0.000000,6052.154434
59516.088072,2294.638420,-4885.359217,2987.772442
59516.088381,-2368.659014,-11177.109724,0.000000
59516.088691,-9474.636058,-15470.304188,-6128.763984
59516.089001,-14211.954086,-20207.622217,-8427.050478
59516.089310,-14285.974681,-21317.931130,-8656.879127
59516.089620,-15100.201217,-16654.633695,-7967.393179
59516.089930,-8290.306550,-13693.809927,-1685.410096
59516.090239,-222.061783,-9474.636058,2987.772442
59516.090549,1110.308913,-4737.318029,6052.154434
59516.090859,4737.318029,-74.020594,7354.516781
59516.091168,11769.274478,0.000000,12180.918418
59516.091478,4737.318029,1110.308913,7354.516781
59516.091788,4663.297435,-3552.988522,5898.935335
59516.092097,-2664.741391,-8142.265362,2451.505594
59516.092407,-7476.080014,-12583.501014,-2528.115143
59516.092717,-12879.583391,-16358.551318,-6358.592633
59516.093026,-15766.386565,-18949.272115,-7890.783629
59516.093336,-15988.448347,-15766.386565,-7660.954980
59516.093646,-11621.233289,-15396.283594,-4673.182538
59516.093955,-7105.977043,-11695.253884,-1149.143247
59516.094265,-1110.308913,-5699.585753,3064.381992
59516.094574,4293.194464,-3034.844362,7431.126331
59516.094884,9400.615463,0.000000,7890.783629
59516.095194,7846.182985,2146.597232,7890.783629
59516.095503,7105.977043,-1850.514855,9193.145976
59516.095813,2886.803174,-3552.988522,2987.772442
59516.096123,-2072.576638,-7920.203579,0.000000
59516.096432,-7402.059420,-10732.986159,-3447.429741
59516.096742,-10066.800811,-16284.530724,-6665.030833
59516.097052,-13841.851115,-20799.786970,-7967.393179
59516.097361,-13989.892304,-21021.848753,-7737.564530
59516.097671,-8438.347739,-18431.127956,-3447.429741
59516.097981,-2442.679609,-15396.283594,-76.609550
59516.098290,666.185348,-7402.059420,3600.648841
59516.098600,2368.659014,-2442.679609,7354.516781
59516.098910,9104.533087,0.000000,11568.042020
59516.099219,5551.544565,2072.576638,9576.193725
59516.099529,2368.659014,1628.453072,7354.516781
59516.099839,2368.659014,-3108.864956,5669.106685
59516.100148,-1110.308913,-7550.100608,3140.991542
59516.100458,-4737.318029,-10584.944971,-1991.848295
59516.100767,-8660.409521,-15248.242405,-4366.744339
59516.101077,-8660.409521,-18653.189738,-3753.867940
59516.101387,-8660.409521,-18949.272115,-4979.620737
59516.101696,-8882.471304,-14582.057057,-4596.572988
59516.102006,-1258.350101,-13915.871710,2068.457845
59516.102316,2886.803174,-7476.080014,4136.915689
59516.102625,9252.574275,-1924.535449,5515.887586
59516.102935,10807.006753,-1258.350101,12104.308868
59516.103245,9548.656652,1184.329507,11797.870669
59516.103554,9474.636058,666.185348,11031.775171
59516.103864,6143.709319,-1998.556043,8197.221829
59516.104174,3997.112087,-10658.965565,10955.165621
59516.104483,-2812.782580,-14211.954086,2374.896044
59516.104793,-8882.471304,-11917.315666,-3677.258390
59516.105103,-7179.997637,-18949.272115,-1302.362347
59516.105412,-5403.503377,-18357.107362,-1455.581446
59516.105722,-3330.926739,-18357.107362,383.047749
59516.106031,-2072.576638,-15174.221811,3830.477490
59516.106341,2220.617826,-9918.759623,5132.839837
59516.106651,4515.256246,-8586.388927,9882.631924
59516.106960,6957.935855,-4737.318029,12793.794817
59516.107270,7105.977043,-3034.844362,13483.280765
59516.107580,5847.626942,-3552.988522,13406.671215
59516.107889,1850.514855,-74.020594,7660.954980
59516.108199,2368.659014,-5699.585753,8733.488677
59516.108509,1702.473667,-10658.965565,7277.907231
59516.108818,-1554.432478,-13619.789333,4213.525239
59516.109128,-5773.606348,-15914.427753,2451.505594
59516.109438,-8586.388927,-18949.272115,1838.629195
59516.109747,-9548.656652,-21243.910535,3983.696590
59516.110057,-6957.935855,-15174.221811,5745.716235
59516.110367,-3552.988522,-7772.162391,8580.269578
59516.110676,5033.400406,-3034.844362,12870.404366
59516.110986,8808.450710,592.164754,13406.671215
59516.111296,4293.194464,2072.576638,12257.527968
59516.111605,3849.070898,-3627.009116,15934.786358
59516.111915,2294.638420,-5107.421000,11568.042020
59516.112224,-2812.782580,-5403.503377,5209.449386
59516.112534,-5329.482782,-9622.677246,4366.744339
59516.112844,-4959.379811,-11103.089130,2451.505594
59516.113153,-3701.029710,-12509.480420,3064.381992
59516.113463,-5921.647536,-12509.480420,2604.724693
59516.113773,-7105.977043,-15470.304188,1225.752797
59516.114082,-4811.338623,-18949.272115,3600.648841
59516.114392,-4293.194464,-11917.315666,3217.601092
59516.114702,0.000000,-6883.915261,7354.516781
59516.115011,3849.070898,-2664.741391,10955.165621
59516.115321,4219.173869,1850.514855,9729.412825
59516.115631,4145.153275,2368.659014,8197.221829
59516.115940,5403.503377,2368.659014,6358.592633
59516.116250,2738.761985,-2442.679609,3677.258390
59516.116560,0.000000,-5403.503377,2451.505594
59516.116869,-4737.318029,-10732.986159,0.000000
59516.117179,-5625.565159,-18949.272115,-76.609550
59516.117489,-8956.491898,-20133.601622,-3753.867940
59516.117798,-9474.636058,-18283.086767,-4290.134789
59516.118108,-4737.318029,-15396.283594,-766.095498
59516.118417,518.144159,-9326.594869,689.485948
59516.118727,2442.679609,-7328.038826,3830.477490
59516.119037,3552.988522,-2442.679609,4903.011187
59516.119346,8290.306550,-2146.597232,4903.011187
59516.119656,5773.606348,-370.102971,4443.353888
59516.119966,1184.329507,-4219.173869,2451.505594
59516.120275,2220.617826,-11843.295072,4673.182538
59516.120585,-1776.494261,-9030.512492,-766.095498
59516.120895,-888.247130,-11695.253884,-766.095498
59516.121204,-4071.132681,-11769.274478,-1072.533697
59516.121514,-4663.297435,-12287.418637,-3140.991542
59516.121824,-3256.906145,-13471.748144,-3370.820191
59516.122133,-592.164754,-13471.748144,-2221.676944
59516.122443,0.000000,-11917.315666,-2068.457845
59516.122753,-962.267725,-11473.192101,0.000000
59516.123062,0.000000,-7179.997637,0.000000
59516.123372,5995.668130,-5995.668130,5209.449386
59516.123682,4737.318029,-1110.308913,3753.867940
59516.123991,3108.864956,-370.102971,4826.401637
59516.124301,2516.700203,-3923.091493,3677.258390
59516.124610,2886.803174,-6661.853478,2068.457845
59516.124920,1480.411884,-9844.739029,919.314598
59516.125230,-2812.782580,-15322.262999,-229.828649
59516.125539,-6513.812290,-16580.613101,-1302.362347
59516.125849,-4811.338623,-14804.118840,-1915.238745
59516.126159,-1850.514855,-10362.883188,-1608.800546
59516.126468,-2368.659014,-7179.997637,1225.752797
59516.126778,3478.967927,-7254.018232,6052.154434
59516.127088,4071.132681,-5255.462188,5745.716235
59516.127397,666.185348,-7772.162391,4903.011187
59516.127707,-1258.350101,-10288.862594,5132.839837
59516.128017,-666.185348,-9326.594869,5439.278036
59516.128326,0.000000,-8956.491898,5822.325785
59516.128636,-888.247130,-5921.647536,4826.401637
59516.128946,1702.473667,-8290.306550,5286.058936
59516.129255,1702.473667,-7105.977043,4213.525239
59516.129565,0.000000,-9548.656652,4903.011187
59516.129875,-1850.514855,-11843.295072,3294.210641
59516.130184,-5773.606348,-11769.274478,2451.505594
59516.130494,-2368.659014,-9844.739029,3064.381992
59516.130803,1406.391290,-8808.450710,5439.278036
59516.131113,0.000000,-7476.080014,5898.935335
59516.131423,-1036.288319,-7031.956449,5669.106685
59516.131732,814.226536,-9474.636058,8503.660028
59516.132042,3478.967927,-8882.471304,7814.174080
59516.132352,-74.020594,-11251.130318,8503.660028
59516.132661,-3701.029710,-7179.997637,4673.182538
59516.132971,-1184.329507,-8808.450710,8580.269578
59516.133281,-666.185348,-9474.636058,6741.640382
59516.133590,-2368.659014,-3923.091493,3064.381992
59516.133900,-1332.370696,-5625.565159,3983.696590
59516.134210,370.102971,-7402.059420,5745.716235
59516.134519,2664.741391,-6661.853478,6205.373534
59516.134829,1110.308913,-9474.636058,6971.469032
59516.135139,-1258.350101,-11843.295072,4903.011187
59516.135448,-74.020594,-13027.624579,6358.592633
59516.135758,-666.185348,-9918.759623,3600.648841
59516.136068,-2368.659014,-10807.006753,6128.763984
59516.136377,-74.020594,-7994.224174,5209.449386
59516.136687,222.061783,-8068.244768,4673.182538
59516.136996,-592.164754,-8956.491898,5209.449386
59516.137306,-666.185348,-8290.306550,4366.744339
59516.137616,-666.185348,-8438.347739,3907.087040
59516.137925,2294.638420,-7550.100608,5898.935335
59516.138235,296.082377,-7846.182985,3677.258390
59516.138545,-74.020594,-10658.965565,4826.401637
59516.138854,-2294.638420,-7179.997637,2145.067394
59516.139164,0.000000,-9844.739029,5669.106685
59516.139474,1406.391290,-9400.615463,3064.381992
59516.139783,-74.020594,-9474.636058,3907.087040
59516.140093,-592.164754,-10140.821405,4136.915689
59516.140403,0.000000,-10140.821405,4979.620737
59516.140712,0.000000,-10066.800811,4673.182538
59516.141022,296.082377,-8364.327145,5515.887586
59516.141332,-1184.329507,-7698.141797,3600.648841
59516.141641,1628.453072,-7476.080014,4443.353888
59516.141951,-74.020594,-6365.771101,2374.896044
59516.142260,0.000000,-7772.162391,2757.943793
59516.142570,1110.308913,-8438.347739,1762.019645
59516.142880,-666.185348,-12731.542202,2374.896044
59516.143189,-1850.514855,-10436.903782,1991.848295
59516.143499,-814.226536,-9548.656652,3294.210641
59516.143809,1776.494261,-6365.771101,3983.696590
59516.144118,296.082377,-6291.750507,3064.381992
59516.144428,0.000000,-7772.162391,4826.401637
59516.144738,2072.576638,-11843.295072,5209.449386
59516.145047,-74.020594,-12731.542202,3600.648841
59516.145357,-1776.494261,-9548.656652,3064.381992
59516.145667,-1850.514855,-11547.212695,2987.772442
59516.145976,-74.020594,-7105.977043,1762.019645
59516.146286,-962.267725,-5255.462188,689.485948
59516.146596,74.020594,-3108.864956,536.266849
59516.146905,-1258.350101,-6291.750507,229.828649
59516.147215,-2960.823768,-7772.162391,0.000000
59516.147525,-2368.659014,-11251.130318,995.924147
59516.147834,-4145.153275,-14285.974681,612.876398
59516.148144,-74.020594,-13915.871710,1532.190996
59516.148453,-2738.761985,-12213.398043,-1455.581446
59516.148763,0.000000,-7105.977043,842.705048
59516.149073,1628.453072,-8290.306550,1762.019645
59516.149382,1998.556043,-2960.823768,-383.047749
59516.149692,370.102971,-8142.265362,153.219100
59516.150002,222.061783,-9622.677246,-689.485948
59516.150311,-2368.659014,-11325.150913,-2145.067394
59516.150621,-2294.638420,-13027.624579,-76.609550
59516.150931,-2294.638420,-7328.038826,-2604.724693
59516.151240,-2368.659014,-10140.821405,153.219100
59516.151550,1406.391290,-5329.482782,-2528.115143
59516.151860,0.000000,-10658.965565,-76.609550
59516.152169,2368.659014,-7772.162391,76.609550
59516.152479,-74.020594,-12213.398043,-612.876398
59516.152789,518.144159,-9252.574275,-1608.800546
59516.153098,-666.185348,-11695.253884,-1149.143247
59516.153408,0.000000,-8956.491898,-76.609550
59516.153718,-1110.308913,-9474.636058,-1302.362347
59516.154027,-4737.318029,-8364.327145,-3064.381992
59516.154337,-74.020594,-7476.080014,-1302.362347
59516.154646,-222.061783,-5033.400406,-3753.867940
59516.154956,2294.638420,-4663.297435,-689.485948
59516.155266,0.000000,-10140.821405,0.000000
59516.155575,962.267725,-8882.471304,-2221.676944
59516.155885,0.000000,-14211.954086,-1225.752797
59516.156195,1628.453072,-11473.192101,0.000000
59516.156504,-74.020594,-10658.965565,-689.485948
59516.156814,-74.020594,-11251.130318,-76.609550
59516.157124,-1776.494261,-5995.668130,-3677.258390
59516.157433,1776.494261,-10807.006753,459.657299
59516.157743,1110.308913,-7105.977043,-2528.115143
59516.158053,-814.226536,-11325.150913,1225.752797
59516.158362,0.000000,-5699.585753,-2451.505594
59516.158672,-444.123565,-11399.171507,306.438199
59516.158982,1036.288319,-7624.121203,306.438199
59516.159291,-1776.494261,-12435.459826,689.485948
59516.159601,-74.020594,-11251.130318,-76.609550
59516.159911,-74.020594,-11843.295072,-76.609550
59516.160220,-666.185348,-5699.585753,-612.876398
59516.160530,0.000000,-4219.173869,612.876398
59516.160839,-74.020594,-8290.306550,-76.609550
59516.161149,0.000000,-7772.162391,1225.752797
59516.161459,-1776.494261,-14285.974681,1838.629195
59516.161768,814.226536,-12065.356855,2681.334243
59516.162078,-2146.597232,-12805.562797,3064.381992
59516.162388,-1850.514855,-6661.853478,1608.800546
59516.162697,-74.020594,-6365.771101,2068.457845
59516.163007,1184.329507,-1850.514855,2451.505594
59516.163317,2294.638420,-4145.153275,2374.896044
59516.163626,-1776.494261,-6587.832884,1225.752797
59516.163936,2294.638420,-13915.871710,5439.278036
59516.164246,0.000000,-16062.468941,5056.230287
59516.164555,0.000000,-11621.233289,3064.381992
59516.164865,-2220.617826,-12509.480420,3907.087040
59516.165175,-666.185348,-5329.482782,2221.676944
59516.165484,-592.164754,-5107.421000,2145.067394
59516.165794,1998.556043,-6439.791695,3753.867940
59516.166104,-74.020594,-8808.450710,4290.134789
59516.166413,-2442.679609,-10658.965565,1149.143247
59516.166723,-2960.823768,-10140.821405,1225.752797
59516.167032,-74.020594,-13841.851115,6281.983084
59516.167342,-2368.659014,-5107.421000,1838.629195
59516.167652,-1850.514855,-6957.935855,3140.991542
59516.167961,666.185348,-2960.823768,1302.362347
59516.168271,-2072.576638,-7772.162391,1149.143247
59516.168581,-2146.597232,-6809.894666,229.828649
59516.168890,-2220.617826,-12509.480420,1225.752797
59516.169200,-1776.494261,-13101.645173,1225.752797
59516.169510,-74.020594,-14211.954086,2374.896044
59516.169819,-1258.350101,-11695.253884,1455.581446
59516.170129,296.082377,-9548.656652,4903.011187
59516.170439,-444.123565,-7179.997637,1225.752797
59516.170748,1110.308913,-3552.988522,1149.143247
59516.171058,-740.205942,-7031.956449,1838.629195
59516.171368,3256.906145,-5033.400406,2604.724693
59516.171677,2368.659014,-11103.089130,4060.306139
59516.171987,2368.659014,-9548.656652,3677.258390
59516.172297,0.000000,-9548.656652,2451.505594
59516.172606,3108.864956,-10510.924376,4443.353888
59516.172916,2146.597232,-7105.977043,1762.019645
59516.173225,0.000000,-7179.997637,0.000000
59516.173535,-1998.556043,-6587.832884,-1608.800546
59516.173845,-2442.679609,-12435.459826,-1302.362347
59516.174154,-2442.679609,-9992.780217,-1532.190996
59516.174464,-3330.926739,-11621.233289,-383.047749
59516.174774,-1110.308913,-6513.812290,-1608.800546
59516.175083,0.000000,-7476.080014,0.000000
59516.175393,1184.329507,-3627.009116,1225.752797
59516.175703,3997.112087,-9400.615463,4290.134789
59516.176012,1998.556043,-9178.553681,2068.457845
59516.176322,-2368.659014,-7179.997637,0.000000
59516.176632,-1258.350101,-11547.212695,-689.485948
59516.176941,-74.020594,-10362.883188,-995.924147
59516.177251,-2960.823768,-11843.295072,-1149.143247
59516.177561,-666.185348,-7550.100608,-2221.676944
59516.177870,-592.164754,-11103.089130,-229.828649
59516.178180,592.164754,-7179.997637,0.000000
59516.178490,0.000000,-9548.656652,-689.485948
59516.178799,-3552.988522,-8364.327145,0.000000
59516.179109,-2590.720797,-10140.821405,-1225.752797
59516.179418,-2442.679609,-9474.636058,-2528.115143
59516.179728,-370.102971,-7105.977043,-1302.362347
59516.180038,-148.041188,-10658.965565,1838.629195
59516.180347,1406.391290,-5477.523971,-919.314598
59516.180657,592.164754,-10362.883188,766.095498
59516.180967,3552.988522,-7105.977043,995.924147
59516.181276,-1258.350101,-11917.315666,1149.143247
59516.181586,-1184.329507,-9992.780217,-76.609550
59516.181896,-5477.523971,-10436.903782,-3447.429741
59516.182205,-2960.823768,-9548.656652,0.000000
59516.182515,-1258.350101,-7105.977043,-1915.238745
59516.182825,-370.102971,-7105.977043,-76.609550
59516.183134,1184.329507,-3182.885551,-919.314598
59516.183444,2220.617826,-8586.388927,1991.848295
59516.183754,4071.132681,-9400.615463,2604.724693
59516.184063,370.102971,-15914.427753,3140.991542
59516.184373,222.061783,-11251.130318,-76.609550
59516.184682,-2072.576638,-12879.583391,-153.219100
59516.184992,-1776.494261,-4811.338623,-1225.752797
59516.185302,888.247130,-6513.812290,2374.896044
59516.185611,-1258.350101,-3627.009116,-1302.362347
59516.185921,2590.720797,-9474.636058,2911.162892
59516.186231,888.247130,-13693.809927,2451.505594
59516.186540,2220.617826,-12287.418637,2987.772442
59516.186850,-1258.350101,-12805.562797,2528.115143
59516.187159,-2516.700203,-7179.997637,-229.828649
59516.187469,-2738.761985,-7698.141797,-536.266849
59516.187778,-1480.411884,-1850.514855,-1838.629195
59516.188088,-962.267725,-5329.482782,-1608.800546
59516.188397,0.000000,-8364.327145,1225.752797
59516.188707,-74.020594,-10955.047942,-76.609550
59516.189016,0.000000,-13989.892304,3217.601092
59516.189326,296.082377,-11325.150913,2451.505594
59516.189636,-1554.432478,-12139.377449,2374.896044
59516.189945,-1628.453072,-7402.059420,306.438199
59516.190255,-2368.659014,-7846.182985,766.095498
59516.190564,0.000000,-3627.009116,-1762.019645
59516.190874,-3552.988522,-5995.668130,536.266849
59516.191183,0.000000,-5995.668130,1225.752797
59516.191493,1258.350101,-12879.583391,3294.210641
59516.191802,2294.638420,-13027.624579,4826.401637
59516.192112,888.247130,-11547.212695,4826.401637
59516.192421,1184.329507,-11325.150913,6511.811733
59516.192731,1110.308913,-7105.977043,2374.896044
59516.193041,-962.267725,-7179.997637,2068.457845
59516.193350,0.000000,-6291.750507,1762.019645
59516.193660,-3256.906145,-8660.409521,1838.629195
59516.193969,-2368.659014,-7179.997637,229.828649
59516.194279,-3552.988522,-10732.986159,1225.752797
59516.194588,1554.432478,-11695.253884,4519.963438
59516.194898,-962.267725,-7772.162391,76.609550
59516.195207,-1702.473667,-7698.141797,3600.648841
59516.195517,-740.205942,-7550.100608,1762.019645
59516.195826,-2516.700203,-9326.594869,536.266849
59516.196136,-1036.288319,-8216.285956,995.924147
59516.196446,-2368.659014,-12731.542202,2145.067394
59516.196755,-3256.906145,-6587.832884,-995.924147
59516.197065,-2072.576638,-11103.089130,0.000000
59516.197374,2368.659014,-7179.997637,3677.258390
59516.197684,3478.967927,-9178.553681,3600.648841
59516.197993,888.247130,-5995.668130,2451.505594
59516.198303,-74.020594,-9474.636058,842.705048
59516.198612,-2368.659014,-9548.656652,0.000000
59516.198922,-74.020594,-10066.800811,-2451.505594
59516.199231,-2960.823768,-11621.233289,153.219100
59516.199541,-1258.350101,-7254.018232,-2145.067394
59516.199851,518.144159,-9474.636058,1762.019645
59516.200160,7031.956449,-5921.647536,2451.505594
59516.200470,3478.967927,-10658.965565,2374.896044
59516.200779,0.000000,-7179.997637,0.000000
59516.201089,-74.020594,-13323.706956,-76.609550
59516.201398,-1258.350101,-11473.192101,0.000000
59516.201708,-2590.720797,-9326.594869,-3447.429741
59516.202017,-2738.761985,-9548.656652,-995.924147
59516.202327,444.123565,-6217.729913,-1378.971896
59516.202637,2146.597232,-7624.121203,766.095498
59516.202946,4663.297435,-7105.977043,2374.896044
59516.203256,2886.803174,-11843.295072,4749.792088
59516.203565,1998.556043,-7698.141797,-1915.238745
59516.203875,-4145.153275,-11917.315666,-2451.505594
59516.204184,-666.185348,-13323.706956,-995.924147
59516.204494,-4515.256246,-11991.336260,-4290.134789
59516.204803,-3627.009116,-9326.594869,-3753.867940
59516.205113,-666.185348,-7254.018232,-2221.676944
59516.205422,1702.473667,-8956.491898,919.314598
59516.205732,3627.009116,-7328.038826,2145.067394
59516.206042,1702.473667,-13027.624579,4826.401637
59516.206351,2812.782580,-11251.130318,2451.505594
59516.206661,-74.020594,-14211.954086,-76.609550
59516.206970,-3182.885551,-5995.668130,-2757.943793
59516.207280,-4145.153275,-8512.368333,306.438199
59516.207589,-1850.514855,-6439.791695,-2451.505594
59516.207899,-2960.823768,-6291.750507,-3370.820191
59516.208208,1480.411884,-8068.244768,612.876398
59516.208518,2146.597232,-8438.347739,1685.410096
59516.208827,-296.082377,-12805.562797,1685.410096
59516.209137,-1258.350101,-9474.636058,-76.609550
59516.209447,-2442.679609,-11843.295072,-76.609550
59516.209756,-2368.659014,-6587.832884,0.000000
59516.210066,-666.185348,-11843.295072,-76.609550
59516.210375,-2368.659014,-4811.338623,0.000000
59516.210685,1702.473667,-8290.306550,1225.752797
59516.210994,1924.535449,-3923.091493,612.876398
59516.211304,3182.885551,-7402.059420,2834.553343
59516.211613,1480.411884,-10214.842000,3524.039291
59516.211923,962.267725,-9992.780217,919.314598
59516.212232,-370.102971,-14211.954086,2374.896044
59516.212542,-74.020594,-9474.636058,-1225.752797
59516.212852,-1258.350101,-13027.624579,1762.019645
59516.213161,-2220.617826,-4811.338623,-2145.067394
59516.213471,592.164754,-10510.924376,4519.963438
59516.213780,4663.297435,-8290.306550,2757.943793
59516.214090,2812.782580,-9622.677246,3294.210641
59516.214399,1776.494261,-9548.656652,4596.572988
59516.214709,370.102971,-8808.450710,1838.629195
59516.215018,-444.123565,-9030.512492,2145.067394
59516.215328,-74.020594,-7698.141797,2374.896044
59516.215637,-2960.823768,-12287.418637,1225.752797
59516.215947,-74.020594,-9474.636058,-76.609550
59516.216257,-2960.823768,-10732.986159,0.000000
59516.216566,296.082377,-9548.656652,3064.381992
59516.216876,-74.020594,-11029.068536,2145.067394
59516.217185,-666.185348,-9178.553681,1762.019645
59516.217495,-1702.473667,-8068.244768,612.876398
59516.217804,-1184.329507,-9326.594869,1608.800546
59516.218114,-2072.576638,-6957.935855,536.266849
59516.218423,-3256.906145,-9104.533087,1225.752797
59516.218733,-1776.494261,-6587.832884,0.000000
59516.219042,2294.638420,-11843.295072,3600.648841
59516.219352,2294.638420,-5329.482782,1762.019645
59516.219662,296.082377,-10955.047942,5439.278036
59516.219971,1110.308913,-7476.080014,229.828649
59516.220281,-74.020594,-10362.883188,-76.609550
59516.220590,-1036.288319,-7846.182985,229.828649
59516.220900,-2960.823768,-7476.080014,-1302.362347
59516.221209,-3923.091493,-11325.150913,-383.047749
59516.221519,-2368.659014,-9548.656652,0.000000
59516.221828,-1184.329507,-12213.398043,0.000000
59516.222138,2960.823768,-9252.574275,4903.011187
59516.222448,2294.638420,-7698.141797,4213.525239
59516.222757,2368.659014,-2738.761985,2451.505594
59516.223067,2294.638420,-5033.400406,2068.457845
59516.223376,2294.638420,-6513.812290,-76.609550
59516.223686,-2812.782580,-10510.924376,-1225.752797
59516.223995,-3256.906145,-13841.851115,-1072.533697
59516.224305,-2664.741391,-13397.727550,-1838.629195
59516.224614,-2368.659014,-11917.315666,0.000000
59516.224924,0.000000,-4811.338623,0.000000
59516.225233,3108.864956,-9474.636058,4443.353888
59516.225543,3478.967927,-5625.565159,995.924147
59516.225853,0.000000,-9548.656652,0.000000
59516.226162,1998.556043,-10658.965565,2374.896044
59516.226472,-666.185348,-14211.954086,1455.581446
59516.226781,-2294.638420,-10066.800811,-612.876398
59516.227091,-1702.473667,-8660.409521,-919.314598
59516.227400,814.226536,-7698.141797,1608.800546
59516.227710,888.247130,-4219.173869,306.438199
59516.228019,0.000000,-7476.080014,2068.457845
59516.228329,0.000000,-5403.503377,0.000000
59516.228638,-74.020594,-13027.624579,1072.533697
59516.228948,-666.185348,-7772.162391,-3753.867940
59516.229258,-4737.318029,-14211.954086,-76.609550
59516.229567,-2516.700203,-11547.212695,-1072.533697
59516.229877,-2442.679609,-11843.295072,-1302.362347
59516.230186,1110.308913,-8068.244768,995.924147
59516.230496,2442.679609,-5107.421000,1838.629195
59516.230805,740.205942,-3923.091493,1762.019645
59516.231115,2220.617826,-4071.132681,229.828649
59516.231424,-1258.350101,-9252.574275,0.000000
59516.231734,0.000000,-9548.656652,0.000000
59516.232043,-3034.844362,-16580.613101,-76.609550
59516.232353,-3627.009116,-11251.130318,-1455.581446
59516.232663,-2960.823768,-11029.068536,0.000000
59516.232972,1702.473667,-6365.771101,842.705048
59516.233282,1924.535449,-6069.688724,1991.848295
59516.233591,2368.659014,-6439.791695,1685.410096
59516.233901,2294.638420,-6513.812290,842.705048
59516.234210,1110.308913,-13027.624579,-76.609550
59516.234520,-3552.988522,-9548.656652,0.000000
59516.234829,-3108.864956,-15766.386565,1608.800546
59516.235139,-2442.679609,-7254.018232,-3753.867940
59516.235448,-888.247130,-10510.924376,2145.067394
59516.235758,1184.329507,-3034.844362,612.876398
59516.236068,1702.473667,-7920.203579,2604.724693
59516.236377,1924.535449,-8290.306550,1762.019645
59516.236687,296.082377,-11843.295072,919.314598
59516.236996,-74.020594,-14211.954086,2068.457845
59516.237306,-1554.432478,-10140.821405,0.000000
59516.237615,-2442.679609,-11843.295072,-76.609550
59516.237925,-3256.906145,-4219.173869,-2451.505594
59516.238234,-74.020594,-9474.636058,2374.896044
59516.238544,2072.576638,-5403.503377,3064.381992
59516.238853,0.000000,-8512.368333,1838.629195
59516.239163,2220.617826,-9104.533087,2068.457845
59516.239473,222.061783,-10955.047942,1455.581446
59516.239782,0.000000,-10732.986159,2145.067394
59516.240092,-74.020594,-10658.965565,842.705048
59516.240401,-2072.576638,-10732.986159,306.438199
59516.240711,-74.020594,-9474.636058,-76.609550
59516.241020,-2220.617826,-9030.512492,0.000000
59516.241330,4515.256246,-7994.224174,4673.182538
59516.241639,1184.329507,-8364.327145,3677.258390
59516.241949,296.082377,-5477.523971,1532.190996
59516.242258,0.000000,-10881.027347,2451.505594
59516.242568,444.123565,-8882.471304,2298.286494
59516.242878,-2146.597232,-8956.491898,459.657299
59516.243187,-1554.432478,-9252.574275,-76.609550
59516.243497,-2664.741391,-5107.421000,-2451.505594
59516.243806,-74.020594,-10658.965565,1149.143247
59516.244116,0.000000,-7476.080014,306.438199
59516.244425,1702.473667,-16506.592507,4826.401637
59516.244735,0.000000,-8956.491898,612.876398
59516.245044,-666.185348,-9326.594869,1762.019645
59516.245354,1184.329507,-5107.421000,1915.238745
59516.245664,-222.061783,-6883.915261,1302.362347
59516.245973,74.020594,-6069.688724,229.828649
59516.246283,740.205942,-9696.697840,612.876398
59516.246592,-1258.350101,-12139.377449,842.705048
59516.246902,2294.638420,-12435.459826,2374.896044
59516.247211,-2368.659014,-11325.150913,1685.410096
59516.247521,1998.556043,-9474.636058,2374.896044
59516.247830,-2960.823768,-6587.832884,0.000000
59516.248140,1110.308913,-4737.318029,-76.609550
59516.248449,-1702.473667,-9548.656652,306.438199
59516.248759,-1406.391290,-9770.718434,-842.705048
59516.249069,-2960.823768,-12583.501014,-1378.971896
59516.249378,-1776.494261,-12361.439231,306.438199
59516.249688,-666.185348,-9918.759623,76.609550
59516.249997,666.185348,-10584.944971,3753.867940
59516.250307,1406.391290,-3849.070898,153.219100
59516.250616,1776.494261,-9252.574275,4136.915689
59516.250926,518.144159,-3552.988522,-1302.362347
59516.251235,-1554.432478,-11843.295072,-76.609550
59516.251545,-2590.720797,-9548.656652,-2221.676944
59516.251854,-4367.215058,-13619.789333,-1762.019645
59516.252164,-1702.473667,-10436.903782,0.000000
59516.252474,0.000000,-8068.244768,0.000000
59516.252783,0.000000,-5403.503377,612.876398
59516.253093,2516.700203,-5403.503377,1838.629195
59516.253402,1702.473667,-8290.306550,1149.143247
59516.253712,0.000000,-4811.338623,0.000000
59516.254021,-666.185348,-11843.295072,-76.609550
59516.254331,-74.020594,-10362.883188,-383.047749
59516.254640,-2442.679609,-11843.295072,-459.657299
59516.254950,222.061783,-7994.224174,76.609550
59516.255259,222.061783,-10140.821405,1455.581446
59516.255569,0.000000,-7476.080014,153.219100
59516.255879,1554.432478,-8142.265362,536.266849
59516.256188,0.000000,-7772.162391,1225.752797
59516.256498,4219.173869,-7994.224174,2987.772442
59516.256807,-2368.659014,-7179.997637,0.000000
59516.257117,814.226536,-9178.553681,-76.609550
59516.257426,-1850.514855,-13841.851115,1072.533697
59516.257736,-74.020594,-9400.615463,76.609550
59516.258045,-444.123565,-11917.315666,1991.848295
59516.258355,962.267725,-7328.038826,842.705048
59516.258664,-1036.288319,-6883.915261,76.609550
59516.258974,2072.576638,-7698.141797,995.924147
59516.259284,-1480.411884,-7476.080014,0.000000
59516.259593,-1480.411884,-12213.398043,2374.896044
59516.259903,-4811.338623,-7920.203579,-4060.306139
59516.260212,-2442.679609,-13619.789333,-76.609550
59516.260522,0.000000,-9178.553681,1072.533697
59516.260831,-148.041188,-10955.047942,2451.505594
59516.261141,1406.391290,-6365.771101,1378.971896
59516.261450,-222.061783,-8586.388927,1378.971896
59516.261760,1110.308913,-6217.729913,1762.019645
59516.262069,-296.082377,-9474.636058,1685.410096
59516.262379,-2886.803174,-8956.491898,0.000000
59516.262689,-3256.906145,-9548.656652,-76.609550
59516.262998,-2442.679609,-11251.130318,-689.485948
59516.263308,-74.020594,-9474.636058,2068.457845
59516.263617,0.000000,-10807.006753,3064.381992
59516.263927,1258.350101,-5625.565159,1762.019645
59516.264236,-74.020594,-8068.244768,1915.238745
59516.264546,1850.514855,-5477.523971,1915.238745
59516.264855,-74.020594,-8882.471304,1685.410096
59516.265165,-1110.308913,-8364.327145,1225.752797
59516.265474,-2886.803174,-8068.244768,-2451.505594
59516.265784,-1776.494261,-11399.171507,2374.896044
59516.266094,-1258.350101,-8142.265362,-995.924147
59516.266403,-74.020594,-12953.603985,3370.820191
59516.266713,0.000000,-7179.997637,0.000000
59516.267022,-444.123565,-9030.512492,1378.971896
59516.267332,2146.597232,-5329.482782,689.485948
59516.267641,0.000000,-9622.677246,1991.848295
59516.267951,1110.308913,-9474.636058,229.828649
59516.268260,-1776.494261,-10140.821405,0.000000
59516.268570,-74.020594,-10288.862594,76.609550
59516.268880,0.000000,-8660.409521,1225.752797
59516.269189,-74.020594,-11251.130318,-76.609550
59516.269499,592.164754,-7179.997637,0.000000
59516.269808,-1480.411884,-10140.821405,0.000000
59516.270118,1110.308913,-8660.409521,229.828649
59516.270427,-1554.432478,-12435.459826,919.314598
59516.270737,-592.164754,-8290.306550,-689.485948
59516.271046,-370.102971,-11843.295072,919.314598
59516.271356,2368.659014,-9474.636058,2221.676944
59516.271665,518.144159,-7402.059420,536.266849
59516.271975,0.000000,-8956.491898,3677.258390
59516.272285,1110.308913,-6513.812290,-1302.362347
59516.272594,0.000000,-9548.656652,1225.752797
59516.272904,0.000000,-6883.915261,306.438199
59516.273213,-666.185348,-9992.780217,1149.143247
59516.273523,-74.020594,-7328.038826,-76.609550
59516.273832,-1702.473667,-10658.965565,0.000000
59516.274142,1110.308913,-9548.656652,919.314598
59516.274451,-222.061783,-13249.686362,3370.820191
59516.274761,-1850.514855,-8882.471304,0.000000
59516.275070,-1184.329507,-8660.409521,612.876398
59516.275380,2294.638420,-9474.636058,2374.896044
59516.275690,0.000000,-3034.844362,0.000000
59516.275999,-1110.308913,-7105.977043,689.485948
59516.276309,0.000000,-6513.812290,0.000000
59516.276618,-1110.308913,-11621.233289,1225.752797
59516.276928,0.000000,-8956.491898,919.314598
59516.277237,-2368.659014,-11325.150913,1072.533697
59516.277547,-1776.494261,-8956.491898,1532.190996
59516.277856,-74.020594,-9474.636058,-76.609550
59516.278166,0.000000,-5699.585753,0.000000
59516.278475,2220.617826,-9474.636058,3524.039291
59516.278785,-2368.659014,-7179.997637,0.000000
59516.279095,-74.020594,-8216.285956,-689.485948
59516.279404,-1776.494261,-10955.047942,459.657299
59516.279714,0.000000,-8586.388927,689.485948
59516.280023,-1702.473667,-12287.418637,1455.581446
59516.280333,0.000000,-8068.244768,306.438199
59516.280642,-1628.453072,-9770.718434,76.609550
59516.280952,1110.308913,-7550.100608,1532.190996
59516.281261,-444.123565,-6291.750507,0.000000
59516.281571,1776.494261,-8956.491898,3064.381992
59516.281880,1110.308913,-7402.059420,-2221.676944
59516.282190,1110.308913,-13027.624579,1762.019645
59516.282500,74.020594,-11251.130318,995.924147
59516.282809,-2220.617826,-14434.015869,1915.238745
59516.283119,-962.267725,-8734.430116,-306.438199
59516.283428,-2960.823768,-7994.224174,612.876398
59516.283738,2294.638420,-3182.885551,1149.143247
59516.284047,2072.576638,-5699.585753,2145.067394
59516.284357,2294.638420,-7105.977043,-76.609550
59516.284666,0.000000,-9548.656652,0.000000
59516.284976,-74.020594,-12731.542202,-76.609550
59516.285286,-74.020594,-12435.459826,1455.581446
59516.285595,-2590.720797,-11621.233289,612.876398
59516.285905,-518.144159,-6439.791695,-1072.533697
59516.286214,0.000000,-7105.977043,459.657299
59516.286524,444.123565,-3701.029710,842.705048
59516.286834,-74.020594,-9474.636058,919.314598
59516.287143,0.000000,-9548.656652,0.000000
59516.287453,-74.020594,-15988.448347,3294.210641
59516.287762,-1258.350101,-9548.656652,76.609550
59516.288072,-74.020594,-8586.388927,-76.609550
59516.288382,-74.020594,-9474.636058,-76.609550
59516.288691,0.000000,-5181.441594,-306.438199
59516.289001,-444.123565,-8512.368333,306.438199
59516.289310,296.082377,-7550.100608,0.000000
59516.289620,-4441.235652,-11917.315666,0.000000
59516.289929,-2960.823768,-8068.244768,-1838.629195
59516.290239,-2368.659014,-12509.480420,1225.752797
59516.290549,1702.473667,-10658.965565,2374.896044
59516.290858,-4737.318029,-5403.503377,0.000000
59516.291168,-74.020594,-8882.471304,-76.609550
59516.291477,-74.020594,-8290.306550,-76.609550
59516.291787,-1332.370696,-9918.759623,612.876398
59516.292097,0.000000,-7550.100608,153.219100
59516.292406,-1258.350101,-10732.986159,1532.190996
59516.292716,0.000000,-6291.750507,0.000000
59516.293025,-740.205942,-8882.471304,229.828649
59516.293335,592.164754,-7179.997637,2451.505594
59516.293645,-74.020594,-10658.965565,1149.143247
59516.293954,-1184.329507,-9548.656652,2451.505594
59516.294264,-74.020594,-10658.965565,-76.609550
59516.294573,-74.020594,-10510.924376,2221.676944
59516.294883,-222.061783,-6661.853478,612.876398
59516.295193,-370.102971,-8734.430116,995.924147
59516.295502,1924.535449,-6291.750507,612.876398
59516.295812,222.061783,-9844.739029,2068.457845
59516.296121,1998.556043,-8290.306550,536.266849
59516.296431,-2368.659014,-10732.986159,1225.752797
59516.296741,-74.020594,-10658.965565,1762.019645
59516.297050,-4737.318029,-7179.997637,0.000000
59516.297360,1702.473667,-9474.636058,3294.210641
59516.297669,888.247130,-6365.771101,1608.800546
59516.297979,444.123565,-8364.327145,1838.629195
59516.298289,1628.453072,-6883.915261,306.438199
59516.298598,592.164754,-12139.377449,2068.457845
59516.298908,1702.473667,-9474.636058,1455.581446
59516.299217,-962.267725,-13693.809927,1532.190996
59516.299527,-1776.494261,-8142.265362,-1225.752797
59516.299836,-2220.617826,-10140.821405,1149.143247
59516.300146,-74.020594,-5921.647536,-1302.362347
59516.300456,-74.020594,-8882.471304,2374.896044
59516.300765,0.000000,-8364.327145,1225.752797
59516.301075,1406.391290,-9030.512492,383.047749
59516.301384,0.000000,-11621.233289,1991.848295
59516.301694,814.226536,-9474.636058,1455.581446
59516.302004,-370.102971,-13027.624579,1991.848295
59516.302313,-1036.288319,-8142.265362,0.000000
59516.302623,-3330.926739,-9030.512492,-1149.143247
59516.302932,-148.041188,-7846.182985,1302.362347
59516.303242,-3627.009116,-5551.544565,-2145.067394
59516.303552,-296.082377,-8216.285956,2451.505594
59516.303861,-2368.659014,-7179.997637,0.000000
59516.304171,0.000000,-10436.903782,1838.629195
59516.304480,222.061783,-9548.656652,612.876398
59516.304790,-1998.556043,-12213.398043,1838.629195
59516.305100,-370.102971,-9474.636058,-689.485948
59516.305409,-2664.741391,-9252.574275,0.000000
59516.305719,-1110.308913,-4811.338623,-1225.752797
59516.306028,-296.082377,-9474.636058,2374.896044
59516.306338,-814.226536,-5033.400406,-1608.800546
59516.306648,592.164754,-9548.656652,2451.505594
59516.306957,592.164754,-8660.409521,1762.019645
59516.307267,1184.329507,-9622.677246,1991.848295
59516.307576,-666.185348,-11843.295072,1991.848295
59516.307886,-666.185348,-9104.533087,-153.219100
59516.308196,-666.185348,-12435.459826,995.924147
59516.308505,0.000000,-6217.729913,0.000000
59516.308815,-74.020594,-7994.224174,842.705048
59516.309124,1776.494261,-5403.503377,2451.505594
59516.309434,3478.967927,-9474.636058,1762.019645
59516.309744,0.000000,-8364.327145,2451.505594
59516.310053,-1184.329507,-11103.089130,842.705048
59516.310363,-2146.597232,-12509.480420,995.924147
59516.310672,-1924.535449,-9622.677246,-995.924147
59516.310982,-1850.514855,-9400.615463,229.828649
59516.311291,1406.391290,-4811.338623,0.000000
59516.311601,-1184.329507,-7179.997637,612.876398
59516.311911,2590.720797,-7105.977043,1072.533697
59516.312220,814.226536,-8956.491898,0.000000
59516.312530,2368.659014,-11029.068536,3677.258390
59516.312839,-1776.494261,-11029.068536,1225.752797
59516.313149,-1554.432478,-11399.171507,76.609550
59516.313459,-2368.659014,-10140.821405,-1225.752797
59516.313768,-2664.741391,-9622.677246,-383.047749
59516.314078,-1110.308913,-6069.688724,-612.876398
59516.314387,-592.164754,-7179.997637,842.705048
59516.314697,0.000000,-5107.421000,0.000000
59516.315007,2294.638420,-11843.295072,2374.896044
59516.315316,1554.432478,-8586.388927,229.828649
59516.315626,592.164754,-14582.057057,4290.134789
59516.315935,-2738.761985,-7624.121203,0.000000
59516.316245,-2738.761985,-8290.306550,-766.095498
59516.316555,-2812.782580,-7105.977043,-536.266849
59516.316864,-1258.350101,-5699.585753,-76.609550
59516.317174,-1036.288319,-8438.347739,1149.143247
59516.317483,0.000000,-6735.874072,612.876398
59516.317793,1110.308913,-11695.253884,2374.896044
59516.318103,1184.329507,-8364.327145,2451.505594
59516.318412,1110.308913,-14211.954086,4826.401637
59516.318722,-2368.659014,-5995.668130,0.000000
59516.319031,-1258.350101,-8882.471304,-1455.581446
59516.319341,-74.020594,-8290.306550,-76.609550
59516.319651,-1480.411884,-8068.244768,-459.657299
59516.319960,-666.185348,-9104.533087,689.485948
59516.320270,740.205942,-7328.038826,0.000000
59516.320579,0.000000,-10436.903782,2681.334243
59516.320889,2294.638420,-9178.553681,2681.334243
59516.321198,0.000000,-12509.480420,3370.820191
59516.321508,1702.473667,-8290.306550,-76.609550
59516.321818,-4737.318029,-9548.656652,0.000000
59516.322127,-74.020594,-7698.141797,-383.047749
59516.322437,-74.020594,-9474.636058,1149.143247
59516.322746,222.061783,-8290.306550,766.095498
59516.323056,518.144159,-9178.553681,459.657299
59516.323366,1110.308913,-11769.274478,2221.676944
59516.323675,2294.638420,-9178.553681,2681.334243
59516.323985,-74.020594,-12213.398043,3294.210641
59516.324294,-1776.494261,-6587.832884,0.000000
59516.324604,-1258.350101,-11843.295072,-76.609550
59516.324914,-2886.803174,-4811.338623,-2451.505594
59516.325223,-74.020594,-11843.295072,1762.019645
59516.325533,-444.123565,-8660.409521,1149.143247
59516.325842,370.102971,-9178.553681,1072.533697
59516.326152,1998.556043,-8956.491898,2911.162892
59516.326462,1850.514855,-8438.347739,2681.334243
59516.326771,-74.020594,-11769.274478,3294.210641
59516.327081,-1258.350101,-8882.471304,-689.485948
59516.327390,-4737.318029,-9548.656652,0.000000
59516.327700,-666.185348,-7105.977043,-76.609550
59516.328010,-4737.318029,-7179.997637,0.000000
59516.328319,2294.638420,-8882.471304,2374.896044
59516.328629,296.082377,-9548.656652,1532.190996
59516.328938,2516.700203,-9030.512492,2681.334243
59516.329248,1924.535449,-10140.821405,2987.772442
59516.329558,666.185348,-9474.636058,2068.457845
59516.329867,-148.041188,-8290.306550,536.266849
59516.330177,-1406.391290,-11843.295072,-76.609550
59516.330486,-3034.844362,-7698.141797,-2528.115143
59516.330796,-2368.659014,-13989.892304,2145.067394
59516.331105,-74.020594,-8882.471304,-689.485948
59516.331415,740.205942,-11843.295072,1455.581446
59516.331725,1184.329507,-7476.080014,2068.457845
59516.332034,1110.308913,-10066.800811,2911.162892
59516.332344,-148.041188,-9474.636058,1991.848295
59516.332653,-1184.329507,-8882.471304,0.000000
59516.332963,-1332.370696,-9178.553681,459.657299
59516.333273,-444.123565,-5477.523971,-459.657299
59516.333582,-2146.597232,-9326.594869,0.000000
59516.333892,0.000000,-7179.997637,1225.752797
59516.334201,-74.020594,-13027.624579,-76.609550
59516.334511,2368.659014,-10881.027347,3677.258390
59516.334821,0.000000,-11029.068536,2145.067394
59516.335130,888.247130,-9622.677246,1532.190996
59516.335440,-962.267725,-9104.533087,0.000000
59516.335749,-1406.391290,-8068.244768,0.000000
59516.336059,-1258.350101,-7772.162391,0.000000
59516.336369,-962.267725,-10658.965565,1838.629195
59516.336678,1406.391290,-7105.977043,-76.609550
59516.336988,0.000000,-9548.656652,3064.381992
59516.337297,5847.626942,-8290.306550,4213.525239
59516.337607,0.000000,-9548.656652,4903.011187
59516.337917,74.020594,-7476.080014,919.314598
59516.338226,-2072.576638,-10584.944971,-383.047749
59516.338536,-1776.494261,-9844.739029,-612.876398
59516.338845,-2590.720797,-9548.656652,-995.924147
59516.339155,-2812.782580,-8956.491898,-1915.238745
59516.339465,-740.205942,-7105.977043,-919.314598
59516.339774,1702.473667,-11251.130318,2987.772442
59516.340084,0.000000,-5403.503377,0.000000
59516.340393,2072.576638,-13101.645173,5132.839837
59516.340703,0.000000,-6587.832884,612.876398
59516.341012,-2146.597232,-9474.636058,76.609550
59516.341322,-444.123565,-6365.771101,689.485948
59516.341632,-2516.700203,-8290.306550,229.828649
59516.341941,-2368.659014,-7846.182985,-383.047749
59516.342251,-1036.288319,-8586.388927,-766.095498
59516.342560,296.082377,-10140.821405,1838.629195
59516.342870,3478.967927,-9474.636058,4213.525239
59516.343180,-74.020594,-9918.759623,536.266849
59516.343489,0.000000,-7476.080014,0.000000
59516.343799,-4145.153275,-10140.821405,0.000000
59516.344108,-666.185348,-9104.533087,-76.609550
59516.344418,-4071.132681,-11029.068536,-536.266849
59516.344728,-1924.535449,-7254.018232,-612.876398
59516.345037,0.000000,-7105.977043,76.609550
59516.345347,2368.659014,-6513.812290,3294.210641
59516.345656,1184.329507,-6587.832884,2451.505594
59516.345966,1110.308913,-12731.542202,4213.525239
59516.346276,-2960.823768,-7179.997637,-2451.505594
59516.346585,-3552.988522,-11917.315666,612.876398
59516.346895,-3552.988522,-5403.503377,-2451.505594
59516.347204,-3627.009116,-9474.636058,-766.095498
59516.347514,-2146.597232,-6661.853478,-2221.676944
59516.347824,-666.185348,-9030.512492,-459.657299
59516.348133,2146.597232,-8882.471304,2604.724693
59516.348443,1776.494261,-9474.636058,3600.648841
59516.348752,0.000000,-8364.327145,1915.238745
59516.349062,1184.329507,-7772.162391,1225.752797
59516.349372,-74.020594,-10658.965565,-76.609550
59516.349681,-2368.659014,-4219.173869,-1838.629195
59516.349991,-3627.009116,-9474.636058,-1762.019645
59516.350300,-962.267725,-8808.450710,-1225.752797
59516.350610,-74.020594,-11473.192101,766.095498
59516.350920,1998.556043,-9992.780217,2528.115143
59516.351229,1258.350101,-10955.047942,2451.505594
59516.351539,1110.308913,-10658.965565,2374.896044
59516.351848,-1036.288319,-7179.997637,0.000000
59516.352158,0.000000,-7179.997637,1225.752797
59516.352467,-74.020594,-7105.977043,-76.609550
59516.352777,-4737.318029,-7772.162391,-1685.410096
59516.353087,-74.020594,-7105.977043,-1915.238745
59516.353396,740.205942,-13027.624579,2374.896044
59516.353706,2220.617826,-9400.615463,1991.848295
59516.354015,592.164754,-11103.089130,2757.943793
59516.354325,2146.597232,-8512.368333,2451.505594
59516.354635,1110.308913,-9770.718434,2068.457845
59516.354944,-222.061783,-8586.388927,536.266849
59516.355254,-4145.153275,-8364.327145,-4290.134789
59516.355563,-2664.741391,-13693.809927,1225.752797
59516.355873,-1258.350101,-9474.636058,-1608.800546
59516.356183,-74.020594,-11843.295072,2374.896044
59516.356492,1332.370696,-5181.441594,2145.067394
59516.356802,1184.329507,-8290.306550,3600.648841
59516.357111,1924.535449,-6365.771101,2145.067394
59516.357421,0.000000,-9548.656652,1608.800546
59516.357731,-74.020594,-10066.800811,2068.457845
59516.358040,-3182.885551,-10140.821405,-1072.533697
59516.358350,-5329.482782,-10140.821405,-3677.258390
59516.358659,-1184.329507,-11029.068536,766.095498
59516.358969,-1258.350101,-10658.965565,536.266849
