#time,accel_x,accel_y,accel_z
59510.065486,-592.164754,-8734.430116,536.266849
59510.065795,-444.123565,-9252.574275,766.095498
59510.066105,0.000000,-7772.162391,0.000000
59510.066414,-2368.659014,-7179.997637,0.000000
59510.066723,1702.473667,-10658.965565,1762.019645
59510.067033,-1184.329507,-7920.203579,0.000000
59510.067342,2294.638420,-11843.295072,2374.896044
59510.067651,-962.267725,-7772.162391,0.000000
59510.067961,74.020594,-9252.574275,919.314598
59510.068270,-296.082377,-9178.553681,842.705048
59510.068580,-148.041188,-9178.553681,766.095498
59510.068889,-518.144159,-9252.574275,1149.143247
59510.069198,0.000000,-7254.018232,153.219100
59510.069508,-1776.494261,-7476.080014,0.000000
59510.069817,0.000000,-9548.656652,1838.629195
59510.070126,-74.020594,-7846.182985,-1302.362347
59510.070436,0.000000,-9548.656652,2451.505594
59510.070745,-74.020594,-8882.471304,0.000000
59510.071054,-592.164754,-8956.491898,766.095498
59510.071364,-222.061783,-9400.615463,689.485948
59510.071673,-444.123565,-9104.533087,612.876398
59510.071982,-296.082377,-9252.574275,1762.019645
59510.072292,-1850.514855,-8142.265362,229.828649
59510.072601,-2368.659014,-7179.997637,0.000000
59510.072911,592.164754,-10288.862594,1991.848295
59510.073220,-74.020594,-8216.285956,-2451.505594
59510.073529,1702.473667,-11843.295072,2374.896044
59510.073839,-74.020594,-9474.636058,383.047749
59510.074148,-888.247130,-8660.409521,459.657299
59510.074457,-740.205942,-9104.533087,766.095498
59510.074767,-370.102971,-9326.594869,842.705048
59510.075076,-148.041188,-9030.512492,2298.286494
59510.075385,-666.185348,-8882.471304,1149.143247
59510.075695,-74.020594,-8882.471304,-76.609550
59510.076004,-1776.494261,-8364.327145,306.438199
59510.076313,-74.020594,-9474.636058,-76.609550
59510.076623,-2960.823768,-7179.997637,0.000000
59510.076932,1110.308913,-10584.944971,-76.609550
59510.077242,-814.226536,-8734.430116,153.219100
59510.077551,-148.041188,-9400.615463,995.924147
59510.077860,-370.102971,-9252.574275,842.705048
59510.078170,-222.061783,-9326.594869,1225.752797
59510.078479,-74.020594,-9474.636058,2374.896044
59510.078788,-74.020594,-9474.636058,-76.609550
59510.079098,-2072.576638,-7772.162391,0.000000
59510.079407,1110.308913,-11843.295072,3600.648841
59510.079716,-2960.823768,-7179.997637,0.000000
59510.080026,962.267725,-10066.800811,2374.896044
59510.080335,-666.185348,-8882.471304,76.609550
59510.080645,-296.082377,-8956.491898,536.266849
59510.080954,-444.123565,-8882.471304,1149.143247
59510.081263,-518.144159,-8956.491898,0.000000
59510.081573,1110.308913,-10066.800811,2374.896044
59510.081882,-74.020594,-11251.130318,2374.896044
59510.082191,-2072.576638,-7772.162391,0.000000
59510.082501,518.144159,-9474.636058,-76.609550
59510.082810,-2368.659014,-7772.162391,0.000000
59510.083119,0.000000,-10658.965565,2987.772442
59510.083429,-370.102971,-8882.471304,689.485948
59510.083738,-518.144159,-9178.553681,689.485948
59510.084047,-370.102971,-8956.491898,766.095498
59510.084357,-74.020594,-8956.491898,0.000000
59510.084666,296.082377,-9326.594869,1225.752797
59510.084976,1110.308913,-10584.944971,2374.896044
59510.085285,-962.267725,-8586.388927,229.828649
59510.085594,888.247130,-11029.068536,3370.820191
59510.085904,-1110.308913,-7624.121203,0.000000
59510.086213,-1184.329507,-9844.739029,2298.286494
59510.086522,-74.020594,-9474.636058,536.266849
59510.086832,-518.144159,-8882.471304,536.266849
59510.087141,-444.123565,-9252.574275,1072.533697
59510.087450,-222.061783,-8068.244768,0.000000
59510.087760,0.000000,-8956.491898,0.000000
59510.088069,0.000000,-8660.409521,1225.752797
59510.088378,-74.020594,-9474.636058,1149.143247
59510.088688,0.000000,-7179.997637,1225.752797
59510.088997,2294.638420,-10658.965565,2374.896044
59510.089307,0.000000,-8068.244768,1225.752797
59510.089616,962.267725,-8882.471304,1225.752797
59510.089925,666.185348,-8660.409521,689.485948
59510.090235,1110.308913,-8882.471304,612.876398
59510.090544,1702.473667,-7994.224174,1149.143247
59510.090853,296.082377,-7476.080014,-1532.190996
59510.091163,0.000000,-7772.162391,0.000000
59510.091472,3997.112087,-10214.842000,2374.896044
59510.091781,592.164754,-7179.997637,0.000000
59510.092091,4663.297435,-10658.965565,3600.648841
59510.092400,2072.576638,-7772.162391,0.000000
59510.092709,2886.803174,-9770.718434,536.266849
59510.093019,3627.009116,-9030.512492,536.266849
59510.093328,4145.153275,-9178.553681,1455.581446
59510.093638,4959.379811,-9474.636058,1762.019645
59510.093947,4737.318029,-7476.080014,842.705048
59510.094256,4145.153275,-7179.997637,229.828649
59510.094566,6883.915261,-9474.636058,2528.115143
59510.094875,2368.659014,-5995.668130,0.000000
59510.095184,8216.285956,-10658.965565,2145.067394
59510.095494,4737.318029,-7772.162391,-1225.752797
59510.095803,6069.688724,-9178.553681,0.000000
59510.096112,6365.771101,-9844.739029,76.609550
59510.096422,5995.668130,-10436.903782,-229.828649
59510.096731,5255.462188,-13027.624579,1149.143247
59510.097040,3182.885551,-11843.295072,-76.609550
59510.097350,1628.453072,-11103.089130,-842.705048
59510.097659,2368.659014,-12361.439231,2374.896044
59510.097969,74.020594,-7179.997637,0.000000
59510.098278,4663.297435,-8882.471304,1225.752797
59510.098587,3775.050304,-4441.235652,76.609550
59510.098897,5033.400406,-3997.112087,1838.629195
59510.099206,7476.080014,-3627.009116,2911.162892
59510.099515,8956.491898,-5181.441594,3140.991542
59510.099825,10288.862594,-8216.285956,4519.963438
59510.100134,6439.791695,-11843.295072,2374.896044
59510.100443,2886.803174,-14211.954086,-689.485948
59510.100753,-2368.659014,-15470.304188,-4903.011187
59510.101062,-1332.370696,-18949.272115,-689.485948
59510.101371,-5107.421000,-12509.480420,-4903.011187
59510.101681,-3034.844362,-10066.800811,-2834.553343
59510.101990,-2368.659014,-7846.182985,-995.924147
59510.102300,1258.350101,-6069.688724,2298.286494
59510.102609,3923.091493,-5921.647536,5056.230287
59510.102918,5329.482782,-5403.503377,7354.516781
59510.103228,4663.297435,-6957.935855,6665.030833
59510.103537,2886.803174,-5921.647536,4826.401637
59510.103846,1184.329507,-3034.844362,0.000000
59510.104156,6439.791695,-7105.977043,4826.401637
59510.104465,2294.638420,-3997.112087,-1302.362347
59510.104774,-74.020594,-11843.295072,-766.095498
59510.105084,-3627.009116,-16876.695478,-2681.334243
59510.105393,-5181.441594,-19911.539840,-2757.943793
59510.105703,-5995.668130,-17912.983796,-3753.867940
59510.106012,-4737.318029,-11325.150913,-3677.258390
59510.106321,-74.020594,-8956.491898,919.314598
59510.106631,3478.967927,-7105.977043,2987.772442
59510.106940,2368.659014,-3627.009116,2451.505594
59510.107249,7031.956449,-7105.977043,6052.154434
59510.107559,4737.318029,-2886.803174,4443.353888
59510.107868,10288.862594,-4145.153275,6971.469032
59510.108177,8512.368333,-3256.906145,5209.449386
59510.108487,5625.565159,-4959.379811,3524.039291
59510.108796,2072.576638,-9844.739029,536.266849
59510.109105,-2368.659014,-14285.974681,-4290.134789
59510.109415,-1184.329507,-16654.633695,-3677.258390
59510.109724,-1332.370696,-16358.551318,-4213.525239
59510.110034,-3330.926739,-15396.283594,-4979.620737
59510.110343,-7105.977043,-11917.315666,-4290.134789
59510.110652,2294.638420,-11843.295072,-76.609550
59510.110962,7550.100608,-5921.647536,4749.792088
59510.111271,11917.315666,-1628.453072,5822.325785
59510.111580,13249.686362,-1184.329507,7124.688131
59510.111890,12213.398043,-4367.215058,7277.907231
59510.112199,8734.430116,-5107.421000,3677.258390
59510.112508,4737.318029,-5995.668130,1838.629195
59510.112818,1776.494261,-9548.656652,-1838.629195
59510.113127,-370.102971,-11843.295072,-4979.620737
59510.113436,-4737.318029,-14285.974681,-4903.011187
59510.113746,1702.473667,-16580.613101,-3753.867940
59510.114055,2368.659014,-11917.315666,-2145.067394
59510.114365,4441.235652,-11325.150913,-459.657299
59510.114674,1628.453072,-11029.068536,229.828649
59510.114983,3256.906145,-9252.574275,1072.533697
59510.115293,7328.038826,-5329.482782,2068.457845
59510.115602,5921.647536,-1850.514855,2451.505594
59510.115911,4145.153275,-3923.091493,2451.505594
59510.116221,6439.791695,-9474.636058,4213.525239
59510.116530,5477.523971,-4811.338623,919.314598
59510.116839,8808.450710,-11325.150913,6665.030833
59510.117149,296.082377,-10140.821405,306.438199
59510.117458,-2516.700203,-14211.954086,-2911.162892
59510.117767,-3182.885551,-14211.954086,-3370.820191
59510.118077,-3404.947333,-11769.274478,-2987.772442
59510.118386,-666.185348,-11547.212695,-1302.362347
59510.118696,1998.556043,-6513.812290,-76.609550
59510.119005,5921.647536,-3627.009116,1838.629195
59510.119314,8808.450710,-9474.636058,7277.907231
59510.119624,2146.597232,-4811.338623,1838.629195
59510.119933,4145.153275,-8216.285956,5515.887586
59510.120242,1184.329507,-5699.585753,306.438199
59510.120552,2072.576638,-8808.450710,1225.752797
59510.120861,1554.432478,-10436.903782,1149.143247
59510.121170,814.226536,-10955.047942,0.000000
59510.121480,-74.020594,-13619.789333,-76.609550
59510.121789,-2442.679609,-13323.706956,-2528.115143
59510.122098,-4145.153275,-12287.418637,-1762.019645
59510.122408,0.000000,-7179.997637,0.000000
59510.122717,5847.626942,-9474.636058,3600.648841
59510.123027,3552.988522,-4811.338623,2451.505594
59510.123336,5033.400406,-4811.338623,3677.258390
59510.123645,5773.606348,-5551.544565,3983.696590
59510.123955,1480.411884,-7624.121203,1915.238745
59510.124264,1184.329507,-8512.368333,153.219100
59510.124573,3478.967927,-11843.295072,3294.210641
59510.124883,3478.967927,-11843.295072,1149.143247
59510.125192,-74.020594,-10510.924376,-842.705048
59510.125501,-2368.659014,-9548.656652,0.000000
59510.125811,-74.020594,-13027.624579,-76.609550
59510.126120,0.000000,-7772.162391,0.000000
59510.126430,4663.297435,-7402.059420,842.705048
59510.126739,4811.338623,-7846.182985,1915.238745
59510.127048,5403.503377,-7772.162391,2451.505594
59510.127358,5477.523971,-7254.018232,2451.505594
59510.127667,5329.482782,-9104.533087,4213.525239
59510.127976,5847.626942,-9178.553681,2987.772442
59510.128286,3478.967927,-9474.636058,536.266849
59510.128595,1184.329507,-10732.986159,2451.505594
59510.128904,-74.020594,-11547.212695,-383.047749
59510.129214,-4441.235652,-9548.656652,-3677.258390
59510.129523,2294.638420,-9474.636058,-383.047749
59510.129832,3552.988522,-6587.832884,1072.533697
59510.130142,4663.297435,-7550.100608,2068.457845
59510.130451,4663.297435,-5773.606348,842.705048
59510.130761,3552.988522,-7179.997637,1225.752797
59510.131070,5995.668130,-11547.212695,2757.943793
59510.131379,5847.626942,-7994.224174,-76.609550
59510.131689,1184.329507,-9548.656652,1225.752797
59510.131998,3478.967927,-9474.636058,-1302.362347
59510.132307,148.041188,-8364.327145,-2911.162892
59510.132617,5551.544565,-11251.130318,-76.609550
59510.132926,3108.864956,-9474.636058,766.095498
59510.133235,888.247130,-9844.739029,76.609550
59510.133545,2590.720797,-9252.574275,612.876398
59510.133854,2368.659014,-8364.327145,1532.190996
59510.134164,6513.812290,-8364.327145,4443.353888
59510.134473,5699.585753,-5329.482782,3600.648841
59510.134783,0.000000,-4811.338623,0.000000
59510.135092,4663.297435,-10658.965565,2068.457845
59510.135402,2886.803174,-7105.977043,-76.609550
59510.135711,5181.441594,-10658.965565,2221.676944
59510.136021,1850.514855,-8586.388927,-459.657299
59510.136330,814.226536,-11547.212695,-689.485948
59510.136640,1036.288319,-11103.089130,-1225.752797
59510.136949,-2960.823768,-9548.656652,0.000000
59510.137258,-1776.494261,-10732.986159,0.000000
59510.137568,-2146.597232,-11843.295072,-76.609550
59510.137877,-3627.009116,-5625.565159,-3447.429741
59510.138187,-592.164754,-11621.233289,3064.381992
59510.138496,3478.967927,-4737.318029,3600.648841
59510.138806,2812.782580,-6809.894666,4826.401637
59510.139115,1924.535449,-6143.709319,3600.648841
59510.139425,666.185348,-6809.894666,2451.505594
59510.139734,296.082377,-9992.780217,3294.210641
59510.140044,-2368.659014,-6735.874072,0.000000
59510.140353,-5329.482782,-11325.150913,0.000000
59510.140662,-5625.565159,-11251.130318,-1225.752797
59510.140972,-5995.668130,-14211.954086,-2528.115143
59510.141281,-7105.977043,-8364.327145,-1838.629195
59510.141591,-2738.761985,-11843.295072,2987.772442
59510.141900,-2960.823768,-8660.409521,1838.629195
59510.142210,-3923.091493,-7846.182985,1149.143247
59510.142519,-2368.659014,-8290.306550,3064.381992
59510.142829,1036.288319,-4737.318029,3600.648841
59510.143138,-962.267725,-5107.421000,1915.238745
59510.143448,-3552.988522,-3627.009116,306.438199
59510.143757,-4145.153275,-10140.821405,1838.629195
59510.144066,-74.020594,-9474.636058,-76.609550
59510.144376,-5921.647536,-9548.656652,0.000000
59510.144685,-3034.844362,-13027.624579,2374.896044
59510.144995,-5921.647536,-10881.027347,-1838.629195
59510.145304,-3034.844362,-12139.377449,229.828649
59510.145614,666.185348,-7994.224174,1072.533697
59510.145923,-1480.411884,-9178.553681,2298.286494
59510.146233,-1258.350101,-5625.565159,-995.924147
59510.146542,-3552.988522,-7772.162391,0.000000
59510.146852,1776.494261,-6291.750507,3064.381992
59510.147161,4663.297435,-8290.306550,2374.896044
59510.147470,0.000000,-4811.338623,612.876398
59510.147780,3404.947333,-10362.883188,3600.648841
59510.148089,296.082377,-11325.150913,1225.752797
59510.148399,1924.535449,-9918.759623,-383.047749
59510.148708,-1258.350101,-12805.562797,0.000000
59510.149018,-1924.535449,-9474.636058,-1762.019645
59510.149327,-1258.350101,-13915.871710,-2528.115143
59510.149637,370.102971,-8734.430116,-1762.019645
59510.149946,2368.659014,-7179.997637,612.876398
59510.150256,6439.791695,-9474.636058,3600.648841
59510.150565,2368.659014,-4811.338623,612.876398
59510.150875,6365.771101,-10732.986159,6128.763984
59510.151184,4885.359217,-5995.668130,2451.505594
59510.151493,3997.112087,-9918.759623,2911.162892
59510.151803,814.226536,-8216.285956,-383.047749
59510.152112,-1924.535449,-11843.295072,-1991.848295
59510.152422,-74.020594,-11843.295072,-689.485948
59510.152731,1110.308913,-9474.636058,-1915.238745
59510.153041,0.000000,-8512.368333,0.000000
59510.153350,2220.617826,-11843.295072,1685.410096
59510.153660,518.144159,-10510.924376,229.828649
59510.153969,3552.988522,-7179.997637,2451.505594
59510.154279,2738.761985,-7179.997637,2451.505594
59510.154588,1332.370696,-6069.688724,1608.800546
59510.154897,-518.144159,-7846.182985,0.000000
59510.155207,-666.185348,-8660.409521,919.314598
59510.155516,3478.967927,-9474.636058,3600.648841
59510.155826,-74.020594,-9474.636058,1762.019645
59510.156135,-2146.597232,-7179.997637,-3677.258390
59510.156445,-1480.411884,-13693.809927,2145.067394
59510.156754,-1258.350101,-9030.512492,-383.047749
59510.157064,-4145.153275,-9548.656652,0.000000
59510.157373,-3627.009116,-8068.244768,-1302.362347
59510.157683,-5477.523971,-10510.924376,-1838.629195
59510.157992,-3256.906145,-9844.739029,306.438199
59510.158301,-148.041188,-7179.997637,1072.533697
59510.158611,518.144159,-8882.471304,4826.401637
59510.158920,-74.020594,-5921.647536,1762.019645
59510.159230,-1554.432478,-7328.038826,0.000000
59510.159539,3478.967927,-9474.636058,4519.963438
59510.159849,-2072.576638,-8734.430116,1455.581446
59510.160158,-6513.812290,-6587.832884,0.000000
59510.160468,-5255.462188,-10658.965565,-1915.238745
59510.160777,-5033.400406,-10955.047942,-1378.971896
59510.161087,-1998.556043,-9326.594869,-383.047749
59510.161396,-2590.720797,-9770.718434,995.924147
59510.161705,-1480.411884,-8660.409521,1838.629195
59510.162015,-74.020594,-11251.130318,2068.457845
59510.162324,2886.803174,-7105.977043,1762.019645
59510.162634,2368.659014,-9548.656652,5515.887586
59510.162943,1998.556043,-5921.647536,2374.896044
59510.163253,-3552.988522,-6587.832884,-2451.505594
59510.163562,-666.185348,-10362.883188,536.266849
59510.163872,0.000000,-9030.512492,0.000000
59510.164181,-1036.288319,-10658.965565,1149.143247
59510.164491,-1850.514855,-9474.636058,-842.705048
59510.164800,-3552.988522,-11621.233289,1838.629195
59510.165110,4145.153275,-10807.006753,3677.258390
59510.165419,4663.297435,-11251.130318,4826.401637
59510.165728,0.000000,-5107.421000,1225.752797
59510.166038,-222.061783,-9474.636058,-76.609550
59510.166347,-4811.338623,-6587.832884,-4060.306139
59510.166657,-74.020594,-10658.965565,-76.609550
59510.166966,1998.556043,-7846.182985,1608.800546
59510.167276,1332.370696,-7476.080014,689.485948
59510.167585,740.205942,-9104.533087,842.705048
59510.167895,1184.329507,-8364.327145,2451.505594
59510.168204,5921.647536,-9696.697840,4903.011187
59510.168514,4663.297435,-11843.295072,4826.401637
59510.168823,-1850.514855,-9474.636058,-2528.115143
59510.169132,-3552.988522,-11029.068536,-1225.752797
59510.169442,-74.020594,-10658.965565,-1302.362347
59510.169751,1702.473667,-10362.883188,842.705048
59510.170061,-222.061783,-7179.997637,-459.657299
59510.170370,-518.144159,-7772.162391,-919.314598
59510.170680,2886.803174,-9696.697840,1455.581446
59510.170989,3552.988522,-5995.668130,2451.505594
59510.171299,1776.494261,-8956.491898,3983.696590
59510.171608,-74.020594,-10658.965565,2374.896044
59510.171918,-5921.647536,-9548.656652,-3064.381992
59510.172227,-74.020594,-11251.130318,-76.609550
59510.172536,-74.020594,-9474.636058,-76.609550
59510.172846,-1110.308913,-8216.285956,383.047749
59510.173155,-1628.453072,-9770.718434,229.828649
59510.173465,2146.597232,-9178.553681,2145.067394
59510.173774,4737.318029,-7105.977043,3217.601092
59510.174084,0.000000,-4811.338623,1838.629195
59510.174393,-3552.988522,-6291.750507,-1838.629195
59510.174703,-4737.318029,-13693.809927,-76.609550
59510.175012,-3034.844362,-9474.636058,-3753.867940
59510.175322,-4145.153275,-10732.986159,0.000000
59510.175631,-74.020594,-9474.636058,-76.609550
59510.175941,-1184.329507,-9844.739029,0.000000
59510.176250,2516.700203,-10214.842000,3294.210641
59510.176559,5329.482782,-7698.141797,4443.353888
59510.176869,2442.679609,-8734.430116,4903.011187
59510.177178,-2146.597232,-5551.544565,0.000000
59510.177488,-6513.812290,-9844.739029,0.000000
59510.177797,-1776.494261,-10732.986159,1838.629195
59510.178107,-4367.215058,-8364.327145,-1072.533697
59510.178416,-1776.494261,-7772.162391,919.314598
59510.178726,-74.020594,-11251.130318,-76.609550
59510.179035,-1184.329507,-8956.491898,1225.752797
59510.179345,3182.885551,-8512.368333,2681.334243
59510.179654,1850.514855,-9474.636058,4366.744339
59510.179963,-296.082377,-8068.244768,1225.752797
59510.180273,-3034.844362,-11547.212695,-2221.676944
59510.180582,-2368.659014,-7624.121203,-1762.019645
59510.180892,-1184.329507,-11325.150913,3677.258390
59510.181201,-74.020594,-7105.977043,-76.609550
59510.181511,-2368.659014,-7179.997637,0.000000
59510.181820,1776.494261,-11547.212695,3907.087040
59510.182130,2960.823768,-6661.853478,2757.943793
59510.182439,3256.906145,-9104.533087,5132.839837
59510.182749,222.061783,-7031.956449,919.314598
59510.183058,-4589.276840,-10955.047942,-1378.971896
59510.183367,-2442.679609,-9474.636058,-2528.115143
59510.183677,-2738.761985,-10214.842000,-995.924147
59510.183986,-2368.659014,-7179.997637,0.000000
59510.184296,-74.020594,-11547.212695,-76.609550
59510.184605,0.000000,-8956.491898,0.000000
59510.184915,5921.647536,-10140.821405,6281.983084
59510.185224,3701.029710,-8364.327145,4596.572988
59510.185534,1850.514855,-6439.791695,2145.067394
59510.185843,-3182.885551,-9918.759623,-306.438199
59510.186153,-3034.844362,-9992.780217,-1685.410096
59510.186462,-74.020594,-10658.965565,-76.609550
59510.186771,-962.267725,-8586.388927,536.266849
59510.187081,-4441.235652,-5403.503377,-3677.258390
59510.187390,1184.329507,-11399.171507,1838.629195
59510.187700,3478.967927,-6513.812290,383.047749
59510.188009,2368.659014,-9548.656652,5515.887586
59510.188319,962.267725,-7031.956449,919.314598
59510.188628,-2960.823768,-10214.842000,-1225.752797
59510.188938,-2368.659014,-10584.944971,-1149.143247
59510.189247,-1036.288319,-9252.574275,-766.095498
59510.189557,-74.020594,-9474.636058,1149.143247
59510.189866,-962.267725,-7105.977043,-1378.971896
59510.190176,-4441.235652,-7772.162391,0.000000
59510.190485,5477.523971,-7772.162391,3677.258390
59510.190794,4663.297435,-9474.636058,4213.525239
59510.191104,2294.638420,-6217.729913,1149.143247
59510.191413,-1924.535449,-11251.130318,-76.609550
59510.191723,-3330.926739,-9844.739029,-1991.848295
59510.192032,-962.267725,-9622.677246,-1072.533697
59510.192342,-888.247130,-10436.903782,1685.410096
59510.192651,-1628.453072,-8586.388927,1149.143247
59510.192961,-1850.514855,-11769.274478,2374.896044
59510.193270,3478.967927,-7105.977043,-76.609550
59510.193580,2664.741391,-9844.739029,3677.258390
59510.193889,3182.885551,-7698.141797,3294.210641
59510.194198,-518.144159,-10362.883188,1072.533697
59510.194508,-2368.659014,-9104.533087,0.000000
59510.194817,-592.164754,-8956.491898,76.609550
59510.195127,-1924.535449,-10436.903782,1608.800546
59510.195436,-2442.679609,-7402.059420,-689.485948
59510.195746,-2368.659014,-9548.656652,0.000000
59510.196055,2664.741391,-5995.668130,0.000000
59510.196365,5329.482782,-9474.636058,6741.640382
59510.196674,2294.638420,-6513.812290,3294.210641
59510.196984,-2960.823768,-7772.162391,0.000000
59510.197293,-4145.153275,-11325.150913,0.000000
59510.197602,-2886.803174,-11103.089130,-2068.457845
59510.197912,-4293.194464,-10732.986159,0.000000
59510.198221,-2812.782580,-8142.265362,-1225.752797
59510.198531,-2146.597232,-9918.759623,-306.438199
59510.198840,2368.659014,-9474.636058,3600.648841
59510.199150,4663.297435,-7994.224174,4826.401637
59510.199459,-74.020594,-9474.636058,3600.648841
59510.199769,-2368.659014,-5995.668130,0.000000
59510.200078,-74.020594,-10807.006753,2221.676944
59510.200388,1702.473667,-9104.533087,1149.143247
59510.200697,-2590.720797,-9178.553681,919.314598
59510.201006,-3849.070898,-9030.512492,-1072.533697
59510.201316,-3627.009116,-10140.821405,-2528.115143
59510.201625,-2072.576638,-10362.883188,0.000000
59510.201935,1480.411884,-7179.997637,2451.505594
59510.202244,1184.329507,-8364.327145,1225.752797
59510.202554,2960.823768,-8142.265362,2681.334243
59510.202863,-4145.153275,-9548.656652,-1072.533697
59510.203173,-1184.329507,-9104.533087,-76.609550
59510.203482,-1628.453072,-11547.212695,1149.143247
59510.203792,-740.205942,-8290.306550,-536.266849
59510.204101,-1110.308913,-9844.739029,-459.657299
59510.204411,2368.659014,-9252.574275,2145.067394
59510.204720,4145.153275,-7476.080014,3064.381992
59510.205029,3478.967927,-8882.471304,3600.648841
59510.205339,-74.020594,-8290.306550,-76.609550
59510.205648,-4737.318029,-9548.656652,0.000000
59510.205958,2294.638420,-10658.965565,-76.609550
59510.206267,-2220.617826,-9548.656652,0.000000
59510.206577,-2738.761985,-7920.203579,-689.485948
59510.206886,-2072.576638,-10584.944971,-1302.362347
59510.207196,148.041188,-9918.759623,689.485948
59510.207505,3775.050304,-8438.347739,2068.457845
59510.207815,2590.720797,-8438.347739,3983.696590
59510.208124,1480.411884,-7179.997637,1532.190996
59510.208433,-1184.329507,-11029.068536,2451.505594
59510.208743,-962.267725,-9030.512492,-383.047749
59510.209052,-2368.659014,-10140.821405,0.000000
59510.209362,-1258.350101,-8882.471304,-1915.238745
59510.209671,-2368.659014,-9548.656652,-3677.258390
59510.209981,1702.473667,-11843.295072,2221.676944
59510.210290,3478.967927,-8882.471304,2987.772442
59510.210600,2590.720797,-8290.306550,4213.525239
59510.210909,1110.308913,-6513.812290,1762.019645
59510.211219,-1776.494261,-9548.656652,306.438199
59510.211528,0.000000,-5995.668130,0.000000
59510.211837,-74.020594,-11843.295072,2374.896044
59510.212147,-3552.988522,-7920.203579,0.000000
59510.212456,-2368.659014,-10140.821405,1225.752797
59510.212766,-296.082377,-11843.295072,2987.772442
59510.213075,2294.638420,-8290.306550,1915.238745
59510.213385,1924.535449,-8660.409521,4443.353888
59510.213694,1184.329507,-6809.894666,2145.067394
59510.214004,-1184.329507,-9030.512492,612.876398
59510.214313,-74.020594,-8142.265362,1149.143247
59510.214623,-74.020594,-11251.130318,-76.609550
59510.214932,-5921.647536,-7179.997637,-2145.067394
59510.215242,-3923.091493,-10658.965565,-1608.800546
59510.215551,-4737.318029,-9548.656652,0.000000
59510.215860,1184.329507,-7179.997637,1225.752797
59510.216170,2738.761985,-9474.636058,4213.525239
59510.216479,2220.617826,-6291.750507,2757.943793
59510.216789,-814.226536,-8808.450710,919.314598
59510.217098,444.123565,-9474.636058,1762.019645
59510.217408,-1480.411884,-9548.656652,0.000000
59510.217717,-2368.659014,-10140.821405,612.876398
59510.218027,-4219.173869,-9474.636058,-2834.553343
59510.218336,-3552.988522,-11177.109724,1149.143247
59510.218646,2294.638420,-6513.812290,-689.485948
59510.218955,2294.638420,-9178.553681,2987.772442
59510.219264,962.267725,-6661.853478,1532.190996
59510.219574,-814.226536,-9252.574275,689.485948
59510.219883,222.061783,-9326.594869,919.314598
59510.220193,0.000000,-9548.656652,1225.752797
59510.220502,-2738.761985,-10658.965565,-76.609550
59510.220812,-4071.132681,-7698.141797,-3447.429741
59510.221121,-2368.659014,-11917.315666,612.876398
59510.221431,4071.132681,-8290.306550,-76.609550
59510.221740,2516.700203,-6735.874072,3677.258390
59510.222050,2368.659014,-5403.503377,3677.258390
59510.222359,222.061783,-8882.471304,689.485948
59510.222668,-370.102971,-9992.780217,153.219100
59510.222978,296.082377,-9622.677246,0.000000
59510.223287,-1258.350101,-9474.636058,-1302.362347
59510.223597,-3552.988522,-8364.327145,-2451.505594
59510.223906,-1258.350101,-13619.789333,-76.609550
59510.224216,370.102971,-8512.368333,0.000000
59510.224525,4663.297435,-11621.233289,5745.716235
59510.224835,1110.308913,-5403.503377,1225.752797
59510.225144,1110.308913,-7550.100608,1149.143247
59510.225454,888.247130,-8956.491898,2451.505594
59510.225763,1184.329507,-7920.203579,1991.848295
59510.226072,-1628.453072,-9252.574275,1072.533697
59510.226382,-2072.576638,-8364.327145,-153.219100
59510.226691,-2442.679609,-11251.130318,-1302.362347
59510.227001,-2368.659014,-7772.162391,-1685.410096
59510.227310,2590.720797,-10510.924376,4213.525239
59510.227620,0.000000,-5403.503377,0.000000
59510.227929,518.144159,-10658.965565,2987.772442
59510.228239,-592.164754,-10955.047942,1532.190996
59510.228548,-74.020594,-8882.471304,-76.609550
59510.228858,-2516.700203,-10436.903782,1608.800546
59510.229167,-2368.659014,-8290.306550,-1072.533697
59510.229477,-4219.173869,-9252.574275,-2451.505594
59510.229786,592.164754,-8364.327145,1838.629195
59510.230095,4663.297435,-9474.636058,4826.401637
59510.230405,1332.370696,-4811.338623,153.219100
59510.230714,1184.329507,-7920.203579,3064.381992
59510.231024,-1776.494261,-8734.430116,842.705048
59510.231333,74.020594,-7550.100608,0.000000
59510.231643,-1184.329507,-10807.006753,1685.410096
59510.231952,-3775.050304,-9696.697840,-1532.190996
59510.232262,-5921.647536,-11621.233289,-2451.505594
59510.232571,-740.205942,-12435.459826,1455.581446
59510.232881,1702.473667,-8586.388927,1149.143247
59510.233190,296.082377,-6587.832884,2757.943793
59510.233499,-74.020594,-8290.306550,-76.609550
59510.233809,-2368.659014,-9548.656652,1225.752797
59510.234118,2294.638420,-8290.306550,-76.609550
59510.234428,-666.185348,-9992.780217,2681.334243
59510.234737,-2072.576638,-7402.059420,-919.314598
59510.235047,-4145.153275,-10214.842000,-2145.067394
59510.235356,-222.061783,-9622.677246,-383.047749
59510.235666,0.000000,-7772.162391,0.000000
59510.235976,1258.350101,-9474.636058,3217.601092
59510.236285,-74.020594,-9178.553681,-76.609550
59510.236595,-3552.988522,-9548.656652,0.000000
59510.236904,4663.297435,-10658.965565,2374.896044
59510.237214,592.164754,-9548.656652,4903.011187
59510.237524,-3552.988522,-5403.503377,0.000000
59510.237833,-2368.659014,-10436.903782,306.438199
59510.238143,1110.308913,-10658.965565,1149.143247
59510.238453,2442.679609,-8512.368333,1915.238745
59510.238762,1702.473667,-7105.977043,1455.581446
59510.239072,0.000000,-7328.038826,306.438199
59510.239381,-1406.391290,-10362.883188,0.000000
59510.239691,962.267725,-8956.491898,612.876398
59510.240001,74.020594,-10436.903782,1762.019645
59510.240310,-1480.411884,-10436.903782,1149.143247
59510.240620,-2590.720797,-10658.965565,-1455.581446
59510.240930,-1480.411884,-11473.192101,1225.752797
59510.241239,2294.638420,-8290.306550,995.924147
59510.241549,1776.494261,-8364.327145,4903.011187
59510.241858,1702.473667,-5921.647536,536.266849
59510.242168,-2368.659014,-7772.162391,0.000000
59510.242478,2072.576638,-9844.739029,3907.087040
59510.242787,-962.267725,-5625.565159,0.000000
59510.243097,-3404.947333,-11473.192101,1149.143247
59510.243407,-3701.029710,-7920.203579,-3294.210641
59510.243716,-1850.514855,-11251.130318,-383.047749
59510.244026,1554.432478,-9622.677246,1685.410096
59510.244335,444.123565,-9104.533087,2604.724693
59510.244645,-1036.288319,-7920.203579,842.705048
59510.244955,0.000000,-9474.636058,-76.609550
59510.245264,74.020594,-8438.347739,1225.752797
59510.245574,1776.494261,-7254.018232,2298.286494
59510.245884,-296.082377,-8956.491898,2987.772442
59510.246193,-1554.432478,-7476.080014,-1991.848295
59510.246503,-4737.318029,-11029.068536,-2451.505594
59510.246812,-740.205942,-8512.368333,0.000000
59510.247122,2294.638420,-13027.624579,2374.896044
59510.247432,0.000000,-4811.338623,0.000000
59510.247741,-2072.576638,-9548.656652,0.000000
59510.248051,1184.329507,-8660.409521,3064.381992
59510.248361,2146.597232,-8364.327145,2374.896044
59510.248670,518.144159,-8660.409521,2451.505594
59510.248980,-1850.514855,-8882.471304,-1455.581446
59510.249289,-2590.720797,-11473.192101,-459.657299
59510.249599,962.267725,-8142.265362,0.000000
59510.249909,592.164754,-9548.656652,3064.381992
59510.250218,3478.967927,-7105.977043,-76.609550
59510.250528,-2960.823768,-8512.368333,0.000000
59510.250838,1110.308913,-9474.636058,-76.609550
59510.251147,0.000000,-8364.327145,2145.067394
59510.251457,-74.020594,-9400.615463,1838.629195
59510.251766,-1924.535449,-9030.512492,-1762.019645
59510.252076,-2072.576638,-11251.130318,-536.266849
59510.252386,1628.453072,-9178.553681,306.438199
59510.252695,1110.308913,-9918.759623,842.705048
59510.253005,-1184.329507,-5995.668130,0.000000
59510.253315,-74.020594,-11843.295072,-76.609550
59510.253624,0.000000,-7328.038826,0.000000
59510.253934,2368.659014,-8364.327145,3064.381992
59510.254243,0.000000,-7476.080014,2757.943793
59510.254553,-1258.350101,-8142.265362,-229.828649
59510.254863,-3330.926739,-11177.109724,-383.047749
59510.255172,444.123565,-9178.553681,383.047749
59510.255482,1110.308913,-9844.739029,3064.381992
59510.255792,-74.020594,-7105.977043,1762.019645
59510.256101,-3552.988522,-7254.018232,-2451.505594
59510.256411,-74.020594,-11843.295072,2068.457845
59510.256720,666.185348,-6439.791695,0.000000
59510.257030,0.000000,-9548.656652,3064.381992
59510.257340,-2664.741391,-6291.750507,-1685.410096
59510.257649,-3330.926739,-12435.459826,-229.828649
59510.257959,-222.061783,-8512.368333,153.219100
59510.258269,-2220.617826,-11473.192101,1532.190996
59510.258578,-592.164754,-8808.450710,1378.971896
59510.258888,-74.020594,-8290.306550,-76.609550
59510.259197,222.061783,-7846.182985,536.266849
59510.259507,2368.659014,-7772.162391,2451.505594
59510.259817,-1258.350101,-10584.944971,2374.896044
59510.260126,0.000000,-5995.668130,0.000000
59510.260436,-4367.215058,-11177.109724,-919.314598
59510.260746,-74.020594,-9326.594869,-76.609550
59510.261055,-74.020594,-10881.027347,2068.457845
59510.261365,0.000000,-8068.244768,1608.800546
59510.261674,-2146.597232,-9030.512492,-383.047749
59510.261984,-370.102971,-9474.636058,2374.896044
59510.262294,2442.679609,-7698.141797,-76.609550
59510.262603,0.000000,-7772.162391,2451.505594
59510.262913,2886.803174,-7105.977043,1762.019645
59510.263223,-2812.782580,-10807.006753,-689.485948
59510.263532,0.000000,-7772.162391,-1225.752797
59510.263842,888.247130,-11103.089130,1685.410096
59510.264151,-518.144159,-8290.306550,1149.143247
59510.264461,-2072.576638,-7624.121203,-1302.362347
59510.264771,-962.267725,-10214.842000,689.485948
59510.265080,5255.462188,-9474.636058,2987.772442
59510.265390,3182.885551,-10658.965565,3600.648841
59510.265699,0.000000,-4811.338623,0.000000
59510.266009,-74.020594,-12435.459826,1685.410096
59510.266319,0.000000,-8956.491898,0.000000
59510.266628,1702.473667,-9918.759623,0.000000
59510.266938,592.164754,-9474.636058,2451.505594
59510.267248,-1480.411884,-8068.244768,-1302.362347
59510.267557,-2368.659014,-10214.842000,0.000000
59510.267867,1998.556043,-7772.162391,1149.143247
59510.268176,2516.700203,-10658.965565,4596.572988
59510.268486,2886.803174,-8882.471304,3600.648841
59510.268796,-1258.350101,-9474.636058,-1302.362347
59510.269105,-2072.576638,-9548.656652,0.000000
59510.269415,1110.308913,-11251.130318,842.705048
59510.269725,-370.102971,-10214.842000,0.000000
59510.270034,-2368.659014,-8068.244768,-1532.190996
59510.270344,-2516.700203,-10955.047942,-612.876398
59510.270653,1776.494261,-7550.100608,842.705048
59510.270963,888.247130,-9104.533087,4519.963438
59510.271273,0.000000,-8364.327145,3677.258390
59510.271582,-1850.514855,-11251.130318,-76.609550
59510.271892,-2368.659014,-8364.327145,0.000000
59510.272202,3478.967927,-9474.636058,3600.648841
59510.272511,-1258.350101,-7402.059420,2528.115143
59510.272821,-1258.350101,-7550.100608,-383.047749
59510.273130,-3849.070898,-10436.903782,-995.924147
59510.273440,0.000000,-8660.409521,-153.219100
59510.273750,-962.267725,-9844.739029,1455.581446
59510.274059,-2146.597232,-8734.430116,1532.190996
59510.274369,-3552.988522,-8364.327145,0.000000
59510.274679,0.000000,-11029.068536,2451.505594
59510.274988,4071.132681,-10658.965565,2374.896044
59510.275298,-2368.659014,-8660.409521,1838.629195
59510.275607,-1332.370696,-8142.265362,-76.609550
59510.275917,-1924.535449,-11029.068536,1149.143247
59510.276227,370.102971,-7031.956449,995.924147
59510.276536,962.267725,-8734.430116,2834.553343
59510.276846,0.000000,-7031.956449,2451.505594
59510.277156,-1628.453072,-8290.306550,0.000000
59510.277465,-3256.906145,-8956.491898,1225.752797
59510.277775,-3552.988522,-7772.162391,0.000000
59510.278084,-74.020594,-13915.871710,4213.525239
59510.278394,-222.061783,-6217.729913,-383.047749
59510.278704,-3997.112087,-11621.233289,0.000000
59510.279013,1480.411884,-7105.977043,-76.609550
59510.279323,-370.102971,-10658.965565,2068.457845
59510.279633,1776.494261,-5699.585753,1532.190996
59510.279942,-1258.350101,-8956.491898,0.000000
59510.280252,-1184.329507,-10732.986159,0.000000
59510.280561,592.164754,-6587.832884,612.876398
59510.280871,0.000000,-9548.656652,2451.505594
59510.281181,2886.803174,-9474.636058,2221.676944
59510.281490,-5181.441594,-9548.656652,-1225.752797
59510.281800,-666.185348,-9252.574275,-459.657299
59510.282110,1554.432478,-11843.295072,3600.648841
59510.282419,1850.514855,-7550.100608,2604.724693
59510.282729,888.247130,-9030.512492,766.095498
59510.283038,1258.350101,-10214.842000,1762.019645
59510.283348,3108.864956,-7328.038826,0.000000
59510.283658,0.000000,-8068.244768,1838.629195
59510.283967,-4441.235652,-5107.421000,-2451.505594
59510.284277,-3256.906145,-11917.315666,-229.828649
59510.284587,-962.267725,-10066.800811,-1302.362347
59510.284896,0.000000,-8660.409521,612.876398
59510.285206,0.000000,-9178.553681,2757.943793
59510.285515,296.082377,-7476.080014,-153.219100
59510.285825,0.000000,-10881.027347,1225.752797
59510.286135,3108.864956,-8512.368333,1838.629195
59510.286444,370.102971,-10436.903782,1608.800546
59510.286754,-2664.741391,-5477.523971,-995.924147
59510.287064,-5699.585753,-7772.162391,-2757.943793
59510.287373,0.000000,-9548.656652,919.314598
59510.287683,2294.638420,-7994.224174,842.705048
59510.287992,0.000000,-7179.997637,1455.581446
59510.288302,0.000000,-7772.162391,0.000000
59510.288612,-666.185348,-11695.253884,842.705048
59510.288921,888.247130,-9992.780217,459.657299
59510.289231,-1184.329507,-11251.130318,1225.752797
59510.289541,-2442.679609,-8364.327145,-995.924147
59510.289850,-3034.844362,-10066.800811,-1455.581446
59510.290160,-2960.823768,-7772.162391,0.000000
59510.290469,3923.091493,-8586.388927,3600.648841
59510.290779,0.000000,-5995.668130,2221.676944
59510.291089,592.164754,-5403.503377,2374.896044
59510.291398,-592.164754,-9548.656652,2451.505594
59510.291708,2442.679609,-8956.491898,2374.896044
59510.292018,592.164754,-10140.821405,2374.896044
59510.292327,-2294.638420,-9474.636058,-383.047749
59510.292637,-5033.400406,-10362.883188,-2528.115143
59510.292946,-3034.844362,-12731.542202,-1302.362347
59510.293256,-2368.659014,-6291.750507,-1762.019645
59510.293566,0.000000,-9548.656652,3677.258390
59510.293875,2294.638420,-6809.894666,1149.143247
59510.294185,-2072.576638,-9548.656652,1991.848295
59510.294495,1776.494261,-6587.832884,2451.505594
59510.294804,2146.597232,-9030.512492,3677.258390
59510.295114,148.041188,-7772.162391,1608.800546
59510.295423,-3182.885551,-8734.430116,-919.314598
59510.295733,-3256.906145,-11843.295072,-76.609550
59510.296043,1702.473667,-9474.636058,-76.609550
59510.296352,-74.020594,-9474.636058,-76.609550
59510.296662,-2368.659014,-5995.668130,0.000000
59510.296972,-222.061783,-11843.295072,2987.772442
59510.297281,1110.308913,-9474.636058,919.314598
59510.297591,0.000000,-8364.327145,766.095498
59510.297900,0.000000,-9400.615463,2451.505594
59510.298210,-2368.659014,-8586.388927,-536.266849
59510.298520,-3256.906145,-10362.883188,0.000000
59510.298829,1110.308913,-8882.471304,2374.896044
59510.299139,2294.638420,-8882.471304,2298.286494
59510.299449,2294.638420,-7698.141797,2374.896044
59510.299758,-1776.494261,-7179.997637,0.000000
59510.300068,3404.947333,-10362.883188,3294.210641
59510.300377,1406.391290,-9252.574275,0.000000
59510.300687,-2294.638420,-8660.409521,-995.924147
59510.300997,-3997.112087,-10288.862594,-2145.067394
59510.301306,-3330.926739,-12509.480420,-1532.190996
59510.301616,148.041188,-9104.533087,0.000000
59510.301925,1702.473667,-10658.965565,2987.772442
59510.302235,1776.494261,-7105.977043,766.095498
59510.302545,2294.638420,-11251.130318,2374.896044
59510.302854,592.164754,-7476.080014,1225.752797
59510.303164,4663.297435,-9326.594869,4060.306139
59510.303474,592.164754,-7772.162391,1225.752797
59510.303783,-2442.679609,-7105.977043,-1455.581446
59510.304093,-4441.235652,-11177.109724,-1762.019645
59510.304402,-1110.308913,-9548.656652,-1455.581446
59510.304712,-1332.370696,-10510.924376,689.485948
59510.305022,-74.020594,-9548.656652,612.876398
59510.305331,-1184.329507,-11621.233289,0.000000
59510.305641,3849.070898,-12731.542202,3907.087040
59510.305951,4663.297435,-8734.430116,2374.896044
59510.306260,2368.659014,-8364.327145,5209.449386
59510.306570,-74.020594,-5995.668130,-76.609550
59510.306879,-3034.844362,-9474.636058,-76.609550
59510.307189,-1628.453072,-8512.368333,-766.095498
59510.307499,-888.247130,-9770.718434,1455.581446
59510.307808,-74.020594,-7402.059420,842.705048
59510.308118,-1184.329507,-7772.162391,0.000000
59510.308428,0.000000,-9104.533087,1762.019645
59510.308737,4145.153275,-9474.636058,3677.258390
59510.309047,2294.638420,-10658.965565,3600.648841
59510.309356,-3256.906145,-7179.997637,-3677.258390
59510.309666,-5107.421000,-12287.418637,-1302.362347
59510.309976,-74.020594,-10658.965565,-76.609550
59510.310285,-666.185348,-9178.553681,1762.019645
59510.310595,148.041188,-6217.729913,1455.581446
59510.310905,-740.205942,-7476.080014,766.095498
59510.311214,0.000000,-7772.162391,1838.629195
59510.311524,2960.823768,-7179.997637,3294.210641
59510.311833,592.164754,-9548.656652,4903.011187
59510.312143,-74.020594,-8882.471304,-76.609550
59510.312453,-6957.935855,-9844.739029,-4903.011187
59510.312762,-3256.906145,-11843.295072,-689.485948
59510.313072,-74.020594,-11843.295072,1149.143247
59510.313382,-1850.514855,-8586.388927,0.000000
59510.313691,-2368.659014,-7846.182985,-1149.143247
59510.314001,-518.144159,-9844.739029,1608.800546
59510.314310,2368.659014,-5403.503377,1838.629195
59510.314620,2072.576638,-9326.594869,4826.401637
59510.314930,-2368.659014,-5107.421000,0.000000
59510.315239,-3330.926739,-11547.212695,-306.438199
59510.315549,-3330.926739,-9548.656652,-4903.011187
59510.315859,-296.082377,-10658.965565,2068.457845
59510.316168,-888.247130,-10066.800811,2374.896044
59510.316478,-1850.514855,-8734.430116,-995.924147
59510.316787,296.082377,-10436.903782,1762.019645
59510.317097,4811.338623,-8290.306550,3217.601092
59510.317407,2442.679609,-7772.162391,3600.648841
59510.317716,0.000000,-7179.997637,919.314598
59510.318026,-4367.215058,-8956.491898,-2068.457845
59510.318336,-2960.823768,-10732.986159,-919.314598
59510.318645,-74.020594,-11843.295072,-76.609550
59510.318955,-2516.700203,-9474.636058,1072.533697
59510.319264,-888.247130,-8364.327145,0.000000
59510.319574,222.061783,-10214.842000,1072.533697
59510.319884,4441.235652,-7920.203579,2145.067394
59510.320193,3552.988522,-9326.594869,3907.087040
59510.320503,518.144159,-7105.977043,1149.143247
59510.320813,-3034.844362,-11843.295072,-689.485948
59510.321122,-3552.988522,-9548.656652,-2451.505594
59510.321432,-1184.329507,-9548.656652,0.000000
59510.321741,-74.020594,-10658.965565,-76.609550
59510.322051,-74.020594,-7328.038826,766.095498
59510.322361,0.000000,-9548.656652,1225.752797
59510.322670,4293.194464,-6217.729913,2757.943793
59510.322980,1850.514855,-9548.656652,4060.306139
59510.323290,2664.741391,-7698.141797,2451.505594
59510.323599,-74.020594,-9178.553681,-76.609550
59510.323909,-2294.638420,-11177.109724,0.000000
59510.324218,-3034.844362,-7105.977043,-2528.115143
59510.324528,-3256.906145,-11473.192101,1532.190996
59510.324838,-962.267725,-4145.153275,-3140.991542
59510.325147,-2368.659014,-11917.315666,1225.752797
59510.325457,2368.659014,-5403.503377,1838.629195
59510.325767,4515.256246,-9474.636058,4749.792088
59510.326076,3404.947333,-7328.038826,3294.210641
59510.326386,-2664.741391,-9474.636058,-689.485948
59510.326695,-3627.009116,-13027.624579,-1302.362347
59510.327005,-74.020594,-11843.295072,-76.609550
59510.327315,-2146.597232,-9770.718434,0.000000
59510.327624,-2368.659014,-7179.997637,0.000000
59510.327934,-1258.350101,-11843.295072,-76.609550
59510.328244,2368.659014,-6291.750507,2451.505594
59510.328553,2960.823768,-7772.162391,3677.258390
59510.328863,2368.659014,-7179.997637,3677.258390
59510.329172,-2590.720797,-8142.265362,0.000000
59510.329482,-4293.194464,-11473.192101,-459.657299
59510.329792,-74.020594,-11251.130318,-76.609550
59510.330101,-370.102971,-11621.233289,3217.601092
59510.330411,-666.185348,-7105.977043,-689.485948
59510.330721,-3552.988522,-8364.327145,0.000000
59510.331030,4071.132681,-11843.295072,3600.648841
59510.331340,1776.494261,-7179.997637,2451.505594
59510.331649,444.123565,-6809.894666,1915.238745
59510.331959,-1406.391290,-8364.327145,0.000000
59510.332269,-2368.659014,-12139.377449,-383.047749
59510.332578,0.000000,-9474.636058,-612.876398
59510.332888,-370.102971,-11621.233289,2298.286494
59510.333198,296.082377,-7179.997637,306.438199
59510.333507,-74.020594,-9474.636058,-76.609550
59510.333817,592.164754,-6291.750507,919.314598
59510.334126,6439.791695,-11251.130318,6052.154434
59510.334436,1184.329507,-6291.750507,1225.752797
59510.334746,-962.267725,-8142.265362,-689.485948
59510.335055,-4515.256246,-11399.171507,-919.314598
59510.335365,-1332.370696,-10288.862594,-995.924147
59510.335674,-2220.617826,-10362.883188,306.438199
59510.335984,-1184.329507,-8068.244768,306.438199
59510.336293,-1924.535449,-8512.368333,0.000000
59510.336603,4515.256246,-10510.924376,3600.648841
59510.336913,3849.070898,-6587.832884,3370.820191
59510.337222,4663.297435,-10658.965565,6971.469032
59510.337532,-1554.432478,-5255.462188,-2451.505594
59510.337841,-2442.679609,-10658.965565,-536.266849
59510.338151,-1184.329507,-7179.997637,-1685.410096
59510.338460,-2294.638420,-10658.965565,153.219100
59510.338770,-2812.782580,-8364.327145,-1149.143247
59510.339079,-4737.318029,-9548.656652,-2145.067394
59510.339389,0.000000,-8364.327145,0.000000
59510.339699,3849.070898,-8660.409521,3677.258390
59510.340008,3478.967927,-10362.883188,4826.401637
59510.340318,-2294.638420,-4811.338623,-2451.505594
59510.340627,-3330.926739,-10140.821405,-1302.362347
59510.340937,-74.020594,-10658.965565,-76.609550
59510.341246,-1702.473667,-9548.656652,536.266849
59510.341556,-1332.370696,-7550.100608,0.000000
59510.341866,-1850.514855,-7698.141797,-766.095498
59510.342175,0.000000,-8438.347739,612.876398
59510.342485,5255.462188,-8290.306550,3600.648841
59510.342794,2368.659014,-8956.491898,3677.258390
59510.343104,1110.308913,-8882.471304,-76.609550
59510.343413,-6513.812290,-9548.656652,-2451.505594
59510.343723,-1258.350101,-10658.965565,-1302.362347
59510.344033,-1258.350101,-12731.542202,-76.609550
59510.344342,-2368.659014,-7994.224174,-1302.362347
59510.344652,-2812.782580,-8808.450710,-1378.971896
59510.344961,-444.123565,-9992.780217,1225.752797
59510.345271,2738.761985,-6735.874072,2068.457845
59510.345580,4367.215058,-8586.388927,4519.963438
59510.345890,0.000000,-5403.503377,1378.971896
59510.346200,-74.020594,-11251.130318,2068.457845
59510.346509,-2368.659014,-7179.997637,-2451.505594
59510.346819,-74.020594,-11251.130318,-76.609550
59510.347128,-1628.453072,-10732.986159,-76.609550
59510.347438,-2294.638420,-9918.759623,-1225.752797
59510.347747,370.102971,-10732.986159,1378.971896
59510.348057,4219.173869,-8438.347739,2681.334243
59510.348367,2220.617826,-7105.977043,4213.525239
59510.348676,1406.391290,-6957.935855,1838.629195
59510.348986,-3108.864956,-7772.162391,-1532.190996
59510.349295,-2072.576638,-9844.739029,306.438199
59510.349605,-74.020594,-11843.295072,-76.609550
59510.349914,-2442.679609,-11547.212695,-76.609550
59510.350224,-2960.823768,-8956.491898,-1991.848295
59510.350534,-962.267725,-10955.047942,842.705048
59510.350843,4071.132681,-8290.306550,2681.334243
59510.351153,3849.070898,-8438.347739,4749.792088
59510.351462,2294.638420,-5921.647536,2374.896044
59510.351772,-740.205942,-9918.759623,1532.190996
59510.352081,-962.267725,-10510.924376,459.657299
59510.352391,-2368.659014,-8512.368333,612.876398
59510.352701,-74.020594,-13619.789333,2374.896044
59510.353010,1110.308913,-7698.141797,1149.143247
59510.353320,-1184.329507,-9844.739029,1225.752797
59510.353629,2220.617826,-7105.977043,2068.457845
59510.353939,-296.082377,-9474.636058,2451.505594
59510.354248,0.000000,-7550.100608,1225.752797
59510.354558,-2442.679609,-9474.636058,-153.219100
59510.354868,-1406.391290,-11843.295072,-76.609550
59510.355177,-2442.679609,-8882.471304,-1915.238745
59510.355487,-4737.318029,-10140.821405,0.000000
59510.355796,-74.020594,-9474.636058,-1302.362347
59510.356106,-2960.823768,-11473.192101,2145.067394
59510.356415,1480.411884,-6587.832884,2451.505594
59510.356725,4145.153275,-9104.533087,4213.525239
59510.357035,3256.906145,-5551.544565,3524.039291
59510.357344,-592.164754,-8734.430116,689.485948
59510.357654,-222.061783,-11251.130318,1149.143247
59510.357963,-888.247130,-8586.388927,0.000000
59510.358273,-2442.679609,-10510.924376,-1302.362347
59510.358582,-3552.988522,-8364.327145,-459.657299
59510.358892,-2442.679609,-10955.047942,-1302.362347
59510.359201,1184.329507,-9548.656652,2451.505594
59510.359511,1184.329507,-8956.491898,1838.629195
59510.359821,1998.556043,-7254.018232,2451.505594
59510.360130,-148.041188,-7698.141797,689.485948
59510.360440,222.061783,-9400.615463,1149.143247
59510.360749,1702.473667,-9326.594869,995.924147
59510.361059,-2368.659014,-9844.739029,306.438199
59510.361368,-666.185348,-8882.471304,-995.924147
59510.361678,-3108.864956,-9844.739029,0.000000
59510.361988,4663.297435,-11843.295072,3600.648841
59510.362297,1184.329507,-7179.997637,3064.381992
59510.362607,1406.391290,-6365.771101,1302.362347
59510.362916,666.185348,-7772.162391,842.705048
59510.363226,-518.144159,-10807.006753,689.485948
59510.363535,-518.144159,-9474.636058,0.000000
59510.363845,-2664.741391,-10140.821405,0.000000
59510.364155,-3552.988522,-7772.162391,-2681.334243
59510.364464,-2442.679609,-12879.583391,-76.609550
59510.364774,74.020594,-7328.038826,0.000000
59510.365083,5847.626942,-10658.965565,4826.401637
59510.365393,0.000000,-4811.338623,2451.505594
59510.365702,814.226536,-5921.647536,536.266849
59510.366012,-740.205942,-9548.656652,995.924147
59510.366322,1184.329507,-7846.182985,459.657299
59510.366631,-1998.556043,-10066.800811,229.828649
59510.366941,-3552.988522,-8956.491898,-1378.971896
59510.367250,-5329.482782,-10140.821405,-2298.286494
59510.367560,814.226536,-11399.171507,1455.581446
59510.367869,1998.556043,-6883.915261,0.000000
59510.368179,0.000000,-7772.162391,2451.505594
59510.368489,0.000000,-5847.626942,0.000000
59510.368798,814.226536,-10658.965565,2374.896044
59510.369108,1850.514855,-7254.018232,842.705048
59510.369417,-518.144159,-10658.965565,1685.410096
59510.369727,-2590.720797,-8068.244768,-1072.533697
59510.370036,-5921.647536,-9770.718434,-1838.629195
59510.370346,-3256.906145,-9548.656652,0.000000
59510.370656,3404.947333,-10066.800811,3600.648841
59510.370965,1998.556043,-8290.306550,2374.896044
59510.371275,0.000000,-4811.338623,0.000000
59510.371584,-2442.679609,-10066.800811,-995.924147
59510.371894,2294.638420,-8734.430116,1149.143247
59510.372203,-1110.308913,-9474.636058,689.485948
59510.372513,-2368.659014,-8290.306550,-1225.752797
59510.372823,-4071.132681,-10584.944971,-1838.629195
59510.373132,-2072.576638,-10362.883188,995.924147
59510.373442,1776.494261,-7179.997637,1225.752797
59510.373751,3108.864956,-8956.491898,4903.011187
59510.374061,2294.638420,-6809.894666,-76.609550
59510.374370,-4737.318029,-9548.656652,0.000000
59510.374680,2294.638420,-8882.471304,-76.609550
59510.374990,-666.185348,-11103.089130,842.705048
59510.375299,-2146.597232,-9474.636058,-689.485948
59510.375609,-2590.720797,-9326.594869,-1915.238745
59510.375918,-1110.308913,-10955.047942,0.000000
59510.376228,2294.638420,-7550.100608,1455.581446
59510.376537,1110.308913,-8438.347739,2068.457845
59510.376847,0.000000,-5403.503377,766.095498
59510.377156,-666.185348,-11251.130318,-76.609550
59510.377466,0.000000,-6587.832884,0.000000
59510.377776,3182.885551,-9474.636058,2374.896044
59510.378085,740.205942,-9474.636058,2221.676944
59510.378395,-2294.638420,-9030.512492,-1149.143247
59510.378704,-2664.741391,-10807.006753,0.000000
59510.379014,1332.370696,-8734.430116,1532.190996
59510.379323,2294.638420,-10658.965565,3140.991542
59510.379633,1702.473667,-6513.812290,1455.581446
59510.379943,-2368.659014,-8956.491898,0.000000
59510.380252,2294.638420,-11251.130318,2987.772442
59510.380562,-74.020594,-8142.265362,-229.828649
59510.380871,-74.020594,-9474.636058,1762.019645
59510.381181,-3256.906145,-9548.656652,-1532.190996
59510.381490,-3182.885551,-11843.295072,-689.485948
59510.381800,1776.494261,-9844.739029,1378.971896
59510.382110,2294.638420,-10140.821405,3983.696590
59510.382419,2072.576638,-6513.812290,2911.162892
59510.382729,-1554.432478,-8438.347739,1225.752797
59510.383038,0.000000,-7179.997637,612.876398
59510.383348,2886.803174,-11547.212695,4826.401637
59510.383657,-1258.350101,-7994.224174,229.828649
59510.383967,-2072.576638,-9474.636058,1149.143247
59510.384277,-4441.235652,-11325.150913,0.000000
59510.384586,592.164754,-9474.636058,306.438199
59510.384896,-666.185348,-10436.903782,1685.410096
59510.385205,-1702.473667,-7105.977043,-229.828649
59510.385515,-3034.844362,-9844.739029,-1225.752797
59510.385824,-888.247130,-9844.739029,766.095498
59510.386134,1406.391290,-8290.306550,1455.581446
59510.386444,0.000000,-7179.997637,2451.505594
59510.386753,-74.020594,-8882.471304,-76.609550
59510.387063,-2220.617826,-12657.521608,2451.505594
59510.387372,296.082377,-7772.162391,459.657299
59510.387682,1406.391290,-10066.800811,2987.772442
59510.387991,1110.308913,-7476.080014,1762.019645
59510.388301,-1184.329507,-8586.388927,229.828649
59510.388611,518.144159,-10436.903782,612.876398
59510.388920,518.144159,-7772.162391,0.000000
59510.389230,-3034.844362,-10066.800811,-76.609550
59510.389539,-3552.988522,-9548.656652,0.000000
59510.389849,-74.020594,-12435.459826,-76.609550
59510.390158,592.164754,-10732.986159,2757.943793
59510.390468,1258.350101,-7328.038826,1838.629195
59510.390778,296.082377,-9104.533087,2681.334243
59510.391087,592.164754,-6069.688724,612.876398
59510.391397,-1184.329507,-9844.739029,1685.410096
59510.391706,2220.617826,-6291.750507,306.438199
59510.392016,1184.329507,-10140.821405,2757.943793
59510.392325,1702.473667,-8290.306550,-76.609550
59510.392635,-7105.977043,-9548.656652,-3677.258390
59510.392945,-74.020594,-11843.295072,-76.609550
59510.393254,-2072.576638,-9548.656652,1225.752797
59510.393564,0.000000,-8882.471304,689.485948
59510.393873,-1036.288319,-7624.121203,0.000000
59510.394183,-370.102971,-10658.965565,1149.143247
59510.394492,3330.926739,-6069.688724,1302.362347
59510.394802,888.247130,-8734.430116,1762.019645
59510.395112,-962.267725,-6883.915261,-459.657299
59510.395421,-3404.947333,-11917.315666,1149.143247
59510.395731,-2368.659014,-7772.162391,0.000000
59510.396040,3478.967927,-11695.253884,4673.182538
59510.396350,0.000000,-5995.668130,2451.505594
59510.396659,-962.267725,-7624.121203,229.828649
59510.396969,-1406.391290,-9474.636058,612.876398
59510.397278,1184.329507,-7772.162391,842.705048
59510.397588,-1184.329507,-10140.821405,1455.581446
59510.397898,-2886.803174,-8364.327145,-995.924147
59510.398207,-4737.318029,-10955.047942,-1685.410096
59510.398517,-814.226536,-11103.089130,1149.143247
59510.398826,-962.267725,-6439.791695,0.000000
59510.399136,296.082377,-7772.162391,3064.381992
59510.399445,-2368.659014,-4811.338623,0.000000
59510.399755,-666.185348,-10066.800811,1149.143247
59510.400065,1924.535449,-7920.203579,1685.410096
59510.400374,592.164754,-9548.656652,2451.505594
59510.400684,-148.041188,-8068.244768,612.876398
59510.400993,-2664.741391,-9770.718434,-76.609550
59510.401303,-2072.576638,-9548.656652,0.000000
59510.401612,1184.329507,-9622.677246,3294.210641
59510.401922,-1258.350101,-7846.182985,-76.609550
59510.402232,-3552.988522,-6587.832884,0.000000
59510.402541,-3627.009116,-8586.388927,-842.705048
59510.402851,2294.638420,-7698.141797,1762.019645
59510.403160,962.267725,-8882.471304,2374.896044
59510.403470,370.102971,-6735.874072,1072.533697
59510.403779,-2516.700203,-10140.821405,-306.438199
59510.404089,-962.267725,-11251.130318,1455.581446
59510.404399,74.020594,-9548.656652,766.095498
59510.404708,0.000000,-9548.656652,2451.505594
59510.405018,2294.638420,-8290.306550,-76.609550
59510.405327,-2368.659014,-8364.327145,0.000000
59510.405637,2886.803174,-7402.059420,76.609550
59510.405946,888.247130,-10140.821405,2298.286494
59510.406256,518.144159,-8438.347739,459.657299
59510.406566,-2146.597232,-10288.862594,-689.485948
59510.406875,-962.267725,-10436.903782,76.609550
59510.407185,1702.473667,-10658.965565,1608.800546
59510.407494,-370.102971,-10066.800811,1838.629195
59510.407804,-1776.494261,-6883.915261,0.000000
59510.408113,-666.185348,-11843.295072,-76.609550
59510.408423,0.000000,-5403.503377,153.219100
59510.408733,3478.967927,-8290.306550,3907.087040
59510.409042,1332.370696,-6143.709319,2451.505594
59510.409352,-1036.288319,-9326.594869,76.609550
59510.409661,-1110.308913,-11029.068536,229.828649
59510.409971,370.102971,-9622.677246,459.657299
59510.410280,-370.102971,-12583.501014,2911.162892
59510.410590,-1258.350101,-7624.121203,-612.876398
59510.410900,-3849.070898,-9548.656652,-3677.258390
59510.411209,592.164754,-9548.656652,1838.629195
59510.411519,1702.473667,-11547.212695,2374.896044
59510.411828,2294.638420,-9474.636058,2374.896044
59510.412138,-1554.432478,-8364.327145,306.438199
59510.412447,-1258.350101,-10436.903782,1302.362347
59510.412757,666.185348,-8364.327145,1225.752797
59510.413067,-740.205942,-10066.800811,2145.067394
59510.413376,888.247130,-6883.915261,1532.190996
59510.413686,-2738.761985,-10807.006753,383.047749
59510.413995,-1406.391290,-6587.832884,-3064.381992
59510.414305,-74.020594,-11843.295072,3140.991542
59510.414614,-74.020594,-9474.636058,1149.143247
59510.414924,-74.020594,-8882.471304,-76.609550
59510.415234,-1776.494261,-10436.903782,153.219100
59510.415543,1480.411884,-8734.430116,919.314598
59510.415853,-518.144159,-10510.924376,1838.629195
59510.416162,-1258.350101,-7624.121203,-383.047749
59510.416472,-2368.659014,-9548.656652,612.876398
59510.416781,74.020594,-7476.080014,306.438199
59510.417091,814.226536,-7698.141797,-76.609550
59510.417400,1184.329507,-8660.409521,3064.381992
59510.417710,1998.556043,-9474.636058,-76.609550
59510.418020,0.000000,-12213.398043,2987.772442
59510.418329,2146.597232,-8142.265362,689.485948
59510.418639,666.185348,-9696.697840,2451.505594
59510.418948,-222.061783,-7105.977043,-76.609550
59510.419258,-3256.906145,-10732.986159,-995.924147
59510.419567,-2072.576638,-8660.409521,0.000000
59510.419877,444.123565,-8956.491898,306.438199
59510.420187,518.144159,-9474.636058,-76.609550
59510.420496,0.000000,-4811.338623,0.000000
59510.420806,2664.741391,-12879.583391,3447.429741
59510.421115,3552.988522,-8068.244768,3753.867940
59510.421425,-2442.679609,-10362.883188,1072.533697
59510.421734,-2146.597232,-9326.594869,-383.047749
59510.422044,-1628.453072,-8512.368333,-306.438199
59510.422354,-666.185348,-10658.965565,1455.581446
59510.422663,0.000000,-4811.338623,0.000000
59510.422973,-1702.473667,-11103.089130,2451.505594
59510.423282,1110.308913,-8290.306550,-76.609550
59510.423592,-4145.153275,-9548.656652,0.000000
59510.423901,3478.967927,-9326.594869,3294.210641
59510.424211,0.000000,-9548.656652,1838.629195
59510.424521,-74.020594,-7402.059420,536.266849
59510.424830,-1998.556043,-8808.450710,-1302.362347
59510.425140,-2960.823768,-10955.047942,536.266849
59510.425449,0.000000,-7772.162391,0.000000
59510.425759,-2294.638420,-8364.327145,0.000000
59510.426068,0.000000,-6883.915261,0.000000
59510.426378,-74.020594,-13619.789333,2374.896044
59510.426688,592.164754,-5995.668130,612.876398
59510.426997,4367.215058,-10955.047942,3907.087040
59510.427307,0.000000,-7179.997637,919.314598
59510.427616,-3034.844362,-8734.430116,-1302.362347
59510.427926,-3034.844362,-10881.027347,-612.876398
59510.428235,0.000000,-7476.080014,0.000000
59510.428545,-888.247130,-10288.862594,1685.410096
59510.428855,-814.226536,-5625.565159,-842.705048
59510.429164,-4145.153275,-9548.656652,0.000000
59510.429474,3478.967927,-14211.954086,4826.401637
59510.429783,0.000000,-7179.997637,612.876398
59510.430093,-74.020594,-11029.068536,2681.334243
59510.430402,-3034.844362,-5699.585753,-2221.676944
59510.430712,-2220.617826,-11843.295072,1302.362347
59510.431022,2072.576638,-6513.812290,612.876398
59510.431331,-444.123565,-9622.677246,2068.457845
59510.431641,666.185348,-6291.750507,153.219100
59510.431950,-74.020594,-9326.594869,-76.609550
59510.432260,1184.329507,-8364.327145,919.314598
59510.432569,2368.659014,-10436.903782,3677.258390
59510.432879,-1850.514855,-10362.883188,-76.609550
59510.433189,-4441.235652,-8364.327145,-2451.505594
59510.433498,-3997.112087,-12065.356855,0.000000
59510.433808,1110.308913,-7920.203579,153.219100
59510.434117,0.000000,-9844.739029,2451.505594
59510.434427,1924.535449,-5699.585753,1532.190996
59510.434736,888.247130,-8734.430116,2374.896044
59510.435046,4071.132681,-8882.471304,4213.525239
59510.435355,1998.556043,-6957.935855,1762.019645
59510.435665,0.000000,-9548.656652,3064.381992
59510.435975,-74.020594,-8882.471304,-1302.362347
59510.436284,-5921.647536,-11029.068536,-2298.286494
59510.436594,-666.185348,-8734.430116,-3370.820191
59510.436903,-2072.576638,-11029.068536,612.876398
59510.437213,-666.185348,-8290.306550,-76.609550
59510.437522,-888.247130,-10066.800811,1302.362347
59510.437832,2220.617826,-9918.759623,3294.210641
59510.438142,4663.297435,-9474.636058,4826.401637
59510.438451,-2072.576638,-7179.997637,0.000000
59510.438761,-74.020594,-9178.553681,-76.609550
59510.439070,-4811.338623,-9548.656652,-1608.800546
59510.439380,-592.164754,-8068.244768,1225.752797
59510.439689,-74.020594,-9474.636058,1378.971896
59510.439999,-1036.288319,-7772.162391,919.314598
59510.440309,-74.020594,-10658.965565,-76.609550
59510.440618,0.000000,-11399.171507,1685.410096
59510.440928,2072.576638,-9252.574275,2374.896044
59510.441237,-74.020594,-11843.295072,2987.772442
59510.441547,-2294.638420,-7179.997637,-2068.457845
59510.441856,-4737.318029,-10140.821405,0.000000
59510.442166,2294.638420,-10658.965565,2068.457845
59510.442475,0.000000,-8364.327145,612.876398
59510.442785,1036.288319,-6513.812290,0.000000
59510.443095,0.000000,-7476.080014,995.924147
59510.443404,814.226536,-9252.574275,2145.067394
59510.443714,3182.885551,-6957.935855,1455.581446
59510.444023,0.000000,-10066.800811,2068.457845
59510.444333,-1850.514855,-9474.636058,-76.609550
59510.444642,-6291.750507,-13027.624579,-3140.991542
59510.444952,-4145.153275,-9548.656652,0.000000
59510.445262,-1258.350101,-11843.295072,-76.609550
59510.445571,-2220.617826,-7328.038826,153.219100
59510.445881,1702.473667,-7105.977043,229.828649
59510.446190,3256.906145,-8660.409521,4596.572988
59510.446500,7179.997637,-5995.668130,4673.182538
59510.446809,2812.782580,-8364.327145,4596.572988
59510.447119,0.000000,-6735.874072,2068.457845
59510.447429,-2516.700203,-12361.439231,-76.609550
59510.447738,-1258.350101,-11251.130318,-689.485948
59510.448048,-4737.318029,-7179.997637,-2451.505594
59510.448357,-74.020594,-11843.295072,1455.581446
59510.448667,-370.102971,-8216.285956,-1378.971896
59510.448976,1702.473667,-10658.965565,-76.609550
59510.449286,2960.823768,-8364.327145,2145.067394
59510.449595,2072.576638,-10066.800811,3370.820191
59510.449905,0.000000,-7476.080014,995.924147
59510.450215,-2368.659014,-10066.800811,536.266849
59510.450524,-592.164754,-10140.821405,2451.505594
59510.450834,1702.473667,-9178.553681,2374.896044
59510.451143,-3849.070898,-4811.338623,0.000000
59510.451453,1406.391290,-8068.244768,2374.896044
59510.451762,-74.020594,-10066.800811,1762.019645
59510.452072,4589.276840,-9104.533087,2374.896044
59510.452382,888.247130,-10732.986159,2757.943793
59510.452691,-370.102971,-8364.327145,459.657299
59510.453001,-4885.359217,-9770.718434,-2145.067394
59510.453310,-4145.153275,-10881.027347,-1838.629195
59510.453620,-3552.988522,-8660.409521,0.000000
59510.453929,-2294.638420,-10658.965565,2374.896044
59510.454239,-2442.679609,-4293.194464,-2221.676944
59510.454549,0.000000,-9844.739029,3064.381992
59510.454858,4663.297435,-7105.977043,2987.772442
59510.455168,4145.153275,-9474.636058,4826.401637
59510.455477,444.123565,-7179.997637,1762.019645
59510.455787,-3182.885551,-8808.450710,-766.095498
59510.456096,-3404.947333,-10955.047942,-842.705048
59510.456406,-962.267725,-9548.656652,-1838.629195
59510.456715,-3552.988522,-10140.821405,1225.752797
59510.457025,-296.082377,-8882.471304,612.876398
59510.457335,-666.185348,-10658.965565,-76.609550
59510.457644,2368.659014,-6587.832884,2451.505594
59510.457954,4663.297435,-9474.636058,4826.401637
59510.458263,1480.411884,-8290.306550,4749.792088
59510.458573,-3108.864956,-7994.224174,-612.876398
59510.458882,-3552.988522,-10510.924376,-842.705048
59510.459192,-592.164754,-8734.430116,-842.705048
59510.459502,-1850.514855,-10436.903782,0.000000
59510.459811,-3256.906145,-4811.338623,0.000000
59510.460121,-2072.576638,-9548.656652,612.876398
59510.460430,5847.626942,-10658.965565,3600.648841
59510.460740,2220.617826,-7402.059420,1915.238745
59510.461049,1480.411884,-9548.656652,3524.039291
59510.461359,-1184.329507,-8956.491898,-306.438199
59510.461668,-2442.679609,-11843.295072,-689.485948
59510.461978,-592.164754,-7846.182985,-766.095498
59510.462288,-2738.761985,-10436.903782,919.314598
59510.462597,-370.102971,-5699.585753,-1838.629195
59510.462907,-1776.494261,-6957.935855,0.000000
59510.463216,3552.988522,-6587.832884,2451.505594
59510.463526,8216.285956,-9474.636058,6052.154434
59510.463835,1110.308913,-7846.182985,1991.848295
59510.464145,-2368.659014,-7772.162391,-689.485948
59510.464455,-5477.523971,-13693.809927,-919.314598
59510.464764,-2442.679609,-9474.636058,-2068.457845
59510.465074,-3775.050304,-11251.130318,-153.219100
59510.465383,-1554.432478,-7476.080014,-689.485948
59510.465693,-666.185348,-8364.327145,383.047749
59510.466002,2886.803174,-6957.935855,1455.581446
59510.466312,4737.318029,-5403.503377,2451.505594
59510.466622,4663.297435,-9474.636058,6052.154434
59510.466931,-1258.350101,-5921.647536,-689.485948
59510.467241,-6513.812290,-11917.315666,-76.609550
59510.467550,-2368.659014,-9548.656652,-1838.629195
59510.467860,-2812.782580,-12139.377449,153.219100
59510.468169,-2072.576638,-7846.182985,-995.924147
59510.468479,-1628.453072,-9548.656652,-383.047749
59510.468788,2220.617826,-9474.636058,3294.210641
59510.469098,5847.626942,-7105.977043,2374.896044
59510.469408,1036.288319,-8068.244768,1762.019645
59510.469717,-3552.988522,-6587.832884,0.000000
59510.470027,-3330.926739,-13027.624579,-689.485948
59510.470336,-3478.967927,-8290.306550,-1378.971896
59510.470646,-4441.235652,-8364.327145,0.000000
59510.470955,-2368.659014,-6957.935855,-76.609550
59510.471265,-1702.473667,-8142.265362,76.609550
59510.471575,1406.391290,-9030.512492,2681.334243
59510.471884,4959.379811,-7994.224174,4826.401637
59510.472194,3478.967927,-10658.965565,4213.525239
59510.472503,-888.247130,-4811.338623,-2374.896044
59510.472813,-5921.647536,-11917.315666,0.000000
59510.473122,-666.185348,-10658.965565,-1302.362347
59510.473432,-3701.029710,-10436.903782,0.000000
59510.473742,-3256.906145,-6291.750507,-1685.410096
59510.474051,-1776.494261,-9030.512492,-306.438199
59510.474361,962.267725,-10066.800811,2374.896044
59510.474670,4737.318029,-6957.935855,3830.477490
59510.474980,2294.638420,-9474.636058,5439.278036
59510.475289,1998.556043,-7105.977043,-76.609550
59510.475599,-2146.597232,-10955.047942,-76.609550
59510.475908,-2368.659014,-7772.162391,0.000000
59510.476218,-74.020594,-11843.295072,1149.143247
59510.476528,-2590.720797,-8882.471304,-1838.629195
59510.476837,-2368.659014,-7179.997637,-2757.943793
59510.477147,592.164754,-10436.903782,1225.752797
59510.477456,5625.565159,-8438.347739,3140.991542
59510.477766,3627.009116,-9326.594869,3907.087040
59510.478075,2738.761985,-8216.285956,2374.896044
59510.478385,-222.061783,-13027.624579,2374.896044
59510.478695,-74.020594,-11843.295072,-76.609550
59510.479004,-4145.153275,-7179.997637,-1838.629195
59510.479314,-222.061783,-10658.965565,1149.143247
59510.479623,-1702.473667,-6661.853478,-2451.505594
59510.479933,-962.267725,-9844.739029,995.924147
59510.480242,4293.194464,-6365.771101,2757.943793
59510.480552,2442.679609,-9178.553681,4213.525239
59510.480861,962.267725,-5773.606348,1072.533697
59510.481171,-2442.679609,-11029.068536,306.438199
59510.481481,-1776.494261,-13027.624579,-76.609550
59510.481790,-1258.350101,-13619.789333,-76.609550
59510.482100,-5921.647536,-8364.327145,-2451.505594
59510.482409,-888.247130,-9474.636058,-76.609550
59510.482719,-666.185348,-9548.656652,-689.485948
59510.483028,4663.297435,-6513.812290,2987.772442
59510.483338,2368.659014,-9548.656652,4673.182538
59510.483648,2590.720797,-6143.709319,2834.553343
59510.483957,-1258.350101,-9252.574275,0.000000
59510.484267,-2368.659014,-9548.656652,0.000000
59510.484576,-3552.988522,-11029.068536,612.876398
59510.484886,-4441.235652,-10140.821405,0.000000
59510.485195,-666.185348,-9474.636058,-1302.362347
59510.485505,-4145.153275,-9844.739029,0.000000
59510.485815,3182.885551,-7254.018232,2374.896044
59510.486124,4071.132681,-10362.883188,4826.401637
59510.486434,1776.494261,-5477.523971,2068.457845
59510.486743,-1924.535449,-8660.409521,612.876398
59510.487053,-1998.556043,-9474.636058,0.000000
59510.487362,-2368.659014,-7772.162391,0.000000
59510.487672,-3552.988522,-10732.986159,1225.752797
59510.487981,-1776.494261,-8956.491898,1532.190996
59510.488291,-1258.350101,-11843.295072,-76.609550
59510.488601,2368.659014,-6587.832884,1838.629195
59510.488910,4663.297435,-9474.636058,4826.401637
59510.489220,4071.132681,-8290.306550,3600.648841
59510.489529,-1776.494261,-8882.471304,-229.828649
59510.489839,-1850.514855,-11177.109724,76.609550
59510.490148,-962.267725,-8734.430116,-689.485948
59510.490458,-5921.647536,-9844.739029,0.000000
59510.490768,-4737.318029,-4811.338623,-3064.381992
59510.491077,-2368.659014,-11917.315666,2451.505594
59510.491387,4663.297435,-7994.224174,2374.896044
59510.491696,2368.659014,-7179.997637,4903.011187
59510.492006,4663.297435,-8290.306550,4826.401637
59510.492315,592.164754,-8956.491898,2298.286494
59510.492625,-814.226536,-10955.047942,306.438199
59510.492935,-1332.370696,-9104.533087,-995.924147
59510.493244,-3627.009116,-12583.501014,0.000000
59510.493554,-1850.514855,-7550.100608,-2834.553343
59510.493863,-2738.761985,-10510.924376,-1302.362347
59510.494173,0.000000,-4811.338623,0.000000
59510.494482,4441.235652,-10140.821405,3983.696590
59510.494792,2294.638420,-7105.977043,2374.896044
59510.495101,0.000000,-8068.244768,1838.629195
59510.495411,-3552.988522,-10732.986159,0.000000
59510.495721,962.267725,-8290.306550,-76.609550
59510.496030,-2442.679609,-11843.295072,229.828649
59510.496340,-2368.659014,-7772.162391,-2221.676944
59510.496649,-1850.514855,-11843.295072,-76.609550
59510.496959,2294.638420,-8290.306550,-76.609550
59510.497268,0.000000,-5403.503377,1225.752797
59510.497578,3478.967927,-8956.491898,5209.449386
59510.497888,-74.020594,-6809.894666,-76.609550
59510.498197,-2368.659014,-10732.986159,1225.752797
59510.498507,0.000000,-6291.750507,0.000000
59510.498816,-3849.070898,-10807.006753,153.219100
59510.499126,-3552.988522,-7994.224174,-2374.896044
59510.499435,-3849.070898,-11029.068536,-1225.752797
59510.499745,3182.885551,-10658.965565,2374.896044
59510.500054,5847.626942,-8290.306550,3600.648841
59510.500364,222.061783,-5403.503377,995.924147
59510.500674,592.164754,-6587.832884,1532.190996
59510.500983,-74.020594,-11843.295072,1149.143247
59510.501293,0.000000,-7179.997637,0.000000
59510.501602,-4737.318029,-11325.150913,0.000000
59510.501912,-2738.761985,-9252.574275,-689.485948
59510.502221,-2960.823768,-10955.047942,-229.828649
59510.502531,740.205942,-8660.409521,2604.724693
59510.502841,4663.297435,-7105.977043,4213.525239
59510.503150,4663.297435,-7105.977043,4826.401637
59510.503460,0.000000,-1258.350101,0.000000
59510.503769,-888.247130,-11917.315666,2298.286494
59510.504079,-74.020594,-8290.306550,-383.047749
59510.504388,-3552.988522,-10732.986159,0.000000
59510.504698,-4737.318029,-9548.656652,-2451.505594
59510.505008,-3701.029710,-11325.150913,-1991.848295
59510.505317,-1184.329507,-11029.068536,612.876398
59510.505627,2960.823768,-7179.997637,2451.505594
59510.505936,2886.803174,-9474.636058,3600.648841
59510.506246,3478.967927,-4737.318029,2374.896044
59510.506555,-2146.597232,-7179.997637,0.000000
59510.506865,592.164754,-7476.080014,1838.629195
59510.507174,-74.020594,-10658.965565,1149.143247
59510.507484,-3552.988522,-8364.327145,0.000000
59510.507794,-4737.318029,-7179.997637,-3677.258390
59510.508103,-2220.617826,-12139.377449,229.828649
59510.508413,2664.741391,-7846.182985,1302.362347
59510.508722,888.247130,-10140.821405,2757.943793
59510.509032,2886.803174,-7698.141797,2374.896044
59510.509341,-74.020594,-11251.130318,-76.609550
59510.509651,-74.020594,-8290.306550,-76.609550
59510.509961,-2368.659014,-9548.656652,612.876398
59510.510270,-666.185348,-10955.047942,1149.143247
59510.510580,-4737.318029,-7179.997637,0.000000
59510.510889,-3997.112087,-10732.986159,0.000000
59510.511199,2072.576638,-6661.853478,1991.848295
59510.511508,-370.102971,-10214.842000,3140.991542
59510.511818,-1776.494261,-6365.771101,459.657299
59510.512128,-4811.338623,-11843.295072,-76.609550
59510.512437,-1258.350101,-11843.295072,-76.609550
59510.512747,-3627.009116,-9474.636058,-689.485948
59510.513056,-8290.306550,-9548.656652,306.438199
59510.513366,-5403.503377,-9474.636058,-689.485948
59510.513675,-9474.636058,-9548.656652,0.000000
59510.513985,-3849.070898,-6735.874072,229.828649
59510.514294,-2072.576638,-7476.080014,3677.258390
59510.514604,-1480.411884,-5625.565159,2911.162892
59510.514914,-3034.844362,-5995.668130,1225.752797
59510.515223,-3627.009116,-10658.965565,3600.648841
59510.515533,-1850.514855,-11843.295072,2298.286494
59510.515842,-4811.338623,-11843.295072,-76.609550
59510.516152,-9474.636058,-9548.656652,-3140.991542
59510.516461,-9474.636058,-12065.356855,-153.219100
59510.516771,-10510.924376,-10436.903782,-2451.505594
59510.517081,-6587.832884,-10066.800811,1149.143247
59510.517390,-3701.029710,-7031.956449,3447.429741
59510.517700,-2146.597232,-6143.709319,4060.306139
59510.518009,-2294.638420,-5995.668130,4366.744339
59510.518319,-2072.576638,-5995.668130,5209.449386
59510.518628,-2072.576638,-9474.636058,3677.258390
59510.518938,-1258.350101,-9474.636058,2374.896044
59510.519247,-5921.647536,-6587.832884,-2068.457845
59510.519557,-6513.812290,-11177.109724,0.000000
59510.519867,-7994.224174,-9252.574275,-4136.915689
59510.520176,-7624.121203,-13323.706956,-2834.553343
59510.520486,-6291.750507,-12361.439231,-919.314598
59510.520795,-2220.617826,-9918.759623,1225.752797
59510.521105,370.102971,-8364.327145,3064.381992
59510.521414,0.000000,-7179.997637,4903.011187
59510.521724,592.164754,-7476.080014,2451.505594
59510.522034,-148.041188,-9622.677246,4443.353888
59510.522343,-74.020594,-8586.388927,2374.896044
59510.522653,-2368.659014,-5403.503377,0.000000
59510.522962,-2590.720797,-7698.141797,229.828649
59510.523272,-3627.009116,-9474.636058,-689.485948
59510.523581,-6957.935855,-10732.986159,-2604.724693
59510.523891,-7846.182985,-12509.480420,-2451.505594
59510.524201,-5625.565159,-10955.047942,-1072.533697
59510.524510,-2368.659014,-7772.162391,0.000000
59510.524820,1184.329507,-7179.997637,1225.752797
59510.525129,1480.411884,-7772.162391,4903.011187
59510.525439,3478.967927,-9474.636058,3600.648841
59510.525748,0.000000,-7772.162391,3217.601092
59510.526058,-666.185348,-6217.729913,-76.609550
59510.526367,-1258.350101,-8290.306550,-76.609550
59510.526677,-1702.473667,-8216.285956,-383.047749
59510.526987,-1554.432478,-9326.594869,-306.438199
59510.527296,-3627.009116,-11177.109724,-1762.019645
59510.527606,-8290.306550,-10732.986159,-4290.134789
59510.527915,-8290.306550,-10140.821405,-4903.011187
59510.528225,-4737.318029,-11917.315666,1225.752797
59510.528534,-666.185348,-11177.109724,2374.896044
59510.528844,-1554.432478,-6587.832884,612.876398
59510.529154,4367.215058,-7105.977043,4826.401637
59510.529463,4071.132681,-5329.482782,5439.278036
59510.529773,-666.185348,-7031.956449,2911.162892
59510.530082,-4515.256246,-9030.512492,459.657299
59510.530392,-4737.318029,-8364.327145,-1072.533697
59510.530701,-8882.471304,-7179.997637,-4290.134789
59510.531011,-11251.130318,-8734.430116,-4979.620737
59510.531320,-9474.636058,-10140.821405,-2451.505594
59510.531630,-1258.350101,-11843.295072,-76.609550
59510.531940,-3775.050304,-10140.821405,-2757.943793
59510.532249,-5403.503377,-13915.871710,2987.772442
59510.532559,-4145.153275,-11177.109724,2451.505594
59510.532868,-74.020594,-8586.388927,4443.353888
59510.533178,-370.102971,-5921.647536,4213.525239
59510.533487,-4515.256246,-5921.647536,3217.601092
59510.533797,-5107.421000,-5477.523971,995.924147
59510.534107,-1480.411884,-4737.318029,2374.896044
59510.534416,0.000000,-3034.844362,0.000000
59510.534726,-3034.844362,-9030.512492,1149.143247
59510.535035,-9622.677246,-9548.656652,-4903.011187
59510.535345,-7179.997637,-14211.954086,-842.705048
59510.535654,-6809.894666,-13397.727550,-2145.067394
59510.535964,-5995.668130,-11547.212695,-1149.143247
59510.536274,-7328.038826,-11029.068536,229.828649
59510.536583,-4737.318029,-9178.553681,1225.752797
59510.536893,1110.308913,-7105.977043,2374.896044
59510.537203,3478.967927,-4737.318029,8503.660028
59510.537512,3552.988522,-1258.350101,5898.935335
59510.537822,1184.329507,-5107.421000,5515.887586
59510.538132,-3923.091493,-9474.636058,-76.609550
59510.538441,-6217.729913,-12657.521608,-1149.143247
59510.538751,-7994.224174,-12213.398043,-1838.629195
59510.539061,-7105.977043,-10732.986159,-2451.505594
59510.539370,-9252.574275,-11251.130318,-4060.306139
59510.539680,-9696.697840,-12435.459826,-2987.772442
59510.539990,-3923.091493,-12435.459826,-76.609550
59510.540299,-74.020594,-9474.636058,4213.525239
59510.540609,1110.308913,-4145.153275,3600.648841
59510.540919,1480.411884,-1850.514855,4903.011187
59510.541228,7624.121203,-7105.977043,9116.536426
59510.541538,4219.173869,-6587.832884,7354.516781
59510.541848,-3552.988522,-8956.491898,0.000000
59510.542157,-7476.080014,-13323.706956,-3600.648841
59510.542467,-8512.368333,-13989.892304,-4903.011187
59510.542777,-7179.997637,-12435.459826,-4290.134789
59510.543086,-4811.338623,-11251.130318,-2528.115143
59510.543396,-3627.009116,-13027.624579,-1302.362347
59510.543706,-4811.338623,-11843.295072,-2528.115143
59510.544015,-4737.318029,-11325.150913,612.876398
59510.544325,-74.020594,-13027.624579,6052.154434
59510.544635,0.000000,-4811.338623,4903.011187
59510.544944,2738.761985,-1258.350101,6588.421283
59510.545254,6365.771101,370.102971,7277.907231
59510.545563,5477.523971,-1110.308913,5362.668486
59510.545873,1850.514855,-4441.235652,2528.115143
59510.546183,-1258.350101,-12731.542202,-76.609550
59510.546492,-7328.038826,-18431.127956,-2757.943793
59510.546802,-13101.645173,-21317.931130,-7737.564530
59510.547112,-16580.613101,-19023.292709,-9193.145976
59510.547421,-11029.068536,-18949.272115,-3753.867940
59510.547731,-8882.471304,-9696.697840,-2451.505594
59510.548041,-2812.782580,-5995.668130,306.438199
59510.548350,1554.432478,-2442.679609,3983.696590
59510.548660,5329.482782,-1480.411884,8580.269578
59510.548970,7994.224174,-1036.288319,9729.412825
59510.549279,7031.956449,-3256.906145,9039.926876
59510.549589,2368.659014,-5107.421000,7354.516781
59510.549899,-1258.350101,-10658.965565,2374.896044
59510.550208,-9474.636058,-11029.068536,-3524.039291
59510.550518,-10658.965565,-18727.210333,-2604.724693
59510.550828,-15988.448347,-15766.386565,-8580.269578
59510.551137,-13693.809927,-16284.530724,-7431.126331
59510.551447,-12065.356855,-13841.851115,-4060.306139
59510.551757,-5995.668130,-10214.842000,-842.705048
59510.552066,-1554.432478,-5255.462188,3600.648841
59510.552376,3997.112087,-3627.009116,7354.516781
59510.552686,7105.977043,-74.020594,9806.022374
59510.552995,8216.285956,-2368.659014,9729.412825
59510.553305,3849.070898,-74.020594,5669.106685
59510.553615,3182.885551,-9474.636058,6665.030833
59510.553924,-3330.926739,-7402.059420,-2068.457845
59510.554234,-6587.832884,-11843.295072,-4060.306139
59510.554543,-11399.171507,-17098.757260,-5975.544884
59510.554853,-12509.480420,-18283.086767,-7584.345430
59510.555163,-11917.315666,-19393.395680,-6588.421283
59510.555472,-8290.306550,-14878.139434,-2451.505594
59510.555782,-4737.318029,-10140.821405,0.000000
59510.556092,592.164754,-7476.080014,6741.640382
59510.556401,5847.626942,-3256.906145,8503.660028
59510.556711,2368.659014,2294.638420,7354.516781
59510.557021,4959.379811,1628.453072,7354.516781
59510.557330,4071.132681,0.000000,7277.907231
59510.557640,1258.350101,-3627.009116,4596.572988
59510.557950,-2146.597232,-8956.491898,2298.286494
59510.558259,-5625.565159,-10955.047942,-2604.724693
59510.558569,-9474.636058,-13101.645173,-4903.011187
59510.558879,-11473.192101,-16062.468941,-6435.202183
59510.559188,-8290.306550,-15470.304188,-4903.011187
59510.559498,-4367.215058,-17468.860231,-383.047749
59510.559808,-3034.844362,-9548.656652,-1072.533697
59510.560117,4071.132681,-8290.306550,3600.648841
59510.560427,9252.574275,-5773.606348,8810.098227
59510.560737,9992.780217,-1332.370696,10725.336972
59510.561046,9474.636058,-592.164754,10572.117872
59510.561356,9104.533087,-740.205942,9882.631924
59510.561666,3552.988522,-1850.514855,5209.449386
59510.561975,370.102971,-8364.327145,5286.058936
59510.562285,-3256.906145,-13101.645173,3064.381992
59510.562595,-5995.668130,-15100.201217,-1455.581446
59510.562904,-9474.636058,-15470.304188,-2451.505594
59510.563214,-2442.679609,-17468.860231,-76.609550
59510.563523,-2664.741391,-15692.365970,2451.505594
59510.563833,-1406.391290,-12139.377449,3064.381992
59510.564143,1998.556043,-8808.450710,5822.325785
59510.564452,4145.153275,-6957.935855,8350.440928
59510.564762,3923.091493,-2812.782580,9729.412825
59510.565072,5847.626942,-1480.411884,9729.412825
59510.565381,4737.318029,-370.102971,10112.460574
59510.565691,5551.544565,-3404.947333,10955.165621
59510.566001,0.000000,-2442.679609,5515.887586
59510.566310,2294.638420,-11251.130318,8503.660028
59510.566620,-2368.659014,-13249.686362,5515.887586
59510.566930,-4071.132681,-16136.489536,4443.353888
59510.567239,-7994.224174,-17764.942608,1608.800546
59510.567549,-9918.759623,-17912.983796,3370.820191
59510.567859,-6291.750507,-11843.295072,4826.401637
59510.568168,-74.020594,-7105.977043,7277.907231
59510.568478,2960.823768,1480.411884,8963.317327
59510.568788,5921.647536,2294.638420,13789.718964
59510.569097,7031.956449,0.000000,12180.918418
59510.569407,4737.318029,-4737.318029,14479.204912
59510.569717,0.000000,-6365.771101,9806.022374
59510.570026,-2442.679609,-8586.388927,6971.469032
59510.570336,-5403.503377,-9918.759623,4519.963438
59510.570646,-4737.318029,-10584.944971,2987.772442
59510.570955,-1258.350101,-12435.459826,4213.525239
59510.571265,-666.185348,-15396.283594,4213.525239
59510.571575,-5995.668130,-15396.283594,842.705048
59510.571884,-7698.141797,-16950.716072,1225.752797
59510.572194,-1258.350101,-15988.448347,6052.154434
59510.572503,444.123565,-9104.533087,7507.735880
59510.572813,1480.411884,-1332.370696,7354.516781
59510.573123,3404.947333,-222.061783,8120.612279
59510.573432,4293.194464,-296.082377,7354.516781
59510.573742,4441.235652,-1258.350101,6281.983084
59510.574052,3478.967927,-5921.647536,5286.058936
59510.574361,-74.020594,-11843.295072,4826.401637
59510.574671,-4367.215058,-12213.398043,0.000000
59510.574981,-8142.265362,-17246.798449,-2451.505594
59510.575290,-8068.244768,-21836.075289,-1302.362347
59510.575600,-9474.636058,-17838.963202,-1838.629195
59510.575910,-4737.318029,-13101.645173,-1991.848295
59510.576219,74.020594,-7254.018232,766.095498
59510.576529,2664.741391,-4885.359217,2911.162892
59510.576839,5107.421000,-3182.885551,4826.401637
59510.577148,8808.450710,-4737.318029,6435.202183
59510.577458,9400.615463,-6513.812290,7277.907231
59510.577768,3182.885551,-6513.812290,2987.772442
59510.578077,0.000000,-9844.739029,3064.381992
59510.578387,-74.020594,-10658.965565,-76.609550
59510.578697,-3552.988522,-9548.656652,0.000000
59510.579006,-3627.009116,-9770.718434,-2528.115143
59510.579316,-4515.256246,-11325.150913,-3064.381992
59510.579626,-2886.803174,-14211.954086,-3140.991542
59510.579935,-370.102971,-12657.521608,-1991.848295
59510.580245,-444.123565,-13989.892304,153.219100
59510.580555,-888.247130,-13397.727550,2757.943793
59510.580864,3478.967927,-9178.553681,2374.896044
59510.581174,3849.070898,-3627.009116,2451.505594
59510.581484,9104.533087,-4737.318029,7277.907231
59510.581793,1776.494261,-74.020594,2604.724693
59510.582103,2590.720797,-4145.153275,3217.601092
59510.582412,1776.494261,-6217.729913,1378.971896
59510.582722,-592.164754,-10955.047942,612.876398
59510.583032,-4663.297435,-16580.613101,306.438199
59510.583341,-6513.812290,-16062.468941,0.000000
59510.583651,-4737.318029,-13101.645173,0.000000
59510.583961,-1406.391290,-11843.295072,1149.143247
59510.584270,-74.020594,-8290.306550,2374.896044
59510.584580,0.000000,-3034.844362,2451.505594
59510.584890,2368.659014,-3034.844362,3064.381992
59510.585199,1702.473667,-8290.306550,4826.401637
59510.585509,-1850.514855,-10066.800811,4749.792088
59510.585819,-814.226536,-10362.883188,5439.278036
59510.586128,-296.082377,-8512.368333,5362.668486
59510.586438,-2960.823768,-5477.523971,4290.134789
59510.586748,-2368.659014,-4811.338623,3677.258390
59510.587057,2590.720797,-8290.306550,6511.811733
59510.587367,-370.102971,-6587.832884,1302.362347
59510.587677,-4145.153275,-10732.986159,2451.505594
59510.587986,-3923.091493,-11843.295072,842.705048
59510.588296,-1406.391290,-13027.624579,4443.353888
59510.588606,1776.494261,-9030.512492,5669.106685
59510.588915,0.000000,-7624.121203,5439.278036
59510.589225,-1258.350101,-8216.285956,6128.763984
59510.589535,0.000000,-7105.977043,7431.126331
59510.589844,74.020594,-6217.729913,6128.763984
59510.590154,-296.082377,-8956.491898,7890.783629
59510.590464,-1850.514855,-7698.141797,4826.401637
59510.590773,-2368.659014,-8364.327145,5515.887586
59510.591083,-74.020594,-10658.965565,4826.401637
59510.591392,-1110.308913,-8586.388927,5132.839837
59510.591702,-1850.514855,-7031.956449,4213.525239
59510.592012,222.061783,-6661.853478,5286.058936
59510.592321,2516.700203,-5255.462188,6052.154434
59510.592631,0.000000,-5921.647536,4826.401637
59510.592941,-1850.514855,-9770.718434,4213.525239
59510.593250,-3256.906145,-11325.150913,4903.011187
59510.593560,1110.308913,-12435.459826,4826.401637
59510.593870,-3552.988522,-9548.656652,4903.011187
59510.594179,-74.020594,-9474.636058,6052.154434
59510.594489,0.000000,-7179.997637,5362.668486
59510.594799,-148.041188,-7772.162391,4903.011187
59510.595108,-1332.370696,-8438.347739,3983.696590
59510.595418,-1184.329507,-9178.553681,3983.696590
59510.595728,1702.473667,-8290.306550,4826.401637
59510.596037,-74.020594,-8290.306550,3600.648841
59510.596347,-1406.391290,-6735.874072,2528.115143
59510.596657,-74.020594,-10658.965565,5898.935335
59510.596966,1110.308913,-8586.388927,3600.648841
59510.597276,3478.967927,-10658.965565,6052.154434
59510.597586,0.000000,-9178.553681,4596.572988
59510.597895,148.041188,-10658.965565,5056.230287
59510.598205,74.020594,-9918.759623,4979.620737
59510.598515,444.123565,-9992.780217,4979.620737
59510.598824,2294.638420,-10658.965565,6358.592633
59510.599134,-74.020594,-10658.965565,3600.648841
59510.599444,0.000000,-7179.997637,2451.505594
59510.599753,-74.020594,-9474.636058,4826.401637
59510.600063,-1776.494261,-5107.421000,1455.581446
59510.600372,1184.329507,-9030.512492,5286.058936
59510.600682,-2664.741391,-9548.656652,2681.334243
59510.600992,-1480.411884,-10288.862594,3370.820191
59510.601301,-962.267725,-9992.780217,3907.087040
59510.601611,1184.329507,-7254.018232,3677.258390
59510.601921,1628.453072,-7105.977043,5515.887586
59510.602230,2294.638420,-8290.306550,4826.401637
59510.602540,-1554.432478,-7476.080014,1915.238745
59510.602850,148.041188,-13397.727550,5822.325785
59510.603159,-74.020594,-10955.047942,1762.019645
59510.603469,-4145.153275,-11917.315666,2451.505594
59510.603779,-2812.782580,-6291.750507,-689.485948
59510.604088,-1998.556043,-5921.647536,0.000000
59510.604398,1110.308913,-3478.967927,536.266849
59510.604708,-444.123565,-7031.956449,306.438199
59510.605017,-592.164754,-9696.697840,0.000000
59510.605327,962.267725,-14211.954086,2068.457845
59510.605637,-74.020594,-15100.201217,2374.896044
59510.605946,-2960.823768,-9548.656652,0.000000
59510.606256,-296.082377,-12657.521608,2374.896044
59510.606566,0.000000,-6291.750507,0.000000
59510.606875,370.102971,-7105.977043,-76.609550
59510.607185,1776.494261,-3330.926739,-919.314598
59510.607495,0.000000,-6735.874072,-1838.629195
59510.607804,-814.226536,-9104.533087,-2604.724693
59510.608114,0.000000,-10140.821405,-4290.134789
59510.608424,-1776.494261,-14582.057057,-1225.752797
59510.608733,-74.020594,-11843.295072,-1915.238745
59510.609043,-5921.647536,-9548.656652,-4903.011187
59510.609352,1628.453072,-9474.636058,-2221.676944
59510.609662,-1184.329507,-8660.409521,-2911.162892
59510.609972,1998.556043,-7698.141797,-2528.115143
59510.610281,148.041188,-10881.027347,-2221.676944
59510.610591,74.020594,-13989.892304,-1225.752797
59510.610901,814.226536,-11621.233289,-1991.848295
59510.611210,0.000000,-11325.150913,-2145.067394
59510.611520,0.000000,-6883.915261,-2145.067394
59510.611830,-666.185348,-9474.636058,-1302.362347
59510.612139,-666.185348,-2812.782580,-4979.620737
59510.612449,0.000000,-7772.162391,-2451.505594
59510.612759,296.082377,-6587.832884,-1532.190996
59510.613068,814.226536,-9474.636058,-1302.362347
59510.613378,-962.267725,-11843.295072,-766.095498
59510.613688,666.185348,-9326.594869,-2068.457845
59510.613997,222.061783,-12805.562797,459.657299
59510.614307,1184.329507,-6883.915261,0.000000
59510.614617,-2072.576638,-10732.986159,0.000000
59510.614926,1702.473667,-9474.636058,2374.896044
59510.615236,-74.020594,-8290.306550,-1915.238745
59510.615546,0.000000,-6587.832884,0.000000
59510.615855,-1480.411884,-4811.338623,-1838.629195
59510.616165,-1406.391290,-9770.718434,459.657299
59510.616475,1184.329507,-7105.977043,0.000000
59510.616784,148.041188,-11325.150913,2298.286494
59510.617094,1702.473667,-7254.018232,2145.067394
59510.617404,-1850.514855,-9178.553681,2068.457845
59510.617713,-2368.659014,-7476.080014,612.876398
59510.618023,-1036.288319,-10140.821405,2451.505594
59510.618333,-1258.350101,-8290.306550,536.266849
59510.618642,0.000000,-7179.997637,1838.629195
59510.618952,-1998.556043,-9548.656652,306.438199
59510.619261,74.020594,-8290.306550,1838.629195
59510.619571,-1998.556043,-10881.027347,2757.943793
59510.619881,-962.267725,-8660.409521,2068.457845
59510.620190,-2738.761985,-9770.718434,2528.115143
59510.620500,-2146.597232,-8290.306550,2987.772442
59510.620810,-2738.761985,-5403.503377,919.314598
59510.621119,-444.123565,-9844.739029,6894.859482
59510.621429,518.144159,-5033.400406,2374.896044
59510.621739,0.000000,-10732.986159,6128.763984
59510.622048,2294.638420,-8734.430116,3294.210641
59510.622358,222.061783,-9622.677246,5515.887586
59510.622668,2220.617826,-7031.956449,5132.839837
59510.622977,740.205942,-7624.121203,4826.401637
59510.623287,-1554.432478,-9178.553681,4213.525239
59510.623597,-1258.350101,-9474.636058,2374.896044
59510.623906,-4515.256246,-9696.697840,536.266849
59510.624216,-2368.659014,-6143.709319,1225.752797
59510.624526,-74.020594,-11843.295072,3600.648841
59510.624835,-1258.350101,-4441.235652,459.657299
59510.625145,1702.473667,-10066.800811,1149.143247
59510.625455,74.020594,-10140.821405,4290.134789
59510.625764,1702.473667,-9696.697840,3447.429741
59510.626074,-1776.494261,-12213.398043,3140.991542
59510.626384,-962.267725,-7476.080014,2757.943793
59510.626693,-74.020594,-9474.636058,3600.648841
59510.627003,1406.391290,-4737.318029,1149.143247
59510.627313,0.000000,-9548.656652,1225.752797
59510.627622,-74.020594,-8290.306550,-76.609550
59510.627932,-2368.659014,-8956.491898,0.000000
59510.628241,2294.638420,-9918.759623,1149.143247
59510.628551,0.000000,-8364.327145,153.219100
59510.628861,-1850.514855,-11843.295072,459.657299
59510.629170,-1258.350101,-8068.244768,-995.924147
59510.629480,-2220.617826,-11103.089130,306.438199
59510.629790,2294.638420,-7105.977043,1225.752797
59510.630099,-74.020594,-9474.636058,-76.609550
59510.630409,0.000000,-5403.503377,-2451.505594
59510.630719,1554.432478,-11177.109724,1991.848295
59510.631028,0.000000,-9548.656652,76.609550
59510.631338,1628.453072,-9474.636058,1762.019645
59510.631648,-1628.453072,-9326.594869,0.000000
59510.631957,-1480.411884,-6439.791695,-2451.505594
59510.632267,-3701.029710,-10807.006753,-1608.800546
59510.632577,-962.267725,-6883.915261,-2451.505594
59510.632886,-888.247130,-11029.068536,0.000000
59510.633196,2294.638420,-11251.130318,-76.609550
59510.633506,222.061783,-6291.750507,-2987.772442
59510.633815,3701.029710,-11325.150913,4290.134789
59510.634125,3775.050304,-7698.141797,842.705048
59510.634435,1776.494261,-12731.542202,3600.648841
59510.634744,1332.370696,-8808.450710,-612.876398
59510.635054,-2368.659014,-11621.233289,-766.095498
59510.635364,-1554.432478,-7328.038826,-2145.067394
59510.635673,-2368.659014,-8364.327145,-3064.381992
59510.635983,0.000000,-5403.503377,-1225.752797
59510.636293,1998.556043,-9178.553681,-76.609550
59510.636602,814.226536,-10066.800811,-689.485948
59510.636912,592.164754,-9548.656652,0.000000
59510.637221,-74.020594,-15396.283594,2374.896044
59510.637531,-1480.411884,-10362.883188,-76.609550
59510.637841,-3256.906145,-10510.924376,-1149.143247
59510.638151,-1702.473667,-6291.750507,-2298.286494
59510.638460,-1850.514855,-8882.471304,-842.705048
59510.638770,-370.102971,-8364.327145,-1532.190996
59510.639080,0.000000,-7772.162391,0.000000
59510.639390,1184.329507,-12657.521608,3370.820191
59510.639699,2886.803174,-11843.295072,2374.896044
59510.640009,-74.020594,-13619.789333,2374.896044
59510.640319,-2294.638420,-6883.915261,-995.924147
59510.640629,-2812.782580,-10658.965565,-1685.410096
59510.640938,-1554.432478,-7105.977043,-1915.238745
59510.641248,-2960.823768,-7772.162391,0.000000
59510.641558,-222.061783,-8808.450710,1455.581446
59510.641868,1406.391290,-6735.874072,0.000000
59510.642177,1480.411884,-10140.821405,4903.011187
59510.642487,5847.626942,-10066.800811,4826.401637
59510.642797,1998.556043,-13619.789333,4826.401637
59510.643106,0.000000,-7179.997637,1225.752797
59510.643416,-666.185348,-9474.636058,1455.581446
59510.643726,-1184.329507,-7105.977043,1455.581446
59510.644036,-1554.432478,-5995.668130,-383.047749
59510.644345,-2072.576638,-7476.080014,612.876398
59510.644655,-592.164754,-8216.285956,76.609550
59510.644965,-1184.329507,-12879.583391,1225.752797
59510.645275,0.000000,-8364.327145,2451.505594
59510.645584,-74.020594,-13693.809927,4826.401637
59510.645894,-666.185348,-6809.894666,-76.609550
59510.646204,-3552.988522,-7772.162391,1225.752797
59510.646514,-74.020594,-8290.306550,2068.457845
59510.646823,0.000000,-7772.162391,1838.629195
59510.647133,-666.185348,-9770.718434,1991.848295
59510.647443,1628.453072,-7328.038826,1608.800546
59510.647753,962.267725,-11325.150913,3677.258390
59510.648062,3478.967927,-7179.997637,1762.019645
59510.648372,0.000000,-8364.327145,1225.752797
59510.648682,1184.329507,-7328.038826,2451.505594
59510.648992,-74.020594,-10658.965565,-76.609550
59510.649301,-2368.659014,-9548.656652,612.876398
59510.649611,-74.020594,-11843.295072,2374.896044
59510.649921,-2738.761985,-14285.974681,3064.381992
59510.650230,518.144159,-9844.739029,2068.457845
59510.650540,-592.164754,-11325.150913,4060.306139
59510.650850,2368.659014,-5403.503377,4136.915689
59510.651160,1110.308913,-6365.771101,3600.648841
59510.651469,-1480.411884,-3923.091493,919.314598
59510.651779,-2960.823768,-6587.832884,612.876398
59510.652089,-2738.761985,-13027.624579,-76.609550
59510.652399,-5921.647536,-7772.162391,0.000000
59510.652708,-3627.009116,-13619.789333,-76.609550
59510.653018,-3997.112087,-7179.997637,0.000000
59510.653328,-1554.432478,-9474.636058,1149.143247
59510.653638,1998.556043,-5921.647536,2298.286494
59510.653947,1776.494261,-8068.244768,3140.991542
59510.654257,1110.308913,-8290.306550,2374.896044
59510.654567,-1554.432478,-7994.224174,-995.924147
59510.654877,-2960.823768,-10140.821405,0.000000
59510.655186,-74.020594,-11769.274478,2374.896044
59510.655496,-2442.679609,-11251.130318,-689.485948
59510.655806,0.000000,-5995.668130,-1225.752797
59510.656116,0.000000,-7179.997637,306.438199
59510.656425,4145.153275,-5625.565159,1455.581446
59510.656735,3034.844362,-8660.409521,2374.896044
59510.657045,1332.370696,-10066.800811,995.924147
59510.657355,-74.020594,-11843.295072,-76.609550
59510.657664,-1258.350101,-13027.624579,-76.609550
59510.657974,-1776.494261,-7772.162391,-1838.629195
59510.658284,-888.247130,-11917.315666,2604.724693
59510.658593,518.144159,-2664.741391,-3140.991542
59510.658903,0.000000,-7179.997637,0.000000
59510.659213,2664.741391,-5107.421000,0.000000
59510.659523,2960.823768,-11177.109724,1608.800546
59510.659832,1184.329507,-12953.603985,1608.800546
59510.660142,370.102971,-10732.986159,-1149.143247
59510.660452,-1850.514855,-13915.871710,-76.609550
59510.660762,-74.020594,-7105.977043,-76.609550
59510.661071,-3997.112087,-8660.409521,-2374.896044
59510.661381,0.000000,-7476.080014,0.000000
59510.661691,-74.020594,-9474.636058,-1302.362347
59510.662001,148.041188,-8364.327145,0.000000
59510.662310,1998.556043,-8734.430116,536.266849
59510.662620,0.000000,-11473.192101,2298.286494
59510.662930,-518.144159,-8512.368333,-383.047749
59510.663240,-2590.720797,-10510.924376,-306.438199
59510.663549,-74.020594,-7994.224174,-76.609550
59510.663859,-2442.679609,-11843.295072,-76.609550
59510.664169,-2442.679609,-7402.059420,-2528.115143
59510.664479,-4737.318029,-7179.997637,-3677.258390
59510.664788,2294.638420,-10658.965565,3064.381992
59510.665098,1110.308913,-8216.285956,229.828649
59510.665408,-666.185348,-10362.883188,2221.676944
59510.665718,-444.123565,-6439.791695,0.000000
59510.666027,-2072.576638,-10214.842000,612.876398
59510.666337,-592.164754,-5033.400406,-995.924147
59510.666647,-2368.659014,-9844.739029,919.314598
59510.666956,-962.267725,-10362.883188,-76.609550
59510.667266,-74.020594,-10066.800811,-76.609550
59510.667576,-1702.473667,-7179.997637,0.000000
59510.667886,3923.091493,-8808.450710,4366.744339
59510.668195,518.144159,-7254.018232,1149.143247
59510.668505,2886.803174,-6809.894666,1149.143247
59510.668815,0.000000,-9992.780217,1838.629195
59510.669125,888.247130,-7031.956449,459.657299
59510.669434,-1924.535449,-10510.924376,306.438199
59510.669744,-1776.494261,-9548.656652,306.438199
59510.670054,592.164754,-12213.398043,2451.505594
59510.670364,3478.967927,-11547.212695,4673.182538
59510.670673,1184.329507,-4811.338623,612.876398
59510.670983,2516.700203,-11325.150913,4903.011187
59510.671293,2886.803174,-6217.729913,1149.143247
59510.671603,-74.020594,-13027.624579,2987.772442
59510.671912,-666.185348,-8216.285956,842.705048
59510.672222,-4441.235652,-10510.924376,76.609550
59510.672532,-3923.091493,-9622.677246,-689.485948
59510.672842,-3552.988522,-7772.162391,0.000000
59510.673151,0.000000,-9548.656652,4903.011187
59510.673461,4071.132681,-7994.224174,4826.401637
59510.673771,-3552.988522,-7179.997637,2451.505594
59510.674081,2590.720797,-8142.265362,3600.648841
59510.674390,-1258.350101,-9474.636058,-76.609550
59510.674700,-518.144159,-9474.636058,842.705048
59510.675010,-4367.215058,-10584.944971,-995.924147
59510.675319,-4367.215058,-10881.027347,-1149.143247
59510.675629,-1406.391290,-8512.368333,-766.095498
59510.675939,-1776.494261,-8364.327145,612.876398
59510.676249,1184.329507,-3627.009116,2451.505594
59510.676558,1924.535449,-9696.697840,4903.011187
59510.676868,4663.297435,-9474.636058,3600.648841
59510.677178,-2072.576638,-9548.656652,1532.190996
59510.677488,1110.308913,-10658.965565,3294.210641
59510.677797,-1924.535449,-8808.450710,919.314598
59510.678107,-2590.720797,-7846.182985,-689.485948
59510.678417,-666.185348,-6291.750507,-1378.971896
59510.678727,-444.123565,-10436.903782,1378.971896
59510.679036,740.205942,-6439.791695,0.000000
59510.679346,0.000000,-9548.656652,612.876398
59510.679656,592.164754,-8364.327145,1225.752797
59510.679966,2294.638420,-11843.295072,2987.772442
59510.680275,-1184.329507,-5403.503377,-995.924147
59510.680585,-370.102971,-9326.594869,1762.019645
59510.680895,-2960.823768,-11325.150913,306.438199
59510.681205,-518.144159,-10955.047942,-842.705048
59510.681514,-296.082377,-13323.706956,1991.848295
59510.681824,2368.659014,-8290.306550,2068.457845
59510.682134,1406.391290,-8290.306550,1455.581446
59510.682443,0.000000,-2442.679609,-1838.629195
59510.682753,0.000000,-6587.832884,0.000000
59510.683063,2294.638420,-11547.212695,2374.896044
59510.683373,-3552.988522,-9548.656652,-2451.505594
59510.683682,-1850.514855,-17764.942608,1762.019645
59510.683992,-3552.988522,-11917.315666,-1838.629195
59510.684302,-1776.494261,-13027.624579,919.314598
59510.684612,1850.514855,-6217.729913,1762.019645
59510.684921,1924.535449,-6217.729913,2834.553343
59510.685231,3478.967927,-5329.482782,2374.896044
59510.685541,74.020594,-6809.894666,-995.924147
59510.685851,-2368.659014,-10140.821405,0.000000
59510.686160,-74.020594,-12435.459826,-76.609550
59510.686470,-6291.750507,-10807.006753,-2451.505594
59510.686780,-1480.411884,-8586.388927,-612.876398
59510.687090,-3552.988522,-7476.080014,-1225.752797
59510.687399,1332.370696,-6217.729913,689.485948
59510.687709,962.267725,-7550.100608,919.314598
59510.688019,518.144159,-8882.471304,919.314598
59510.688329,1110.308913,-9474.636058,-76.609550
59510.688638,-666.185348,-10658.965565,-383.047749
59510.688948,-1480.411884,-5995.668130,-3064.381992
59510.689258,-2368.659014,-10732.986159,1225.752797
59510.689568,-74.020594,-8290.306550,-1302.362347
59510.689877,-2368.659014,-7772.162391,0.000000
59510.690187,1184.329507,-5403.503377,229.828649
59510.690497,3108.864956,-8660.409521,2145.067394
59510.690806,2368.659014,-8068.244768,1149.143247
59510.691116,1258.350101,-8956.491898,-306.438199
59510.691426,1702.473667,-14211.954086,2374.896044
59510.691736,-74.020594,-11843.295072,-76.609550
59510.692045,-3775.050304,-10732.986159,-3217.601092
59510.692355,-74.020594,-11251.130318,-76.609550
59510.692665,-1924.535449,-8216.285956,-995.924147
59510.692975,0.000000,-5403.503377,1225.752797
59510.693284,1110.308913,-6365.771101,2451.505594
59510.693594,1850.514855,-8290.306550,2757.943793
59510.693904,1406.391290,-8216.285956,1608.800546
59510.694214,-888.247130,-11399.171507,1455.581446
59510.694523,-74.020594,-10658.965565,1532.190996
59510.694833,-2442.679609,-13915.871710,-76.609550
59510.695143,-3034.844362,-9474.636058,-2528.115143
59510.695453,-4737.318029,-9548.656652,0.000000
59510.695762,-74.020594,-10658.965565,-76.609550
59510.696072,-2368.659014,-7179.997637,0.000000
59510.696382,-74.020594,-9474.636058,2374.896044
59510.696692,1184.329507,-7328.038826,2528.115143
59510.697001,0.000000,-9548.656652,3677.258390
59510.697311,814.226536,-5329.482782,1915.238745
59510.697621,-1184.329507,-9252.574275,3217.601092
59510.697931,-74.020594,-9178.553681,2374.896044
59510.698240,-74.020594,-11251.130318,-76.609550
59510.698550,-3552.988522,-7179.997637,0.000000
59510.698860,1406.391290,-10658.965565,1762.019645
59510.699169,-2146.597232,-8660.409521,-1225.752797
59510.699479,1702.473667,-7105.977043,536.266849
59510.699789,-740.205942,-9548.656652,1991.848295
59510.700099,296.082377,-7476.080014,842.705048
59510.700408,-1776.494261,-11695.253884,1225.752797
59510.700718,-1184.329507,-9844.739029,1532.190996
59510.701028,-444.123565,-11029.068536,3370.820191
59510.701338,1702.473667,-8290.306550,2374.896044
59510.701647,0.000000,-3627.009116,1225.752797
59510.701957,3478.967927,-9474.636058,4213.525239
59510.702267,1850.514855,-5551.544565,76.609550
59510.702577,2294.638420,-12731.542202,3447.429741
59510.702886,888.247130,-8586.388927,536.266849
59510.703196,-2368.659014,-10732.986159,-459.657299
59510.703506,-2738.761985,-9474.636058,-1608.800546
59510.703816,-4145.153275,-8364.327145,0.000000
59510.704125,-1776.494261,-11325.150913,1838.629195
59510.704435,3478.967927,-14211.954086,4826.401637
59510.704745,-74.020594,-11695.253884,2221.676944
59510.705055,1776.494261,-7772.162391,3064.381992
59510.705364,3478.967927,-8290.306550,4826.401637
59510.705674,2590.720797,-3552.988522,2374.896044
59510.705984,-962.267725,-5625.565159,612.876398
59510.706294,-2072.576638,-8364.327145,0.000000
59510.706603,-1998.556043,-9992.780217,-1149.143247
59510.706913,-4737.318029,-11917.315666,0.000000
59510.707223,-3552.988522,-9548.656652,0.000000
59510.707532,-1184.329507,-14211.954086,3983.696590
59510.707842,-74.020594,-6957.935855,-76.609550
59510.708152,-2368.659014,-5995.668130,0.000000
59510.708462,3478.967927,-8882.471304,-76.609550
59510.708771,-74.020594,-9474.636058,1762.019645
59510.709081,-1628.453072,-10955.047942,229.828649
59510.709391,-2294.638420,-8882.471304,-919.314598
59510.709701,-2442.679609,-11177.109724,536.266849
59510.710010,-1480.411884,-4811.338623,-1838.629195
59510.710320,0.000000,-5995.668130,1225.752797
59510.710630,1776.494261,-4811.338623,2451.505594
59510.710940,2294.638420,-9178.553681,-76.609550
59510.711249,0.000000,-7179.997637,0.000000
59510.711559,2294.638420,-14211.954086,-76.609550
59510.711869,-1776.494261,-13101.645173,-612.876398
59510.712179,-2146.597232,-12879.583391,-1915.238745
59510.712488,-2294.638420,-12879.583391,-459.657299
59510.712798,1554.432478,-7698.141797,766.095498
59510.713108,1110.308913,-6661.853478,919.314598
59510.713418,1184.329507,-2442.679609,153.219100
59510.713727,0.000000,-4811.338623,0.000000
59510.714037,3552.988522,-8216.285956,3677.258390
59510.714347,1702.473667,-8882.471304,536.266849
59510.714656,-74.020594,-12953.603985,2374.896044
59510.714966,-2368.659014,-10140.821405,-2145.067394
59510.715276,-3034.844362,-12361.439231,-995.924147
59510.715586,-592.164754,-9400.615463,-1072.533697
59510.715895,-1702.473667,-11621.233289,536.266849
59510.716205,-74.020594,-7698.141797,-76.609550
59510.716515,-1628.453072,-7920.203579,0.000000
59510.716825,-1332.370696,-5995.668130,0.000000
59510.717134,0.000000,-7179.997637,612.876398
59510.717444,-666.185348,-9474.636058,1149.143247
59510.717754,0.000000,-8068.244768,1532.190996
59510.718064,-2812.782580,-9696.697840,0.000000
59510.718373,592.164754,-7994.224174,76.609550
59510.718683,-444.123565,-10807.006753,1762.019645
59510.718993,0.000000,-7476.080014,229.828649
59510.719303,-74.020594,-10658.965565,-76.609550
59510.719612,-74.020594,-9178.553681,-76.609550
59510.719922,-2368.659014,-5995.668130,-2145.067394
59510.720232,-592.164754,-11621.233289,2451.505594
59510.720542,-370.102971,-7105.977043,-995.924147
59510.720851,-3552.988522,-10140.821405,2451.505594
59510.721161,-1776.494261,-7179.997637,0.000000
59510.721471,-666.185348,-10436.903782,1838.629195
59510.721781,740.205942,-7772.162391,2298.286494
59510.722090,296.082377,-7105.977043,1302.362347
59510.722400,3478.967927,-8290.306550,3600.648841
59510.722710,2294.638420,-7105.977043,-76.609550
59510.723019,-3997.112087,-7476.080014,0.000000
59510.723329,-74.020594,-11103.089130,-76.609550
59510.723639,-4737.318029,-12509.480420,-1685.410096
59510.723949,-2368.659014,-10140.821405,1225.752797
59510.724258,-1258.350101,-10288.862594,1072.533697
59510.724568,0.000000,-7772.162391,2068.457845
59510.724878,814.226536,-5329.482782,1455.581446
59510.725188,1036.288319,-7105.977043,2528.115143
59510.725497,4663.297435,-7105.977043,4213.525239
59510.725807,-74.020594,-11251.130318,4826.401637
59510.726117,-74.020594,-8290.306550,-76.609550
59510.726427,-3552.988522,-11917.315666,612.876398
59510.726736,-74.020594,-12435.459826,1762.019645
59510.727046,-4145.153275,-9548.656652,0.000000
59510.727356,-666.185348,-10066.800811,1149.143247
59510.727666,296.082377,-6069.688724,689.485948
59510.727975,592.164754,-7179.997637,2145.067394
59510.728285,2072.576638,-4959.379811,1225.752797
59510.728595,296.082377,-12435.459826,4290.134789
59510.728905,2294.638420,-11843.295072,2451.505594
59510.729214,-1258.350101,-13027.624579,-76.609550
59510.729524,-2368.659014,-9548.656652,1532.190996
59510.729834,-74.020594,-9326.594869,1149.143247
59510.730144,-4071.132681,-4811.338623,0.000000
59510.730453,1110.308913,-5329.482782,-76.609550
59510.730763,-1110.308913,-8660.409521,459.657299
59510.731073,592.164754,-6957.935855,-766.095498
59510.731382,-1628.453072,-12213.398043,995.924147
59510.731692,-1184.329507,-9844.739029,1225.752797
59510.732002,-148.041188,-12509.480420,1225.752797
59510.732312,2294.638420,-10658.965565,-76.609550
59510.732621,0.000000,-7179.997637,153.219100
59510.732931,1110.308913,-9178.553681,1762.019645
59510.733241,0.000000,-2442.679609,-2681.334243
59510.733551,1036.288319,-9178.553681,1455.581446
59510.733860,1480.411884,-6661.853478,0.000000
59510.734170,-1110.308913,-11769.274478,919.314598
59510.734480,-666.185348,-11103.089130,-689.485948
59510.734790,-3552.988522,-11325.150913,0.000000
59510.735099,-1776.494261,-11029.068536,0.000000
59510.735409,2294.638420,-11843.295072,2374.896044
59510.735719,-1258.350101,-8586.388927,383.047749
59510.736029,0.000000,-5403.503377,1225.752797
59510.736338,-74.020594,-9474.636058,-76.609550
59510.736648,2590.720797,-7105.977043,1455.581446
59510.736958,-222.061783,-10066.800811,1608.800546
59510.737267,296.082377,-8882.471304,612.876398
59510.737577,-370.102971,-10288.862594,229.828649
59510.737887,-2368.659014,-8364.327145,0.000000
59510.738196,-1776.494261,-7179.997637,0.000000
59510.738506,-1184.329507,-11843.295072,1838.629195
59510.738816,-74.020594,-8882.471304,-1302.362347
59510.739125,-2960.823768,-10140.821405,0.000000
59510.739435,3182.885551,-8882.471304,-76.609550
59510.739745,-370.102971,-10881.027347,2068.457845
59510.740054,-74.020594,-8290.306550,995.924147
59510.740364,296.082377,-8438.347739,919.314598
59510.740674,592.164754,-8586.388927,2374.896044
59510.740983,0.000000,-3923.091493,0.000000
59510.741293,-2738.761985,-7624.121203,-689.485948
59510.741603,-1258.350101,-6883.915261,-1762.019645
59510.741912,-296.082377,-12805.562797,2451.505594
59510.742222,-74.020594,-7994.224174,-1302.362347
59510.742532,-296.082377,-12213.398043,2987.772442
59510.742841,-814.226536,-10288.862594,153.219100
59510.743151,370.102971,-9178.553681,-76.609550
59510.743460,296.082377,-10510.924376,1685.410096
59510.743770,962.267725,-8142.265362,689.485948
59510.744080,-1554.432478,-10658.965565,-76.609550
59510.744389,-962.267725,-7698.141797,-689.485948
59510.744699,0.000000,-10732.986159,2757.943793
59510.745009,1702.473667,-7105.977043,2068.457845
59510.745318,592.164754,-5995.668130,2451.505594
59510.745628,3478.967927,-9178.553681,4213.525239
59510.745938,592.164754,-5107.421000,0.000000
59510.746247,74.020594,-10436.903782,1532.190996
59510.746557,1110.308913,-9474.636058,612.876398
59510.746867,-1924.535449,-14582.057057,1225.752797
59510.747176,-666.185348,-11251.130318,-76.609550
59510.747486,-2442.679609,-10658.965565,-76.609550
59510.747796,-3256.906145,-4811.338623,0.000000
59510.748105,2886.803174,-6217.729913,2374.896044
59510.748415,518.144159,-6217.729913,-76.609550
59510.748725,1184.329507,-8364.327145,2757.943793
59510.749034,0.000000,-11917.315666,1685.410096
59510.749344,370.102971,-10140.821405,1685.410096
59510.749654,-2442.679609,-11917.315666,1378.971896
59510.749963,-2146.597232,-8512.368333,459.657299
59510.750273,-74.020594,-8290.306550,-76.609550
59510.750583,-74.020594,-9474.636058,-76.609550
59510.750892,-2960.823768,-4811.338623,-2145.067394
59510.751202,-2368.659014,-10140.821405,306.438199
59510.751511,-74.020594,-8290.306550,-1302.362347
59510.751821,-2368.659014,-11325.150913,2451.505594
59510.752131,0.000000,-8882.471304,766.095498
59510.752440,-1480.411884,-10955.047942,1302.362347
59510.752750,-592.164754,-9474.636058,1149.143247
59510.753060,-962.267725,-8734.430116,842.705048
59510.753369,-74.020594,-9474.636058,3447.429741
59510.753679,2294.638420,-8290.306550,2374.896044
59510.753989,-2590.720797,-6439.791695,-995.924147
59510.754298,888.247130,-7772.162391,306.438199
59510.754608,-74.020594,-11843.295072,-76.609550
59510.754918,0.000000,-9548.656652,0.000000
59510.755227,-2146.597232,-12657.521608,536.266849
59510.755537,-2220.617826,-10140.821405,306.438199
59510.755847,-1554.432478,-7920.203579,-306.438199
59510.756156,-592.164754,-6957.935855,1302.362347
59510.756466,3108.864956,-5921.647536,2451.505594
59510.756776,1998.556043,-9548.656652,4136.915689
59510.757085,2294.638420,-7105.977043,-76.609550
59510.757395,0.000000,-11917.315666,2451.505594
59510.757705,2294.638420,-11843.295072,2374.896044
59510.758014,-2368.659014,-9548.656652,0.000000
59510.758324,-74.020594,-10584.944971,842.705048
59510.758634,296.082377,-7920.203579,0.000000
59510.758943,0.000000,-8660.409521,919.314598
59510.759253,1036.288319,-5329.482782,-383.047749
59510.759563,0.000000,-10140.821405,1838.629195
59510.759872,1184.329507,-8956.491898,1225.752797
59510.760182,-74.020594,-14211.954086,2374.896044
59510.760491,0.000000,-9548.656652,0.000000
59510.760801,1110.308913,-11843.295072,2987.772442
59510.761111,-2368.659014,-5995.668130,0.000000
59510.761420,-74.020594,-6513.812290,-76.609550
59510.761730,-1406.391290,-7920.203579,842.705048
59510.762040,148.041188,-7105.977043,-383.047749
59510.762349,-1332.370696,-12065.356855,919.314598
59510.762659,0.000000,-9548.656652,306.438199
59510.762969,-2368.659014,-10140.821405,1225.752797
59510.763278,2294.638420,-9474.636058,-76.609550
59510.763588,0.000000,-8364.327145,0.000000
59510.763898,-666.185348,-10066.800811,-76.609550
59510.764207,-2738.761985,-7994.224174,-2451.505594
59510.764517,-2590.720797,-11547.212695,229.828649
59510.764827,-1110.308913,-7105.977043,-459.657299
59510.765136,-2220.617826,-8142.265362,536.266849
59510.765446,-740.205942,-6069.688724,0.000000
59510.765756,-2368.659014,-7179.997637,0.000000
59510.766065,0.000000,-6587.832884,0.000000
59510.766375,2220.617826,-10955.047942,3140.991542
59510.766685,-1258.350101,-10955.047942,1149.143247
59510.766994,-2368.659014,-7772.162391,0.000000
59510.767304,-1258.350101,-10362.883188,-689.485948
59510.767614,-888.247130,-7031.956449,0.000000
59510.767923,-1332.370696,-9400.615463,536.266849
59510.768233,296.082377,-8142.265362,229.828649
59510.768542,1184.329507,-9178.553681,1149.143247
59510.768852,296.082377,-8512.368333,1225.752797
59510.769162,0.000000,-7179.997637,0.000000
59510.769471,0.000000,-11917.315666,3370.820191
59510.769781,-74.020594,-8290.306550,-76.609550
59510.770091,-74.020594,-11843.295072,3677.258390
59510.770400,2294.638420,-5921.647536,-76.609550
59510.770710,-1332.370696,-7920.203579,1225.752797
59510.771020,1110.308913,-7920.203579,1532.190996
59510.771329,1332.370696,-9622.677246,1838.629195
59510.771639,1258.350101,-10807.006753,3064.381992
59510.771949,962.267725,-7254.018232,1149.143247
59510.772258,-1406.391290,-7994.224174,229.828649
59510.772568,0.000000,-8068.244768,1378.971896
59510.772878,-2738.761985,-10955.047942,-383.047749
59510.773187,-370.102971,-9474.636058,-76.609550
59510.773497,-74.020594,-11547.212695,1149.143247
59510.773807,0.000000,-8068.244768,1225.752797
59510.774116,1776.494261,-6883.915261,1838.629195
59510.774426,1998.556043,-8512.368333,3140.991542
59510.774736,2516.700203,-7476.080014,2068.457845
59510.775045,-962.267725,-12435.459826,1149.143247
59510.775355,-666.185348,-8882.471304,-1302.362347
59510.775665,-4737.318029,-10732.986159,306.438199
59510.775974,-1258.350101,-7994.224174,-76.609550
59510.776284,-4737.318029,-2442.679609,0.000000
59510.776594,-74.020594,-8142.265362,2374.896044
59510.776903,296.082377,-6587.832884,0.000000
59510.777213,1110.308913,-11177.109724,1991.848295
59510.777522,2294.638420,-10510.924376,1915.238745
59510.777832,-370.102971,-14211.954086,2757.943793
59510.778142,-74.020594,-10362.883188,-76.609550
59510.778451,-1850.514855,-9178.553681,-1915.238745
59510.778761,-4737.318029,-5107.421000,-2451.505594
59510.779071,-666.185348,-6661.853478,-76.609550
59510.779380,-74.020594,-8882.471304,-76.609550
59510.779690,1184.329507,-8586.388927,1149.143247
59510.780000,0.000000,-11621.233289,1225.752797
59510.780309,1258.350101,-9696.697840,919.314598
59510.780619,-1332.370696,-12731.542202,1455.581446
59510.780929,-592.164754,-8956.491898,153.219100
59510.781238,-74.020594,-10362.883188,-76.609550
59510.781548,-74.020594,-9474.636058,-76.609550
59510.781858,-666.185348,-6513.812290,-1455.581446
59510.782167,-2368.659014,-8364.327145,0.000000
59510.782477,4071.132681,-10658.965565,2374.896044
59510.782787,296.082377,-12509.480420,4290.134789
59510.783096,2146.597232,-8956.491898,1915.238745
59510.783406,814.226536,-11769.274478,3217.601092
59510.783716,666.185348,-8290.306550,1455.581446
59510.784025,-1258.350101,-8364.327145,383.047749
59510.784335,-74.020594,-9178.553681,919.314598
59510.784645,2146.597232,-9178.553681,1762.019645
59510.784954,-1258.350101,-8882.471304,-76.609550
59510.785264,0.000000,-7179.997637,0.000000
59510.785573,2294.638420,-14211.954086,3600.648841
59510.785883,1184.329507,-7772.162391,3064.381992
59510.786193,518.144159,-11103.089130,2681.334243
59510.786502,-148.041188,-7772.162391,1072.533697
59510.786812,-1850.514855,-8068.244768,-76.609550
59510.787122,-1924.535449,-8734.430116,383.047749
59510.787431,-592.164754,-9622.677246,0.000000
59510.787741,-1776.494261,-12953.603985,2451.505594
59510.788051,-74.020594,-9474.636058,-76.609550
59510.788360,0.000000,-9548.656652,2451.505594
59510.788670,4663.297435,-7105.977043,2987.772442
59510.788980,0.000000,-6587.832884,3140.991542
59510.789289,1406.391290,-8142.265362,2374.896044
59510.789599,-1480.411884,-9252.574275,0.000000
59510.789909,-3404.947333,-11103.089130,-229.828649
59510.790218,-2664.741391,-9400.615463,-919.314598
59510.790528,-4145.153275,-11473.192101,306.438199
59510.790838,0.000000,-8068.244768,1225.752797
59510.791147,-74.020594,-10658.965565,1762.019645
59510.791457,592.164754,-6291.750507,0.000000
59510.791767,4071.132681,-11843.295072,5745.716235
59510.792076,0.000000,-6439.791695,1302.362347
59510.792386,-666.185348,-7698.141797,306.438199
59510.792696,-2960.823768,-10436.903782,459.657299
59510.793005,-1702.473667,-9104.533087,-229.828649
59510.793315,-3478.967927,-12435.459826,0.000000
59510.793625,-1332.370696,-8364.327145,0.000000
59510.793934,0.000000,-9548.656652,2451.505594
59510.794244,4071.132681,-6513.812290,1762.019645
59510.794553,592.164754,-7179.997637,612.876398
59510.794863,2886.803174,-13619.789333,4213.525239
59510.795173,-2220.617826,-10732.986159,612.876398
59510.795482,-2146.597232,-13619.789333,842.705048
59510.795792,-1258.350101,-8586.388927,-229.828649
59510.796102,-2738.761985,-8290.306550,383.047749
59510.796411,370.102971,-3849.070898,-612.876398
59510.796721,888.247130,-7031.956449,1225.752797
59510.797031,2368.659014,-8364.327145,3064.381992
59510.797340,3478.967927,-11843.295072,2374.896044
59510.797650,0.000000,-11917.315666,1225.752797
59510.797960,-74.020594,-11843.295072,-76.609550
59510.798269,-4145.153275,-8364.327145,0.000000
59510.798579,-666.185348,-5847.626942,-1302.362347
59510.798889,-1776.494261,-8808.450710,-76.609550
59510.799198,-148.041188,-7698.141797,-612.876398
59510.799508,888.247130,-10436.903782,1532.190996
59510.799818,1480.411884,-9548.656652,2451.505594
59510.800127,2368.659014,-9548.656652,3983.696590
59510.800437,2886.803174,-10658.965565,3600.648841
59510.800747,0.000000,-5995.668130,0.000000
59510.801056,-74.020594,-11843.295072,2374.896044
59510.801366,-1628.453072,-4811.338623,-1225.752797
59510.801676,-2590.720797,-10658.965565,-76.609550
59510.801985,-2294.638420,-8512.368333,-1608.800546
59510.802295,-1998.556043,-10140.821405,-229.828649
59510.802604,962.267725,-10881.027347,1991.848295
59510.802914,592.164754,-7772.162391,1685.410096
59510.803224,0.000000,-9548.656652,2451.505594
59510.803533,3478.967927,-9030.512492,2987.772442
59510.803843,-1258.350101,-7550.100608,-689.485948
59510.804153,592.164754,-6587.832884,1838.629195
59510.804462,-2442.679609,-8290.306550,0.000000
59510.804772,-1702.473667,-8734.430116,76.609550
59510.805082,0.000000,-10140.821405,1072.533697
59510.805391,1480.411884,-10288.862594,2911.162892
59510.805701,2146.597232,-8216.285956,2374.896044
59510.806011,-1776.494261,-8660.409521,1455.581446
59510.806320,-2368.659014,-5403.503377,0.000000
59510.806630,-1554.432478,-11843.295072,1302.362347
59510.806940,-666.185348,-7105.977043,-2528.115143
59510.807249,-4737.318029,-9548.656652,0.000000
59510.807559,-2442.679609,-10066.800811,-1915.238745
59510.807869,-1184.329507,-8956.491898,306.438199
59510.808178,962.267725,-9252.574275,2451.505594
59510.808488,3034.844362,-5403.503377,1991.848295
59510.808798,592.164754,-8808.450710,3294.210641
59510.809107,888.247130,-6217.729913,536.266849
59510.809417,-1184.329507,-11917.315666,1838.629195
59510.809727,-1258.350101,-9474.636058,-689.485948
