#time,accel_x,accel_y,accel_z
163398.481840,-2072.576638,-7772.162391,0.000000
163398.482159,-888.247130,-8364.327145,689.485948
163398.482478,-74.020594,-10881.027347,1991.848295
163398.482797,-74.020594,-9474.636058,-76.609550
163398.483116,-3552.988522,-6587.832884,0.000000
163398.483435,-74.020594,-9770.718434,-306.438199
163398.483754,-888.247130,-9548.656652,-919.314598
163398.484073,-888.247130,-9622.677246,-919.314598
163398.484392,-74.020594,-8734.430116,-1302.362347
163398.484712,-74.020594,-9474.636058,-76.609550
163398.485031,-592.164754,-10362.883188,-76.609550
163398.485350,0.000000,-9548.656652,0.000000
163398.485669,-74.020594,-10362.883188,-153.219100
163398.485988,-296.082377,-9548.656652,612.876398
163398.486307,0.000000,-9548.656652,0.000000
163398.486626,370.102971,-9770.718434,76.609550
163398.486945,0.000000,-9326.594869,0.000000
163398.487264,0.000000,-8882.471304,459.657299
163398.487584,-74.020594,-8882.471304,-689.485948
163398.487903,-74.020594,-9474.636058,919.314598
163398.488222,-74.020594,-9474.636058,-76.609550
163398.488541,-666.185348,-8290.306550,-689.485948
163398.488860,-1184.329507,-8660.409521,0.000000
163398.489179,1480.411884,-11547.212695,3140.991542
163398.489498,-1480.411884,-8364.327145,0.000000
163398.489817,-518.144159,-8586.388927,76.609550
163398.490136,-592.164754,-8956.491898,-306.438199
163398.490456,-888.247130,-9326.594869,-153.219100
163398.490775,-370.102971,-8882.471304,-842.705048
163398.491094,-74.020594,-10066.800811,842.705048
163398.491413,-1258.350101,-8586.388927,-1608.800546
163398.491732,-1184.329507,-9548.656652,-2451.505594
163398.492051,-74.020594,-11547.212695,-76.609550
163398.492370,1332.370696,-11843.295072,2374.896044
163398.492689,-444.123565,-9474.636058,-1225.752797
163398.493008,-74.020594,-10140.821405,-995.924147
163398.493327,-296.082377,-9918.759623,-842.705048
163398.493647,0.000000,-8956.491898,0.000000
163398.493966,0.000000,-8068.244768,-1225.752797
163398.494285,0.000000,-9178.553681,0.000000
163398.494604,592.164754,-9548.656652,1225.752797
163398.494923,1628.453072,-10362.883188,1072.533697
163398.495242,518.144159,-8882.471304,-689.485948
163398.495561,1702.473667,-10955.047942,1149.143247
163398.495880,0.000000,-9030.512492,0.000000
163398.496199,-222.061783,-9104.533087,0.000000
163398.496519,-666.185348,-9178.553681,76.609550
163398.496838,0.000000,-8364.327145,1225.752797
163398.497157,-1184.329507,-8364.327145,0.000000
163398.497476,-2960.823768,-6587.832884,0.000000
163398.497795,-74.020594,-10658.965565,995.924147
163398.498114,-1776.494261,-8660.409521,-1149.143247
163398.498433,-74.020594,-7698.141797,-1302.362347
163398.498752,-888.247130,-9474.636058,-306.438199
163398.499071,-888.247130,-9548.656652,-919.314598
163398.499390,-888.247130,-9252.574275,-842.705048
163398.499710,-962.267725,-9252.574275,-383.047749
163398.500029,-2368.659014,-7772.162391,0.000000
163398.500348,-370.102971,-8734.430116,-1915.238745
163398.500667,0.000000,-10140.821405,0.000000
163398.500986,-74.020594,-10066.800811,-76.609550
163398.501305,-74.020594,-7994.224174,-1915.238745
163398.501624,2294.638420,-11843.295072,-76.609550
163398.501943,0.000000,-9844.739029,-76.609550
163398.502262,0.000000,-9622.677246,0.000000
163398.502582,0.000000,-9104.533087,0.000000
163398.502901,0.000000,-9548.656652,306.438199
163398.503220,148.041188,-9252.574275,229.828649
163398.503539,740.205942,-9918.759623,919.314598
163398.503858,1702.473667,-11251.130318,2374.896044
163398.504177,-1258.350101,-7772.162391,-1378.971896
163398.504496,888.247130,-11251.130318,1991.848295
163398.504815,0.000000,-8512.368333,0.000000
163398.505134,-444.123565,-8808.450710,76.609550
163398.505454,-444.123565,-9474.636058,383.047749
163398.505773,-962.267725,-9252.574275,0.000000
163398.506092,-2442.679609,-7031.956449,-3677.258390
163398.506411,-666.185348,-9178.553681,-76.609550
163398.506730,-814.226536,-8956.491898,-459.657299
163398.507049,0.000000,-8808.450710,-459.657299
163398.507368,222.061783,-9474.636058,-689.485948
163398.507687,2146.597232,-9474.636058,-383.047749
163398.508006,3330.926739,-11695.253884,-76.609550
163398.508325,1110.308913,-8882.471304,-995.924147
163398.508645,1184.329507,-7772.162391,-2604.724693
163398.508964,2368.659014,-8956.491898,306.438199
163398.509283,0.000000,-7328.038826,-2451.505594
163398.509602,2886.803174,-10066.800811,-229.828649
163398.509921,3330.926739,-9918.759623,-153.219100
163398.510240,4071.132681,-9104.533087,306.438199
163398.510559,5847.626942,-10140.821405,383.047749
163398.510878,5847.626942,-9104.533087,842.705048
163398.511197,5033.400406,-9104.533087,1225.752797
163398.511517,7179.997637,-10584.944971,2987.772442
163398.511836,7031.956449,-9474.636058,-76.609550
163398.512155,4737.318029,-8364.327145,1225.752797
163398.512474,3701.029710,-8660.409521,-1225.752797
163398.512793,4367.215058,-9474.636058,-995.924147
163398.513112,4441.235652,-9622.677246,-1302.362347
163398.513431,5477.523971,-9474.636058,-919.314598
163398.513750,5847.626942,-7994.224174,-1991.848295
163398.514069,6291.750507,-8734.430116,-689.485948
163398.514388,4737.318029,-8364.327145,0.000000
163398.514708,6439.791695,-11769.274478,-76.609550
163398.515027,3775.050304,-12139.377449,-689.485948
163398.515346,592.164754,-11917.315666,612.876398
163398.515665,1036.288319,-12213.398043,-766.095498
163398.515984,2146.597232,-11029.068536,0.000000
163398.516303,3627.009116,-8660.409521,689.485948
163398.516622,2960.823768,-4811.338623,0.000000
163398.516941,2886.803174,-3256.906145,-383.047749
163398.517260,4367.215058,-3849.070898,-2834.553343
163398.517580,2960.823768,-5403.503377,-2451.505594
163398.517899,4737.318029,-7328.038826,-4596.572988
163398.518218,5551.544565,-13619.789333,-76.609550
163398.518537,4145.153275,-14285.974681,-612.876398
163398.518856,2516.700203,-15396.283594,612.876398
163398.519175,2516.700203,-15100.201217,2604.724693
163398.519494,2960.823768,-11547.212695,2757.943793
163398.519813,2146.597232,-7179.997637,1762.019645
163398.520132,1776.494261,-5107.421000,306.438199
163398.520452,2146.597232,-4737.318029,-536.266849
163398.520771,1480.411884,-4811.338623,-2451.505594
163398.521090,1184.329507,-7179.997637,612.876398
163398.521409,2294.638420,-9474.636058,-76.609550
163398.521728,-2960.823768,-9104.533087,-612.876398
163398.522047,-3182.885551,-9770.718434,-1455.581446
163398.522366,-1110.308913,-10140.821405,0.000000
163398.522685,740.205942,-9548.656652,1149.143247
163398.523004,888.247130,-9548.656652,-383.047749
163398.523323,1036.288319,-11473.192101,995.924147
163398.523643,2220.617826,-11325.150913,2604.724693
163398.523962,2294.638420,-9178.553681,-1302.362347
163398.524281,-1258.350101,-5995.668130,-6511.811733
163398.524600,-74.020594,-9474.636058,-5286.058936
163398.524919,-592.164754,-10362.883188,-3370.820191
163398.525238,2590.720797,-12583.501014,459.657299
163398.525557,3849.070898,-11843.295072,3217.601092
163398.525876,3701.029710,-10140.821405,4903.011187
163398.526195,2368.659014,-7476.080014,1225.752797
163398.526515,1184.329507,-5403.503377,0.000000
163398.526834,5033.400406,-8660.409521,3064.381992
163398.527153,8216.285956,-9474.636058,4903.011187
163398.527472,4959.379811,-5699.585753,1838.629195
163398.527791,3478.967927,-7698.141797,-1608.800546
163398.528110,-2516.700203,-8438.347739,-6818.249932
163398.528429,-3627.009116,-12435.459826,-6741.640382
163398.528748,-2738.761985,-14211.954086,-4673.182538
163398.529067,-888.247130,-14285.974681,-1532.190996
163398.529386,-74.020594,-11251.130318,-2221.676944
163398.529706,2368.659014,-8364.327145,0.000000
163398.530025,8660.409521,-8068.244768,2451.505594
163398.530344,14063.912898,-7105.977043,9729.412825
163398.530663,8586.388927,-814.226536,4903.011187
163398.530982,7031.956449,-3404.947333,2528.115143
163398.531301,2812.782580,-7031.956449,-2145.067394
163398.531620,74.020594,-12509.480420,-2451.505594
163398.531939,-2590.720797,-14211.954086,-3140.991542
163398.532258,-6957.935855,-15396.283594,-5592.497135
163398.532578,-7624.121203,-14211.954086,-9193.145976
163398.532897,-5921.647536,-13915.871710,-7737.564530
163398.533216,-3552.988522,-9844.739029,-2451.505594
163398.533535,3256.906145,-7476.080014,4290.134789
163398.533854,2442.679609,-3627.009116,2451.505594
163398.534173,7550.100608,-4367.215058,5898.935335
163398.534492,7402.059420,-3775.050304,7737.564530
163398.534811,4071.132681,-4071.132681,7660.954980
163398.535130,1702.473667,-7105.977043,2987.772442
163398.535450,-1554.432478,-11251.130318,-76.609550
163398.535769,-1258.350101,-14211.954086,-76.609550
163398.536088,-4811.338623,-13027.624579,-3753.867940
163398.536407,-10066.800811,-12731.542202,-7354.516781
163398.536726,-10658.965565,-14285.974681,-6741.640382
163398.537045,-9770.718434,-12287.418637,-7967.393179
163398.537364,-5773.606348,-9696.697840,-2911.162892
163398.537683,-4293.194464,-7476.080014,-229.828649
163398.538002,-2072.576638,-6439.791695,2068.457845
163398.538321,3478.967927,-5329.482782,4826.401637
163398.538641,5033.400406,-3627.009116,9193.145976
163398.538960,4663.297435,-4737.318029,7277.907231
163398.539279,-1110.308913,-4737.318029,1149.143247
163398.539598,-5107.421000,-8734.430116,-3294.210641
163398.539917,-8882.471304,-10732.986159,-7354.516781
163398.540236,-6957.935855,-16062.468941,-4366.744339
163398.540555,-8438.347739,-15470.304188,-5286.058936
163398.540874,-6957.935855,-14285.974681,-5286.058936
163398.541193,-2442.679609,-11251.130318,-2528.115143
163398.541513,1110.308913,-7105.977043,306.438199
163398.541832,2368.659014,-3627.009116,3064.381992
163398.542151,3849.070898,-1258.350101,1302.362347
163398.542470,7105.977043,-5995.668130,6128.763984
163398.542789,4663.297435,-4959.379811,2911.162892
163398.543108,2590.720797,-9178.553681,4443.353888
163398.543427,-2664.741391,-10658.965565,306.438199
163398.543746,-4145.153275,-12435.459826,-2145.067394
163398.544065,-1628.453072,-13249.686362,-2604.724693
163398.544384,-444.123565,-14211.954086,-76.609550
163398.544704,-3256.906145,-9918.759623,-3907.087040
163398.545023,-2368.659014,-9918.759623,-4749.792088
163398.545342,-740.205942,-9326.594869,-4519.963438
163398.545661,592.164754,-9548.656652,-1225.752797
163398.545980,0.000000,-6587.832884,0.000000
163398.546299,2294.638420,-8290.306550,-76.609550
163398.546618,2960.823768,-8068.244768,1225.752797
163398.546937,7105.977043,-8512.368333,4903.011187
163398.547256,6365.771101,-6809.894666,3294.210641
163398.547576,4663.297435,-9474.636058,2834.553343
163398.547895,740.205942,-9178.553681,-2145.067394
163398.548214,0.000000,-11695.253884,-3064.381992
163398.548533,-592.164754,-13101.645173,-2528.115143
163398.548852,-2960.823768,-11473.192101,-2451.505594
163398.549171,-1924.535449,-12065.356855,-2145.067394
163398.549490,1702.473667,-11251.130318,-689.485948
163398.549809,3552.988522,-9474.636058,2374.896044
163398.550128,2664.741391,-2442.679609,1302.362347
163398.550448,4071.132681,-4441.235652,-76.609550
163398.550767,2886.803174,-7698.141797,1455.581446
163398.551087,1406.391290,-9252.574275,229.828649
163398.551406,0.000000,-10732.986159,1149.143247
163398.551726,-3108.864956,-10510.924376,-1225.752797
163398.552045,-4663.297435,-12953.603985,-1455.581446
163398.552364,-2960.823768,-11917.315666,-1685.410096
163398.552684,-666.185348,-11843.295072,-76.609550
163398.553003,-962.267725,-7105.977043,-995.924147
163398.553323,-1184.329507,-6217.729913,-76.609550
163398.553642,-370.102971,-7105.977043,-3677.258390
163398.553962,-2072.576638,-8068.244768,0.000000
163398.554281,-2442.679609,-8586.388927,-766.095498
163398.554601,-3923.091493,-10214.842000,-1302.362347
163398.554920,-2442.679609,-11547.212695,-689.485948
163398.555239,1702.473667,-11843.295072,2374.896044
163398.555559,1036.288319,-11029.068536,4136.915689
163398.555878,-1258.350101,-8290.306550,-1915.238745
163398.556198,-5033.400406,-8956.491898,-3370.820191
163398.556517,-2960.823768,-10436.903782,-1532.190996
163398.556837,-4737.318029,-9548.656652,-2145.067394
163398.557156,-3108.864956,-10140.821405,-76.609550
163398.557475,-2738.761985,-9104.533087,-536.266849
163398.557795,0.000000,-8142.265362,1838.629195
163398.558114,4663.297435,-8290.306550,4213.525239
163398.558434,4663.297435,-7105.977043,5209.449386
163398.558753,1998.556043,-7105.977043,1149.143247
163398.559073,-1184.329507,-7476.080014,-1532.190996
163398.559392,-2960.823768,-9548.656652,-1991.848295
163398.559712,-2960.823768,-12213.398043,689.485948
163398.560031,-6809.894666,-10732.986159,-2834.553343
163398.560350,-4737.318029,-11843.295072,-2911.162892
163398.560670,-1480.411884,-10881.027347,-1762.019645
163398.560989,1036.288319,-8512.368333,842.705048
163398.561309,1184.329507,-5403.503377,153.219100
163398.561628,296.082377,-5699.585753,0.000000
163398.561948,1776.494261,-8290.306550,0.000000
163398.562267,4071.132681,-9474.636058,-76.609550
163398.562587,-1184.329507,-9548.656652,0.000000
163398.562906,-2368.659014,-12435.459826,-76.609550
163398.563225,-1702.473667,-11399.171507,-1532.190996
163398.563545,2368.659014,-11103.089130,459.657299
163398.563864,3256.906145,-9104.533087,1225.752797
163398.564184,1184.329507,-7179.997637,0.000000
163398.564503,0.000000,-6291.750507,-3677.258390
163398.564823,1184.329507,-8364.327145,-3447.429741
163398.565142,0.000000,-8364.327145,0.000000
163398.565461,-74.020594,-11103.089130,-76.609550
163398.565781,-74.020594,-10066.800811,-76.609550
163398.566100,3923.091493,-11843.295072,2681.334243
163398.566420,4589.276840,-9030.512492,2987.772442
163398.566739,4145.153275,-7179.997637,2681.334243
163398.567059,518.144159,-6809.894666,-229.828649
163398.567378,-2368.659014,-7179.997637,-3677.258390
163398.567698,-2146.597232,-10066.800811,-2528.115143
163398.568017,-3552.988522,-10140.821405,-2451.505594
163398.568336,-2812.782580,-11621.233289,-612.876398
163398.568656,-3330.926739,-11251.130318,-1302.362347
163398.568975,-74.020594,-9474.636058,-1915.238745
163398.569295,2368.659014,-8364.327145,1685.410096
163398.569614,2664.741391,-6143.709319,1455.581446
163398.569934,1110.308913,-6291.750507,76.609550
163398.570253,-592.164754,-7920.203579,-229.828649
163398.570572,-2368.659014,-9104.533087,-689.485948
163398.570892,-1554.432478,-10658.965565,-1915.238745
163398.571211,-4441.235652,-10881.027347,-1991.848295
163398.571531,-2368.659014,-13693.809927,-306.438199
163398.571850,1702.473667,-12879.583391,0.000000
163398.572170,1998.556043,-7698.141797,-76.609550
163398.572489,370.102971,-6957.935855,306.438199
163398.572809,-1110.308913,-7179.997637,-1455.581446
163398.573128,-888.247130,-8512.368333,-1608.800546
163398.573447,-74.020594,-11547.212695,2987.772442
163398.573767,-370.102971,-10288.862594,2374.896044
163398.574086,-1998.556043,-9178.553681,1149.143247
163398.574406,-1850.514855,-7624.121203,-1378.971896
163398.574725,0.000000,-8068.244768,1991.848295
163398.575045,0.000000,-5995.668130,1532.190996
163398.575364,-1332.370696,-6735.874072,-1302.362347
163398.575684,-2664.741391,-9400.615463,-2145.067394
163398.576003,-3108.864956,-10584.944971,-2451.505594
163398.576322,-2960.823768,-11325.150913,-1608.800546
163398.576642,-2442.679609,-11843.295072,-1302.362347
163398.576961,-2442.679609,-10584.944971,-1225.752797
163398.577281,2294.638420,-11843.295072,1149.143247
163398.577600,2294.638420,-8882.471304,1149.143247
163398.577920,1184.329507,-6069.688724,1455.581446
163398.578239,222.061783,-5255.462188,-3370.820191
163398.578558,518.144159,-8882.471304,-1378.971896
163398.578878,444.123565,-11177.109724,-1149.143247
163398.579197,-888.247130,-11621.233289,-229.828649
163398.579517,-2738.761985,-11843.295072,-689.485948
163398.579836,-3256.906145,-9548.656652,-1532.190996
163398.580156,222.061783,-8956.491898,0.000000
163398.580475,2960.823768,-7476.080014,2451.505594
163398.580795,1184.329507,-5995.668130,2451.505594
163398.581114,1406.391290,-6513.812290,-1302.362347
163398.581433,1702.473667,-9474.636058,-383.047749
163398.581753,-666.185348,-10288.862594,-459.657299
163398.582072,-2072.576638,-10288.862594,-1149.143247
163398.582392,-3034.844362,-10658.965565,-1149.143247
163398.582711,296.082377,-11917.315666,1532.190996
163398.583031,3552.988522,-10658.965565,1149.143247
163398.583350,3478.967927,-8882.471304,3600.648841
163398.583669,-74.020594,-7105.977043,-1302.362347
163398.583989,-3256.906145,-7772.162391,-2451.505594
163398.584308,-74.020594,-11843.295072,-1302.362347
163398.584628,-1332.370696,-10732.986159,-766.095498
163398.584947,-2442.679609,-9252.574275,-612.876398
163398.585267,-2368.659014,-9770.718434,-919.314598
163398.585586,296.082377,-9474.636058,1762.019645
163398.585906,0.000000,-4811.338623,0.000000
163398.586225,2590.720797,-6365.771101,1762.019645
163398.586544,222.061783,-6809.894666,-306.438199
163398.586864,0.000000,-8142.265362,-1532.190996
163398.587183,1110.308913,-10362.883188,-689.485948
163398.587503,-1036.288319,-9622.677246,-1149.143247
163398.587822,-814.226536,-12435.459826,-383.047749
163398.588142,-962.267725,-11843.295072,-1302.362347
163398.588461,1702.473667,-10362.883188,-842.705048
163398.588781,3108.864956,-9992.780217,4519.963438
163398.589100,0.000000,-5995.668130,0.000000
163398.589419,-1554.432478,-8290.306550,-766.095498
163398.589739,0.000000,-8956.491898,-919.314598
163398.590058,74.020594,-9252.574275,0.000000
163398.590378,-1850.514855,-9548.656652,0.000000
163398.590697,-2886.803174,-10214.842000,-76.609550
163398.591017,-2738.761985,-9400.615463,-995.924147
163398.591336,-666.185348,-6957.935855,-1072.533697
163398.591655,0.000000,-7179.997637,1225.752797
163398.591975,-74.020594,-9474.636058,2834.553343
163398.592294,-2664.741391,-7476.080014,-2451.505594
163398.592614,-2738.761985,-9474.636058,-2451.505594
163398.592933,-3108.864956,-11177.109724,-1762.019645
163398.593253,-3108.864956,-11251.130318,-2451.505594
163398.593572,-3552.988522,-9548.656652,-3677.258390
163398.593892,296.082377,-9844.739029,-2451.505594
163398.594211,3256.906145,-10732.986159,2604.724693
163398.594530,962.267725,-6143.709319,919.314598
163398.594850,0.000000,-5921.647536,-689.485948
163398.595169,1702.473667,-9474.636058,-383.047749
163398.595489,0.000000,-9992.780217,-1225.752797
163398.595808,-518.144159,-10881.027347,536.266849
163398.596128,-1998.556043,-9474.636058,612.876398
163398.596447,-2368.659014,-7772.162391,0.000000
163398.596766,0.000000,-8142.265362,229.828649
163398.597086,1480.411884,-7179.997637,2451.505594
163398.597405,2294.638420,-7105.977043,2374.896044
163398.597725,-74.020594,-9030.512492,1762.019645
163398.598044,-666.185348,-9474.636058,-3140.991542
163398.598364,-74.020594,-11843.295072,-229.828649
163398.598683,-2146.597232,-11029.068536,-1455.581446
163398.599003,-3034.844362,-10881.027347,-1685.410096
163398.599322,-1110.308913,-11103.089130,-1302.362347
163398.599641,0.000000,-11029.068536,842.705048
163398.599961,3478.967927,-9326.594869,2374.896044
163398.600280,0.000000,-5995.668130,0.000000
163398.600600,-3552.988522,-7179.997637,0.000000
163398.600919,-74.020594,-11251.130318,-1302.362347
163398.601239,-666.185348,-9178.553681,-3447.429741
163398.601558,-1036.288319,-10288.862594,-76.609550
163398.601877,-2368.659014,-9696.697840,-1838.629195
163398.602197,-1110.308913,-10140.821405,-1225.752797
163398.602516,2960.823768,-10658.965565,1762.019645
163398.602836,5107.421000,-9474.636058,4213.525239
163398.603155,1406.391290,-7402.059420,2221.676944
163398.603475,-74.020594,-9474.636058,-995.924147
163398.603794,-1406.391290,-9474.636058,-2374.896044
163398.604114,-2368.659014,-9548.656652,0.000000
163398.604433,-2146.597232,-9252.574275,-1455.581446
163398.604752,-592.164754,-11621.233289,0.000000
163398.605072,1554.432478,-10510.924376,1378.971896
163398.605391,3330.926739,-8956.491898,3064.381992
163398.605711,3478.967927,-7698.141797,2374.896044
163398.606030,-74.020594,-8290.306550,306.438199
163398.606350,-74.020594,-9474.636058,-1302.362347
163398.606669,-3034.844362,-9030.512492,-2757.943793
163398.606989,-3849.070898,-10140.821405,-3677.258390
163398.607308,-4737.318029,-9548.656652,-1225.752797
163398.607627,-4441.235652,-9252.574275,-2681.334243
163398.607947,-296.082377,-9474.636058,76.609550
163398.608266,1702.473667,-8216.285956,1608.800546
163398.608586,222.061783,-7105.977043,459.657299
163398.608905,-74.020594,-9474.636058,-1532.190996
163398.609225,-2368.659014,-8956.491898,-1225.752797
163398.609544,-666.185348,-11843.295072,-76.609550
163398.609863,-1554.432478,-10658.965565,-689.485948
163398.610183,-2590.720797,-9696.697840,-2221.676944
163398.610502,0.000000,-13101.645173,1838.629195
163398.610822,2294.638420,-10732.986159,842.705048
163398.611141,2738.761985,-9104.533087,2374.896044
163398.611461,814.226536,-7402.059420,383.047749
163398.611780,-2368.659014,-6587.832884,-3064.381992
163398.612100,-1184.329507,-8068.244768,-2451.505594
163398.612419,0.000000,-9844.739029,919.314598
163398.612738,-74.020594,-11843.295072,2374.896044
163398.613058,-2442.679609,-8882.471304,-1302.362347
163398.613377,-74.020594,-11251.130318,1149.143247
163398.613697,2664.741391,-9400.615463,2757.943793
163398.614016,1924.535449,-6143.709319,1685.410096
163398.614336,-444.123565,-6439.791695,-153.219100
163398.614655,-1184.329507,-8290.306550,-2145.067394
163398.614974,-3552.988522,-8364.327145,-3677.258390
163398.615294,-2516.700203,-10732.986159,-1378.971896
163398.615613,-5921.647536,-9548.656652,-3370.820191
163398.615933,-370.102971,-12805.562797,-459.657299
163398.616252,1406.391290,-10955.047942,-76.609550
163398.616572,4663.297435,-9474.636058,2987.772442
163398.616891,1480.411884,-6735.874072,1149.143247
163398.617211,0.000000,-7254.018232,-612.876398
163398.617530,-666.185348,-8956.491898,-2145.067394
163398.617849,-814.226536,-10732.986159,-76.609550
163398.618169,-4737.318029,-9548.656652,-2145.067394
163398.618488,-2442.679609,-10658.965565,-2528.115143
163398.618808,-2368.659014,-9844.739029,-1838.629195
163398.619127,1184.329507,-8956.491898,0.000000
163398.619447,1184.329507,-7105.977043,2068.457845
163398.619766,2516.700203,-8068.244768,2757.943793
163398.620086,-592.164754,-6883.915261,-842.705048
163398.620405,-814.226536,-8882.471304,-306.438199
163398.620724,-518.144159,-9918.759623,-306.438199
163398.621044,-3552.988522,-8364.327145,0.000000
163398.621363,-1184.329507,-10732.986159,-612.876398
163398.621683,740.205942,-11769.274478,536.266849
163398.622002,2886.803174,-12435.459826,3600.648841
163398.622322,1110.308913,-7105.977043,-76.609550
163398.622641,-1184.329507,-8364.327145,-76.609550
163398.622960,-3256.906145,-7772.162391,-3677.258390
163398.623280,-1480.411884,-11029.068536,-2681.334243
163398.623599,-2442.679609,-11029.068536,-1072.533697
163398.623919,-2664.741391,-10510.924376,-1838.629195
163398.624238,-2442.679609,-9474.636058,-4673.182538
163398.624558,370.102971,-9770.718434,306.438199
163398.624877,3034.844362,-8216.285956,2221.676944
163398.625197,2590.720797,-6513.812290,1991.848295
163398.625516,666.185348,-8290.306550,1149.143247
163398.625835,296.082377,-9474.636058,-1532.190996
163398.626155,-2368.659014,-10140.821405,0.000000
163398.626474,-148.041188,-12731.542202,-76.609550
163398.626794,-1258.350101,-11843.295072,-76.609550
163398.627113,0.000000,-10140.821405,0.000000
163398.627433,1998.556043,-9178.553681,76.609550
163398.627752,3256.906145,-8882.471304,2757.943793
163398.628071,1480.411884,-6735.874072,1225.752797
163398.628391,-962.267725,-7031.956449,-1225.752797
163398.628710,-74.020594,-8734.430116,-995.924147
163398.629030,-74.020594,-10955.047942,-689.485948
163398.629349,-2368.659014,-10732.986159,459.657299
163398.629669,-2664.741391,-10881.027347,919.314598
163398.629988,-1258.350101,-9474.636058,-1302.362347
163398.630308,296.082377,-8364.327145,2451.505594
163398.630627,2886.803174,-6661.853478,1685.410096
163398.630946,740.205942,-6069.688724,536.266849
163398.631266,-2368.659014,-7402.059420,-1685.410096
163398.631585,-2368.659014,-10436.903782,-2528.115143
163398.631905,-1258.350101,-10955.047942,-1915.238745
163398.632224,-2960.823768,-10584.944971,-1072.533697
163398.632544,-2368.659014,-10732.986159,0.000000
163398.632863,-74.020594,-11843.295072,-383.047749
163398.633183,2738.761985,-10066.800811,2068.457845
163398.633502,592.164754,-7772.162391,3064.381992
163398.633821,-592.164754,-7031.956449,-1302.362347
163398.634141,-1036.288319,-9104.533087,-2298.286494
163398.634460,296.082377,-11399.171507,-689.485948
163398.634780,-1628.453072,-8660.409521,0.000000
163398.635099,-3627.009116,-7476.080014,-1608.800546
163398.635419,-2886.803174,-8142.265362,-2451.505594
163398.635738,1184.329507,-9844.739029,1532.190996
163398.636057,4071.132681,-8290.306550,1225.752797
163398.636377,2294.638420,-8290.306550,2374.896044
163398.636696,-1776.494261,-7772.162391,0.000000
163398.637016,-2146.597232,-9178.553681,-2068.457845
163398.637335,-1332.370696,-10510.924376,-536.266849
163398.637655,-2220.617826,-9918.759623,-153.219100
163398.637974,-3552.988522,-9178.553681,-1149.143247
163398.638294,-370.102971,-11251.130318,-689.485948
163398.638613,814.226536,-8808.450710,383.047749
163398.638932,1480.411884,-5995.668130,0.000000
163398.639252,-1776.494261,-6587.832884,0.000000
163398.639571,-74.020594,-9474.636058,-2528.115143
163398.639891,-1628.453072,-10436.903782,-2374.896044
163398.640210,-814.226536,-11251.130318,-1225.752797
163398.640530,-2368.659014,-11103.089130,-1532.190996
163398.640849,-2664.741391,-10881.027347,-1302.362347
163398.641168,222.061783,-10584.944971,536.266849
163398.641488,3923.091493,-9474.636058,1685.410096
163398.641807,4663.297435,-8882.471304,3600.648841
163398.642127,2294.638420,-7105.977043,-76.609550
163398.642446,-222.061783,-7476.080014,-2451.505594
163398.642766,2294.638420,-9474.636058,-76.609550
163398.643085,0.000000,-10436.903782,1072.533697
163398.643405,-814.226536,-9992.780217,536.266849
163398.643724,-962.267725,-10066.800811,-153.219100
163398.644043,2368.659014,-11399.171507,3064.381992
163398.644363,2664.741391,-10732.986159,3217.601092
163398.644682,296.082377,-8364.327145,1532.190996
163398.645002,-1036.288319,-8734.430116,-1915.238745
163398.645321,-1850.514855,-9474.636058,-2528.115143
163398.645641,-4145.153275,-8364.327145,-4903.011187
163398.645960,-1258.350101,-11251.130318,-689.485948
163398.646279,-4145.153275,-10140.821405,-1685.410096
163398.646599,-2590.720797,-9474.636058,-1225.752797
163398.646918,222.061783,-8882.471304,919.314598
163398.647238,3775.050304,-9326.594869,3983.696590
163398.647557,592.164754,-5995.668130,2451.505594
163398.647877,-444.123565,-7846.182985,383.047749
163398.648196,-74.020594,-9474.636058,-76.609550
163398.648516,1702.473667,-11843.295072,-76.609550
163398.648835,-3552.988522,-9548.656652,0.000000
163398.649154,-2146.597232,-10584.944971,-1608.800546
163398.649474,-518.144159,-11029.068536,-1072.533697
163398.649793,2590.720797,-11029.068536,383.047749
163398.650113,2738.761985,-7476.080014,76.609550
163398.650432,1036.288319,-7624.121203,-459.657299
163398.650752,-1776.494261,-8364.327145,-1838.629195
163398.651071,1036.288319,-10214.842000,0.000000
163398.651391,2294.638420,-11843.295072,1762.019645
163398.651710,-1258.350101,-11251.130318,-76.609550
163398.652029,-4737.318029,-8956.491898,0.000000
163398.652349,0.000000,-10510.924376,766.095498
163398.652668,2664.741391,-8068.244768,2911.162892
163398.652988,1110.308913,-5921.647536,1838.629195
163398.653307,-1850.514855,-5033.400406,-2451.505594
163398.653627,-3034.844362,-8290.306550,-3140.991542
163398.653946,-2442.679609,-11843.295072,-689.485948
163398.654265,-2442.679609,-11251.130318,-1302.362347
163398.654585,-4071.132681,-10214.842000,-2528.115143
163398.654904,-1258.350101,-11843.295072,-1302.362347
163398.655224,2072.576638,-11251.130318,1762.019645
163398.655543,2886.803174,-8290.306550,2221.676944
163398.655863,1406.391290,-7105.977043,229.828649
163398.656182,-74.020594,-8068.244768,-1608.800546
163398.656501,0.000000,-9548.656652,0.000000
163398.656821,1110.308913,-10362.883188,-1302.362347
163398.657140,-2368.659014,-10436.903782,0.000000
163398.657460,-1850.514855,-11547.212695,-689.485948
163398.657779,-74.020594,-11621.233289,689.485948
163398.658099,2664.741391,-11251.130318,3600.648841
163398.658418,3404.947333,-6957.935855,2451.505594
163398.658737,1702.473667,-6143.709319,1915.238745
163398.659057,-592.164754,-7031.956449,-306.438199
163398.659376,-2368.659014,-7179.997637,0.000000
163398.659696,-74.020594,-9622.677246,612.876398
163398.660015,-1258.350101,-11251.130318,-76.609550
163398.660335,-3182.885551,-10140.821405,-1685.410096
163398.660654,-4145.153275,-9548.656652,0.000000
163398.660973,1480.411884,-10436.903782,3677.258390
163398.661293,0.000000,-6735.874072,306.438199
163398.661612,-296.082377,-7772.162391,-1762.019645
163398.661932,-1110.308913,-9622.677246,-3140.991542
163398.662251,74.020594,-11103.089130,-1762.019645
163398.662571,-1554.432478,-10214.842000,-2221.676944
163398.662890,-2590.720797,-10955.047942,-842.705048
163398.663209,-2960.823768,-10732.986159,-2221.676944
163398.663529,1036.288319,-9770.718434,612.876398
163398.663848,3849.070898,-7920.203579,2374.896044
163398.664168,4071.132681,-7105.977043,4213.525239
163398.664487,1702.473667,-8068.244768,2451.505594
163398.664807,-74.020594,-8290.306550,-995.924147
163398.665126,-1332.370696,-9252.574275,-612.876398
163398.665445,-2220.617826,-9548.656652,0.000000
163398.665765,-4071.132681,-8364.327145,-3753.867940
163398.666084,-1258.350101,-10584.944971,-306.438199
163398.666404,518.144159,-10658.965565,536.266849
163398.666723,1628.453072,-8882.471304,1532.190996
163398.667043,1110.308913,-8808.450710,-76.609550
163398.667362,0.000000,-9548.656652,-1225.752797
163398.667681,370.102971,-11399.171507,-1302.362347
163398.668001,1110.308913,-11843.295072,2374.896044
163398.668320,-666.185348,-11251.130318,-76.609550
163398.668640,-4737.318029,-8364.327145,0.000000
163398.668959,-2146.597232,-8956.491898,-1149.143247
163398.669279,3108.864956,-8956.491898,2374.896044
163398.669598,2886.803174,-6661.853478,2451.505594
163398.669917,-370.102971,-6291.750507,76.609550
163398.670237,-2442.679609,-7698.141797,-2221.676944
163398.670556,-1554.432478,-9992.780217,-1991.848295
163398.670876,-2072.576638,-10140.821405,-2451.505594
163398.671195,-1258.350101,-12361.439231,-76.609550
163398.671515,-2442.679609,-10436.903782,-1608.800546
163398.671834,0.000000,-11029.068536,1225.752797
163398.672153,1924.535449,-9030.512492,919.314598
163398.672473,1628.453072,-7476.080014,383.047749
163398.672792,296.082377,-8142.265362,-1072.533697
163398.673112,666.185348,-9548.656652,-2451.505594
163398.673431,0.000000,-9844.739029,0.000000
163398.673751,-740.205942,-9844.739029,0.000000
163398.674070,-2368.659014,-10140.821405,612.876398
163398.674389,-74.020594,-10658.965565,-229.828649
163398.674709,2886.803174,-8882.471304,2374.896044
163398.675028,5329.482782,-8586.388927,4826.401637
163398.675348,1184.329507,-5551.544565,1838.629195
163398.675667,-1184.329507,-6957.935855,-842.705048
163398.675987,-1776.494261,-8734.430116,-1532.190996
163398.676306,-4145.153275,-8364.327145,0.000000
163398.676625,-4737.318029,-9030.512492,-1915.238745
163398.676945,-5921.647536,-9548.656652,-3370.820191
163398.677264,-1554.432478,-11473.192101,-1149.143247
163398.677584,962.267725,-11843.295072,-76.609550
163398.677903,2294.638420,-8290.306550,1149.143247
163398.678223,1628.453072,-8808.450710,-76.609550
163398.678542,222.061783,-8882.471304,-1991.848295
163398.678861,1702.473667,-10732.986159,-842.705048
163398.679181,814.226536,-11103.089130,0.000000
163398.679500,-3997.112087,-10436.903782,-766.095498
163398.679820,-3034.844362,-10658.965565,-2374.896044
163398.680139,-1184.329507,-9548.656652,-1225.752797
163398.680459,1184.329507,-7179.997637,612.876398
163398.680778,3108.864956,-7179.997637,3217.601092
163398.681097,-74.020594,-4737.318029,-2528.115143
163398.681417,-666.185348,-7550.100608,-306.438199
163398.681736,-666.185348,-9252.574275,-689.485948
163398.682056,-962.267725,-9548.656652,-76.609550
163398.682375,-3330.926739,-10658.965565,-76.609550
163398.682695,-1850.514855,-12879.583391,-76.609550
163398.683014,814.226536,-10362.883188,1762.019645
163398.683333,4663.297435,-9474.636058,2374.896044
163398.683653,0.000000,-5995.668130,0.000000
163398.683972,-2368.659014,-6587.832884,-2451.505594
163398.684292,-962.267725,-8586.388927,-3600.648841
163398.684611,222.061783,-11547.212695,-612.876398
163398.684931,-2442.679609,-10881.027347,-766.095498
163398.685250,-4219.173869,-9992.780217,-1762.019645
163398.685569,-74.020594,-13619.789333,-76.609550
163398.685889,3478.967927,-10362.883188,1225.752797
163398.686208,4071.132681,-8586.388927,3140.991542
163398.686528,-370.102971,-6069.688724,-383.047749
163398.686847,-2368.659014,-7179.997637,-4290.134789
163398.687167,-2368.659014,-8364.327145,0.000000
163398.687486,-1258.350101,-9918.759623,-842.705048
163398.687805,-1776.494261,-10140.821405,-383.047749
163398.688125,-2368.659014,-10732.986159,-1302.362347
163398.688444,-370.102971,-10955.047942,0.000000
163398.688764,3478.967927,-11843.295072,2528.115143
163398.689083,1184.329507,-7772.162391,1991.848295
163398.689403,1110.308913,-8290.306550,459.657299
163398.689722,1776.494261,-11029.068536,919.314598
163398.690041,2146.597232,-11621.233289,-76.609550
163398.690361,-1776.494261,-10140.821405,2451.505594
163398.690680,-2738.761985,-10288.862594,-612.876398
163398.691000,-3108.864956,-10584.944971,-1225.752797
163398.691319,592.164754,-9474.636058,919.314598
163398.691638,1184.329507,-5995.668130,689.485948
163398.691958,370.102971,-5107.421000,842.705048
163398.692277,-2368.659014,-5995.668130,-919.314598
163398.692597,-4737.318029,-7179.997637,-2451.505594
163398.692916,-1258.350101,-11547.212695,-383.047749
163398.693236,-1258.350101,-12435.459826,-76.609550
163398.693555,-4737.318029,-11325.150913,-1225.752797
163398.693874,-3330.926739,-10658.965565,-1455.581446
163398.694194,222.061783,-10066.800811,0.000000
163398.694513,2590.720797,-9474.636058,2374.896044
163398.694833,0.000000,-4811.338623,-2451.505594
163398.695152,0.000000,-8364.327145,-1302.362347
163398.695472,0.000000,-8364.327145,-2451.505594
163398.695791,1776.494261,-11769.274478,1225.752797
163398.696110,-74.020594,-11251.130318,1762.019645
163398.696430,-74.020594,-11843.295072,-76.609550
163398.696749,0.000000,-10140.821405,0.000000
163398.697069,4219.173869,-9104.533087,2604.724693
163398.697388,3627.009116,-7105.977043,2987.772442
163398.697708,0.000000,-6217.729913,2068.457845
163398.698027,-4145.153275,-6587.832884,-3064.381992
163398.698346,-1258.350101,-9474.636058,-2528.115143
163398.698666,-2960.823768,-9844.739029,0.000000
163398.698985,-2146.597232,-10066.800811,-76.609550
163398.699305,-1258.350101,-10658.965565,-1302.362347
163398.699624,1184.329507,-10584.944971,2681.334243
163398.699944,2738.761985,-7994.224174,1685.410096
163398.700263,1998.556043,-6735.874072,1225.752797
163398.700582,148.041188,-7105.977043,-995.924147
163398.700902,0.000000,-7179.997637,-3677.258390
163398.701221,0.000000,-12509.480420,-1685.410096
163398.701541,-1776.494261,-12879.583391,-689.485948
163398.701860,-3627.009116,-14211.954086,-1302.362347
163398.702180,-2738.761985,-10140.821405,-3753.867940
163398.702499,1184.329507,-10732.986159,1915.238745
163398.702818,2368.659014,-7179.997637,1378.971896
163398.703138,1776.494261,-6587.832884,995.924147
163398.703457,-1184.329507,-7328.038826,-842.705048
163398.703777,-888.247130,-9104.533087,-1149.143247
163398.704096,-74.020594,-9178.553681,-1915.238745
163398.704416,-370.102971,-9474.636058,1915.238745
163398.704735,-1258.350101,-9030.512492,459.657299
163398.705054,-814.226536,-9770.718434,612.876398
163398.705374,1702.473667,-10658.965565,1762.019645
163398.705693,2220.617826,-9178.553681,-76.609550
163398.706013,0.000000,-8512.368333,0.000000
163398.706332,-666.185348,-10066.800811,-1915.238745
163398.706652,-74.020594,-12657.521608,-229.828649
163398.706971,-2960.823768,-10732.986159,0.000000
163398.707290,-2738.761985,-9918.759623,-1915.238745
163398.707610,-2664.741391,-10288.862594,-536.266849
163398.707929,1110.308913,-8808.450710,842.705048
163398.708249,3849.070898,-7105.977043,3217.601092
163398.708568,4367.215058,-5551.544565,3600.648841
163398.708888,518.144159,-5847.626942,-76.609550
163398.709207,-2960.823768,-8216.285956,-1838.629195
163398.709526,-1924.535449,-12805.562797,-153.219100
163398.709846,-1850.514855,-11843.295072,-2068.457845
163398.710165,-4737.318029,-9548.656652,-1838.629195
163398.710485,-3404.947333,-11029.068536,-2451.505594
163398.710804,444.123565,-10214.842000,-842.705048
163398.711124,3034.844362,-7994.224174,2221.676944
163398.711443,3108.864956,-6735.874072,1378.971896
163398.711762,2294.638420,-6513.812290,-76.609550
163398.712082,592.164754,-9548.656652,0.000000
163398.712401,518.144159,-9326.594869,-612.876398
163398.712721,-1776.494261,-10140.821405,306.438199
163398.713040,-2294.638420,-11177.109724,-76.609550
163398.713360,-1776.494261,-10140.821405,0.000000
163398.713679,3034.844362,-9474.636058,1838.629195
163398.713998,3552.988522,-7994.224174,1838.629195
163398.714318,-592.164754,-6661.853478,-306.438199
163398.714637,-4737.318029,-6069.688724,-4826.401637
163398.714957,-3923.091493,-8364.327145,-3140.991542
163398.715276,-666.185348,-10362.883188,-1302.362347
163398.715596,-3552.988522,-8956.491898,0.000000
163398.715915,-2368.659014,-9030.512492,-2451.505594
163398.716234,1702.473667,-11843.295072,1762.019645
163398.716554,2368.659014,-8808.450710,2451.505594
163398.716873,1924.535449,-7179.997637,1149.143247
163398.717193,-296.082377,-7328.038826,-1608.800546
163398.717512,-1258.350101,-9104.533087,-2987.772442
163398.717832,-1110.308913,-11103.089130,-2374.896044
163398.718151,-666.185348,-13027.624579,-689.485948
163398.718470,-3034.844362,-10881.027347,-2911.162892
163398.718790,-2368.659014,-9844.739029,-3677.258390
163398.719109,592.164754,-9548.656652,612.876398
163398.719429,7031.956449,-9474.636058,3600.648841
163398.719748,2368.659014,-5403.503377,2451.505594
163398.720068,0.000000,-6217.729913,536.266849
163398.720387,-1184.329507,-8068.244768,-1072.533697
163398.720706,-592.164754,-9844.739029,1149.143247
163398.721026,-592.164754,-10214.842000,1302.362347
163398.721345,-2442.679609,-10510.924376,-76.609550
163398.721665,-3108.864956,-9548.656652,-2528.115143
163398.721984,0.000000,-9548.656652,0.000000
163398.722304,888.247130,-8364.327145,0.000000
163398.722623,-74.020594,-7698.141797,-76.609550
163398.722942,-2072.576638,-7772.162391,-2221.676944
163398.723262,-1702.473667,-9992.780217,-2374.896044
163398.723581,-1036.288319,-10732.986159,-689.485948
163398.723901,-1258.350101,-11251.130318,919.314598
163398.724220,-2072.576638,-10732.986159,0.000000
163398.724540,1702.473667,-11843.295072,2298.286494
163398.724859,4663.297435,-9178.553681,2374.896044
163398.725178,3182.885551,-6809.894666,2374.896044
163398.725498,-3256.906145,-4811.338623,-3677.258390
163398.725817,-3627.009116,-9178.553681,-3753.867940
163398.726137,-3330.926739,-10881.027347,-2757.943793
163398.726456,-1850.514855,-11251.130318,-1302.362347
163398.726776,-1850.514855,-10510.924376,-229.828649
163398.727095,-74.020594,-10510.924376,1072.533697
163398.727414,0.000000,-7476.080014,0.000000
163398.727734,3552.988522,-7550.100608,3370.820191
163398.728053,3923.091493,-6957.935855,2451.505594
163398.728373,2294.638420,-9474.636058,1149.143247
163398.728692,-2368.659014,-7179.997637,0.000000
163398.729012,-74.020594,-11843.295072,-153.219100
163398.729331,-1184.329507,-11325.150913,-383.047749
163398.729650,-2812.782580,-10510.924376,-1608.800546
163398.729970,-1332.370696,-9696.697840,-1762.019645
163398.730289,2516.700203,-10214.842000,-76.609550
163398.730609,2368.659014,-7476.080014,1532.190996
163398.730928,0.000000,-4885.359217,0.000000
163398.731248,-2368.659014,-8660.409521,-612.876398
163398.731567,-666.185348,-11251.130318,-229.828649
163398.731886,-3552.988522,-9548.656652,0.000000
163398.732206,-1554.432478,-9770.718434,-76.609550
163398.732525,-2368.659014,-9918.759623,-612.876398
163398.732845,0.000000,-9992.780217,0.000000
163398.733164,3182.885551,-8142.265362,-383.047749
163398.733484,3182.885551,-7772.162391,1455.581446
163398.733803,444.123565,-7698.141797,-383.047749
163398.734122,-2368.659014,-6587.832884,-3064.381992
163398.734442,0.000000,-11029.068536,-1532.190996
163398.734761,1998.556043,-14211.954086,1762.019645
163398.735081,-2368.659014,-10436.903782,-1225.752797
163398.735400,-814.226536,-10658.965565,-689.485948
163398.735720,2294.638420,-9918.759623,689.485948
163398.736039,5033.400406,-8142.265362,3370.820191
163398.736358,2886.803174,-3923.091493,1608.800546
163398.736678,-296.082377,-7105.977043,2068.457845
163398.736997,-4737.318029,-6587.832884,-2451.505594
163398.737317,-2368.659014,-9252.574275,-612.876398
163398.737636,-2368.659014,-8956.491898,612.876398
163398.737956,-3256.906145,-9548.656652,612.876398
163398.738275,-2220.617826,-10732.986159,-842.705048
163398.738594,-518.144159,-10288.862594,-383.047749
163398.738914,666.185348,-8808.450710,1072.533697
163398.739233,-1036.288319,-5107.421000,-1608.800546
163398.739553,-1628.453072,-7920.203579,-2298.286494
163398.739872,-1776.494261,-10732.986159,-1532.190996
163398.740192,-1258.350101,-11843.295072,-76.609550
163398.740511,-1850.514855,-10066.800811,-1915.238745
163398.740830,-4737.318029,-9548.656652,0.000000
163398.741150,-666.185348,-9696.697840,-2374.896044
163398.741469,3552.988522,-9844.739029,1915.238745
163398.741789,3552.988522,-7624.121203,2987.772442
163398.742108,592.164754,-7179.997637,229.828649
163398.742428,-74.020594,-10658.965565,-1302.362347
163398.742747,-2960.823768,-9844.739029,-1455.581446
163398.743066,-1184.329507,-10140.821405,153.219100
163398.743386,-962.267725,-9770.718434,229.828649
163398.743705,-1406.391290,-9474.636058,1762.019645
163398.744025,0.000000,-9548.656652,2451.505594
163398.744344,888.247130,-5995.668130,1225.752797
163398.744664,1776.494261,-7179.997637,2451.505594
163398.744983,518.144159,-8512.368333,0.000000
163398.745302,-2220.617826,-8956.491898,-4290.134789
163398.745622,-74.020594,-11843.295072,-689.485948
163398.745941,-1850.514855,-11473.192101,-1302.362347
163398.746261,-3330.926739,-10362.883188,-1991.848295
163398.746580,-2812.782580,-10732.986159,-2451.505594
163398.746900,1776.494261,-10140.821405,153.219100
163398.747219,4959.379811,-9474.636058,2451.505594
163398.747538,296.082377,-7179.997637,919.314598
163398.747858,-2220.617826,-7179.997637,-2451.505594
163398.748177,-962.267725,-10658.965565,-842.705048
163398.748497,-1554.432478,-8438.347739,-3064.381992
163398.748816,-370.102971,-9770.718434,-306.438199
163398.749136,-1776.494261,-10436.903782,-612.876398
163398.749455,-666.185348,-10436.903782,-1149.143247
163398.749774,1702.473667,-10436.903782,459.657299
163398.750094,3256.906145,-8068.244768,1762.019645
163398.750413,1110.308913,-7698.141797,536.266849
163398.750733,-1628.453072,-7179.997637,-4519.963438
163398.751052,-1776.494261,-10140.821405,-1838.629195
163398.751372,592.164754,-11843.295072,306.438199
163398.751691,-2368.659014,-9548.656652,0.000000
163398.752010,-666.185348,-9474.636058,-766.095498
163398.752330,1554.432478,-9548.656652,612.876398
163398.752649,4663.297435,-9252.574275,2834.553343
163398.752968,2886.803174,-6291.750507,1532.190996
163398.753288,-666.185348,-6217.729913,-1991.848295
163398.753607,-3478.967927,-8290.306550,-2528.115143
163398.753927,-3330.926739,-8956.491898,-3064.381992
163398.754246,-3552.988522,-10288.862594,0.000000
163398.754565,-2442.679609,-11251.130318,-76.609550
163398.754885,-4145.153275,-9844.739029,-1225.752797
163398.755204,-74.020594,-10658.965565,-1302.362347
163398.755523,1110.308913,-8364.327145,306.438199
163398.755843,0.000000,-6809.894666,-153.219100
163398.756162,-2294.638420,-5551.544565,-2528.115143
163398.756481,-74.020594,-10955.047942,-995.924147
163398.756801,-74.020594,-11547.212695,-689.485948
163398.757120,-2812.782580,-10140.821405,-1225.752797
163398.757440,-4145.153275,-9548.656652,-2145.067394
163398.757759,2294.638420,-13027.624579,-76.609550
163398.758078,3552.988522,-9844.739029,2757.943793
163398.758398,4441.235652,-8660.409521,2528.115143
163398.758717,444.123565,-6883.915261,459.657299
163398.759036,-2442.679609,-8290.306550,-2068.457845
163398.759356,-1480.411884,-9178.553681,-1685.410096
163398.759675,666.185348,-11251.130318,-76.609550
163398.759994,-666.185348,-9474.636058,842.705048
163398.760314,-2442.679609,-7994.224174,-2145.067394
163398.760633,-1184.329507,-8364.327145,0.000000
163398.760953,5847.626942,-9474.636058,3600.648841
163398.761272,2072.576638,-7031.956449,2604.724693
163398.761591,0.000000,-7031.956449,-536.266849
163398.761911,-2368.659014,-9030.512492,-1838.629195
163398.762230,-1184.329507,-11029.068536,-536.266849
163398.762549,-1776.494261,-10436.903782,612.876398
163398.762869,-1850.514855,-10658.965565,-1225.752797
163398.763188,-74.020594,-10658.965565,-2528.115143
163398.763508,0.000000,-8956.491898,-1685.410096
163398.763827,1776.494261,-7179.997637,153.219100
163398.764146,3478.967927,-8290.306550,1149.143247
163398.764466,-1184.329507,-7846.182985,-1455.581446
163398.764785,-2146.597232,-9844.739029,-2681.334243
163398.765104,-666.185348,-10881.027347,-995.924147
163398.765424,296.082377,-12065.356855,2528.115143
163398.765743,-1184.329507,-9548.656652,0.000000
163398.766062,-1776.494261,-9696.697840,0.000000
163398.766382,2738.761985,-10066.800811,1762.019645
163398.766701,4071.132681,-9474.636058,3600.648841
163398.767021,0.000000,-4811.338623,0.000000
163398.767340,-370.102971,-7994.224174,-995.924147
163398.767659,-2368.659014,-9178.553681,-2145.067394
163398.767979,-1850.514855,-11769.274478,-1302.362347
163398.768298,-1924.535449,-10732.986159,-689.485948
163398.768617,-2368.659014,-9548.656652,-1225.752797
163398.768937,-1776.494261,-8364.327145,-1838.629195
163398.769256,1776.494261,-8956.491898,1225.752797
163398.769576,0.000000,-5995.668130,1225.752797
163398.769895,-148.041188,-7476.080014,2374.896044
163398.770214,-4737.318029,-5403.503377,-3677.258390
163398.770534,-2220.617826,-10510.924376,-2221.676944
163398.770853,-1406.391290,-10732.986159,-1149.143247
163398.771172,-2220.617826,-9992.780217,-536.266849
163398.771492,-1258.350101,-10362.883188,-1302.362347
163398.771811,-74.020594,-10362.883188,-229.828649
163398.772130,1776.494261,-7920.203579,1455.581446
163398.772450,1110.308913,-5477.523971,0.000000
163398.772769,0.000000,-6587.832884,0.000000
163398.773089,-74.020594,-10807.006753,-76.609550
163398.773408,-1776.494261,-9548.656652,0.000000
163398.773727,0.000000,-10658.965565,842.705048
163398.774047,-1554.432478,-9474.636058,0.000000
163398.774366,-740.205942,-9770.718434,-612.876398
163398.774685,3478.967927,-8734.430116,-383.047749
163398.775005,4515.256246,-8808.450710,4826.401637
163398.775324,3478.967927,-7698.141797,1762.019645
163398.775644,-1850.514855,-7402.059420,-2528.115143
163398.775963,-3256.906145,-8956.491898,-4903.011187
163398.776282,-74.020594,-13397.727550,2374.896044
163398.776602,-1184.329507,-9696.697840,229.828649
163398.776921,-1924.535449,-9548.656652,-229.828649
163398.777240,-2146.597232,-9252.574275,-1378.971896
163398.777560,962.267725,-9252.574275,0.000000
163398.777879,1998.556043,-6513.812290,1762.019645
163398.778198,2220.617826,-9474.636058,1608.800546
163398.778518,-2442.679609,-7550.100608,-3753.867940
163398.778837,-2960.823768,-9548.656652,-4366.744339
163398.779157,-2072.576638,-11621.233289,-306.438199
163398.779476,-2368.659014,-10288.862594,0.000000
163398.779795,-1480.411884,-10658.965565,-1378.971896
163398.780115,1332.370696,-10436.903782,0.000000
163398.780434,4145.153275,-8586.388927,2604.724693
163398.780753,2368.659014,-4811.338623,612.876398
163398.781073,1110.308913,-6069.688724,612.876398
163398.781392,0.000000,-8956.491898,-689.485948
163398.781711,1332.370696,-11769.274478,1149.143247
163398.782031,-74.020594,-10658.965565,-76.609550
163398.782350,-2960.823768,-10140.821405,0.000000
163398.782670,-3849.070898,-9696.697840,-2145.067394
163398.782989,-1036.288319,-9770.718434,-612.876398
163398.783308,962.267725,-8660.409521,1225.752797
163398.783628,592.164754,-6957.935855,459.657299
163398.783947,-1554.432478,-6217.729913,-3753.867940
163398.784266,-1332.370696,-9474.636058,-1685.410096
163398.784586,-518.144159,-10362.883188,-76.609550
163398.784905,-1036.288319,-10140.821405,229.828649
163398.785225,-1258.350101,-10658.965565,-76.609550
163398.785544,2812.782580,-10658.965565,1149.143247
163398.785863,4885.359217,-10658.965565,3447.429741
163398.786183,2886.803174,-7179.997637,1302.362347
163398.786502,-1480.411884,-6809.894666,-1302.362347
163398.786821,-3552.988522,-7772.162391,-3064.381992
163398.787141,-3182.885551,-9548.656652,-4903.011187
163398.787460,-888.247130,-11917.315666,-1455.581446
163398.787779,-2368.659014,-10732.986159,-995.924147
163398.788099,-2664.741391,-9992.780217,-995.924147
163398.788418,-74.020594,-9696.697840,-76.609550
163398.788738,2886.803174,-8660.409521,1532.190996
163398.789057,3330.926739,-7254.018232,3677.258390
163398.789376,2516.700203,-8290.306550,3600.648841
163398.789696,1110.308913,-8882.471304,-76.609550
163398.790015,0.000000,-9548.656652,612.876398
163398.790334,-2220.617826,-10436.903782,0.000000
163398.790654,-3330.926739,-10362.883188,-383.047749
163398.790973,-3182.885551,-10658.965565,-1685.410096
163398.791293,0.000000,-10362.883188,-383.047749
163398.791612,2294.638420,-7772.162391,0.000000
163398.791931,1776.494261,-6291.750507,1838.629195
163398.792251,0.000000,-5403.503377,0.000000
163398.792570,-740.205942,-9474.636058,-919.314598
163398.792889,-74.020594,-10955.047942,-383.047749
163398.793209,-1184.329507,-11029.068536,1532.190996
163398.793528,-3627.009116,-10066.800811,-1302.362347
163398.793847,-3256.906145,-10955.047942,-1838.629195
163398.794167,-444.123565,-10658.965565,-536.266849
163398.794486,0.000000,-7179.997637,0.000000
163398.794806,0.000000,-3627.009116,0.000000
163398.795125,-2368.659014,-5995.668130,-2451.505594
163398.795444,-1184.329507,-9844.739029,-1838.629195
163398.795764,-74.020594,-11103.089130,-76.609550
163398.796083,-666.185348,-10955.047942,-689.485948
163398.796402,-148.041188,-11843.295072,-76.609550
163398.796722,148.041188,-10140.821405,0.000000
163398.797041,4071.132681,-9252.574275,2528.115143
163398.797360,4589.276840,-7105.977043,2987.772442
163398.797680,0.000000,-5403.503377,0.000000
163398.797999,-74.020594,-8290.306550,-1915.238745
163398.798319,518.144159,-10066.800811,-1915.238745
163398.798638,0.000000,-9548.656652,-2451.505594
163398.798957,-1184.329507,-11325.150913,612.876398
163398.799277,-2442.679609,-10658.965565,-2528.115143
163398.799596,-1776.494261,-10658.965565,-153.219100
163398.799915,2220.617826,-8734.430116,1302.362347
163398.800235,2368.659014,-6957.935855,1762.019645
163398.800554,-296.082377,-6661.853478,536.266849
163398.800874,-1110.308913,-8956.491898,-1302.362347
163398.801193,-74.020594,-10362.883188,-689.485948
163398.801512,-1702.473667,-9178.553681,-1915.238745
163398.801832,-3849.070898,-10732.986159,-459.657299
163398.802151,-3627.009116,-11399.171507,-2451.505594
163398.802470,-74.020594,-9770.718434,-1455.581446
163398.802790,2368.659014,-9326.594869,1915.238745
163398.803109,666.185348,-7105.977043,919.314598
163398.803428,-814.226536,-7476.080014,-1455.581446
163398.803748,1110.308913,-11547.212695,-76.609550
163398.804067,2146.597232,-13027.624579,-76.609550
163398.804387,-74.020594,-13027.624579,-76.609550
163398.804706,-3627.009116,-9770.718434,-1915.238745
163398.805025,-2368.659014,-10881.027347,-612.876398
163398.805345,0.000000,-8364.327145,2451.505594
163398.805664,2886.803174,-6809.894666,3600.648841
163398.805983,1554.432478,-6069.688724,2145.067394
163398.806303,-370.102971,-7105.977043,-306.438199
163398.806622,-518.144159,-9252.574275,-459.657299
163398.806942,-74.020594,-11843.295072,1149.143247
163398.807261,-4737.318029,-9548.656652,0.000000
163398.807580,-2442.679609,-10955.047942,-995.924147
163398.807900,-1258.350101,-10955.047942,-1302.362347
163398.808219,1702.473667,-8586.388927,229.828649
163398.808538,0.000000,-5995.668130,1838.629195
163398.808858,-74.020594,-6809.894666,-766.095498
163398.809177,-1332.370696,-8808.450710,-2528.115143
163398.809496,-370.102971,-10214.842000,-1762.019645
163398.809816,-962.267725,-10140.821405,-1838.629195
163398.810135,-2220.617826,-10140.821405,-2834.553343
163398.810455,-4589.276840,-9844.739029,-3064.381992
163398.810774,-148.041188,-11029.068536,0.000000
163398.811093,4367.215058,-10362.883188,3294.210641
163398.811413,2886.803174,-8290.306550,2374.896044
163398.811732,0.000000,-7179.997637,0.000000
163398.812051,0.000000,-8882.471304,-1532.190996
163398.812371,148.041188,-11325.150913,-612.876398
163398.812690,-740.205942,-10288.862594,0.000000
163398.813010,-3627.009116,-7772.162391,-3294.210641
163398.813329,-1258.350101,-9918.759623,-1608.800546
163398.813648,1776.494261,-9548.656652,0.000000
163398.813968,2368.659014,-6291.750507,2451.505594
163398.814287,1184.329507,-6809.894666,1225.752797
163398.814606,1998.556043,-9474.636058,-76.609550
163398.814926,-1184.329507,-9548.656652,-1532.190996
163398.815245,0.000000,-10732.986159,0.000000
163398.815564,-2220.617826,-9844.739029,0.000000
163398.815884,-3627.009116,-10066.800811,-1532.190996
163398.816203,-3552.988522,-8438.347739,-3064.381992
163398.816523,1702.473667,-9178.553681,1762.019645
163398.816842,1406.391290,-5699.585753,383.047749
163398.817161,0.000000,-5403.503377,0.000000
163398.817481,-592.164754,-8660.409521,0.000000
163398.817800,-1184.329507,-10140.821405,0.000000
163398.818119,-962.267725,-10510.924376,-229.828649
163398.818439,-2368.659014,-11251.130318,-995.924147
163398.818758,-3108.864956,-10510.924376,-2451.505594
163398.819077,-1628.453072,-9548.656652,-3064.381992
163398.819397,2738.761985,-9252.574275,1225.752797
163398.819716,2664.741391,-7772.162391,2298.286494
163398.820036,814.226536,-7698.141797,-76.609550
163398.820355,1998.556043,-9474.636058,-1608.800546
163398.820674,1184.329507,-9548.656652,2451.505594
163398.820994,-1184.329507,-8734.430116,459.657299
163398.821313,-2368.659014,-10214.842000,-459.657299
163398.821632,-2738.761985,-10214.842000,-919.314598
163398.821952,740.205942,-10362.883188,995.924147
163398.822271,4663.297435,-8290.306550,2374.896044
163398.822591,1036.288319,-6587.832884,1532.190996
163398.822910,-1480.411884,-7402.059420,-1302.362347
163398.823229,-2294.638420,-9326.594869,-2757.943793
163398.823549,-2220.617826,-10881.027347,-689.485948
163398.823868,-3552.988522,-10732.986159,-229.828649
163398.824187,-6809.894666,-7772.162391,-2451.505594
163398.824507,-74.020594,-11251.130318,-76.609550
163398.824826,2886.803174,-8142.265362,1455.581446
163398.825145,3256.906145,-5995.668130,1225.752797
163398.825465,2294.638420,-5921.647536,-76.609550
163398.825784,-592.164754,-7846.182985,-1991.848295
163398.826104,-518.144159,-10807.006753,-2068.457845
163398.826423,-888.247130,-11769.274478,-689.485948
163398.826742,-2072.576638,-11769.274478,-1149.143247
163398.827062,-3330.926739,-11843.295072,-2068.457845
163398.827381,-2072.576638,-10140.821405,-1072.533697
163398.827700,3478.967927,-9474.636058,2451.505594
163398.828020,5329.482782,-7105.977043,3907.087040
163398.828339,0.000000,-3627.009116,0.000000
163398.828659,962.267725,-8142.265362,-1302.362347
163398.828978,296.082377,-10436.903782,-689.485948
163398.829297,-1258.350101,-10732.986159,536.266849
163398.829617,-3997.112087,-10584.944971,-1302.362347
163398.829936,-2812.782580,-11547.212695,-1302.362347
163398.830255,222.061783,-10658.965565,459.657299
163398.830575,2516.700203,-8660.409521,0.000000
163398.830894,1184.329507,-6883.915261,1838.629195
163398.831213,-740.205942,-7624.121203,-1378.971896
163398.831533,-3552.988522,-7179.997637,-2451.505594
163398.831852,-370.102971,-11103.089130,-383.047749
163398.832172,-1924.535449,-10881.027347,0.000000
163398.832491,-3701.029710,-10436.903782,-1302.362347
163398.832810,-2442.679609,-9548.656652,-3140.991542
163398.833130,2294.638420,-9474.636058,-76.609550
163398.833449,3404.947333,-8290.306550,2374.896044
163398.833768,518.144159,-6513.812290,-1302.362347
163398.834088,-2960.823768,-8364.327145,-2451.505594
163398.834407,-1554.432478,-11843.295072,-383.047749
163398.834727,0.000000,-10140.821405,0.000000
163398.835046,-1110.308913,-10066.800811,-153.219100
163398.835365,-2368.659014,-9770.718434,-919.314598
163398.835685,222.061783,-9178.553681,153.219100
163398.836004,3182.885551,-6217.729913,2068.457845
163398.836323,4589.276840,-6883.915261,4826.401637
163398.836643,2294.638420,-6513.812290,-76.609550
163398.836962,-888.247130,-7328.038826,-1608.800546
163398.837281,-2368.659014,-9548.656652,-2451.505594
163398.837601,-74.020594,-14211.954086,1762.019645
163398.837920,-4737.318029,-10732.986159,-1838.629195
163398.838240,-4663.297435,-11695.253884,-1991.848295
163398.838559,-888.247130,-10658.965565,-459.657299
163398.838878,2960.823768,-8290.306550,2145.067394
163398.839198,2664.741391,-5107.421000,2298.286494
163398.839517,1110.308913,-7105.977043,-76.609550
163398.839836,-962.267725,-8290.306550,-2221.676944
163398.840156,-3552.988522,-8364.327145,-2451.505594
163398.840475,-3552.988522,-11325.150913,-459.657299
163398.840794,-2442.679609,-13027.624579,-76.609550
163398.841114,-3404.947333,-11029.068536,-1915.238745
163398.841433,1702.473667,-10362.883188,689.485948
163398.841753,3404.947333,-7772.162391,2374.896044
163398.842072,1480.411884,-5995.668130,1838.629195
163398.842391,0.000000,-7179.997637,-1225.752797
163398.842711,296.082377,-9696.697840,-3370.820191
163398.843030,1110.308913,-12287.418637,1149.143247
163398.843349,-1258.350101,-10658.965565,-383.047749
163398.843669,-3478.967927,-8660.409521,-3064.381992
163398.843988,1702.473667,-12435.459826,-76.609550
163398.844308,3701.029710,-9548.656652,2757.943793
163398.844627,4367.215058,-6957.935855,3524.039291
163398.844946,1480.411884,-6365.771101,689.485948
163398.845266,-1184.329507,-8364.327145,-612.876398
163398.845585,-2664.741391,-10288.862594,-2528.115143
163398.845904,-4145.153275,-10140.821405,0.000000
163398.846224,-2960.823768,-10214.842000,-459.657299
163398.846543,-3034.844362,-11843.295072,-76.609550
163398.846862,74.020594,-7772.162391,-2298.286494
163398.847182,3849.070898,-7994.224174,3294.210641
163398.847501,1406.391290,-5625.565159,1838.629195
163398.847821,-592.164754,-6883.915261,-1302.362347
163398.848140,-2146.597232,-8956.491898,-2834.553343
163398.848459,-2960.823768,-10584.944971,-2374.896044
163398.848779,-1850.514855,-11843.295072,-1302.362347
163398.849098,-4737.318029,-11029.068536,-2911.162892
163398.849417,-4737.318029,-10140.821405,-2451.505594
163398.849737,592.164754,-10732.986159,612.876398
163398.850056,1998.556043,-5995.668130,306.438199
163398.850376,2960.823768,-7105.977043,1532.190996
163398.850695,-222.061783,-7105.977043,-536.266849
163398.851014,-148.041188,-9548.656652,-995.924147
163398.851334,2294.638420,-11251.130318,1762.019645
163398.851653,-74.020594,-10066.800811,1762.019645
163398.851972,-2368.659014,-8956.491898,-76.609550
163398.852292,-2590.720797,-8364.327145,-1991.848295
163398.852611,592.164754,-8364.327145,1532.190996
163398.852930,2368.659014,-7179.997637,4290.134789
163398.853250,-1998.556043,-4811.338623,-1532.190996
163398.853569,-2368.659014,-8660.409521,-2528.115143
163398.853889,-2442.679609,-11251.130318,-2374.896044
163398.854208,-1998.556043,-11621.233289,-1149.143247
163398.854527,-1258.350101,-11251.130318,-1302.362347
163398.854847,-3034.844362,-10881.027347,-76.609550
163398.855166,-74.020594,-10658.965565,-689.485948
163398.855485,2516.700203,-7476.080014,1838.629195
163398.855805,3775.050304,-6587.832884,612.876398
163398.856124,-962.267725,-6365.771101,-1838.629195
163398.856444,-666.185348,-9474.636058,-2834.553343
163398.856763,-3256.906145,-10140.821405,-3830.477490
163398.857082,-2516.700203,-11843.295072,-1225.752797
163398.857402,-4367.215058,-10955.047942,-2068.457845
163398.857721,-740.205942,-11991.336260,-153.219100
163398.858041,0.000000,-9548.656652,1225.752797
163398.858360,5033.400406,-8068.244768,3600.648841
163398.858679,3775.050304,-5551.544565,4673.182538
163398.858999,2886.803174,-7105.977043,-612.876398
163398.859318,-74.020594,-8586.388927,-1302.362347
163398.859637,740.205942,-10881.027347,919.314598
163398.859957,-888.247130,-10732.986159,229.828649
163398.860276,-2960.823768,-10658.965565,-1455.581446
163398.860596,-74.020594,-13619.789333,-76.609550
163398.860915,2590.720797,-11251.130318,-76.609550
163398.861234,3478.967927,-7994.224174,1762.019645
163398.861554,296.082377,-4219.173869,-2068.457845
163398.861873,-1776.494261,-8364.327145,-1225.752797
163398.862193,-666.185348,-9474.636058,-2528.115143
163398.862512,-370.102971,-10955.047942,-76.609550
163398.862831,-2368.659014,-9178.553681,0.000000
163398.863151,-3182.885551,-10214.842000,-1072.533697
163398.863470,-592.164754,-9548.656652,153.219100
163398.863789,0.000000,-7179.997637,2451.505594
163398.864109,1702.473667,-6661.853478,1608.800546
163398.864428,-814.226536,-6883.915261,-1532.190996
163398.864748,-2146.597232,-9400.615463,-3447.429741
163398.865067,-1184.329507,-11029.068536,-4136.915689
163398.865386,-1258.350101,-11547.212695,-1302.362347
163398.865706,-2442.679609,-11843.295072,-2528.115143
163398.866025,-3330.926739,-10140.821405,-3064.381992
163398.866345,1480.411884,-10584.944971,0.000000
163398.866664,7031.956449,-10955.047942,5745.716235
163398.866983,2368.659014,-4811.338623,2451.505594
163398.867303,740.205942,-6957.935855,842.705048
163398.867622,-370.102971,-8956.491898,-995.924147
163398.867941,-148.041188,-10140.821405,-383.047749
163398.868261,-2146.597232,-10066.800811,0.000000
163398.868580,-5181.441594,-9252.574275,-1532.190996
163398.868900,-3627.009116,-10362.883188,-1915.238745
163398.869219,0.000000,-8660.409521,-76.609550
163398.869538,1184.329507,-5551.544565,1532.190996
163398.869858,1554.432478,-8290.306550,2374.896044
163398.870177,-4145.153275,-6587.832884,-1838.629195
163398.870497,-2072.576638,-9030.512492,-2298.286494
163398.870816,-1184.329507,-10658.965565,-612.876398
163398.871135,-2368.659014,-10436.903782,-459.657299
163398.871455,-4737.318029,-9548.656652,-2451.505594
163398.871774,-1480.411884,-10436.903782,-1532.190996
163398.872093,4071.132681,-11621.233289,3140.991542
163398.872413,3478.967927,-8290.306550,1762.019645
163398.872732,-666.185348,-6957.935855,-1608.800546
163398.873052,-74.020594,-11251.130318,-689.485948
163398.873371,-1924.535449,-10881.027347,-2298.286494
163398.873690,-370.102971,-10066.800811,-153.219100
163398.874010,-1924.535449,-9696.697840,-1302.362347
163398.874329,-1184.329507,-9696.697840,306.438199
163398.874648,1480.411884,-9548.656652,1225.752797
163398.874968,3552.988522,-7179.997637,3677.258390
163398.875287,5847.626942,-7105.977043,4213.525239
163398.875607,962.267725,-5477.523971,-536.266849
163398.875926,-1850.514855,-6883.915261,-3753.867940
163398.876245,1702.473667,-11843.295072,-689.485948
163398.876565,-1110.308913,-11325.150913,-842.705048
163398.876884,-2442.679609,-11917.315666,-1685.410096
163398.877204,-1628.453072,-12065.356855,-1762.019645
163398.877523,1776.494261,-10732.986159,1225.752797
163398.877842,3478.967927,-7698.141797,1762.019645
163398.878162,370.102971,-4811.338623,306.438199
163398.878481,-444.123565,-7105.977043,-2451.505594
163398.878800,-74.020594,-11103.089130,-383.047749
163398.879120,-2368.659014,-7772.162391,-2451.505594
163398.879439,-1406.391290,-10362.883188,536.266849
163398.879759,-2516.700203,-9622.677246,-1072.533697
163398.880078,-888.247130,-9474.636058,-1072.533697
163398.880397,2368.659014,-9474.636058,1532.190996
163398.880717,2072.576638,-7550.100608,2374.896044
163398.881036,-1480.411884,-5995.668130,-2145.067394
163398.881356,-3775.050304,-7179.997637,-4366.744339
163398.881675,-3552.988522,-9548.656652,-3064.381992
163398.881994,-444.123565,-11473.192101,1302.362347
163398.882314,-4441.235652,-7772.162391,-2451.505594
163398.882633,-444.123565,-11029.068536,-76.609550
163398.882952,1924.535449,-10510.924376,1149.143247
163398.883272,4589.276840,-8956.491898,3524.039291
163398.883591,4071.132681,-7105.977043,1762.019645
163398.883911,-74.020594,-8290.306550,-689.485948
163398.884230,-1258.350101,-11843.295072,-689.485948
163398.884549,-1850.514855,-9770.718434,-1915.238745
163398.884869,-2368.659014,-10732.986159,612.876398
163398.885188,-3256.906145,-10732.986159,459.657299
163398.885508,-4737.318029,-8660.409521,-3064.381992
163398.885827,0.000000,-8882.471304,-76.609550
163398.886146,2220.617826,-7328.038826,2068.457845
163398.886466,592.164754,-5773.606348,919.314598
163398.886785,-74.020594,-7105.977043,-689.485948
163398.887104,-1332.370696,-9252.574275,-612.876398
163398.887424,-74.020594,-11547.212695,-383.047749
163398.887743,-2368.659014,-9844.739029,0.000000
163398.888063,-4737.318029,-9548.656652,-3064.381992
163398.888382,296.082377,-13545.768739,1838.629195
163398.888701,1554.432478,-9844.739029,306.438199
163398.889021,3552.988522,-8660.409521,2374.896044
163398.889340,888.247130,-7328.038826,153.219100
163398.889659,-1406.391290,-8956.491898,-2451.505594
163398.889979,-296.082377,-10807.006753,-2451.505594
163398.890298,-518.144159,-11177.109724,1149.143247
163398.890618,-1850.514855,-10066.800811,-76.609550
163398.890937,-1850.514855,-8882.471304,-1608.800546
163398.891256,-1184.329507,-8290.306550,-383.047749
163398.891576,4663.297435,-10510.924376,5439.278036
163398.891895,2146.597232,-5921.647536,2757.943793
163398.892215,-814.226536,-5773.606348,306.438199
163398.892534,-2664.741391,-7772.162391,-2451.505594
163398.892853,-4737.318029,-8364.327145,-2451.505594
163398.893173,-3552.988522,-10732.986159,-919.314598
163398.893492,-3404.947333,-11769.274478,0.000000
163398.893811,-74.020594,-13619.789333,-1302.362347
163398.894131,814.226536,-10510.924376,-766.095498
163398.894450,3478.967927,-8290.306550,-76.609550
163398.894770,0.000000,-5995.668130,1225.752797
163398.895089,-592.164754,-7179.997637,-1685.410096
163398.895408,-592.164754,-8956.491898,-2221.676944
163398.895728,222.061783,-10807.006753,-536.266849
163398.896047,0.000000,-9548.656652,1225.752797
163398.896367,-2368.659014,-9548.656652,-3447.429741
163398.896686,-1480.411884,-10140.821405,0.000000
163398.897005,2886.803174,-9474.636058,995.924147
163398.897325,4071.132681,-9474.636058,3907.087040
163398.897644,3478.967927,-8290.306550,3600.648841
163398.897963,-1184.329507,-7476.080014,-1378.971896
163398.898283,-1554.432478,-9400.615463,-1685.410096
163398.898602,-814.226536,-10584.944971,0.000000
163398.898922,-2072.576638,-10732.986159,306.438199
163398.899241,-2146.597232,-11251.130318,-919.314598
163398.899560,2294.638420,-11843.295072,-76.609550
163398.899880,4071.132681,-9252.574275,2374.896044
163398.900199,1998.556043,-5551.544565,1225.752797
163398.900519,1184.329507,-8882.471304,2374.896044
163398.900838,-2368.659014,-8512.368333,-1838.629195
163398.901157,-1702.473667,-10732.986159,-2681.334243
163398.901477,-1998.556043,-11473.192101,-995.924147
163398.901796,-3701.029710,-10732.986159,-1608.800546
163398.902115,-5403.503377,-8364.327145,-4290.134789
163398.902435,-74.020594,-10066.800811,-76.609550
163398.902754,2146.597232,-7476.080014,1838.629195
163398.903074,2220.617826,-5477.523971,1455.581446
163398.903393,-370.102971,-5921.647536,-612.876398
163398.903712,-74.020594,-9474.636058,-689.485948
163398.904032,-74.020594,-12287.418637,1455.581446
163398.904351,-74.020594,-11843.295072,-689.485948
163398.904671,-3404.947333,-9918.759623,-2298.286494
163398.904990,-1776.494261,-11547.212695,-76.609550
163398.905309,0.000000,-9548.656652,0.000000
163398.905629,5403.503377,-9178.553681,2834.553343
163398.905948,2368.659014,-7105.977043,1455.581446
163398.906267,-888.247130,-7179.997637,-1608.800546
163398.906587,-1258.350101,-9474.636058,-3140.991542
163398.906906,-74.020594,-9548.656652,-1762.019645
163398.907226,-592.164754,-10436.903782,1225.752797
163398.907545,-1406.391290,-9474.636058,2374.896044
163398.907864,-74.020594,-9474.636058,-689.485948
163398.908184,2368.659014,-8660.409521,4903.011187
163398.908503,592.164754,-4811.338623,1838.629195
163398.908822,-518.144159,-5921.647536,0.000000
163398.909142,-3478.967927,-8142.265362,-2757.943793
163398.909461,-3034.844362,-10288.862594,-2834.553343
163398.909781,-2590.720797,-10881.027347,-2451.505594
163398.910100,-3034.844362,-10584.944971,-1608.800546
163398.910419,-1850.514855,-12139.377449,-919.314598
163398.910739,2294.638420,-11251.130318,-1302.362347
163398.911058,2738.761985,-8882.471304,1225.752797
163398.911378,4145.153275,-8882.471304,4443.353888
163398.911697,0.000000,-7179.997637,-1608.800546
163398.912016,-592.164754,-9400.615463,-2374.896044
163398.912336,-148.041188,-10955.047942,-919.314598
163398.912655,-296.082377,-10436.903782,0.000000
163398.912974,-3552.988522,-8364.327145,0.000000
163398.913294,-1776.494261,-9252.574275,0.000000
163398.913613,2886.803174,-10510.924376,2374.896044
163398.913933,4071.132681,-7105.977043,2834.553343
163398.914252,1702.473667,-5921.647536,1762.019645
163398.914571,-74.020594,-9178.553681,-76.609550
163398.914891,-3256.906145,-8660.409521,-2451.505594
163398.915210,-1480.411884,-10732.986159,-919.314598
163398.915530,-1850.514855,-10658.965565,306.438199
163398.915849,-4737.318029,-9548.656652,0.000000
163398.916168,-3552.988522,-9992.780217,-689.485948
163398.916488,0.000000,-8364.327145,612.876398
163398.916807,3478.967927,-9178.553681,2911.162892
163398.917126,1110.308913,-9474.636058,1762.019645
163398.917446,-1258.350101,-7994.224174,-3753.867940
163398.917765,-296.082377,-11547.212695,-1302.362347
163398.918085,-444.123565,-11325.150913,-842.705048
163398.918404,-2146.597232,-10510.924376,-766.095498
163398.918723,-2960.823768,-10140.821405,-1685.410096
163398.919043,-2368.659014,-9548.656652,-1378.971896
163398.919362,1998.556043,-8882.471304,536.266849
163398.919682,1184.329507,-5995.668130,1225.752797
163398.920001,-2368.659014,-5403.503377,0.000000
163398.920320,-74.020594,-9474.636058,-995.924147
163398.920640,-74.020594,-9178.553681,-3140.991542
163398.920959,518.144159,-11103.089130,689.485948
163398.921278,-962.267725,-10732.986159,0.000000
163398.921598,0.000000,-10658.965565,0.000000
163398.921917,2886.803174,-11843.295072,2068.457845
163398.922237,5847.626942,-10658.965565,4826.401637
163398.922556,2886.803174,-6513.812290,3140.991542
163398.922875,2294.638420,-8882.471304,-76.609550
163398.923195,-1110.308913,-7920.203579,-2681.334243
163398.923514,-2368.659014,-9548.656652,0.000000
163398.923834,-2738.761985,-10066.800811,-2068.457845
163398.924153,-3849.070898,-10658.965565,-1302.362347
163398.924472,-2590.720797,-10214.842000,-1685.410096
163398.924792,592.164754,-9696.697840,153.219100
163398.925111,4071.132681,-9474.636058,4213.525239
163398.925430,1406.391290,-7105.977043,1378.971896
163398.925750,-74.020594,-8882.471304,-229.828649
163398.926069,-1554.432478,-8882.471304,-2834.553343
163398.926389,-1924.535449,-9548.656652,-3064.381992
163398.926708,-3256.906145,-10140.821405,306.438199
163398.927027,-1850.514855,-10658.965565,-76.609550
163398.927347,-666.185348,-11843.295072,-306.438199
163398.927666,1776.494261,-9992.780217,1838.629195
163398.927985,2368.659014,-7179.997637,2374.896044
163398.928305,2294.638420,-7698.141797,-76.609550
163398.928624,-74.020594,-9474.636058,-2528.115143
163398.928944,0.000000,-10362.883188,-2145.067394
163398.929263,0.000000,-9548.656652,-2451.505594
163398.929582,-4293.194464,-9548.656652,-1378.971896
163398.929902,-4145.153275,-9844.739029,-1838.629195
163398.930221,-1776.494261,-10955.047942,0.000000
163398.930541,1332.370696,-8142.265362,3064.381992
163398.930860,2220.617826,-5995.668130,1838.629195
163398.931179,-1036.288319,-5847.626942,0.000000
163398.931499,-666.185348,-7550.100608,-383.047749
163398.931818,-444.123565,-10214.842000,1532.190996
163398.932137,-1850.514855,-9474.636058,-76.609550
163398.932457,-4737.318029,-8364.327145,-3677.258390
163398.932776,-3552.988522,-11547.212695,-842.705048
163398.933096,-3108.864956,-9548.656652,-2145.067394
163398.933415,1406.391290,-7179.997637,-689.485948
163398.933734,592.164754,-7179.997637,0.000000
163398.934054,-666.185348,-7550.100608,-3447.429741
163398.934373,-74.020594,-10658.965565,-3753.867940
163398.934693,1110.308913,-12953.603985,-76.609550
163398.935012,-74.020594,-11769.274478,-689.485948
163398.935331,-2442.679609,-12435.459826,-76.609550
163398.935651,-2368.659014,-8364.327145,-2298.286494
163398.935970,2960.823768,-7179.997637,1225.752797
163398.936289,5847.626942,-7179.997637,4596.572988
163398.936609,2738.761985,-5403.503377,1608.800546
163398.936928,370.102971,-7476.080014,-612.876398
163398.937248,0.000000,-8364.327145,-612.876398
163398.937567,-2368.659014,-9548.656652,0.000000
163398.937886,-4145.153275,-9548.656652,-1685.410096
163398.938206,-3701.029710,-11325.150913,-2451.505594
163398.938525,1480.411884,-12731.542202,1455.581446
163398.938845,3478.967927,-9474.636058,1149.143247
163398.939164,4663.297435,-7698.141797,2374.896044
163398.939483,666.185348,-7476.080014,-76.609550
163398.939803,0.000000,-8290.306550,-2145.067394
163398.940122,814.226536,-10732.986159,-1455.581446
163398.940441,-444.123565,-10732.986159,-76.609550
163398.940761,-5921.647536,-9548.656652,0.000000
163398.941080,-3330.926739,-8956.491898,-3524.039291
163398.941400,0.000000,-9548.656652,0.000000
163398.941719,2886.803174,-8882.471304,2834.553343
163398.942038,1554.432478,-8290.306550,-76.609550
163398.942358,-1036.288319,-8586.388927,-76.609550
163398.942677,-962.267725,-8956.491898,-2451.505594
163398.942996,222.061783,-10066.800811,-153.219100
163398.943316,-1110.308913,-10214.842000,612.876398
163398.943635,-4145.153275,-9548.656652,-2451.505594
163398.943955,-370.102971,-11029.068536,-1225.752797
163398.944274,2516.700203,-11769.274478,1608.800546
163398.944593,2886.803174,-9178.553681,2374.896044
163398.944913,222.061783,-5255.462188,-1608.800546
163398.945232,74.020594,-8956.491898,919.314598
163398.945552,0.000000,-8364.327145,-1838.629195
163398.945871,962.267725,-10955.047942,612.876398
163398.946190,-1258.350101,-10214.842000,306.438199
163398.946510,-3627.009116,-10436.903782,-1455.581446
163398.946829,-2442.679609,-8290.306550,-2528.115143
163398.947148,1184.329507,-8882.471304,2298.286494
163398.947468,1850.514855,-5551.544565,2681.334243
163398.947787,-592.164754,-5551.544565,459.657299
163398.948107,-2072.576638,-7105.977043,-1225.752797
163398.948426,-1332.370696,-10955.047942,-76.609550
163398.948745,-3256.906145,-9548.656652,0.000000
163398.949065,-3701.029710,-11843.295072,-766.095498
163398.949384,-4219.173869,-10955.047942,-1915.238745
163398.949704,-592.164754,-10288.862594,0.000000
163398.950023,1702.473667,-6883.915261,153.219100
163398.950342,2960.823768,-7402.059420,1838.629195
163398.950662,814.226536,-7476.080014,-1302.362347
163398.950981,592.164754,-9548.656652,-1915.238745
163398.951300,3478.967927,-12139.377449,-76.609550
163398.951620,-370.102971,-11621.233289,-76.609550
163398.951939,-3404.947333,-11325.150913,0.000000
163398.952259,-1258.350101,-11547.212695,-76.609550
163398.952578,2886.803174,-11695.253884,1762.019645
163398.952897,1184.329507,-6587.832884,3064.381992
163398.953216,666.185348,-4811.338623,689.485948
163398.953536,-666.185348,-6735.874072,-459.657299
163398.953855,-444.123565,-8216.285956,-689.485948
163398.954174,-666.185348,-9474.636058,536.266849
163398.954493,-1406.391290,-9770.718434,-383.047749
163398.954812,-3627.009116,-10362.883188,-1608.800546
163398.955132,-2368.659014,-10288.862594,-1838.629195
163398.955451,2294.638420,-12435.459826,1149.143247
163398.955770,2294.638420,-9474.636058,1149.143247
163398.956089,0.000000,-7179.997637,0.000000
163398.956409,296.082377,-8290.306550,-2221.676944
163398.956728,370.102971,-9992.780217,-2145.067394
163398.957047,-74.020594,-11843.295072,-76.609550
163398.957366,-3256.906145,-10140.821405,-2451.505594
163398.957685,-3478.967927,-8586.388927,-3064.381992
163398.958005,518.144159,-10288.862594,0.000000
163398.958324,5625.565159,-9474.636058,4826.401637
163398.958643,4367.215058,-6069.688724,3600.648841
163398.958962,888.247130,-5921.647536,1762.019645
163398.959281,1110.308913,-9474.636058,-76.609550
163398.959601,-1480.411884,-10362.883188,-1838.629195
163398.959920,-2886.803174,-11621.233289,-1915.238745
163398.960239,-4367.215058,-11399.171507,-1838.629195
163398.960558,-4737.318029,-9548.656652,-2451.505594
163398.960878,0.000000,-10658.965565,-76.609550
163398.961197,2368.659014,-7179.997637,1838.629195
163398.961516,4145.153275,-6365.771101,3140.991542
163398.961835,3182.885551,-7772.162391,1838.629195
163398.962154,3478.967927,-9474.636058,-76.609550
163398.962474,2072.576638,-11473.192101,1838.629195
163398.962793,-1480.411884,-10436.903782,306.438199
163398.963112,-3997.112087,-11103.089130,-1532.190996
163398.963431,-3330.926739,-11695.253884,-2451.505594
163398.963750,-1554.432478,-9844.739029,76.609550
163398.964070,1998.556043,-7105.977043,1149.143247
163398.964389,-1776.494261,-4811.338623,-842.705048
163398.964708,-4441.235652,-5107.421000,-4443.353888
163398.965027,-2220.617826,-9252.574275,-1838.629195
163398.965347,-666.185348,-9474.636058,-2528.115143
163398.965666,-1702.473667,-10288.862594,0.000000
163398.965985,-2442.679609,-9918.759623,-766.095498
163398.966304,-518.144159,-10140.821405,0.000000
163398.966623,3182.885551,-10658.965565,2374.896044
163398.966943,4663.297435,-9474.636058,4826.401637
163398.967262,1924.535449,-7105.977043,1149.143247
163398.967581,2294.638420,-9474.636058,-1302.362347
163398.967900,444.123565,-10066.800811,-1991.848295
163398.968219,0.000000,-10140.821405,0.000000
163398.968539,-3330.926739,-9548.656652,-2451.505594
163398.968858,-3627.009116,-10584.944971,-1685.410096
163398.969177,-814.226536,-9474.636058,612.876398
163398.969496,2590.720797,-7105.977043,2834.553343
163398.969816,3478.967927,-7105.977043,2374.896044
163398.970135,-74.020594,-7105.977043,1072.533697
163398.970454,-74.020594,-9474.636058,-383.047749
163398.970773,-1850.514855,-10066.800811,-1302.362347
163398.971092,-3849.070898,-10140.821405,-2451.505594
163398.971412,-5921.647536,-10732.986159,-1225.752797
163398.971731,-4811.338623,-10732.986159,-3217.601092
163398.972050,0.000000,-11177.109724,0.000000
163398.972369,2146.597232,-8290.306550,1685.410096
163398.972688,1406.391290,-6957.935855,459.657299
163398.973008,1998.556043,-9474.636058,-1302.362347
163398.973327,0.000000,-9548.656652,-2145.067394
163398.973646,888.247130,-12139.377449,-153.219100
163398.973965,-2442.679609,-10066.800811,-1302.362347
163398.974285,-4145.153275,-9622.677246,-2298.286494
163398.974604,0.000000,-11917.315666,1838.629195
163398.974923,3775.050304,-8290.306550,1991.848295
163398.975242,3256.906145,-5995.668130,3217.601092
163398.975561,0.000000,-5625.565159,459.657299
163398.975881,-3256.906145,-6587.832884,-3677.258390
163398.976200,-1924.535449,-9548.656652,-2145.067394
163398.976519,-1184.329507,-9844.739029,76.609550
163398.976838,-666.185348,-11843.295072,2374.896044
163398.977157,-1850.514855,-10658.965565,-1302.362347
163398.977477,1110.308913,-11251.130318,-76.609550
163398.977796,2664.741391,-8956.491898,3064.381992
163398.978115,1998.556043,-6809.894666,1302.362347
163398.978434,370.102971,-7402.059420,-766.095498
163398.978754,444.123565,-9474.636058,-2221.676944
163398.979073,-2220.617826,-10140.821405,-3064.381992
163398.979392,-1702.473667,-11177.109724,-1225.752797
163398.979711,-5329.482782,-9548.656652,-3677.258390
163398.980030,-2072.576638,-11621.233289,-1072.533697
163398.980350,2738.761985,-10066.800811,1302.362347
163398.980669,7031.956449,-8882.471304,3600.648841
163398.980988,1924.535449,-6587.832884,1532.190996
163398.981307,-148.041188,-8068.244768,-1455.581446
163398.981626,-1628.453072,-9178.553681,-2681.334243
163398.981946,-1332.370696,-10362.883188,-76.609550
163398.982265,-3404.947333,-9548.656652,-1838.629195
163398.982584,-666.185348,-10066.800811,-1915.238745
163398.982903,0.000000,-9548.656652,0.000000
163398.983223,3849.070898,-8364.327145,0.000000
163398.983542,2368.659014,-6809.894666,3294.210641
163398.983861,3108.864956,-8216.285956,2374.896044
163398.984180,222.061783,-8882.471304,-2221.676944
163398.984499,-148.041188,-10510.924376,-1378.971896
163398.984819,-1036.288319,-11251.130318,-306.438199
163398.985138,-4737.318029,-9548.656652,-2451.505594
163398.985457,-3552.988522,-9844.739029,-1685.410096
163398.985776,-74.020594,-10658.965565,536.266849
163398.986095,4663.297435,-9474.636058,4213.525239
163398.986415,1110.308913,-5255.462188,842.705048
163398.986734,-1776.494261,-7179.997637,1838.629195
163398.987053,-3849.070898,-6587.832884,-3064.381992
163398.987372,-1924.535449,-10288.862594,-1608.800546
163398.987692,-2590.720797,-10214.842000,-1072.533697
163398.988011,-4293.194464,-11325.150913,-1149.143247
163398.988330,-3034.844362,-10066.800811,-4979.620737
163398.988649,-444.123565,-10955.047942,0.000000
163398.988968,1702.473667,-8734.430116,1762.019645
163398.989288,1332.370696,-6809.894666,842.705048
163398.989607,518.144159,-8882.471304,-383.047749
163398.989926,1184.329507,-10436.903782,-1455.581446
163398.990245,0.000000,-10732.986159,0.000000
163398.990564,-666.185348,-11843.295072,-76.609550
163398.990884,-3627.009116,-10362.883188,-1302.362347
163398.991203,-2960.823768,-9548.656652,0.000000
163398.991522,2294.638420,-9178.553681,229.828649
163398.991841,3404.947333,-7476.080014,2834.553343
163398.992160,-370.102971,-6069.688724,766.095498
163398.992480,-2738.761985,-7105.977043,-1838.629195
163398.992799,-1776.494261,-9252.574275,-1302.362347
163398.993118,-2146.597232,-9844.739029,-306.438199
163398.993437,-4145.153275,-9104.533087,0.000000
163398.993757,-4737.318029,-9548.656652,0.000000
163398.994076,-1184.329507,-10140.821405,-76.609550
163398.994395,0.000000,-7179.997637,1225.752797
163398.994714,2294.638420,-8290.306550,1149.143247
163398.995033,-518.144159,-7402.059420,-1302.362347
163398.995353,-1332.370696,-9474.636058,-2834.553343
163398.995672,-1406.391290,-11325.150913,-2221.676944
163398.995991,-1258.350101,-11843.295072,-2528.115143
163398.996310,-3478.967927,-11177.109724,-2068.457845
163398.996629,-3552.988522,-9548.656652,-3677.258390
163398.996949,3404.947333,-11177.109724,1762.019645
163398.997268,4663.297435,-8142.265362,2987.772442
163398.997587,2368.659014,-5107.421000,3064.381992
163398.997906,962.267725,-6883.915261,-689.485948
163398.998226,0.000000,-8956.491898,-1455.581446
163398.998545,296.082377,-10732.986159,-229.828649
163398.998864,-2812.782580,-8364.327145,0.000000
163398.999183,-2738.761985,-8660.409521,-1302.362347
163398.999502,-1258.350101,-8586.388927,-2374.896044
163398.999822,1184.329507,-9548.656652,1838.629195
163399.000141,3923.091493,-7476.080014,1225.752797
163399.000460,2886.803174,-8290.306550,2374.896044
163399.000779,-1776.494261,-7179.997637,-1838.629195
163399.001098,-888.247130,-9696.697840,-2987.772442
163399.001418,-962.267725,-10881.027347,-1455.581446
163399.001737,-1924.535449,-11177.109724,-1302.362347
163399.002056,-2590.720797,-9622.677246,-1302.362347
163399.002375,1110.308913,-11843.295072,-383.047749
163399.002695,3923.091493,-8586.388927,1455.581446
163399.003014,2368.659014,-4811.338623,0.000000
163399.003333,0.000000,-5995.668130,0.000000
163399.003652,-74.020594,-9474.636058,-1302.362347
163399.003971,-1184.329507,-9622.677246,-1685.410096
163399.004291,-888.247130,-10881.027347,-1072.533697
163399.004610,-2812.782580,-10510.924376,-1302.362347
163399.004929,-3034.844362,-10732.986159,-1915.238745
163399.005248,-592.164754,-10140.821405,-612.876398
163399.005567,3775.050304,-9474.636058,2068.457845
163399.005887,4293.194464,-8882.471304,4136.915689
163399.006206,2886.803174,-7698.141797,-76.609550
163399.006525,148.041188,-7179.997637,-3907.087040
163399.006844,2294.638420,-11843.295072,-689.485948
163399.007164,-1776.494261,-11325.150913,-689.485948
163399.007483,-2960.823768,-11621.233289,-1302.362347
163399.007802,-1332.370696,-11473.192101,-536.266849
163399.008121,2664.741391,-10436.903782,3830.477490
163399.008440,2960.823768,-7179.997637,3217.601092
163399.008760,0.000000,-4811.338623,1225.752797
163399.009079,-2368.659014,-6735.874072,-459.657299
163399.009398,-2368.659014,-8882.471304,-919.314598
163399.009717,-3627.009116,-7179.997637,-2987.772442
163399.010036,-2442.679609,-10658.965565,-76.609550
163399.010356,-3923.091493,-9844.739029,-689.485948
163399.010675,-2146.597232,-10288.862594,-842.705048
163399.010994,888.247130,-9474.636058,1302.362347
163399.011313,2664.741391,-8660.409521,3064.381992
163399.011633,-1258.350101,-5255.462188,-1532.190996
163399.011952,-2368.659014,-7476.080014,-3370.820191
163399.012271,-1776.494261,-9844.739029,-4903.011187
163399.012590,-74.020594,-13175.665768,-76.609550
163399.012909,-3552.988522,-8364.327145,-2451.505594
163399.013229,-74.020594,-10955.047942,-612.876398
163399.013548,2072.576638,-10214.842000,612.876398
163399.013867,3552.988522,-9030.512492,2911.162892
163399.014186,2664.741391,-6513.812290,2681.334243
163399.014505,0.000000,-6661.853478,1149.143247
163399.014825,-814.226536,-7402.059420,-2451.505594
163399.015144,-2072.576638,-9178.553681,-2528.115143
163399.015463,-4145.153275,-9548.656652,0.000000
163399.015782,-2072.576638,-11325.150913,1532.190996
163399.016102,-3552.988522,-8364.327145,-1838.629195
163399.016421,888.247130,-9696.697840,76.609550
163399.016740,2368.659014,-7846.182985,1455.581446
163399.017059,1110.308913,-6809.894666,842.705048
163399.017378,-74.020594,-6513.812290,-1302.362347
163399.017698,-74.020594,-9474.636058,-1455.581446
163399.018017,-740.205942,-9844.739029,-2528.115143
163399.018336,-3552.988522,-11029.068536,0.000000
163399.018655,-1554.432478,-12361.439231,-1302.362347
163399.018974,-1184.329507,-11917.315666,-76.609550
163399.019294,1554.432478,-8956.491898,612.876398
163399.019613,3552.988522,-7846.182985,1685.410096
163399.019932,740.205942,-6957.935855,0.000000
163399.020251,-1628.453072,-7550.100608,-2068.457845
163399.020571,-1258.350101,-8734.430116,-2528.115143
163399.020890,814.226536,-13027.624579,2068.457845
163399.021209,-1406.391290,-8882.471304,-1455.581446
163399.021528,-2368.659014,-9696.697840,0.000000
163399.021847,0.000000,-9548.656652,1225.752797
163399.022167,592.164754,-7179.997637,1838.629195
163399.022486,2886.803174,-7105.977043,2374.896044
163399.022805,518.144159,-6883.915261,0.000000
163399.023124,-1110.308913,-8216.285956,-1838.629195
163399.023443,-666.185348,-9474.636058,-2528.115143
163399.023763,-2220.617826,-10436.903782,-1149.143247
163399.024082,-4145.153275,-10140.821405,-1225.752797
163399.024401,-888.247130,-11473.192101,0.000000
163399.024720,2516.700203,-11843.295072,2221.676944
163399.025040,296.082377,-5995.668130,0.000000
163399.025359,-74.020594,-5921.647536,-76.609550
163399.025678,-2442.679609,-6735.874072,-1608.800546
163399.025997,-2442.679609,-9252.574275,-2911.162892
163399.026316,-1702.473667,-10436.903782,-919.314598
163399.026636,-666.185348,-13027.624579,1762.019645
163399.026955,-4145.153275,-9548.656652,-1072.533697
163399.027274,-1924.535449,-10510.924376,-1072.533697
163399.027593,1554.432478,-10140.821405,766.095498
163399.027912,1924.535449,-7772.162391,2145.067394
163399.028232,0.000000,-4811.338623,612.876398
163399.028551,-2960.823768,-5403.503377,-3677.258390
163399.028870,0.000000,-9548.656652,-1762.019645
163399.029189,518.144159,-11843.295072,0.000000
163399.029509,-962.267725,-9622.677246,-1455.581446
163399.029828,-74.020594,-12435.459826,-76.609550
163399.030147,444.123565,-11029.068536,0.000000
163399.030466,3404.947333,-9400.615463,2374.896044
163399.030785,2960.823768,-6883.915261,2911.162892
163399.031105,0.000000,-5699.585753,0.000000
163399.031424,-1258.350101,-7846.182985,-1532.190996
163399.031743,-2442.679609,-8734.430116,-2374.896044
163399.032062,-3034.844362,-9474.636058,-689.485948
163399.032381,-5625.565159,-9548.656652,-1532.190996
163399.032701,-3627.009116,-10510.924376,-2374.896044
163399.033020,-74.020594,-11547.212695,-76.609550
163399.033339,962.267725,-8290.306550,1378.971896
163399.033658,814.226536,-7105.977043,842.705048
163399.033977,-740.205942,-7254.018232,-1072.533697
163399.034297,-814.226536,-9474.636058,-1302.362347
163399.034616,-592.164754,-10436.903782,-1991.848295
163399.034935,-2220.617826,-10510.924376,-2528.115143
163399.035254,-2960.823768,-11029.068536,0.000000
163399.035574,-74.020594,-11695.253884,-383.047749
163399.035893,1036.288319,-7179.997637,0.000000
163399.036212,4663.297435,-8290.306550,2987.772442
163399.036531,1406.391290,-6513.812290,995.924147
163399.036850,-1332.370696,-7402.059420,-1532.190996
163399.037170,-1258.350101,-9474.636058,-2528.115143
163399.037489,-74.020594,-11843.295072,-76.609550
163399.037808,-814.226536,-12065.356855,2145.067394
163399.038127,-1258.350101,-10362.883188,-689.485948
163399.038446,-888.247130,-9548.656652,0.000000
163399.038766,2960.823768,-8512.368333,3064.381992
163399.039085,1332.370696,-4811.338623,1838.629195
163399.039404,814.226536,-6735.874072,995.924147
163399.039723,-888.247130,-7698.141797,-1838.629195
163399.040043,-1036.288319,-10214.842000,-1762.019645
163399.040362,-74.020594,-13027.624579,-383.047749
163399.040681,-4145.153275,-10881.027347,-1838.629195
163399.041000,-1850.514855,-12435.459826,-1302.362347
163399.041319,0.000000,-10066.800811,-995.924147
163399.041639,3478.967927,-8882.471304,229.828649
163399.041958,1776.494261,-7179.997637,3677.258390
163399.042277,-1184.329507,-6291.750507,-1225.752797
163399.042596,-666.185348,-8882.471304,-2145.067394
163399.042915,0.000000,-10658.965565,-1225.752797
163399.043235,-1184.329507,-10436.903782,153.219100
163399.043554,-1850.514855,-10140.821405,-1149.143247
163399.043873,0.000000,-10732.986159,0.000000
163399.044192,3330.926739,-10362.883188,2374.896044
163399.044512,4663.297435,-8290.306550,1762.019645
163399.044831,2146.597232,-6513.812290,229.828649
163399.045150,0.000000,-8216.285956,919.314598
163399.045469,-888.247130,-8956.491898,-2834.553343
163399.045788,-296.082377,-11029.068536,-1608.800546
163399.046108,-1628.453072,-11103.089130,-689.485948
163399.046427,-2368.659014,-9548.656652,-2451.505594
163399.046746,-1776.494261,-8364.327145,0.000000
163399.047065,2812.782580,-7772.162391,0.000000
163399.047384,2812.782580,-5995.668130,2451.505594
163399.047704,1406.391290,-7105.977043,919.314598
163399.048023,-74.020594,-8882.471304,-2528.115143
163399.048342,-1406.391290,-10066.800811,-1915.238745
163399.048661,-1850.514855,-11103.089130,-919.314598
163399.048981,-3701.029710,-10732.986159,-1455.581446
163399.049300,-4367.215058,-11325.150913,-2374.896044
163399.049619,-2368.659014,-11917.315666,1225.752797
163399.049938,592.164754,-8660.409521,842.705048
163399.050257,0.000000,-5107.421000,612.876398
163399.050577,-888.247130,-6883.915261,-536.266849
163399.050896,-74.020594,-10362.883188,-153.219100
163399.051215,-1258.350101,-8586.388927,-3370.820191
163399.051534,-222.061783,-11399.171507,76.609550
163399.051853,-2368.659014,-10955.047942,-766.095498
163399.052173,-2442.679609,-11621.233289,-1378.971896
163399.052492,1036.288319,-11325.150913,536.266849
163399.052811,2368.659014,-7846.182985,3064.381992
163399.053130,1406.391290,-6439.791695,76.609550
163399.053450,-1184.329507,-6291.750507,-1455.581446
163399.053769,-3552.988522,-7179.997637,-2451.505594
163399.054088,-74.020594,-10658.965565,1685.410096
163399.054407,-4589.276840,-7179.997637,0.000000
163399.054726,-2664.741391,-10140.821405,-76.609550
163399.055046,-1850.514855,-9474.636058,0.000000
163399.055365,962.267725,-8660.409521,1991.848295
163399.055684,3182.885551,-8290.306550,2374.896044
163399.056003,-74.020594,-6809.894666,-76.609550
163399.056323,-3478.967927,-7179.997637,-3524.039291
163399.056642,-4737.318029,-7179.997637,-4903.011187
163399.056961,-1702.473667,-12953.603985,-1302.362347
163399.057281,-3256.906145,-12213.398043,-919.314598
163399.057600,-4145.153275,-10140.821405,-2451.505594
163399.057919,222.061783,-10214.842000,1762.019645
163399.058238,4663.297435,-10362.883188,2834.553343
163399.058558,2738.761985,-5477.523971,1608.800546
163399.058877,2294.638420,-5921.647536,-76.609550
163399.059196,222.061783,-7105.977043,-1991.848295
163399.059515,592.164754,-9548.656652,-3677.258390
163399.059835,2294.638420,-13027.624579,2068.457845
163399.060154,-1258.350101,-11843.295072,-383.047749
163399.060473,-3256.906145,-9548.656652,0.000000
163399.060792,222.061783,-10955.047942,-1072.533697
163399.061112,2516.700203,-8808.450710,1455.581446
163399.061431,2294.638420,-6365.771101,1532.190996
163399.061750,1406.391290,-4811.338623,-1455.581446
163399.062070,2146.597232,-9474.636058,-919.314598
163399.062389,592.164754,-10140.821405,612.876398
163399.062708,-74.020594,-10214.842000,842.705048
163399.063027,-1702.473667,-11251.130318,-76.609550
163399.063347,-3552.988522,-8660.409521,-3064.381992
163399.063666,1110.308913,-8956.491898,0.000000
163399.063985,2442.679609,-8956.491898,2298.286494
163399.064304,962.267725,-6513.812290,612.876398
163399.064624,-962.267725,-7328.038826,-2374.896044
163399.064943,-74.020594,-11843.295072,-383.047749
163399.065262,-1258.350101,-11843.295072,-2221.676944
163399.065581,-4441.235652,-10732.986159,-2145.067394
163399.065901,-5921.647536,-9548.656652,-3677.258390
163399.066220,-1184.329507,-11473.192101,0.000000
163399.066539,2294.638420,-8290.306550,-383.047749
163399.066859,3775.050304,-7031.956449,3907.087040
163399.067178,1998.556043,-5699.585753,1378.971896
163399.067497,1332.370696,-7031.956449,-536.266849
163399.067816,1184.329507,-9252.574275,-689.485948
163399.068136,-1184.329507,-11473.192101,766.095498
163399.068455,-3256.906145,-11251.130318,-1838.629195
163399.068774,-3256.906145,-11769.274478,-1915.238745
163399.069093,-592.164754,-11621.233289,-383.047749
163399.069413,0.000000,-7772.162391,766.095498
163399.069732,74.020594,-7698.141797,1608.800546
163399.070051,-222.061783,-5477.523971,-689.485948
163399.070371,-1332.370696,-6883.915261,-2221.676944
163399.070690,0.000000,-7772.162391,0.000000
163399.071009,-74.020594,-11843.295072,2374.896044
163399.071328,-2960.823768,-11177.109724,-153.219100
163399.071648,-4219.173869,-10732.986159,-1302.362347
163399.071967,-814.226536,-10732.986159,0.000000
163399.072286,1184.329507,-8956.491898,1608.800546
163399.072605,148.041188,-6661.853478,1225.752797
163399.072925,-2072.576638,-7254.018232,-1225.752797
163399.073244,-1406.391290,-8734.430116,-2528.115143
163399.073563,-74.020594,-11843.295072,-1608.800546
163399.073882,-3330.926739,-10140.821405,-2298.286494
163399.074202,-1258.350101,-11251.130318,-1302.362347
163399.074521,-1480.411884,-10732.986159,-689.485948
163399.074840,1998.556043,-9030.512492,1532.190996
163399.075160,2960.823768,-7105.977043,2374.896044
163399.075479,1628.453072,-6587.832884,2374.896044
163399.075798,592.164754,-8068.244768,306.438199
163399.076117,1110.308913,-10436.903782,-612.876398
163399.076437,2294.638420,-13027.624579,-76.609550
163399.076756,-3034.844362,-10436.903782,-1149.143247
163399.077075,-3849.070898,-11029.068536,-2451.505594
163399.077394,-1258.350101,-10362.883188,-689.485948
163399.077714,1184.329507,-9030.512492,1838.629195
163399.078033,2220.617826,-6069.688724,1838.629195
163399.078352,518.144159,-4589.276840,-995.924147
163399.078671,2294.638420,-9474.636058,-689.485948
163399.078991,1702.473667,-11547.212695,0.000000
163399.079310,-2368.659014,-11325.150913,0.000000
163399.079629,-2442.679609,-11843.295072,-1302.362347
163399.079949,-2368.659014,-10066.800811,-2528.115143
163399.080268,0.000000,-9548.656652,0.000000
163399.080587,888.247130,-8068.244768,306.438199
163399.080906,888.247130,-7624.121203,229.828649
163399.081226,0.000000,-7402.059420,-1378.971896
163399.081545,0.000000,-8586.388927,-3140.991542
163399.081864,-74.020594,-11843.295072,-2068.457845
163399.082183,-296.082377,-12583.501014,536.266849
163399.082503,-666.185348,-11251.130318,-383.047749
163399.082822,-1258.350101,-10658.965565,-1302.362347
163399.083141,0.000000,-8364.327145,0.000000
163399.083460,4737.318029,-9474.636058,4826.401637
163399.083780,1480.411884,-5699.585753,1532.190996
163399.084099,1480.411884,-6735.874072,-76.609550
163399.084418,592.164754,-9252.574275,0.000000
163399.084738,0.000000,-10140.821405,1532.190996
163399.085057,-1776.494261,-10140.821405,1072.533697
163399.085376,-2812.782580,-11547.212695,-689.485948
163399.085695,-2442.679609,-10658.965565,-689.485948
163399.086015,0.000000,-7476.080014,0.000000
163399.086334,592.164754,-5995.668130,0.000000
163399.086653,3478.967927,-7698.141797,-76.609550
163399.086972,-814.226536,-8068.244768,-1685.410096
163399.087292,-74.020594,-10214.842000,-919.314598
163399.087611,-1258.350101,-10658.965565,-766.095498
163399.087930,-4145.153275,-11917.315666,0.000000
163399.088250,-4737.318029,-10732.986159,-2451.505594
163399.088569,-1184.329507,-10140.821405,612.876398
163399.088888,4663.297435,-9474.636058,2987.772442
163399.089207,2146.597232,-6143.709319,2374.896044
163399.089527,148.041188,-4219.173869,-3370.820191
163399.089846,1554.432478,-8586.388927,-1915.238745
163399.090165,-666.185348,-9992.780217,-1302.362347
163399.090484,-2220.617826,-11177.109724,-1915.238745
163399.090804,-4071.132681,-11621.233289,-1991.848295
163399.091123,-1184.329507,-12065.356855,0.000000
163399.091442,0.000000,-8364.327145,0.000000
163399.091761,1184.329507,-7772.162391,2451.505594
163399.092081,2220.617826,-6365.771101,1838.629195
163399.092400,2294.638420,-8290.306550,-76.609550
163399.092719,0.000000,-6291.750507,0.000000
163399.093039,1332.370696,-10288.862594,1149.143247
163399.093358,-2146.597232,-10140.821405,153.219100
163399.093677,-4293.194464,-10807.006753,-995.924147
163399.093996,-2368.659014,-11251.130318,-76.609550
163399.094316,0.000000,-10658.965565,2374.896044
163399.094635,0.000000,-4811.338623,0.000000
163399.094954,-1184.329507,-5403.503377,-2145.067394
163399.095273,296.082377,-8068.244768,306.438199
163399.095593,1110.308913,-10214.842000,536.266849
163399.095912,-4145.153275,-8364.327145,-1838.629195
163399.096231,-4219.173869,-10510.924376,-1302.362347
163399.096550,-4441.235652,-10066.800811,-2145.067394
163399.096870,-1554.432478,-10510.924376,-766.095498
163399.097189,3182.885551,-9474.636058,2374.896044
163399.097508,2886.803174,-7698.141797,2374.896044
163399.097828,370.102971,-7698.141797,-76.609550
163399.098147,0.000000,-7179.997637,-2451.505594
163399.098466,2294.638420,-11547.212695,-229.828649
163399.098785,-444.123565,-12509.480420,2068.457845
163399.099105,-3552.988522,-10140.821405,-1532.190996
163399.099424,-1258.350101,-11399.171507,-1072.533697
163399.099743,2146.597232,-10436.903782,1149.143247
163399.100062,4145.153275,-8142.265362,2757.943793
163399.100382,3478.967927,-4737.318029,842.705048
163399.100701,2294.638420,-8882.471304,2374.896044
163399.101020,2294.638420,-9178.553681,-1608.800546
163399.101339,0.000000,-10214.842000,-1685.410096
163399.101659,-3552.988522,-10732.986159,1225.752797
163399.101978,-4737.318029,-9548.656652,-2451.505594
163399.102297,-1628.453072,-10807.006753,-1608.800546
163399.102617,1258.350101,-9474.636058,612.876398
163399.102936,3478.967927,-7031.956449,1915.238745
163399.103255,2738.761985,-4737.318029,-76.609550
163399.103574,1480.411884,-6587.832884,-1225.752797
163399.103894,1184.329507,-9548.656652,0.000000
163399.104213,518.144159,-11843.295072,1685.410096
163399.104532,-3034.844362,-10658.965565,-3524.039291
163399.104851,-6513.812290,-9548.656652,-3677.258390
163399.105171,-962.267725,-11103.089130,-2068.457845
163399.105490,1924.535449,-9548.656652,995.924147
163399.105809,2294.638420,-6957.935855,1302.362347
163399.106128,1628.453072,-6143.709319,-383.047749
163399.106448,2738.761985,-9474.636058,-76.609550
163399.106767,0.000000,-9252.574275,0.000000
163399.107086,-962.267725,-10584.944971,-612.876398
163399.107406,-3034.844362,-10214.842000,-536.266849
163399.107725,-2516.700203,-10288.862594,-612.876398
163399.108044,0.000000,-8364.327145,306.438199
163399.108363,666.185348,-6291.750507,1532.190996
163399.108683,1480.411884,-6587.832884,2757.943793
163399.109002,-74.020594,-7105.977043,-76.609550
163399.109321,-740.205942,-6883.915261,-2528.115143
163399.109640,-74.020594,-13027.624579,-76.609550
163399.109960,-3552.988522,-11621.233289,-612.876398
163399.110279,-4885.359217,-11769.274478,-1915.238745
163399.110598,-3256.906145,-11029.068536,-995.924147
163399.110918,0.000000,-9548.656652,612.876398
163399.111237,1776.494261,-7920.203579,3217.601092
163399.111556,-1776.494261,-5403.503377,0.000000
163399.111875,-888.247130,-5995.668130,-3677.258390
163399.112195,-2960.823768,-8364.327145,-2145.067394
163399.112514,-1850.514855,-8586.388927,-2528.115143
163399.112833,-3034.844362,-12435.459826,-1302.362347
163399.113152,-4367.215058,-11769.274478,-2145.067394
163399.113472,-1850.514855,-11473.192101,-766.095498
163399.113791,1702.473667,-9474.636058,2145.067394
163399.114110,3478.967927,-7994.224174,4213.525239
163399.114429,1924.535449,-5107.421000,1532.190996
163399.114749,962.267725,-5773.606348,-1915.238745
163399.115068,0.000000,-7772.162391,0.000000
163399.115387,-592.164754,-11399.171507,612.876398
163399.115707,-4811.338623,-9548.656652,-4290.134789
163399.116026,-3108.864956,-11843.295072,-1685.410096
163399.116345,-740.205942,-11325.150913,-76.609550
163399.116664,1258.350101,-8660.409521,1915.238745
163399.116984,1110.308913,-7105.977043,2374.896044
163399.117303,1702.473667,-8290.306550,-76.609550
163399.117622,1998.556043,-10066.800811,-76.609550
163399.117941,-74.020594,-10658.965565,-1302.362347
163399.118261,-2960.823768,-9548.656652,-1378.971896
163399.118580,-3256.906145,-9548.656652,0.000000
163399.118899,-2368.659014,-8364.327145,-1838.629195
163399.119218,1924.535449,-9770.718434,1608.800546
163399.119538,2812.782580,-7179.997637,2374.896044
163399.119857,1628.453072,-7031.956449,536.266849
163399.120176,2886.803174,-9474.636058,-689.485948
163399.120496,1480.411884,-9992.780217,-1532.190996
163399.120815,-74.020594,-12731.542202,-766.095498
163399.121134,-2442.679609,-12139.377449,-1608.800546
163399.121453,-2442.679609,-10658.965565,-2987.772442
163399.121773,0.000000,-10732.986159,306.438199
163399.122092,2368.659014,-8364.327145,1532.190996
163399.122411,4145.153275,-7476.080014,2834.553343
163399.122730,1924.535449,-5699.585753,766.095498
163399.123050,1480.411884,-7031.956449,-1149.143247
163399.123369,1998.556043,-9548.656652,-1685.410096
163399.123688,0.000000,-10807.006753,306.438199
163399.124007,-2146.597232,-12139.377449,612.876398
163399.124327,-1258.350101,-11843.295072,-1302.362347
163399.124646,-962.267725,-9770.718434,-1302.362347
163399.124965,1184.329507,-10140.821405,3370.820191
163399.125285,814.226536,-7105.977043,1685.410096
163399.125604,-518.144159,-6217.729913,-306.438199
163399.125923,-370.102971,-7105.977043,-612.876398
163399.126242,-2220.617826,-8364.327145,-3064.381992
163399.126562,-4441.235652,-9548.656652,-2911.162892
163399.126881,-5033.400406,-9548.656652,-4290.134789
163399.127200,-4441.235652,-11029.068536,-1225.752797
163399.127519,444.123565,-12435.459826,689.485948
163399.127839,4071.132681,-11843.295072,2374.896044
163399.128158,1184.329507,-7772.162391,2145.067394
163399.128477,-74.020594,-7254.018232,-919.314598
163399.128797,0.000000,-8586.388927,-2451.505594
163399.129116,-222.061783,-10732.986159,-1072.533697
163399.129435,-4441.235652,-8364.327145,0.000000
163399.129754,-3330.926739,-10066.800811,-689.485948
163399.130074,-2368.659014,-9548.656652,0.000000
163399.130393,2664.741391,-9548.656652,2451.505594
163399.130712,2368.659014,-5995.668130,3677.258390
163399.131031,3478.967927,-7105.977043,2374.896044
163399.131351,-592.164754,-7550.100608,0.000000
163399.131670,-1554.432478,-9400.615463,-2068.457845
163399.131989,-2146.597232,-11325.150913,-766.095498
163399.132308,-3775.050304,-11177.109724,-1455.581446
163399.132628,-4219.173869,-10140.821405,-1608.800546
163399.132947,-74.020594,-11843.295072,-76.609550
163399.133266,1184.329507,-8512.368333,383.047749
163399.133586,0.000000,-5403.503377,0.000000
163399.133905,0.000000,-6143.709319,0.000000
163399.134224,-74.020594,-8290.306550,-3140.991542
163399.134543,-740.205942,-10214.842000,-1991.848295
163399.134863,-1628.453072,-11843.295072,-153.219100
163399.135182,-3108.864956,-11029.068536,-995.924147
163399.135501,-1702.473667,-12065.356855,-76.609550
163399.135820,0.000000,-10436.903782,612.876398
163399.136140,2886.803174,-8586.388927,2145.067394
163399.136459,3404.947333,-7698.141797,2681.334243
163399.136778,1110.308913,-6809.894666,-995.924147
163399.137097,0.000000,-5995.668130,-3677.258390
163399.137417,-74.020594,-10658.965565,-1302.362347
163399.137736,-2368.659014,-10955.047942,-1225.752797
163399.138055,-2812.782580,-11029.068536,-1915.238745
163399.138375,-296.082377,-11621.233289,-995.924147
163399.138694,4589.276840,-12435.459826,4519.963438
163399.139013,3627.009116,-8364.327145,3064.381992
163399.139332,2368.659014,-7846.182985,2911.162892
163399.139652,1110.308913,-6809.894666,-995.924147
163399.139971,0.000000,-8882.471304,-1915.238745
163399.140290,-74.020594,-10658.965565,-1302.362347
163399.140609,-2590.720797,-10881.027347,-689.485948
163399.140929,-3478.967927,-10955.047942,-1149.143247
163399.141248,-1702.473667,-10288.862594,-306.438199
163399.141567,2146.597232,-9474.636058,2834.553343
163399.141886,0.000000,-6217.729913,2528.115143
163399.142206,-370.102971,-5625.565159,-1302.362347
163399.142525,-1924.535449,-7179.997637,-3370.820191
163399.142844,-4145.153275,-9548.656652,-3064.381992
163399.143164,-1850.514855,-12139.377449,-1302.362347
163399.143483,-1850.514855,-12953.603985,-536.266849
163399.143802,-1850.514855,-11177.109724,-1225.752797
163399.144121,2146.597232,-11621.233289,1149.143247
163399.144441,3627.009116,-9030.512492,3064.381992
163399.144760,592.164754,-5403.503377,1225.752797
163399.145079,592.164754,-7179.997637,-995.924147
163399.145398,1406.391290,-9178.553681,-1685.410096
163399.145718,2294.638420,-13027.624579,-76.609550
163399.146037,-2294.638420,-10214.842000,-689.485948
163399.146356,-1924.535449,-11843.295072,-76.609550
163399.146676,-1776.494261,-9326.594869,0.000000
163399.146995,1036.288319,-9030.512492,1149.143247
163399.147314,2368.659014,-6291.750507,3064.381992
163399.147633,814.226536,-5995.668130,1225.752797
163399.147953,-2442.679609,-4145.153275,-2987.772442
163399.148272,-888.247130,-8660.409521,-1915.238745
163399.148591,-1332.370696,-9918.759623,-919.314598
163399.148910,-3330.926739,-11399.171507,-1149.143247
163399.149230,-2442.679609,-12435.459826,-1302.362347
163399.149549,-1850.514855,-11843.295072,-1838.629195
163399.149868,1332.370696,-11473.192101,1838.629195
163399.150187,1702.473667,-8586.388927,2374.896044
163399.150507,-74.020594,-7994.224174,-76.609550
163399.150826,-1776.494261,-6587.832884,-2451.505594
163399.151145,0.000000,-9252.574275,-2528.115143
163399.151465,-592.164754,-10732.986159,-383.047749
163399.151784,-3034.844362,-9844.739029,-689.485948
163399.152103,-2516.700203,-10140.821405,-1608.800546
163399.152422,962.267725,-10362.883188,-76.609550
163399.152742,3775.050304,-8882.471304,2298.286494
163399.153061,2516.700203,-6439.791695,612.876398
163399.153380,0.000000,-7179.997637,0.000000
163399.153699,-518.144159,-8882.471304,-2528.115143
163399.154019,-1776.494261,-10732.986159,-1225.752797
163399.154338,-2442.679609,-10955.047942,-995.924147
163399.154657,-1924.535449,-11251.130318,-919.314598
163399.154976,814.226536,-10955.047942,842.705048
163399.155296,4293.194464,-9844.739029,1225.752797
163399.155615,3478.967927,-6513.812290,2451.505594
163399.155934,518.144159,-5921.647536,-76.609550
163399.156254,-3256.906145,-4811.338623,-3064.381992
163399.156573,-2072.576638,-8660.409521,-2911.162892
163399.156892,-1184.329507,-11843.295072,-689.485948
163399.157211,-3552.988522,-11029.068536,612.876398
163399.157531,-2960.823768,-10732.986159,-1608.800546
163399.157850,-1554.432478,-9474.636058,-1149.143247
163399.158169,888.247130,-8660.409521,536.266849
163399.158488,0.000000,-4811.338623,0.000000
163399.158807,-1184.329507,-5107.421000,0.000000
163399.159127,-74.020594,-8290.306550,-1608.800546
163399.159446,-370.102971,-11251.130318,-76.609550
163399.159765,-1406.391290,-9696.697840,-2221.676944
163399.160084,-74.020594,-12435.459826,-76.609550
163399.160403,0.000000,-10732.986159,0.000000
163399.160723,2368.659014,-11991.336260,2221.676944
163399.161042,3627.009116,-10436.903782,2757.943793
163399.161361,2442.679609,-7476.080014,1991.848295
163399.161680,0.000000,-6291.750507,0.000000
163399.162000,-74.020594,-7254.018232,-2834.553343
163399.162319,-1110.308913,-9548.656652,-2145.067394
163399.162638,-2368.659014,-9548.656652,0.000000
163399.162957,-666.185348,-11251.130318,-76.609550
163399.163276,-1850.514855,-7105.977043,-2298.286494
163399.163596,1110.308913,-9770.718434,1991.848295
163399.163915,2590.720797,-7772.162391,2374.896044
163399.164234,222.061783,-5921.647536,1072.533697
163399.164553,-1628.453072,-7698.141797,-383.047749
163399.164873,-1332.370696,-10658.965565,-1302.362347
163399.165192,-1554.432478,-10658.965565,-1915.238745
163399.165511,-2442.679609,-11843.295072,-1915.238745
163399.165830,-3552.988522,-11029.068536,-1838.629195
163399.166149,0.000000,-11029.068536,0.000000
163399.166469,1702.473667,-9548.656652,0.000000
163399.166788,2368.659014,-8364.327145,1455.581446
163399.167107,148.041188,-7031.956449,153.219100
163399.167426,-740.205942,-7624.121203,-2221.676944
163399.167745,-74.020594,-9474.636058,-1302.362347
163399.168065,-74.020594,-11843.295072,612.876398
163399.168384,-74.020594,-11843.295072,-76.609550
163399.168703,-2368.659014,-9548.656652,-1072.533697
163399.169022,962.267725,-8068.244768,-689.485948
163399.169342,2368.659014,-9548.656652,3370.820191
163399.169661,2072.576638,-5995.668130,1608.800546
163399.169980,74.020594,-6513.812290,153.219100
163399.170299,-962.267725,-8216.285956,-2298.286494
163399.170618,-1332.370696,-10436.903782,-1838.629195
163399.170938,-666.185348,-12435.459826,-76.609550
163399.171257,-2960.823768,-11621.233289,612.876398
163399.171576,-370.102971,-11547.212695,-76.609550
163399.171895,518.144159,-10510.924376,-76.609550
163399.172215,148.041188,-7476.080014,1991.848295
163399.172534,0.000000,-8364.327145,3677.258390
163399.172853,-2146.597232,-5921.647536,-1991.848295
163399.173172,-2146.597232,-8290.306550,-3370.820191
163399.173491,-2294.638420,-10732.986159,-2298.286494
163399.173811,-5773.606348,-10140.821405,-3370.820191
163399.174130,-4737.318029,-10732.986159,-3064.381992
163399.174449,-1480.411884,-11325.150913,-459.657299
163399.174768,0.000000,-9548.656652,1225.752797
163399.175087,3478.967927,-9474.636058,3294.210641
163399.175407,2886.803174,-7698.141797,2374.896044
163399.175726,1184.329507,-7698.141797,766.095498
163399.176045,444.123565,-8290.306550,-1225.752797
163399.176364,-296.082377,-10362.883188,459.657299
163399.176684,-2220.617826,-10658.965565,-76.609550
163399.177003,-4737.318029,-7476.080014,0.000000
163399.177322,74.020594,-10140.821405,0.000000
163399.177641,296.082377,-8364.327145,153.219100
163399.177960,1184.329507,-8068.244768,1838.629195
163399.178280,-74.020594,-7698.141797,919.314598
163399.178599,-74.020594,-8290.306550,-3140.991542
163399.178918,-1776.494261,-9844.739029,-2451.505594
163399.179237,-2590.720797,-11251.130318,-2298.286494
163399.179557,-2886.803174,-10658.965565,-919.314598
163399.179876,-1776.494261,-10066.800811,-76.609550
163399.180195,0.000000,-7772.162391,0.000000
163399.180514,1258.350101,-5995.668130,919.314598
163399.180833,1480.411884,-5551.544565,2757.943793
163399.181153,814.226536,-6809.894666,-76.609550
163399.181472,-1850.514855,-5329.482782,-3140.991542
163399.181791,1406.391290,-12731.542202,-76.609550
163399.182110,-1628.453072,-11769.274478,-1378.971896
163399.182429,-2664.741391,-11917.315666,-2221.676944
163399.182749,-1258.350101,-11621.233289,-1915.238745
163399.183068,0.000000,-9548.656652,0.000000
163399.183387,2368.659014,-9252.574275,1532.190996
163399.183706,1702.473667,-8290.306550,919.314598
163399.184026,1702.473667,-9474.636058,-76.609550
163399.184345,296.082377,-7179.997637,-2757.943793
163399.184664,2960.823768,-11473.192101,2604.724693
163399.184983,0.000000,-8364.327145,612.876398
163399.185302,-444.123565,-9400.615463,306.438199
163399.185622,74.020594,-9844.739029,229.828649
163399.185941,2146.597232,-9696.697840,2221.676944
163399.186260,1702.473667,-6809.894666,76.609550
163399.186579,-962.267725,-7105.977043,383.047749
163399.186899,-2220.617826,-8142.265362,-3064.381992
163399.187218,-2294.638420,-9548.656652,-2757.943793
163399.187537,-2738.761985,-11695.253884,-689.485948
163399.187856,-1554.432478,-11547.212695,-1302.362347
163399.188175,-1184.329507,-11029.068536,306.438199
163399.188495,2294.638420,-11251.130318,1149.143247
163399.188814,1776.494261,-9326.594869,2374.896044
163399.189133,0.000000,-7179.997637,2451.505594
163399.189452,-1850.514855,-6291.750507,-2528.115143
163399.189771,-1406.391290,-9104.533087,-2834.553343
163399.190091,-814.226536,-10807.006753,-2221.676944
163399.190410,-1702.473667,-11103.089130,-842.705048
163399.190729,-1850.514855,-10881.027347,-995.924147
163399.191048,-1258.350101,-10807.006753,-1302.362347
163399.191368,148.041188,-9844.739029,1225.752797
163399.191687,2812.782580,-8364.327145,4903.011187
163399.192006,2294.638420,-6883.915261,2451.505594
163399.192325,0.000000,-4811.338623,1225.752797
163399.192644,0.000000,-6957.935855,-1225.752797
163399.192964,-444.123565,-9770.718434,76.609550
163399.193283,-1998.556043,-10584.944971,0.000000
163399.193602,-3108.864956,-10807.006753,-919.314598
163399.193921,-962.267725,-10362.883188,-1455.581446
163399.194241,0.000000,-10140.821405,612.876398
163399.194560,592.164754,-8364.327145,2451.505594
163399.194879,0.000000,-8216.285956,306.438199
163399.195198,-666.185348,-7994.224174,-1915.238745
163399.195517,-1776.494261,-9548.656652,-1838.629195
163399.195837,-74.020594,-10584.944971,-766.095498
163399.196156,-2294.638420,-10066.800811,0.000000
163399.196475,-2442.679609,-10214.842000,-612.876398
163399.196794,-2368.659014,-8364.327145,0.000000
163399.197114,0.000000,-7179.997637,229.828649
163399.197433,0.000000,-4811.338623,0.000000
163399.197752,-1776.494261,-7179.997637,0.000000
163399.198071,-1406.391290,-8068.244768,-3677.258390
163399.198390,-74.020594,-11843.295072,-1608.800546
163399.198710,-2368.659014,-11621.233289,0.000000
163399.199029,-2442.679609,-10658.965565,-1532.190996
163399.199348,-1776.494261,-10807.006753,-766.095498
163399.199667,1184.329507,-10881.027347,612.876398
163399.199986,2442.679609,-8216.285956,2681.334243
163399.200306,3775.050304,-7698.141797,3294.210641
163399.200625,2294.638420,-5773.606348,-229.828649
163399.200944,1332.370696,-6587.832884,-3524.039291
163399.201263,1776.494261,-11769.274478,766.095498
163399.201583,-74.020594,-12731.542202,-76.609550
163399.201902,-3775.050304,-10288.862594,-842.705048
163399.202221,-2220.617826,-11029.068536,-1455.581446
163399.202540,666.185348,-10066.800811,919.314598
163399.202859,1628.453072,-7920.203579,3600.648841
163399.203179,444.123565,-5699.585753,1532.190996
163399.203498,-74.020594,-6513.812290,-1608.800546
163399.203817,-74.020594,-9474.636058,-689.485948
163399.204136,-2442.679609,-9474.636058,-2834.553343
163399.204456,-4145.153275,-9548.656652,-2451.505594
163399.204775,-74.020594,-11843.295072,-1302.362347
163399.205094,-666.185348,-11473.192101,-612.876398
163399.205413,1850.514855,-10066.800811,919.314598
163399.205732,1850.514855,-8068.244768,1532.190996
163399.206052,1480.411884,-8364.327145,1838.629195
163399.206371,296.082377,-8956.491898,-2451.505594
163399.206690,0.000000,-9844.739029,-1838.629195
163399.207009,1184.329507,-11843.295072,919.314598
163399.207328,-1258.350101,-10658.965565,-76.609550
163399.207648,-2590.720797,-8364.327145,-2298.286494
163399.207967,2590.720797,-10066.800811,1149.143247
163399.208286,3404.947333,-7476.080014,3524.039291
163399.208605,1924.535449,-6069.688724,2528.115143
163399.208925,-370.102971,-6439.791695,459.657299
163399.209244,-1184.329507,-8364.327145,-612.876398
163399.209563,-4441.235652,-7920.203579,-3064.381992
163399.209882,-4145.153275,-10732.986159,-1225.752797
163399.210201,-3478.967927,-11103.089130,-612.876398
163399.210521,-1850.514855,-11399.171507,-1455.581446
163399.210840,0.000000,-8956.491898,612.876398
163399.211159,592.164754,-7179.997637,1225.752797
163399.211478,666.185348,-7031.956449,919.314598
163399.211798,444.123565,-7624.121203,-1302.362347
163399.212117,740.205942,-9548.656652,-3677.258390
163399.212436,-148.041188,-11473.192101,-3064.381992
163399.212755,-3552.988522,-11621.233289,-1225.752797
163399.213074,-3034.844362,-11843.295072,-1532.190996
163399.213394,-74.020594,-12435.459826,-383.047749
163399.213713,2294.638420,-11843.295072,-76.609550
163399.214032,1184.329507,-7179.997637,2451.505594
163399.214351,592.164754,-5847.626942,689.485948
163399.214670,0.000000,-6735.874072,-1378.971896
163399.214990,-740.205942,-9400.615463,-1762.019645
163399.215309,-1850.514855,-8364.327145,-2298.286494
163399.215628,-2664.741391,-9326.594869,-1225.752797
163399.215947,-2368.659014,-8364.327145,-2451.505594
163399.216267,0.000000,-10140.821405,919.314598
163399.216586,4071.132681,-10658.965565,3294.210641
163399.216905,4663.297435,-9474.636058,4213.525239
163399.217224,0.000000,-6883.915261,0.000000
163399.217543,-444.123565,-8882.471304,-2374.896044
163399.217863,370.102971,-10732.986159,-1149.143247
163399.218182,-1406.391290,-10658.965565,-459.657299
163399.218501,-5625.565159,-8364.327145,-2451.505594
163399.218820,-3775.050304,-9474.636058,-2528.115143
163399.219140,-2368.659014,-8364.327145,0.000000
163399.219459,1184.329507,-7772.162391,2451.505594
163399.219778,0.000000,-5995.668130,2145.067394
163399.220097,-2368.659014,-7476.080014,153.219100
163399.220416,-666.185348,-8142.265362,-1991.848295
163399.220736,0.000000,-9474.636058,-842.705048
163399.221055,-1628.453072,-10584.944971,0.000000
163399.221374,-3849.070898,-9548.656652,-3064.381992
163399.221693,0.000000,-10732.986159,-1762.019645
163399.222012,3404.947333,-11843.295072,1838.629195
163399.222332,3627.009116,-9178.553681,3600.648841
163399.222651,1110.308913,-6513.812290,-1302.362347
163399.222970,592.164754,-7179.997637,0.000000
163399.223289,0.000000,-8956.491898,-2451.505594
163399.223609,740.205942,-11621.233289,0.000000
163399.223928,-1850.514855,-10955.047942,76.609550
163399.224247,-2072.576638,-10436.903782,-383.047749
163399.224566,2294.638420,-9474.636058,-76.609550
163399.224885,2516.700203,-8364.327145,3064.381992
163399.225205,1924.535449,-5699.585753,2298.286494
163399.225524,-444.123565,-5329.482782,0.000000
163399.225843,-1998.556043,-7105.977043,-1302.362347
163399.226162,-2072.576638,-10140.821405,-306.438199
163399.226482,-4737.318029,-9844.739029,0.000000
163399.226801,-2812.782580,-11843.295072,-76.609550
163399.227120,-2738.761985,-10436.903782,-2068.457845
163399.227439,0.000000,-9844.739029,0.000000
163399.227758,2294.638420,-8882.471304,-76.609550
163399.228078,1480.411884,-7179.997637,1378.971896
163399.228397,148.041188,-7328.038826,-1225.752797
163399.228716,888.247130,-8364.327145,-2374.896044
163399.229035,1702.473667,-11991.336260,-919.314598
