#time,accel_x,accel_y,accel_z
59438.525061,-2960.823768,-5995.668130,0.000000
59438.525371,-74.020594,-9474.636058,842.705048
59438.525681,-666.185348,-8956.491898,383.047749
59438.525990,-296.082377,-9104.533087,1149.143247
59438.526300,-370.102971,-9104.533087,995.924147
59438.526609,0.000000,-8364.327145,0.000000
59438.526919,-1184.329507,-8068.244768,0.000000
59438.527229,296.082377,-10140.821405,2145.067394
59438.527538,-370.102971,-8586.388927,229.828649
59438.527848,222.061783,-11843.295072,2681.334243
59438.528158,-74.020594,-8290.306550,-1302.362347
59438.528467,-74.020594,-9474.636058,1455.581446
59438.528777,-444.123565,-9178.553681,766.095498
59438.529086,-148.041188,-9326.594869,1072.533697
59438.529396,-148.041188,-9178.553681,995.924147
59438.529706,-2368.659014,-7179.997637,0.000000
59438.530015,-2368.659014,-6735.874072,0.000000
59438.530325,0.000000,-9548.656652,1838.629195
59438.530635,-74.020594,-9474.636058,1149.143247
59438.530944,0.000000,-9548.656652,2451.505594
59438.531254,-74.020594,-9474.636058,-76.609550
59438.531564,0.000000,-9474.636058,1225.752797
59438.531873,-74.020594,-9178.553681,842.705048
59438.532183,-148.041188,-9030.512492,1072.533697
59438.532492,-666.185348,-8956.491898,766.095498
59438.532802,-1998.556043,-7550.100608,-689.485948
59438.533112,-370.102971,-7846.182985,-383.047749
59438.533421,0.000000,-8660.409521,1225.752797
59438.533731,-74.020594,-9474.636058,842.705048
59438.534041,0.000000,-9844.739029,2757.943793
59438.534350,2294.638420,-11251.130318,-76.609550
59438.534660,0.000000,-9252.574275,919.314598
59438.534969,-74.020594,-9178.553681,689.485948
59438.535279,-666.185348,-8882.471304,383.047749
59438.535589,-148.041188,-8882.471304,689.485948
59438.535898,-74.020594,-8290.306550,1149.143247
59438.536208,-74.020594,-9474.636058,-76.609550
59438.536518,-1776.494261,-8364.327145,0.000000
59438.536827,1110.308913,-9474.636058,1762.019645
59438.537137,-3552.988522,-5995.668130,0.000000
59438.537447,1036.288319,-11547.212695,3370.820191
59438.537756,-1184.329507,-8808.450710,689.485948
59438.538066,-148.041188,-9474.636058,1072.533697
59438.538375,-296.082377,-9030.512492,919.314598
59438.538685,-74.020594,-9400.615463,995.924147
59438.538995,2294.638420,-10658.965565,1149.143247
59438.539304,1998.556043,-11251.130318,2374.896044
59438.539614,-1850.514855,-7476.080014,0.000000
59438.539924,0.000000,-9548.656652,3294.210641
59438.540233,-1554.432478,-7402.059420,-689.485948
59438.540543,-2368.659014,-8364.327145,2451.505594
59438.540852,-1184.329507,-8364.327145,0.000000
59438.541162,-740.205942,-8956.491898,612.876398
59438.541472,-296.082377,-9326.594869,536.266849
59438.541781,0.000000,-9252.574275,689.485948
59438.542091,1110.308913,-10658.965565,2451.505594
59438.542401,740.205942,-10436.903782,2528.115143
59438.542710,-74.020594,-8882.471304,-76.609550
59438.543020,0.000000,-8364.327145,1225.752797
59438.543329,-74.020594,-9474.636058,-76.609550
59438.543639,-2368.659014,-7179.997637,0.000000
59438.543949,-370.102971,-8882.471304,536.266849
59438.544258,-518.144159,-8660.409521,766.095498
59438.544568,-74.020594,-9104.533087,1072.533697
59438.544878,-222.061783,-9104.533087,842.705048
59438.545187,0.000000,-8660.409521,1225.752797
59438.545497,-1776.494261,-8364.327145,0.000000
59438.545807,1702.473667,-10658.965565,2374.896044
59438.546116,-1406.391290,-7698.141797,0.000000
59438.546426,1184.329507,-10584.944971,2834.553343
59438.546735,-2072.576638,-7179.997637,0.000000
59438.547045,-74.020594,-9474.636058,1149.143247
59438.547355,-444.123565,-9030.512492,536.266849
59438.547664,-222.061783,-9030.512492,919.314598
59438.547974,-148.041188,-9252.574275,766.095498
59438.548284,0.000000,-7772.162391,459.657299
59438.548593,0.000000,-7179.997637,0.000000
59438.548903,1184.329507,-9548.656652,2068.457845
59438.549212,1702.473667,-8068.244768,0.000000
59438.549522,2738.761985,-10510.924376,2681.334243
59438.549832,1702.473667,-7698.141797,-689.485948
59438.550141,1554.432478,-8956.491898,919.314598
59438.550451,1776.494261,-9104.533087,842.705048
59438.550761,2368.659014,-9326.594869,842.705048
59438.551070,2886.803174,-9030.512492,1302.362347
59438.551380,1480.411884,-8512.368333,842.705048
59438.551690,888.247130,-7476.080014,-1072.533697
59438.551999,2368.659014,-9548.656652,766.095498
59438.552309,3478.967927,-8956.491898,-2145.067394
59438.552618,5847.626942,-10658.965565,1762.019645
59438.552928,5847.626942,-8882.471304,1149.143247
59438.553238,4737.318029,-8956.491898,1608.800546
59438.553547,5847.626942,-9030.512492,1455.581446
59438.553857,6069.688724,-8882.471304,1762.019645
59438.554167,5699.585753,-8586.388927,1225.752797
59438.554476,7031.956449,-9474.636058,2374.896044
59438.554786,7031.956449,-8882.471304,-76.609550
59438.555095,4737.318029,-7772.162391,0.000000
59438.555405,7476.080014,-11843.295072,-76.609550
59438.555715,3552.988522,-7179.997637,-1838.629195
59438.556024,8216.285956,-12435.459826,-76.609550
59438.556334,4219.173869,-11399.171507,0.000000
59438.556644,3627.009116,-12731.542202,76.609550
59438.556953,2072.576638,-12583.501014,76.609550
59438.557263,2664.741391,-11325.150913,306.438199
59438.557573,4071.132681,-9474.636058,2221.676944
59438.557882,4663.297435,-8882.471304,2374.896044
59438.558192,2368.659014,-4219.173869,842.705048
59438.558501,7105.977043,-5921.647536,4213.525239
59438.558811,5329.482782,-2442.679609,1532.190996
59438.559121,9844.739029,-6513.812290,4826.401637
59438.559430,7624.121203,-6069.688724,1378.971896
59438.559740,5995.668130,-9178.553681,229.828649
59438.560050,1406.391290,-14878.139434,-1302.362347
59438.560359,-1998.556043,-16950.716072,-3217.601092
59438.560669,-2590.720797,-18727.210333,-2451.505594
59438.560978,-2442.679609,-13915.871710,-2068.457845
59438.561288,-2442.679609,-10066.800811,-2221.676944
59438.561598,-2368.659014,-5995.668130,1225.752797
59438.561907,3478.967927,-5625.565159,2374.896044
59438.562217,4737.318029,-5403.503377,6435.202183
59438.562527,5255.462188,-4589.276840,5439.278036
59438.562836,2516.700203,-4515.256246,4519.963438
59438.563146,2072.576638,-4071.132681,3600.648841
59438.563455,2368.659014,-4293.194464,2911.162892
59438.563765,2368.659014,-4811.338623,612.876398
59438.564075,1184.329507,-7179.997637,0.000000
59438.564384,-74.020594,-14211.954086,-1302.362347
59438.564694,-7105.977043,-15470.304188,-5822.325785
59438.565004,-6513.812290,-21984.116477,-2451.505594
59438.565313,-6291.750507,-17246.798449,-3370.820191
59438.565623,-3627.009116,-11843.295072,-2834.553343
59438.565933,0.000000,-6809.894666,229.828649
59438.566242,3182.885551,-4737.318029,3370.820191
59438.566552,3775.050304,-3923.091493,5056.230287
59438.566861,3552.988522,-3627.009116,4290.134789
59438.567171,5329.482782,-2442.679609,5515.887586
59438.567481,9622.677246,-4071.132681,8503.660028
59438.567790,6439.791695,-1332.370696,3600.648841
59438.568100,5181.441594,-6809.894666,3294.210641
59438.568410,-1184.329507,-9548.656652,-1838.629195
59438.568719,-2738.761985,-16062.468941,-3753.867940
59438.569029,-4293.194464,-17912.983796,-4673.182538
59438.569338,-3923.091493,-16654.633695,-5209.449386
59438.569648,-4367.215058,-15322.262999,-3907.087040
59438.569958,-3849.070898,-11547.212695,-3140.991542
59438.570267,0.000000,-7179.997637,-1532.190996
59438.570577,8882.471304,-5403.503377,6435.202183
59438.570887,12953.603985,666.185348,5745.716235
59438.571196,14804.118840,-1258.350101,9806.022374
59438.571506,12657.521608,-3849.070898,6435.202183
59438.571816,9992.780217,-7476.080014,5515.887586
59438.572125,5847.626942,-9326.594869,1685.410096
59438.572435,740.205942,-11621.233289,-1685.410096
59438.572744,-2738.761985,-14434.015869,-3064.381992
59438.573054,-4515.256246,-17764.942608,-3753.867940
59438.573364,-74.020594,-14804.118840,-4519.963438
59438.573673,1776.494261,-11029.068536,-4903.011187
59438.573983,3552.988522,-11917.315666,1838.629195
59438.574293,4071.132681,-10362.883188,-76.609550
59438.574602,6143.709319,-7105.977043,842.705048
59438.574912,8142.265362,-3330.926739,4903.011187
59438.575221,8216.285956,-1702.473667,4366.744339
59438.575531,4959.379811,-4071.132681,2681.334243
59438.575841,5773.606348,-6291.750507,2374.896044
59438.576150,8808.450710,-10066.800811,3294.210641
59438.576460,5847.626942,-10658.965565,1762.019645
59438.576770,-2146.597232,-11325.150913,-4136.915689
59438.577079,-2960.823768,-14434.015869,-2451.505594
59438.577389,-1258.350101,-14211.954086,-3140.991542
59438.577699,-666.185348,-10362.883188,-1915.238745
59438.578008,0.000000,-7846.182985,-612.876398
59438.578318,5403.503377,-7105.977043,2681.334243
59438.578627,8734.430116,-4145.153275,3217.601092
59438.578937,6291.750507,-6513.812290,4903.011187
59438.579247,4663.297435,-7920.203579,4826.401637
59438.579556,2738.761985,-7698.141797,2221.676944
59438.579866,2294.638420,-5921.647536,-689.485948
59438.580176,0.000000,-9548.656652,612.876398
59438.580485,2886.803174,-12435.459826,1149.143247
59438.580795,1110.308913,-13619.789333,-76.609550
59438.581104,-1258.350101,-13545.768739,-2374.896044
59438.581414,-3034.844362,-14359.995275,-2681.334243
59438.581724,-2516.700203,-11917.315666,-919.314598
59438.582033,370.102971,-8734.430116,0.000000
59438.582343,4145.153275,-6587.832884,3064.381992
59438.582653,7105.977043,-8068.244768,5439.278036
59438.582962,5847.626942,-7105.977043,4826.401637
59438.583272,0.000000,-5403.503377,2451.505594
59438.583581,1702.473667,-9474.636058,2374.896044
59438.583891,-1184.329507,-10066.800811,3600.648841
59438.584201,-1332.370696,-10362.883188,1608.800546
59438.584510,-4589.276840,-10066.800811,229.828649
59438.584820,-6957.935855,-11547.212695,-1915.238745
59438.585130,-7179.997637,-10732.986159,-3983.696590
59438.585439,-8142.265362,-10140.821405,-3677.258390
59438.585749,-4737.318029,-7179.997637,0.000000
59438.586059,-1258.350101,-9474.636058,3600.648841
59438.586368,0.000000,-5107.421000,1532.190996
59438.586678,4589.276840,-8586.388927,6052.154434
59438.586987,740.205942,-7328.038826,4290.134789
59438.587297,-814.226536,-8808.450710,1838.629195
59438.587607,-2516.700203,-9474.636058,919.314598
59438.587916,-1036.288319,-10436.903782,766.095498
59438.588226,-1998.556043,-9918.759623,536.266849
59438.588536,-6217.729913,-8660.409521,-2068.457845
59438.588845,-7105.977043,-10288.862594,-1532.190996
59438.589155,-5921.647536,-9548.656652,0.000000
59438.589464,-2442.679609,-9474.636058,-76.609550
59438.589774,-5329.482782,-5995.668130,1915.238745
59438.590084,-1036.288319,-4811.338623,1532.190996
59438.590393,3182.885551,-6143.709319,3600.648841
59438.590703,3701.029710,-6291.750507,4060.306139
59438.591013,1554.432478,-7328.038826,2987.772442
59438.591322,-962.267725,-9474.636058,1149.143247
59438.591632,-1554.432478,-10066.800811,-1302.362347
59438.591942,-2368.659014,-10140.821405,-1685.410096
59438.592251,-74.020594,-14804.118840,2374.896044
59438.592561,-3627.009116,-11843.295072,-2221.676944
59438.592870,-5921.647536,-11325.150913,-1838.629195
59438.593180,-3256.906145,-9548.656652,-1838.629195
59438.593490,-444.123565,-8660.409521,1225.752797
59438.593799,666.185348,-5773.606348,2068.457845
59438.594109,4515.256246,-5107.421000,3830.477490
59438.594419,7550.100608,-5921.647536,5745.716235
59438.594728,7031.956449,-6217.729913,4826.401637
59438.595038,2220.617826,-5995.668130,153.219100
59438.595347,0.000000,-11325.150913,1225.752797
59438.595657,-74.020594,-14211.954086,-689.485948
59438.595967,0.000000,-11917.315666,-2451.505594
59438.596276,-1998.556043,-11917.315666,-2987.772442
59438.596586,-3552.988522,-12879.583391,-2604.724693
59438.596896,-3108.864956,-12879.583391,-1915.238745
59438.597205,-592.164754,-10658.965565,-995.924147
59438.597515,1110.308913,-10362.883188,2068.457845
59438.597824,3182.885551,-7105.977043,3600.648841
59438.598134,4663.297435,-5921.647536,3600.648841
59438.598444,7105.977043,-1258.350101,5515.887586
59438.598753,9400.615463,-7105.977043,7277.907231
59438.599063,6439.791695,-4145.153275,2451.505594
59438.599372,0.000000,-9474.636058,1072.533697
59438.599682,1998.556043,-11843.295072,-76.609550
59438.599992,-3034.844362,-12953.603985,-3064.381992
59438.600301,-5921.647536,-14508.036463,-3370.820191
59438.600611,-7476.080014,-16284.530724,-3140.991542
59438.600921,-4811.338623,-13619.789333,-2528.115143
59438.601230,-4071.132681,-9548.656652,-3064.381992
59438.601540,-4737.318029,-5995.668130,0.000000
59438.601849,3478.967927,-5921.647536,4826.401637
59438.602159,3775.050304,-2442.679609,3064.381992
59438.602469,5551.544565,-814.226536,4443.353888
59438.602778,4737.318029,-4811.338623,5669.106685
59438.603088,1702.473667,-5551.544565,2528.115143
59438.603397,-888.247130,-9326.594869,383.047749
59438.603707,-74.020594,-13619.789333,1762.019645
59438.604017,-666.185348,-16580.613101,-76.609550
59438.604326,-5403.503377,-14804.118840,-2528.115143
59438.604636,-11843.295072,-12509.480420,-4903.011187
59438.604945,-7550.100608,-15174.221811,-1838.629195
59438.605255,-4219.173869,-11325.150913,-2987.772442
59438.605565,-3034.844362,-7105.977043,1149.143247
59438.605874,592.164754,-3034.844362,4290.134789
59438.606184,5995.668130,-1702.473667,6741.640382
59438.606494,7402.059420,-518.144159,7354.516781
59438.606803,5921.647536,-3034.844362,6435.202183
59438.607113,1702.473667,-7624.121203,4826.401637
59438.607422,-1258.350101,-11251.130318,-76.609550
59438.607732,-4737.318029,-9548.656652,-3677.258390
59438.608042,-2442.679609,-17172.777854,-1608.800546
59438.608351,-8956.491898,-14285.974681,-7431.126331
59438.608661,-9548.656652,-17764.942608,-5592.497135
59438.608970,-8808.450710,-15914.427753,-4213.525239
59438.609280,-4737.318029,-11473.192101,-1532.190996
59438.609590,-2072.576638,-8068.244768,1302.362347
59438.609899,2368.659014,-3034.844362,4903.011187
59438.610209,9474.636058,-1850.514855,10418.898773
59438.610518,12361.439231,-2220.617826,9729.412825
59438.610828,4811.338623,2294.638420,3830.477490
59438.611138,4737.318029,-5921.647536,4366.744339
59438.611447,1110.308913,-9474.636058,-76.609550
59438.611757,1702.473667,-13619.789333,-383.047749
59438.612067,-3775.050304,-16136.489536,-3370.820191
59438.612376,-7698.141797,-15840.407159,-6511.811733
59438.612686,-9548.656652,-17468.860231,-6511.811733
59438.612995,-9178.553681,-15470.304188,-7354.516781
59438.613305,-4737.318029,-11917.315666,0.000000
59438.613615,-1110.308913,-9252.574275,2451.505594
59438.613924,6439.791695,-5921.647536,4213.525239
59438.614234,9474.636058,-74.020594,7354.516781
59438.614543,13989.892304,-2072.576638,12180.918418
59438.614853,10584.944971,-1628.453072,8810.098227
59438.615163,4589.276840,-3256.906145,3217.601092
59438.615472,1998.556043,-8808.450710,995.924147
59438.615782,814.226536,-12435.459826,-995.924147
59438.616092,-6217.729913,-13693.809927,-7048.078582
59438.616401,-11843.295072,-14878.139434,-9193.145976
59438.616711,-9474.636058,-17838.963202,-6128.763984
59438.617020,-4811.338623,-16580.613101,-4979.620737
59438.617330,-4737.318029,-10732.986159,-1838.629195
59438.617640,-74.020594,-9474.636058,2374.896044
59438.617949,4737.318029,-3627.009116,5209.449386
59438.618259,11251.130318,-370.102971,9806.022374
59438.618568,11991.336260,0.000000,10801.946522
59438.618878,8734.430116,-222.061783,7584.345430
59438.619188,4071.132681,-2960.823768,2374.896044
59438.619497,0.000000,-7179.997637,0.000000
59438.619807,-1776.494261,-11917.315666,0.000000
59438.620116,-3701.029710,-18579.169144,-2528.115143
59438.620426,-11325.150913,-19541.436869,-7431.126331
59438.620736,-12139.377449,-19023.292709,-6741.640382
59438.621045,-10658.965565,-17246.798449,-5975.544884
59438.621355,-5773.606348,-13915.871710,-766.095498
59438.621665,-1998.556043,-7994.224174,2298.286494
59438.621974,4663.297435,-3256.906145,6128.763984
59438.622284,11769.274478,1184.329507,9729.412825
59438.622593,11769.274478,4145.153275,9729.412825
59438.622903,5921.647536,4071.132681,4903.011187
59438.623213,3404.947333,-4219.173869,5286.058936
59438.623522,0.000000,-7772.162391,0.000000
59438.623832,-592.164754,-13767.830521,1225.752797
59438.624141,-10066.800811,-16062.468941,-6435.202183
59438.624451,-13323.706956,-17987.004391,-8427.050478
59438.624761,-12287.418637,-17987.004391,-9116.536426
59438.625070,-9770.718434,-15470.304188,-6128.763984
59438.625380,-4959.379811,-14211.954086,-76.609550
59438.625689,-74.020594,-8290.306550,2374.896044
59438.625999,6365.771101,-2072.576638,5439.278036
59438.626309,13027.624579,370.102971,12563.966167
59438.626618,10584.944971,2368.659014,10648.727422
59438.626928,4737.318029,2294.638420,7354.516781
59438.627238,2220.617826,-148.041188,1915.238745
59438.627547,1628.453072,-7772.162391,1608.800546
59438.627857,-2220.617826,-12583.501014,-1608.800546
59438.628166,-9252.574275,-18061.024985,-5669.106685
59438.628476,-11917.315666,-21910.095883,-7277.907231
59438.628786,-9548.656652,-21317.931130,-8656.879127
59438.629095,-10732.986159,-18357.107362,-7431.126331
59438.629405,-9474.636058,-12509.480420,-3370.820191
59438.629714,2294.638420,-9474.636058,2374.896044
59438.630024,7105.977043,-74.020594,4903.011187
59438.630334,14878.139434,3108.864956,12180.918418
59438.630643,12879.583391,1554.432478,12487.356617
59438.630953,8364.327145,1184.329507,8120.612279
59438.631262,5625.565159,-1776.494261,3370.820191
59438.631572,3849.070898,-8364.327145,3064.381992
59438.631882,-666.185348,-13841.851115,-76.609550
59438.632191,-8364.327145,-18949.272115,-6205.373534
59438.632501,-13027.624579,-16654.633695,-11031.775171
59438.632811,-9918.759623,-20947.828159,-8197.221829
59438.633120,-11029.068536,-16432.571912,-7431.126331
59438.633430,-6291.750507,-14211.954086,-3140.991542
59438.633739,592.164754,-8660.409521,1455.581446
59438.634049,9992.780217,-1554.432478,7124.688131
59438.634359,13545.768739,1184.329507,12257.527968
59438.634668,11843.295072,4663.297435,11031.775171
59438.634978,9474.636058,-666.185348,9039.926876
59438.635287,7920.203579,-4145.153275,4826.401637
59438.635597,592.164754,-5995.668130,0.000000
59438.635907,-666.185348,-14211.954086,1149.143247
59438.636216,-5995.668130,-16136.489536,-6818.249932
59438.636526,-9548.656652,-21169.889941,-8656.879127
59438.636836,-11917.315666,-19541.436869,-10189.070123
59438.637145,-13101.645173,-21762.054695,-6818.249932
59438.637455,-9104.533087,-16284.530724,-2451.505594
59438.637764,0.000000,-7179.997637,1225.752797
59438.638074,9474.636058,-1258.350101,9806.022374
59438.638384,17542.880825,0.000000,16471.053207
59438.638693,12361.439231,6439.791695,10955.165621
59438.639003,9474.636058,2294.638420,9806.022374
59438.639312,7031.956449,0.000000,3600.648841
59438.639622,2294.638420,-7105.977043,1378.971896
59438.639932,-3404.947333,-13027.624579,-1915.238745
59438.640241,-9252.574275,-18061.024985,-7354.516781
59438.640551,-13249.686362,-20355.663405,-11261.603821
59438.640860,-16284.530724,-19023.292709,-12870.404366
59438.641170,-16580.613101,-17246.798449,-8580.269578
59438.641480,-6809.894666,-13101.645173,-2451.505594
59438.641789,5847.626942,-8290.306550,3294.210641
59438.642099,9474.636058,-1850.514855,8580.269578
59438.642409,13989.892304,-2368.659014,17083.929605
59438.642718,11103.089130,3775.050304,12257.527968
59438.643028,8142.265362,1554.432478,7507.735880
59438.643337,4737.318029,-2442.679609,4596.572988
59438.643647,2442.679609,-5625.565159,2528.115143
59438.643957,-2442.679609,-10066.800811,-3447.429741
59438.644266,-11547.212695,-14582.057057,-8427.050478
59438.644576,-17764.942608,-19023.292709,-12257.527968
59438.644885,-14656.077652,-23242.466579,-10112.460574
59438.645195,-13693.809927,-21762.054695,-6205.373534
59438.645505,-6513.812290,-15766.386565,-995.924147
59438.645814,2368.659014,-7772.162391,2451.505594
59438.646124,11325.150913,-3849.070898,10342.289223
59438.646433,13101.645173,370.102971,13483.280765
59438.646743,10066.800811,2294.638420,10265.679673
59438.647053,9400.615463,-3552.988522,7277.907231
59438.647362,5847.626942,-3701.029710,4519.963438
59438.647672,0.000000,-7179.997637,612.876398
59438.647982,-2442.679609,-16580.613101,-76.609550
59438.648291,-9548.656652,-20133.601622,-6818.249932
59438.648601,-14211.954086,-21984.116477,-9806.022374
59438.648910,-16284.530724,-22576.281231,-11031.775171
59438.649220,-14952.160028,-21021.848753,-6741.640382
59438.649530,-5773.606348,-13619.789333,-2451.505594
59438.649839,6735.874072,-4293.194464,3064.381992
59438.650149,13545.768739,-4737.318029,12180.918418
59438.650458,14137.933492,2368.659014,12180.918418
59438.650768,7920.203579,1184.329507,9116.536426
59438.651078,10955.047942,0.000000,8886.707777
59438.651387,5551.544565,-2368.659014,3524.039291
59438.651697,592.164754,-5995.668130,2451.505594
59438.652006,-2368.659014,-11769.274478,-3217.601092
59438.652316,-9696.697840,-18505.148550,-6894.859482
59438.652626,-12139.377449,-20799.786970,-11721.261119
59438.652935,-14730.098246,-20429.683999,-12027.699319
59438.653245,-13101.645173,-22502.260637,-4979.620737
59438.653555,-1258.350101,-13027.624579,-76.609550
59438.653864,7031.956449,-8290.306550,4826.401637
59438.654174,9474.636058,-1850.514855,9806.022374
59438.654483,12953.603985,-4441.235652,14632.424012
59438.654793,7698.141797,1702.473667,11031.775171
59438.655103,12361.439231,592.164754,7277.907231
59438.655412,7402.059420,-4219.173869,6128.763984
59438.655722,222.061783,-7772.162391,766.095498
59438.656031,-4367.215058,-14434.015869,-2145.067394
59438.656341,-7698.141797,-20799.786970,-4136.915689
59438.656651,-11917.315666,-22502.260637,-10878.556072
59438.656960,-14285.974681,-22502.260637,-10495.508323
59438.657270,-13841.851115,-18431.127956,-8656.879127
59438.657580,-2368.659014,-11917.315666,766.095498
59438.657889,5847.626942,-6735.874072,3830.477490
59438.658199,8808.450710,-8216.285956,11568.042020
59438.658508,9474.636058,-3775.050304,12410.747068
59438.658818,8660.409521,-518.144159,10648.727422
59438.659128,9696.697840,0.000000,8503.660028
59438.659437,5921.647536,-370.102971,6128.763984
59438.659747,592.164754,-6883.915261,1225.752797
59438.660056,-2442.679609,-14211.954086,-1302.362347
59438.660366,-9844.739029,-17616.901420,-7354.516781
59438.660676,-15100.201217,-21391.951724,-13483.280765
59438.660985,-16654.633695,-21169.889941,-11108.384721
59438.661295,-14878.139434,-22502.260637,-6818.249932
59438.661604,-2590.720797,-11177.109724,-1378.971896
59438.661914,4737.318029,-8882.471304,3447.429741
59438.662224,5921.647536,-4663.297435,10418.898773
59438.662533,9474.636058,2294.638420,9806.022374
59438.662843,9474.636058,-74.020594,9806.022374
59438.663153,13619.789333,518.144159,12410.747068
59438.663462,8808.450710,592.164754,5439.278036
59438.663772,-592.164754,-6291.750507,3064.381992
59438.664081,-2442.679609,-9474.636058,-8656.879127
59438.664391,-10510.924376,-20133.601622,-7967.393179
59438.664701,-13767.830521,-22650.301825,-10189.070123
59438.665010,-17912.983796,-24870.919651,-9729.412825
59438.665320,-15544.324782,-17764.942608,-7660.954980
59438.665629,-5921.647536,-7772.162391,-4903.011187
59438.665939,2368.659014,-4811.338623,1838.629195
59438.666249,8586.388927,-5921.647536,10878.556072
59438.666558,6735.874072,1332.370696,9193.145976
59438.666868,11991.336260,740.205942,11338.213370
59438.667177,14137.933492,592.164754,9729.412825
59438.667487,8290.306550,-370.102971,6588.421283
59438.667797,962.267725,-7846.182985,2221.676944
59438.668106,-2960.823768,-11621.233289,-3217.601092
59438.668416,-9622.677246,-19615.457463,-7431.126331
59438.668726,-16210.510130,-20577.725188,-12947.013916
59438.669035,-17098.757260,-19541.436869,-13559.890315
59438.669345,-17172.777854,-19023.292709,-8580.269578
59438.669654,296.082377,-9918.759623,-2451.505594
59438.669964,6143.709319,-2368.659014,-76.609550
59438.670274,6809.894666,-7698.141797,13253.452115
59438.670583,11991.336260,962.267725,12257.527968
59438.670893,14730.098246,1036.288319,13713.109414
59438.671202,17024.736666,3775.050304,10725.336972
59438.671512,8734.430116,-814.226536,7048.078582
59438.671822,-74.020594,-6217.729913,2374.896044
59438.672131,-3627.009116,-10658.965565,-4979.620737
59438.672441,-11843.295072,-17246.798449,-9806.022374
59438.672750,-16284.530724,-21762.054695,-11951.089769
59438.673060,-16654.633695,-23686.590144,-10495.508323
59438.673370,-13915.871710,-20799.786970,-6128.763984
59438.673679,1184.329507,-7772.162391,-4596.572988
59438.673989,3108.864956,-5773.606348,3830.477490
59438.674299,6883.915261,-1332.370696,8120.612279
59438.674608,10066.800811,-740.205942,10648.727422
59438.674918,15914.427753,0.000000,14632.424012
59438.675227,16506.592507,1184.329507,13406.671215
59438.675537,8808.450710,0.000000,7584.345430
59438.675847,0.000000,-4811.338623,2757.943793
59438.676156,-4811.338623,-13027.624579,-2528.115143
59438.676466,-8882.471304,-19023.292709,-7048.078582
59438.676775,-14804.118840,-19837.519246,-12487.356617
59438.677085,-18579.169144,-20873.807564,-11261.603821
59438.677395,-14137.933492,-16432.571912,-9422.974625
59438.677704,-1924.535449,-10584.944971,-2451.505594
59438.678014,6883.915261,-9474.636058,4826.401637
59438.678324,7031.956449,-8290.306550,9729.412825
59438.678633,8216.285956,-74.020594,7890.783629
59438.678943,14211.954086,-1850.514855,13789.718964
59438.679252,16506.592507,592.164754,13406.671215
59438.679562,5329.482782,-74.020594,6128.763984
59438.679872,-518.144159,-4737.318029,536.266849
59438.680181,-5033.400406,-9844.739029,-3524.039291
59438.680491,-8586.388927,-19097.313304,-6971.469032
59438.680800,-16136.489536,-20725.766376,-12180.918418
59438.681110,-15840.407159,-20799.786970,-10418.898773
59438.681420,-8734.430116,-15396.283594,-6205.373534
59438.681729,-74.020594,-7105.977043,-3753.867940
59438.682039,0.000000,-4811.338623,2451.505594
59438.682348,6439.791695,-4737.318029,9116.536426
59438.682658,7698.141797,-74.020594,9806.022374
59438.682968,14730.098246,-1184.329507,13406.671215
59438.683277,15544.324782,2146.597232,14709.033562
59438.683587,9252.574275,-814.226536,7277.907231
59438.683897,518.144159,-6439.791695,2374.896044
59438.684206,-2368.659014,-9548.656652,-4903.011187
59438.684516,-7698.141797,-17838.963202,-5515.887586
59438.684825,-16654.633695,-22502.260637,-12334.137518
59438.685135,-18949.272115,-19763.498651,-13253.452115
59438.685445,-13027.624579,-14285.974681,-7354.516781
59438.685754,-2738.761985,-9030.512492,-4903.011187
59438.686064,1702.473667,-9178.553681,3600.648841
59438.686373,5625.565159,-3627.009116,7354.516781
59438.686683,11843.295072,-4589.276840,12180.918418
59438.686993,16358.551318,-3256.906145,14785.643111
59438.687302,14804.118840,2294.638420,12257.527968
59438.687612,4737.318029,-2442.679609,7354.516781
59438.687921,3478.967927,-8290.306550,2374.896044
59438.688231,-4737.318029,-10436.903782,-4290.134789
59438.688541,-10140.821405,-23686.590144,-4979.620737
59438.688850,-16654.633695,-18949.272115,-13559.890315
59438.689160,-15988.448347,-19911.539840,-13023.623466
59438.689470,-10881.027347,-16580.613101,-7507.735880
59438.689779,-4885.359217,-12213.398043,-3140.991542
59438.690089,444.123565,-8882.471304,4749.792088
59438.690398,7254.018232,-1554.432478,7354.516781
59438.690708,9474.636058,-1258.350101,12257.527968
59438.691018,18283.086767,-3552.988522,16471.053207
59438.691327,15026.180623,3849.070898,10342.289223
59438.691637,5033.400406,-4811.338623,9806.022374
59438.691946,2294.638420,-7105.977043,1762.019645
59438.692256,-3552.988522,-11621.233289,-2757.943793
59438.692566,-10214.842000,-16802.674883,-7967.393179
59438.692875,-15766.386565,-21021.848753,-12180.918418
59438.693185,-16654.633695,-18875.251521,-12563.966167
59438.693494,-11029.068536,-15322.262999,-8350.440928
59438.693804,-7179.997637,-10140.821405,-4060.306139
59438.694114,592.164754,-4811.338623,1838.629195
59438.694423,8808.450710,-4737.318029,7890.783629
59438.694733,10658.965565,-2442.679609,12257.527968
59438.695043,20651.745782,-3552.988522,16471.053207
59438.695352,14211.954086,1702.473667,12870.404366
59438.695650,3256.906145,-2220.617826,5132.839837
59438.695960,888.247130,-5107.421000,0.000000
59438.696270,-3256.906145,-13323.706956,-3830.477490
59438.696580,-9844.739029,-18209.066173,-7431.126331
59438.696890,-15766.386565,-18357.107362,-13866.328514
59438.697199,-16580.613101,-15470.304188,-13483.280765
59438.697509,-10066.800811,-19023.292709,-6128.763984
59438.697819,-666.185348,-15988.448347,-1302.362347
59438.698129,1332.370696,-13989.892304,4519.963438
59438.698439,6513.812290,-8660.409521,8273.831378
59438.698749,17542.880825,-4663.297435,10572.117872
59438.699058,12435.459826,-4367.215058,14709.033562
59438.699368,14952.160028,-1480.411884,12487.356617
59438.699678,7624.121203,-4737.318029,4826.401637
59438.699988,-2294.638420,-7105.977043,229.828649
59438.700298,-4145.153275,-13323.706956,-2528.115143
59438.700607,-12213.398043,-17764.942608,-9882.631924
59438.700917,-18357.107362,-20207.622217,-13483.280765
59438.701227,-14804.118840,-19023.292709,-9806.022374
59438.701537,-12065.356855,-17468.860231,-6971.469032
59438.701847,-3849.070898,-11769.274478,-612.876398
59438.702156,2220.617826,-7624.121203,2604.724693
59438.702466,8438.347739,-2664.741391,10035.851024
59438.702776,15988.448347,0.000000,13483.280765
59438.703086,19541.436869,-740.205942,18692.730151
59438.703396,15322.262999,3552.988522,12180.918418
59438.703705,1406.391290,-74.020594,2451.505594
59438.704015,3552.988522,-4811.338623,306.438199
59438.704325,-5921.647536,-10732.986159,-4290.134789
59438.704635,-15026.180623,-15100.201217,-9882.631924
59438.704945,-16580.613101,-15988.448347,-14402.595362
59438.705254,-14434.015869,-14063.912898,-12640.575717
59438.705564,-13915.871710,-17690.922014,-7814.174080
59438.705874,-7105.977043,-14285.974681,-2451.505594
59438.706184,2960.823768,-7476.080014,4903.011187
59438.706494,14137.933492,-7698.141797,12793.794817
59438.706803,9474.636058,-4811.338623,12257.527968
59438.707113,18283.086767,0.000000,18309.682402
59438.707423,13323.706956,1850.514855,10572.117872
59438.707733,4589.276840,2664.741391,-8810.098227
59438.708043,-1110.308913,-5625.565159,-3140.991542
59438.708352,-2960.823768,-14508.036463,-1532.190996
59438.708662,-14137.933492,-18949.272115,-8733.488677
59438.708972,-20133.601622,-14878.139434,-15781.567259
59438.709282,-17764.942608,-19023.292709,-12257.527968
59438.709592,-10658.965565,-19319.375086,-5362.668486
59438.709901,-2146.597232,-11843.295072,-3140.991542
59438.710211,1184.329507,-9548.656652,4903.011187
59438.710521,12065.356855,-4293.194464,9806.022374
59438.710831,15618.345376,-4737.318029,16394.443657
59438.711141,16802.674883,592.164754,14019.547613
59438.711451,12953.603985,148.041188,12487.356617
59438.711760,5921.647536,-1480.411884,5209.449386
59438.712070,0.000000,-5107.421000,459.657299
59438.712380,-9474.636058,-10732.986159,-7354.516781
59438.712690,-11695.253884,-16876.695478,-8580.269578
59438.713000,-14878.139434,-18949.272115,-15398.519510
59438.713309,-17764.942608,-14878.139434,-13483.280765
59438.713619,-12509.480420,-17764.942608,-9193.145976
59438.713929,-3552.988522,-11917.315666,0.000000
59438.714239,1332.370696,-11325.150913,4903.011187
59438.714549,10807.006753,-6143.709319,11568.042020
59438.714858,14508.036463,-3701.029710,15858.176809
59438.715168,14730.098246,2368.659014,13713.109414
59438.715478,14211.954086,4663.297435,8350.440928
59438.715788,4737.318029,-74.020594,4903.011187
59438.716098,-666.185348,-4737.318029,-689.485948
59438.716407,-11843.295072,-8364.327145,-7354.516781
59438.716717,-10732.986159,-18949.272115,-9882.631924
59438.717027,-16432.571912,-19763.498651,-15704.957709
59438.717337,-17098.757260,-18949.272115,-10878.556072
59438.717647,-12361.439231,-16580.613101,-8350.440928
59438.717956,-3627.009116,-13249.686362,-76.609550
59438.718266,4367.215058,-6365.771101,3294.210641
59438.718576,9992.780217,-2960.823768,9422.974625
59438.718886,12435.459826,-1850.514855,14096.157163
59438.719196,16728.654289,962.267725,16700.881856
59438.719505,14137.933492,4737.318029,9116.536426
59438.719815,7031.956449,592.164754,4213.525239
59438.720125,-2664.741391,-3775.050304,612.876398
59438.720435,-7031.956449,-9104.533087,-4060.306139
59438.720745,-10658.965565,-14730.098246,-9193.145976
59438.721054,-14508.036463,-18283.086767,-13023.623466
59438.721364,-14285.974681,-18949.272115,-9882.631924
59438.721674,-12509.480420,-18357.107362,-6818.249932
59438.721984,-7105.977043,-12213.398043,-2145.067394
59438.722294,3552.988522,-12213.398043,5515.887586
59438.722603,11769.274478,-9474.636058,12180.918418
59438.722913,14137.933492,-1036.288319,13406.671215
59438.723223,13323.706956,2812.782580,11721.261119
59438.723533,13545.768739,2442.679609,10189.070123
59438.723843,5329.482782,1110.308913,2834.553343
59438.724153,-4663.297435,-4663.297435,306.438199
59438.724462,-7179.997637,-11547.212695,-3907.087040
59438.724772,-9548.656652,-17764.942608,-9882.631924
59438.725082,-16580.613101,-17246.798449,-14402.595362
59438.725392,-15396.283594,-20651.745782,-7507.735880
59438.725702,-10140.821405,-16580.613101,-5592.497135
59438.726011,-1036.288319,-10658.965565,-76.609550
59438.726321,5847.626942,-8512.368333,4826.401637
59438.726631,10955.047942,-4737.318029,11338.213370
59438.726941,13323.706956,-3997.112087,14172.766713
59438.727251,15766.386565,2590.720797,10418.898773
59438.727560,12583.501014,-2664.741391,10495.508323
59438.727870,4663.297435,-4441.235652,4826.401637
59438.728180,-2738.761985,-5551.544565,-995.924147
59438.728490,-5625.565159,-13915.871710,-2757.943793
59438.728800,-9548.656652,-13619.789333,-9882.631924
59438.729109,-12731.542202,-15248.242405,-11261.603821
59438.729419,-13545.768739,-17690.922014,-9576.193725
59438.729729,-10140.821405,-16728.654289,-4519.963438
59438.730039,-1850.514855,-12657.521608,153.219100
59438.730349,5847.626942,-8512.368333,3677.258390
59438.730658,12435.459826,-5107.421000,9806.022374
59438.730968,15396.283594,-7698.141797,17237.148705
59438.731278,15914.427753,0.000000,14019.547613
59438.731588,9474.636058,3478.967927,7354.516781
59438.731898,4145.153275,-5995.668130,5822.325785
59438.732207,-2368.659014,-7179.997637,-536.266849
59438.732517,-7179.997637,-13175.665768,-5056.230287
59438.732827,-12731.542202,-16654.633695,-10418.898773
59438.733137,-12953.603985,-16432.571912,-12257.527968
59438.733447,-13989.892304,-20059.581028,-8886.707777
59438.733756,-9474.636058,-15470.304188,-6128.763984
59438.734066,0.000000,-13101.645173,612.876398
59438.734376,6439.791695,-11251.130318,6052.154434
59438.734686,9474.636058,-2442.679609,8580.269578
59438.734996,14508.036463,-4515.256246,15858.176809
59438.735306,13545.768739,-74.020594,12870.404366
59438.735615,9696.697840,0.000000,7277.907231
59438.735925,1998.556043,-3182.885551,2221.676944
59438.736235,-4219.173869,-8290.306550,-1838.629195
59438.736545,-6513.812290,-12731.542202,-4979.620737
59438.736855,-10658.965565,-13693.809927,-11951.089769
59438.737164,-13027.624579,-14878.139434,-11031.775171
59438.737474,-11917.315666,-18949.272115,-6588.421283
59438.737784,-7179.997637,-15396.283594,-4979.620737
59438.738094,0.000000,-10140.821405,2451.505594
59438.738404,4737.318029,-4811.338623,4903.011187
59438.738713,11991.336260,-2368.659014,9576.193725
59438.739023,13323.706956,1406.391290,12947.013916
59438.739333,13693.809927,7772.162391,10648.727422
59438.739643,10362.883188,5329.482782,6971.469032
59438.739953,740.205942,3256.906145,1149.143247
59438.740262,-4737.318029,-3627.009116,-3370.820191
59438.740572,-7179.997637,-13619.789333,-4979.620737
59438.740882,-10140.821405,-13915.871710,-10495.508323
59438.741192,-13027.624579,-17838.963202,-8580.269578
59438.741502,-12287.418637,-14878.139434,-9039.926876
59438.741811,-5477.523971,-14730.098246,-3447.429741
59438.742121,518.144159,-11177.109724,842.705048
59438.742431,5551.544565,-7550.100608,6665.030833
59438.742741,11769.274478,-3552.988522,12027.699319
59438.743051,12065.356855,-1184.329507,13406.671215
59438.743360,11769.274478,4441.235652,10572.117872
59438.743670,6513.812290,2886.803174,4903.011187
59438.743980,-74.020594,-4737.318029,3600.648841
59438.744290,-6217.729913,-4811.338623,-6128.763984
59438.744600,-10140.821405,-12139.377449,-8273.831378
59438.744909,-10658.965565,-15174.221811,-9806.022374
59438.745219,-11103.089130,-14211.954086,-10648.727422
59438.745529,-11325.150913,-17987.004391,-6205.373534
59438.745839,-5033.400406,-16062.468941,-2451.505594
59438.746149,1110.308913,-16580.613101,4213.525239
59438.746458,5847.626942,-11177.109724,6511.811733
59438.746768,9474.636058,-2590.720797,7354.516781
59438.747078,15322.262999,-4589.276840,14019.547613
59438.747388,11769.274478,2886.803174,7584.345430
59438.747698,7031.956449,888.247130,5132.839837
59438.748008,-1776.494261,-1702.473667,766.095498
59438.748317,-5921.647536,-3478.967927,-4979.620737
59438.748627,-8290.306550,-12139.377449,-6971.469032
59438.748937,-10066.800811,-11917.315666,-9193.145976
59438.749247,-9548.656652,-16580.613101,-6818.249932
59438.749557,-9548.656652,-16580.613101,-5592.497135
59438.749866,-5329.482782,-11325.150913,-7048.078582
59438.750176,296.082377,-15914.427753,4903.011187
59438.750486,7031.956449,-8290.306550,6665.030833
59438.750796,12361.439231,-4145.153275,9729.412825
59438.751106,11843.295072,-592.164754,11261.603821
59438.751415,11251.130318,2516.700203,8733.488677
59438.751725,4515.256246,-4145.153275,5439.278036
59438.752035,-2368.659014,-2146.597232,0.000000
59438.752345,-5403.503377,-9548.656652,-3370.820191
59438.752655,-7179.997637,-13619.789333,-6818.249932
59438.752964,-7994.224174,-10732.986159,-12257.527968
59438.753274,-7179.997637,-18949.272115,-4060.306139
59438.753584,-8364.327145,-16580.613101,-4979.620737
59438.753894,-2442.679609,-15396.283594,-1455.581446
59438.754204,-370.102971,-15396.283594,2987.772442
59438.754513,6143.709319,-7698.141797,6358.592633
59438.754823,9326.594869,-8068.244768,9806.022374
59438.755133,9474.636058,-1258.350101,9806.022374
59438.755443,10066.800811,-74.020594,9806.022374
59438.755753,5847.626942,-4071.132681,6052.154434
59438.756062,-370.102971,-3552.988522,-689.485948
59438.756372,-7105.977043,-9548.656652,-2451.505594
59438.756682,-4811.338623,-14211.954086,-4979.620737
59438.756992,-7254.018232,-13841.851115,-7431.126331
59438.757302,-10140.821405,-17172.777854,-7277.907231
59438.757611,-8068.244768,-15544.324782,-6435.202183
59438.757921,-3256.906145,-15248.242405,-2528.115143
59438.758231,0.000000,-13249.686362,1455.581446
59438.758541,3552.988522,-6587.832884,4903.011187
59438.758851,10066.800811,-6291.750507,11031.775171
59438.759160,11473.192101,888.247130,7890.783629
59438.759470,8290.306550,-1258.350101,9806.022374
59438.759780,5847.626942,-4737.318029,4826.401637
59438.760090,-1776.494261,-3034.844362,0.000000
59438.760400,-4811.338623,-8216.285956,-2528.115143
59438.760710,-4811.338623,-8068.244768,-6052.154434
59438.761019,-6069.688724,-11251.130318,-6741.640382
59438.761329,-6291.750507,-14211.954086,-4979.620737
59438.761639,-8290.306550,-12509.480420,-6665.030833
59438.761949,-4737.318029,-14878.139434,-1838.629195
59438.762259,-74.020594,-18357.107362,4826.401637
59438.762568,3034.844362,-8142.265362,3600.648841
59438.762878,8290.306550,-7476.080014,9806.022374
59438.763188,7105.977043,-1850.514855,8273.831378
59438.763498,5625.565159,-962.267725,7124.688131
59438.763808,1924.535449,-2516.700203,2528.115143
59438.764117,-2590.720797,-3330.926739,0.000000
59438.764427,-3627.009116,-7698.141797,-689.485948
59438.764737,-4219.173869,-8586.388927,-4366.744339
59438.765047,-7105.977043,-11917.315666,-4290.134789
59438.765357,-5403.503377,-17764.942608,-2528.115143
59438.765666,-9474.636058,-13397.727550,-6894.859482
59438.765976,-5921.647536,-16654.633695,0.000000
59438.766286,-2368.659014,-13397.727550,612.876398
59438.766596,4219.173869,-8808.450710,4213.525239
59438.766906,7179.997637,-6291.750507,7277.907231
59438.767215,7920.203579,-4663.297435,8503.660028
59438.767525,7031.956449,-4737.318029,7277.907231
59438.767835,2294.638420,-4441.235652,3294.210641
59438.768145,-3775.050304,-2590.720797,-1225.752797
59438.768455,-4145.153275,-7772.162391,0.000000
59438.768764,-1258.350101,-9474.636058,-2528.115143
59438.769074,-7105.977043,-10140.821405,-4903.011187
59438.769384,-6883.915261,-13767.830521,-3983.696590
59438.769694,-7105.977043,-14952.160028,-4903.011187
59438.770004,-5921.647536,-17468.860231,-1915.238745
59438.770313,-1776.494261,-12731.542202,383.047749
59438.770623,4293.194464,-11547.212695,5132.839837
59438.770933,8216.285956,-7105.977043,6665.030833
59438.771243,6439.791695,-1628.453072,6052.154434
59438.771553,6809.894666,-3775.050304,7890.783629
59438.771862,3478.967927,-1628.453072,1149.143247
59438.772172,-4737.318029,-4811.338623,0.000000
59438.772482,-370.102971,-6957.935855,-689.485948
59438.772792,-666.185348,-8956.491898,-1225.752797
59438.773102,-3552.988522,-13545.768739,-2221.676944
59438.773412,-6217.729913,-14804.118840,-4519.963438
59438.773721,-5921.647536,-16654.633695,-2451.505594
59438.774031,-1850.514855,-18357.107362,-76.609550
59438.774341,-74.020594,-12435.459826,1762.019645
59438.774651,0.000000,-5995.668130,2451.505594
59438.774961,7031.956449,-7994.224174,7277.907231
59438.775270,3478.967927,-2072.576638,4826.401637
59438.775580,4663.297435,-4145.153275,4826.401637
59438.775890,1110.308913,-5699.585753,2834.553343
59438.776200,-666.185348,-4885.359217,536.266849
59438.776510,-370.102971,-6513.812290,-536.266849
59438.776819,0.000000,-8364.327145,0.000000
59438.777129,-1332.370696,-12361.439231,-612.876398
59438.777439,-3034.844362,-14211.954086,-3140.991542
59438.777749,-7624.121203,-12213.398043,-6128.763984
59438.778059,-2072.576638,-16950.716072,612.876398
59438.778368,2294.638420,-11251.130318,-76.609550
59438.778678,4663.297435,-11399.171507,4519.963438
59438.778988,4293.194464,-7105.977043,4903.011187
59438.779298,3701.029710,-8290.306550,5898.935335
59438.779608,3256.906145,-6439.791695,4596.572988
59438.779917,0.000000,-2442.679609,2451.505594
59438.780227,-1184.329507,-5107.421000,612.876398
59438.780537,-74.020594,-7105.977043,-76.609550
59438.780847,-4441.235652,-7179.997637,-3370.820191
59438.781157,-2072.576638,-13397.727550,-766.095498
59438.781466,-2442.679609,-14211.954086,-2528.115143
59438.781776,-4885.359217,-15692.365970,-2145.067394
59438.782086,-3182.885551,-14804.118840,-766.095498
59438.782396,0.000000,-11917.315666,1915.238745
59438.782706,2664.741391,-9474.636058,3294.210641
59438.783015,740.205942,-2886.803174,1532.190996
59438.783325,0.000000,-3627.009116,3677.258390
59438.783635,2072.576638,-2072.576638,4519.963438
59438.783945,-2294.638420,-74.020594,0.000000
59438.784255,1406.391290,-4737.318029,1149.143247
59438.784564,1110.308913,-7105.977043,-76.609550
59438.784874,0.000000,-9548.656652,0.000000
59438.785184,-1258.350101,-11029.068536,-1302.362347
59438.785494,-3775.050304,-12731.542202,-2298.286494
59438.785804,-4959.379811,-14508.036463,-2451.505594
59438.786114,-3034.844362,-14582.057057,-2528.115143
59438.786423,0.000000,-9548.656652,0.000000
59438.786733,1480.411884,-11695.253884,4290.134789
59438.787043,-74.020594,-7105.977043,2374.896044
59438.787353,-2368.659014,-7772.162391,2757.943793
59438.787663,2886.803174,-7994.224174,4826.401637
59438.787972,-2368.659014,-2442.679609,1838.629195
59438.788282,-962.267725,-3997.112087,1149.143247
59438.788592,814.226536,-3997.112087,-306.438199
59438.788902,222.061783,-8586.388927,995.924147
59438.789212,-74.020594,-10658.965565,-1915.238745
59438.789521,-4219.173869,-10510.924376,-2987.772442
59438.789831,-4737.318029,-13101.645173,-4290.134789
59438.790141,1702.473667,-16580.613101,1915.238745
59438.790451,0.000000,-11029.068536,0.000000
59438.790761,592.164754,-11917.315666,4903.011187
59438.791070,-1776.494261,-8364.327145,2451.505594
59438.791380,148.041188,-8068.244768,2911.162892
59438.791690,1036.288319,-7772.162391,2681.334243
59438.792000,-666.185348,-5551.544565,1991.848295
59438.792310,2294.638420,-7105.977043,-76.609550
59438.792619,1998.556043,-6661.853478,536.266849
59438.792929,0.000000,-7179.997637,0.000000
59438.793239,3478.967927,-13027.624579,-76.609550
59438.793549,-2886.803174,-9992.780217,-2451.505594
59438.793859,-2368.659014,-14285.974681,1225.752797
59438.794168,-1628.453072,-13101.645173,0.000000
59438.794478,592.164754,-13027.624579,1072.533697
59438.794788,-592.164754,-12213.398043,1608.800546
59438.795098,-1776.494261,-9326.594869,1225.752797
59438.795408,-74.020594,-8142.265362,-76.609550
59438.795717,-370.102971,-5773.606348,1149.143247
59438.796027,-1776.494261,-74.020594,0.000000
59438.796337,4071.132681,-4737.318029,2987.772442
59438.796647,1184.329507,-1850.514855,612.876398
59438.796957,3552.988522,-4811.338623,2451.505594
59438.797267,0.000000,-6587.832884,0.000000
59438.797576,-666.185348,-10140.821405,-612.876398
59438.797886,-1406.391290,-13471.748144,-612.876398
59438.798196,222.061783,-13767.830521,76.609550
59438.798506,2294.638420,-14211.954086,-76.609550
59438.798816,-2442.679609,-12361.439231,-76.609550
59438.799126,-4145.153275,-7179.997637,-2911.162892
59438.799436,0.000000,-8068.244768,1225.752797
59438.799746,-1258.350101,-4737.318029,1149.143247
59438.800056,-2368.659014,-74.020594,612.876398
59438.800365,1998.556043,-3256.906145,3600.648841
59438.800675,4663.297435,-2368.659014,2528.115143
59438.800985,4663.297435,-5403.503377,3294.210641
59438.801295,1406.391290,-7105.977043,1302.362347
59438.801605,1850.514855,-11843.295072,2374.896044
59438.801915,-740.205942,-14137.933492,-76.609550
59438.802225,-1258.350101,-12435.459826,-2528.115143
59438.802535,-3552.988522,-13101.645173,0.000000
59438.802845,-3034.844362,-13619.789333,-689.485948
59438.803155,-7105.977043,-9548.656652,0.000000
59438.803464,-2738.761985,-10066.800811,-1302.362347
59438.803774,-2812.782580,-8068.244768,1072.533697
59438.804084,-666.185348,-5625.565159,2374.896044
59438.804394,2664.741391,-5033.400406,2681.334243
59438.804704,5329.482782,-6957.935855,7277.907231
59438.805014,5847.626942,-6513.812290,5439.278036
59438.805324,1110.308913,-5699.585753,0.000000
59438.805634,0.000000,-11325.150913,2451.505594
59438.805944,-74.020594,-13027.624579,-76.609550
59438.806254,-2960.823768,-10732.986159,-3677.258390
59438.806563,-1850.514855,-14211.954086,-689.485948
59438.806873,-7105.977043,-14211.954086,-2068.457845
59438.807183,-7179.997637,-13619.789333,-3140.991542
59438.807493,-4885.359217,-10955.047942,-2221.676944
59438.807803,-4737.318029,-8660.409521,2145.067394
59438.808113,-74.020594,-6217.729913,2681.334243
59438.808423,5847.626942,-6513.812290,4826.401637
59438.808733,4737.318029,-2442.679609,4903.011187
59438.809043,9400.615463,-4737.318029,6052.154434
59438.809353,2294.638420,-5551.544565,1991.848295
59438.809662,2294.638420,-10658.965565,2374.896044
59438.809972,222.061783,-12583.501014,536.266849
59438.810282,-814.226536,-13027.624579,-995.924147
59438.810592,-3923.091493,-15026.180623,-1915.238745
59438.810902,-7105.977043,-14434.015869,-2451.505594
59438.811212,-7179.997637,-16580.613101,-2681.334243
59438.811522,-2738.761985,-14211.954086,-1302.362347
59438.811832,-4737.318029,-5995.668130,0.000000
59438.812142,1998.556043,-7105.977043,4519.963438
59438.812452,1702.473667,-74.020594,306.438199
59438.812761,8068.244768,-1110.308913,5745.716235
59438.813071,6809.894666,-296.082377,4673.182538
59438.813381,2738.761985,-3478.967927,2451.505594
59438.813691,1110.308913,-7105.977043,612.876398
59438.814001,592.164754,-10732.986159,1225.752797
59438.814311,1776.494261,-13101.645173,153.219100
59438.814621,-2442.679609,-18949.272115,-76.609550
59438.814931,-9474.636058,-14285.974681,-5515.887586
59438.815241,-7105.977043,-16210.510130,-4213.525239
59438.815551,-3034.844362,-13027.624579,-3140.991542
59438.815860,-2738.761985,-9474.636058,-76.609550
59438.816170,444.123565,-5477.523971,1685.410096
59438.816480,7105.977043,-3108.864956,4060.306139
59438.816790,10214.842000,-5329.482782,7584.345430
59438.817100,6513.812290,-2442.679609,6128.763984
59438.817410,3849.070898,-4959.379811,4290.134789
59438.817720,4663.297435,-13619.789333,4826.401637
59438.818030,1554.432478,-10362.883188,-842.705048
59438.818340,-296.082377,-16580.613101,1072.533697
59438.818650,-4811.338623,-16580.613101,-2834.553343
59438.818959,-7994.224174,-17394.839637,-3524.039291
59438.819269,-7105.977043,-15248.242405,-4826.401637
59438.819579,-5847.626942,-12065.356855,-2451.505594
59438.819889,-5403.503377,-8290.306550,-689.485948
59438.820199,0.000000,-1258.350101,1225.752797
59438.820509,5329.482782,-74.020594,4903.011187
59438.820819,9474.636058,-4219.173869,10112.460574
59438.821129,7031.956449,-1776.494261,4826.401637
59438.821439,2368.659014,-4219.173869,3983.696590
59438.821749,4663.297435,-9474.636058,4213.525239
59438.822058,296.082377,-11325.150913,612.876398
59438.822368,-3182.885551,-14508.036463,-1608.800546
59438.822678,-7328.038826,-17098.757260,-3524.039291
59438.822988,-9844.739029,-18209.066173,-4596.572988
59438.823298,-8364.327145,-13915.871710,-6128.763984
59438.823608,-8586.388927,-11325.150913,-3677.258390
59438.823918,-7105.977043,-7179.997637,0.000000
59438.824228,2294.638420,-4145.153275,2374.896044
59438.824538,4737.318029,-666.185348,5209.449386
59438.824848,11473.192101,0.000000,9729.412825
59438.825157,6513.812290,1406.391290,6128.763984
59438.825467,4071.132681,-2664.741391,4673.182538
59438.825777,2146.597232,-7105.977043,2451.505594
59438.826087,370.102971,-10510.924376,459.657299
59438.826397,-3034.844362,-14211.954086,-2528.115143
59438.826707,-9770.718434,-16654.633695,-5132.839837
59438.827017,-13027.624579,-16654.633695,-6741.640382
59438.827327,-7328.038826,-18653.189738,-4366.744339
59438.827637,-8512.368333,-11917.315666,-4749.792088
59438.827947,-5329.482782,-5995.668130,-1225.752797
59438.828256,4367.215058,-3552.988522,2987.772442
59438.828566,9252.574275,-962.267725,7354.516781
59438.828876,11325.150913,2146.597232,9346.365076
59438.829186,6957.935855,-1110.308913,7354.516781
59438.829496,4737.318029,-1332.370696,6128.763984
59438.829806,3478.967927,-7105.977043,3677.258390
59438.830116,-370.102971,-7698.141797,-1302.362347
59438.830426,-3849.070898,-14285.974681,-2298.286494
59438.830736,-8068.244768,-16284.530724,-6205.373534
59438.831046,-8216.285956,-17764.942608,-6358.592633
59438.831355,-9474.636058,-17542.880825,-6128.763984
59438.831665,-7328.038826,-13545.768739,-3907.087040
59438.831975,-4145.153275,-9400.615463,-612.876398
59438.832285,4367.215058,-4441.235652,2987.772442
59438.832595,11177.109724,-2738.761985,7890.783629
59438.832905,11029.068536,-296.082377,8197.221829
59438.833215,9474.636058,-666.185348,7354.516781
59438.833525,7031.956449,-5921.647536,6052.154434
59438.833835,3108.864956,-5995.668130,0.000000
59438.834145,0.000000,-10732.986159,306.438199
59438.834454,-4515.256246,-17468.860231,-2374.896044
59438.834764,-8586.388927,-18431.127956,-6818.249932
59438.835074,-11695.253884,-20503.704593,-7277.907231
59438.835384,-10658.965565,-16876.695478,-7124.688131
59438.835694,-9696.697840,-15248.242405,-4136.915689
59438.836004,-2442.679609,-11177.109724,2374.896044
59438.836314,5847.626942,-2960.823768,2374.896044
59438.836624,10066.800811,1110.308913,9806.022374
59438.836934,14137.933492,0.000000,14019.547613
59438.837244,9400.615463,-1776.494261,8197.221829
59438.837553,4737.318029,-4367.215058,5515.887586
59438.837863,3108.864956,-8660.409521,3217.601092
59438.838173,-740.205942,-11251.130318,0.000000
59438.838483,-6513.812290,-16654.633695,-1838.629195
59438.838793,-9030.512492,-17172.777854,-8427.050478
59438.839103,-12879.583391,-17246.798449,-9806.022374
59438.839413,-11843.295072,-16062.468941,-7354.516781
59438.839723,-9548.656652,-15988.448347,-3753.867940
59438.840033,-7105.977043,-7179.997637,0.000000
59438.840343,5033.400406,-4219.173869,4903.011187
59438.840652,9992.780217,592.164754,8810.098227
59438.840962,9770.718434,1332.370696,9116.536426
59438.841272,9104.533087,1554.432478,8197.221829
59438.841582,6291.750507,-1332.370696,6052.154434
59438.841892,5477.523971,-5551.544565,4903.011187
59438.842202,1702.473667,-11547.212695,3294.210641
59438.842512,-6143.709319,-14063.912898,-2451.505594
59438.842822,-9474.636058,-17838.963202,-4979.620737
59438.843132,-11917.315666,-18949.272115,-9576.193725
59438.843442,-13693.809927,-16432.571912,-8350.440928
59438.843751,-10584.944971,-15174.221811,-4596.572988
59438.844061,-1554.432478,-8512.368333,-842.705048
59438.844371,6661.853478,-3775.050304,5056.230287
59438.844681,10732.986159,370.102971,9806.022374
59438.844991,7994.224174,-148.041188,9116.536426
59438.845301,6365.771101,-74.020594,6741.640382
59438.845611,6217.729913,-5107.421000,6741.640382
59438.845921,4071.132681,-7105.977043,3600.648841
59438.846231,-2368.659014,-9844.739029,0.000000
59438.846541,-5329.482782,-15174.221811,-2451.505594
59438.846850,-9844.739029,-18209.066173,-7124.688131
59438.847160,-11547.212695,-20207.622217,-8044.002729
59438.847470,-13175.665768,-18801.230927,-7277.907231
59438.847780,-11621.233289,-13915.871710,-4826.401637
59438.848090,-296.082377,-7179.997637,919.314598
59438.848400,10584.944971,-4441.235652,7890.783629
59438.848710,9844.739029,1924.535449,8273.831378
59438.849020,12287.418637,0.000000,11874.480219
59438.849330,7402.059420,1998.556043,4903.011187
59438.849640,7402.059420,-2072.576638,4443.353888
59438.849949,4071.132681,-5699.585753,2298.286494
59438.850259,-2146.597232,-9474.636058,-689.485948
59438.850569,-6291.750507,-14285.974681,-4519.963438
59438.850879,-7402.059420,-19689.478057,-5132.839837
59438.851189,-10732.986159,-18949.272115,-8656.879127
59438.851499,-14211.954086,-17542.880825,-9193.145976
59438.851809,-8290.306550,-14359.995275,-2528.115143
59438.852119,814.226536,-4441.235652,-1302.362347
59438.852429,8882.471304,-2960.823768,7584.345430
59438.852739,11251.130318,740.205942,10112.460574
59438.853048,10362.883188,0.000000,9422.974625
59438.853358,9474.636058,-370.102971,7967.393179
59438.853668,8216.285956,-3330.926739,6052.154434
59438.853978,3256.906145,-4515.256246,689.485948
59438.854288,-592.164754,-8956.491898,-766.095498
59438.854598,-4219.173869,-15396.283594,-3140.991542
59438.854908,-9252.574275,-16654.633695,-10801.946522
59438.855218,-11843.295072,-20503.704593,-7967.393179
59438.855528,-14211.954086,-19615.457463,-7354.516781
59438.855838,-9252.574275,-11917.315666,-5515.887586
59438.856147,2368.659014,-7994.224174,1915.238745
59438.856457,7476.080014,-4663.297435,7431.126331
59438.856767,9326.594869,-666.185348,9422.974625
59438.857077,11473.192101,0.000000,10955.165621
59438.857387,9104.533087,0.000000,7277.907231
59438.857697,7105.977043,-666.185348,5056.230287
59438.858007,4663.297435,-9474.636058,4826.401637
59438.858317,-4515.256246,-7624.121203,-3983.696590
59438.858627,-8956.491898,-15988.448347,-6205.373534
59438.858937,-9252.574275,-21317.931130,-7814.174080
59438.859246,-11917.315666,-18875.251521,-8656.879127
59438.859556,-13027.624579,-18801.230927,-6435.202183
59438.859866,-6143.709319,-10807.006753,-3064.381992
59438.860176,1184.329507,-4811.338623,612.876398
59438.860486,9474.636058,-2442.679609,8273.831378
59438.860796,8216.285956,-2368.659014,9729.412825
59438.861106,5329.482782,4071.132681,6128.763984
59438.861416,9400.615463,-2368.659014,8503.660028
59438.861726,5329.482782,-3034.844362,7048.078582
59438.862036,2368.659014,-4811.338623,1225.752797
59438.862345,-3849.070898,-10436.903782,-2145.067394
59438.862655,-7328.038826,-16284.530724,-6205.373534
59438.862965,-11325.150913,-20873.807564,-8427.050478
59438.863275,-11917.315666,-21317.931130,-9882.631924
59438.863585,-15396.283594,-19911.539840,-7890.783629
59438.863895,-4589.276840,-11399.171507,-2604.724693
59438.864205,5033.400406,-7994.224174,2834.553343
59438.864515,7846.182985,-4737.318029,9346.365076
59438.864825,9474.636058,2886.803174,8580.269578
59438.865135,10288.862594,1776.494261,11031.775171
59438.865444,11769.274478,592.164754,7890.783629
59438.865754,9770.718434,-3923.091493,7660.954980
59438.866064,3478.967927,-7105.977043,2068.457845
59438.866374,-2590.720797,-13619.789333,-689.485948
59438.866684,-8068.244768,-17246.798449,-7201.297681
59438.866994,-13989.892304,-23094.425390,-10035.851024
59438.867304,-16284.530724,-22650.301825,-10878.556072
59438.867614,-13471.748144,-21317.931130,-7660.954980
59438.867924,-4737.318029,-11325.150913,-3064.381992
59438.868234,5625.565159,-6883.915261,3064.381992
59438.868543,10436.903782,-4737.318029,10648.727422
59438.868853,8808.450710,2664.741391,7890.783629
59438.869163,10066.800811,1110.308913,11031.775171
59438.869473,14211.954086,0.000000,11568.042020
59438.869783,7846.182985,-2886.803174,7048.078582
59438.870093,-740.205942,-7031.956449,2145.067394
59438.870403,-370.102971,-9252.574275,-4673.182538
59438.870713,-9622.677246,-16210.510130,-6894.859482
59438.871023,-15248.242405,-19023.292709,-9806.022374
59438.871333,-15396.283594,-20207.622217,-11644.651570
59438.871642,-10732.986159,-22502.260637,-5286.058936
59438.871952,-2442.679609,-9474.636058,-2528.115143
59438.872262,1480.411884,-5107.421000,2681.334243
59438.872572,7105.977043,-1554.432478,8886.707777
59438.872882,8586.388927,1998.556043,8503.660028
59438.873192,9770.718434,888.247130,10418.898773
59438.873502,12657.521608,2072.576638,9576.193725
59438.873812,8142.265362,-3256.906145,7890.783629
59438.874122,814.226536,-4811.338623,2451.505594
59438.874432,-2072.576638,-10732.986159,-4903.011187
59438.874741,-6587.832884,-18949.272115,-6511.811733
59438.875051,-17172.777854,-19319.375086,-11414.822920
59438.875361,-15988.448347,-20207.622217,-11031.775171
59438.875671,-10658.965565,-20799.786970,-6128.763984
59438.875981,-962.267725,-12435.459826,-3447.429741
59438.876291,3108.864956,-8660.409521,3677.258390
59438.876601,5329.482782,-4441.235652,9269.755526
59438.876911,10881.027347,222.061783,9193.145976
59438.877221,11621.233289,3552.988522,8427.050478
59438.877531,12509.480420,2294.638420,8580.269578
59438.877840,12657.521608,-4145.153275,9729.412825
59438.878150,1406.391290,-2738.761985,2834.553343
59438.878460,-4441.235652,-8808.450710,-3677.258390
59438.878770,-9474.636058,-13101.645173,-8580.269578
59438.879080,-15766.386565,-21317.931130,-8656.879127
59438.879390,-14804.118840,-18505.148550,-10955.165621
59438.879700,-11843.295072,-19319.375086,-7967.393179
59438.880010,-3923.091493,-11769.274478,-3600.648841
59438.880320,1110.308913,-8882.471304,1149.143247
59438.880630,1702.473667,-5847.626942,6358.592633
59438.880940,7105.977043,-74.020594,9806.022374
59438.881249,12953.603985,0.000000,11568.042020
59438.881559,11843.295072,2294.638420,10572.117872
59438.881869,9474.636058,2294.638420,7967.393179
59438.882179,4071.132681,-8660.409521,6052.154434
59438.882489,-1258.350101,-8882.471304,-2298.286494
59438.882799,-10066.800811,-14582.057057,-7048.078582
59438.883109,-17098.757260,-19097.313304,-9806.022374
59438.883419,-12509.480420,-20133.601622,-12334.137518
59438.883729,-11103.089130,-16654.633695,-10648.727422
59438.884039,-4737.318029,-14285.974681,-1838.629195
59438.884348,-74.020594,-11843.295072,2987.772442
59438.884658,4441.235652,-1776.494261,5592.497135
59438.884968,8512.368333,1702.473667,8273.831378
59438.885278,12879.583391,0.000000,11644.651570
59438.885588,14211.954086,370.102971,12793.794817
59438.885898,7698.141797,444.123565,7814.174080
59438.886208,3404.947333,-5477.523971,5132.839837
59438.886518,1110.308913,-11103.089130,-689.485948
59438.886828,-9844.739029,-12509.480420,-9652.803275
59438.887138,-15396.283594,-21391.951724,-8886.707777
59438.887447,-11917.315666,-21317.931130,-11108.384721
59438.887757,-10658.965565,-19023.292709,-8886.707777
59438.888067,-5107.421000,-13915.871710,-4903.011187
59438.888377,0.000000,-9548.656652,766.095498
59438.888687,2738.761985,-8438.347739,6358.592633
59438.888997,9548.656652,-2072.576638,10265.679673
59438.889307,13915.871710,-1258.350101,12334.137518
59438.889617,14508.036463,0.000000,15858.176809
59438.889927,9992.780217,0.000000,9729.412825
59438.890237,1332.370696,-4811.338623,2911.162892
59438.890546,592.164754,-9548.656652,-1225.752797
59438.890856,-7179.997637,-17172.777854,-4979.620737
59438.891166,-14285.974681,-18949.272115,-11951.089769
59438.891476,-15248.242405,-19023.292709,-12257.527968
59438.891786,-10140.821405,-19319.375086,-8350.440928
59438.892096,-5995.668130,-15840.407159,-3753.867940
59438.892406,-222.061783,-10732.986159,2068.457845
59438.892716,2960.823768,-8734.430116,6741.640382
59438.893026,11769.274478,-4737.318029,13100.233016
59438.893336,12065.356855,1998.556043,10035.851024
59438.893645,14211.954086,518.144159,12870.404366
59438.893955,10436.903782,-2368.659014,8886.707777
59438.894265,4663.297435,-7402.059420,4213.525239
59438.894575,-1776.494261,-8956.491898,-2451.505594
59438.894885,-9622.677246,-14063.912898,-7124.688131
59438.895195,-15026.180623,-20059.581028,-10801.946522
59438.895505,-13027.624579,-17542.880825,-9499.584175
59438.895815,-9474.636058,-15470.304188,-7967.393179
59438.896125,-3108.864956,-15100.201217,-459.657299
59438.896435,-1258.350101,-9474.636058,-76.609550
59438.896744,1184.329507,-3627.009116,4290.134789
59438.897054,9474.636058,-5107.421000,11108.384721
59438.897364,14434.015869,-1480.411884,12180.918418
59438.897674,11843.295072,444.123565,12640.575717
59438.897984,8882.471304,1184.329507,4596.572988
59438.898294,3775.050304,-5033.400406,3600.648841
59438.898604,1110.308913,-9992.780217,0.000000
59438.898914,-9474.636058,-14285.974681,-6741.640382
59438.899224,-18357.107362,-16654.633695,-11644.651570
59438.899533,-10732.986159,-16580.613101,-11108.384721
59438.899843,-10362.883188,-14952.160028,-10648.727422
59438.900153,-7994.224174,-13397.727550,-4596.572988
59438.900463,-2960.823768,-13619.789333,1762.019645
59438.900773,2368.659014,-8438.347739,5056.230287
59438.901083,10140.821405,-222.061783,7660.954980
59438.901393,11103.089130,-1332.370696,13100.233016
59438.901703,10584.944971,3701.029710,12257.527968
59438.902013,8290.306550,3478.967927,7354.516781
59438.902323,4737.318029,-2442.679609,6128.763984
59438.902632,-74.020594,-7698.141797,-689.485948
59438.902942,-11251.130318,-10732.986159,-7048.078582
59438.903252,-15174.221811,-15988.448347,-11721.261119
59438.903562,-12435.459826,-17764.942608,-10572.117872
59438.903872,-11473.192101,-17838.963202,-8350.440928
59438.904182,-9178.553681,-13545.768739,-3524.039291
59438.904492,-2738.761985,-10658.965565,-1378.971896
59438.904802,3256.906145,-7179.997637,2451.505594
59438.905112,9400.615463,-3256.906145,8886.707777
59438.905422,9992.780217,-1184.329507,11261.603821
59438.905731,10066.800811,-1258.350101,12870.404366
59438.906041,9400.615463,-1776.494261,8503.660028
59438.906351,3775.050304,-4441.235652,3600.648841
59438.906661,-3256.906145,-12213.398043,-1225.752797
59438.906971,-6661.853478,-12953.603985,-6205.373534
59438.907281,-14211.954086,-16802.674883,-10572.117872
59438.907591,-10807.006753,-15544.324782,-11951.089769
59438.907901,-9918.759623,-15174.221811,-8656.879127
59438.908211,-7179.997637,-17764.942608,-2757.943793
59438.908520,-74.020594,-13027.624579,2374.896044
59438.908830,2368.659014,-8660.409521,6128.763984
59438.909140,11251.130318,-3627.009116,13406.671215
59438.909450,11473.192101,74.020594,14019.547613
59438.909760,11843.295072,1110.308913,12257.527968
59438.910070,9400.615463,-518.144159,6511.811733
59438.910380,2368.659014,-5107.421000,3983.696590
59438.910690,-2590.720797,-7476.080014,-3830.477490
59438.911000,-10732.986159,-13619.789333,-7431.126331
59438.911310,-14285.974681,-17764.942608,-9269.755526
59438.911619,-5995.668130,-17764.942608,-11108.384721
59438.911929,-12731.542202,-16062.468941,-9729.412825
59438.912239,-8290.306550,-12065.356855,-4903.011187
59438.912549,2294.638420,-9474.636058,2451.505594
59438.912859,5921.647536,-7179.997637,6741.640382
59438.913169,12953.603985,-3701.029710,12257.527968
59438.913479,11547.212695,-2368.659014,14019.547613
59438.913789,13101.645173,2738.761985,11644.651570
59438.914099,10881.027347,0.000000,8503.660028
59438.914409,4663.297435,-8882.471304,4136.915689
59438.914718,-74.020594,-13027.624579,-2834.553343
59438.915028,-14211.954086,-9548.656652,-10878.556072
59438.915338,-14804.118840,-13101.645173,-11644.651570
59438.915648,-8956.491898,-18061.024985,-10725.336972
59438.915958,-12805.562797,-19023.292709,-9422.974625
59438.916268,-7105.977043,-17838.963202,0.000000
59438.916578,1480.411884,-13323.706956,3064.381992
59438.916888,6513.812290,-8438.347739,8963.317327
59438.917198,12361.439231,-5551.544565,13942.938064
59438.917507,12435.459826,-2368.659014,12257.527968
59438.917817,14137.933492,0.000000,12180.918418
59438.918127,5921.647536,-74.020594,5515.887586
59438.918437,4071.132681,-5921.647536,4673.182538
59438.918747,-5403.503377,-9178.553681,-5515.887586
59438.919057,-13693.809927,-13619.789333,-11108.384721
59438.919367,-14804.118840,-15544.324782,-13483.280765
59438.919677,-12583.501014,-20207.622217,-10189.070123
59438.919987,-9400.615463,-18801.230927,-7967.393179
59438.920297,-5033.400406,-17246.798449,612.876398
59438.920606,2368.659014,-12065.356855,2987.772442
59438.920916,10066.800811,-7179.997637,11031.775171
59438.921226,11769.274478,-4737.318029,13100.233016
59438.921536,10658.965565,3478.967927,10418.898773
59438.921846,13101.645173,3478.967927,11031.775171
59438.922156,9400.615463,1184.329507,6052.154434
59438.922466,-814.226536,-4811.338623,3294.210641
59438.922776,-5773.606348,-10436.903782,-3600.648841
59438.923086,-10732.986159,-12065.356855,-9882.631924
59438.923396,-15396.283594,-13693.809927,-14709.033562
59438.923705,-13915.871710,-16654.633695,-10035.851024
59438.924015,-13915.871710,-19615.457463,-7354.516781
59438.924325,-4293.194464,-18135.045579,-306.438199
59438.924635,-74.020594,-17764.942608,4213.525239
59438.924945,5329.482782,-7402.059420,8810.098227
59438.925255,13545.768739,-4441.235652,12793.794817
59438.925565,11473.192101,2368.659014,11261.603821
59438.925875,9992.780217,-2960.823768,12717.185267
59438.926185,10881.027347,0.000000,4060.306139
59438.926494,-3256.906145,-4811.338623,306.438199
59438.926804,-8882.471304,-8734.430116,-4979.620737
59438.927114,-13027.624579,-11325.150913,-12257.527968
59438.927424,-11547.212695,-18431.127956,-10725.336972
59438.927734,-11917.315666,-18949.272115,-10495.508323
59438.928044,-12879.583391,-21910.095883,-4979.620737
59438.928354,-3552.988522,-17764.942608,1378.971896
59438.928664,4589.276840,-4737.318029,-153.219100
59438.928974,7846.182985,-8586.388927,9806.022374
59438.929284,13175.665768,-2442.679609,12793.794817
59438.929593,9770.718434,-74.020594,12180.918418
59438.929903,10288.862594,1776.494261,10955.165621
59438.930213,7031.956449,1184.329507,4213.525239
59438.930523,0.000000,-5107.421000,1225.752797
59438.930833,-4959.379811,-9474.636058,-4979.620737
59438.931143,-11621.233289,-12953.603985,-8656.879127
59438.931453,-11103.089130,-15174.221811,-11951.089769
59438.931763,-10732.986159,-18579.169144,-9039.926876
59438.932073,-10066.800811,-20207.622217,-5515.887586
59438.932383,-3034.844362,-13693.809927,-1072.533697
59438.932692,1998.556043,-13619.789333,3600.648841
59438.933002,6439.791695,-9178.553681,9729.412825
59438.933312,9548.656652,-1924.535449,10035.851024
59438.933622,11843.295072,592.164754,12870.404366
59438.933932,11473.192101,3552.988522,9116.536426
59438.934242,7920.203579,-1776.494261,6588.421283
59438.934552,0.000000,-4811.338623,2451.505594
59438.934862,-6217.729913,-10658.965565,-5439.278036
59438.935172,-10214.842000,-14211.954086,-10035.851024
59438.935481,-10732.986159,-15470.304188,-11644.651570
59438.935791,-9696.697840,-18653.189738,-8656.879127
59438.936101,-8660.409521,-19615.457463,-5209.449386
59438.936411,-1258.350101,-15396.283594,-76.609550
59438.936721,1702.473667,-10658.965565,2834.553343
59438.937031,5329.482782,-5403.503377,10418.898773
59438.937341,13027.624579,-962.267725,14096.157163
59438.937651,10066.800811,2886.803174,12257.527968
59438.937961,11103.089130,3108.864956,9806.022374
59438.938271,7105.977043,1036.288319,3907.087040
59438.938580,-3108.864956,-6439.791695,-383.047749
59438.938890,-5995.668130,-11251.130318,-4979.620737
59438.939200,-10658.965565,-11621.233289,-9193.145976
59438.939510,-10140.821405,-14211.954086,-12334.137518
59438.939820,-11843.295072,-16950.716072,-8580.269578
59438.940130,-6291.750507,-21317.931130,-2834.553343
59438.940440,-4145.153275,-16654.633695,0.000000
59438.940750,1628.453072,-9548.656652,1838.629195
59438.941060,6069.688724,-4219.173869,9039.926876
59438.941370,11695.253884,1998.556043,10189.070123
59438.941679,12435.459826,3552.988522,12334.137518
59438.941989,12657.521608,3923.091493,9039.926876
59438.942299,6217.729913,2960.823768,2451.505594
59438.942609,-444.123565,-5329.482782,2145.067394
59438.942919,-7476.080014,-9474.636058,-5745.716235
59438.943229,-9474.636058,-11917.315666,-8580.269578
59438.943539,-11843.295072,-13693.809927,-12257.527968
59438.943849,-11029.068536,-17764.942608,-8886.707777
59438.944159,-8808.450710,-17987.004391,-6128.763984
59438.944468,-2812.782580,-18209.066173,-1225.752797
59438.944778,962.267725,-12213.398043,2374.896044
59438.945088,4737.318029,-5107.421000,8886.707777
59438.945398,9474.636058,5107.421000,8273.831378
59438.945708,12361.439231,2442.679609,12793.794817
59438.946018,10881.027347,3552.988522,9729.412825
59438.946328,2368.659014,3478.967927,2451.505594
59438.946638,-3997.112087,-2442.679609,-1838.629195
59438.946948,-4811.338623,-6513.812290,-3753.867940
59438.947258,-6365.771101,-9696.697840,-7814.174080
59438.947567,-8808.450710,-11843.295072,-9882.631924
59438.947877,-11917.315666,-17542.880825,-8044.002729
59438.948187,-9474.636058,-17838.963202,-6128.763984
59438.948497,-1850.514855,-16580.613101,-229.828649
59438.948807,0.000000,-14285.974681,3677.258390
59438.949117,5847.626942,-9474.636058,9116.536426
59438.949427,6291.750507,-74.020594,4979.620737
59438.949737,10436.903782,2960.823768,9422.974625
59438.950047,9400.615463,-1776.494261,9116.536426
59438.950357,3404.947333,-1628.453072,3064.381992
59438.950666,-2960.823768,-5625.565159,-766.095498
59438.950976,-4145.153275,-8290.306550,-4290.134789
59438.951286,-7105.977043,-11917.315666,-7048.078582
59438.951596,-6883.915261,-14730.098246,-7431.126331
59438.951906,-10658.965565,-16654.633695,-7967.393179
59438.952216,-7550.100608,-19985.560434,-2528.115143
59438.952526,-2442.679609,-15396.283594,-2834.553343
59438.952836,-74.020594,-15248.242405,3600.648841
59438.953146,7476.080014,-7846.182985,8503.660028
59438.953455,9548.656652,-592.164754,8427.050478
59438.953765,9030.512492,2812.782580,9959.241474
59438.954075,6217.729913,444.123565,7048.078582
59438.954385,1628.453072,-74.020594,2374.896044
59438.954695,-666.185348,-5551.544565,-689.485948
59438.955005,-6069.688724,-7254.018232,-5132.839837
59438.955315,-6217.729913,-9622.677246,-4213.525239
59438.955625,-4811.338623,-11251.130318,-8044.002729
59438.955935,-7179.997637,-18949.272115,-3753.867940
59438.956245,-6661.853478,-16802.674883,-4749.792088
59438.956554,-2960.823768,-15840.407159,-383.047749
59438.956864,1036.288319,-14804.118840,4366.744339
59438.957174,6291.750507,-6513.812290,6818.249932
59438.957484,9992.780217,-3552.988522,9729.412825
59438.957794,9474.636058,-1258.350101,10112.460574
59438.958104,7624.121203,-2960.823768,6665.030833
59438.958414,592.164754,-3627.009116,1225.752797
59438.958724,-74.020594,-8290.306550,-76.609550
59438.959034,-3478.967927,-11843.295072,-1915.238745
59438.959344,-4737.318029,-10436.903782,-4903.011187
59438.959653,-6069.688724,-14730.098246,-5132.839837
59438.959963,-7402.059420,-17098.757260,-5669.106685
59438.960273,-6735.874072,-17246.798449,-4366.744339
59438.960583,-1850.514855,-18357.107362,229.828649
59438.960893,3478.967927,-13619.789333,6052.154434
59438.961203,6439.791695,-6513.812290,6511.811733
59438.961513,7698.141797,-666.185348,7354.516781
59438.961823,9400.615463,-3552.988522,9729.412825
59438.962133,5625.565159,-2146.597232,6588.421283
59438.962443,-1776.494261,-1850.514855,1378.971896
59438.962752,-2812.782580,-3330.926739,-2681.334243
59438.963062,-4737.318029,-5995.668130,-4519.963438
59438.963372,-5329.482782,-9400.615463,-6358.592633
59438.963682,-5403.503377,-14804.118840,-4749.792088
59438.963992,-7994.224174,-18801.230927,-4749.792088
59438.964302,-5995.668130,-16580.613101,-3753.867940
59438.964612,-5921.647536,-17838.963202,0.000000
59438.964922,1184.329507,-8956.491898,4903.011187
59438.965232,5921.647536,-4811.338623,6128.763984
59438.965541,7105.977043,-814.226536,8427.050478
59438.965851,7105.977043,370.102971,7967.393179
59438.966161,4293.194464,-2738.761985,5286.058936
59438.966471,148.041188,-3404.947333,766.095498
59438.966781,-2072.576638,-6883.915261,-1225.752797
59438.967091,-4441.235652,-8364.327145,-3753.867940
59438.967401,-3997.112087,-12287.418637,-4519.963438
59438.967711,-7105.977043,-13101.645173,-8273.831378
59438.968021,-8290.306550,-16062.468941,-4903.011187
59438.968331,-7105.977043,-16654.633695,-2451.505594
59438.968640,-2442.679609,-17838.963202,383.047749
59438.968950,2072.576638,-11621.233289,4903.011187
59438.969260,5403.503377,-6661.853478,6511.811733
59438.969570,7624.121203,-2516.700203,8810.098227
59438.969880,5921.647536,-666.185348,7354.516781
59438.970190,2368.659014,-1850.514855,3677.258390
59438.970500,-74.020594,-4737.318029,1149.143247
59438.970810,-4737.318029,-4811.338623,-4903.011187
59438.971120,-2664.741391,-8956.491898,-2145.067394
59438.971430,-5921.647536,-8660.409521,-6741.640382
59438.971739,-5699.585753,-15692.365970,-4979.620737
59438.972049,-5921.647536,-16654.633695,-4596.572988
59438.972359,-4441.235652,-18283.086767,-2068.457845
59438.972669,-1036.288319,-15766.386565,1838.629195
59438.972979,2368.659014,-10436.903782,5132.839837
59438.973289,7328.038826,-7698.141797,6665.030833
59438.973599,9104.533087,-5329.482782,8963.317327
59438.973909,5403.503377,-2960.823768,4826.401637
59438.974219,2368.659014,-4811.338623,4903.011187
59438.974528,-74.020594,-4441.235652,0.000000
59438.974838,-1258.350101,-7994.224174,-383.047749
59438.975148,-2368.659014,-6883.915261,-3217.601092
59438.975458,-3552.988522,-10436.903782,-3907.087040
59438.975768,-4663.297435,-14656.077652,-4060.306139
59438.976078,-7105.977043,-17616.901420,-3983.696590
59438.976388,-6217.729913,-16654.633695,-3677.258390
59438.976698,-2072.576638,-15470.304188,1225.752797
59438.977008,4663.297435,-13027.624579,6052.154434
59438.977318,5847.626942,-5329.482782,4826.401637
59438.977627,6439.791695,-3256.906145,6052.154434
59438.977937,4367.215058,-3404.947333,5898.935335
59438.978247,2294.638420,-2368.659014,2374.896044
59438.978557,-740.205942,-3108.864956,689.485948
59438.978867,-2590.720797,-3330.926739,-1378.971896
59438.979177,-1258.350101,-5033.400406,-2221.676944
59438.979487,-1258.350101,-7105.977043,-2987.772442
59438.979797,-4145.153275,-12065.356855,-3064.381992
59438.980107,-2442.679609,-18949.272115,-76.609550
59438.980417,-4811.338623,-15692.365970,-3447.429741
59438.980726,-74.020594,-15396.283594,2068.457845
59438.981036,2368.659014,-10288.862594,2911.162892
59438.981346,3997.112087,-7105.977043,4366.744339
59438.981656,2146.597232,-4441.235652,4826.401637
59438.981966,1776.494261,-6809.894666,4673.182538
59438.982276,2294.638420,-4293.194464,2374.896044
59438.982586,-740.205942,-5625.565159,1455.581446
59438.982896,-1850.514855,-5551.544565,-995.924147
59438.983206,0.000000,-6587.832884,0.000000
59438.983515,-74.020594,-13027.624579,-76.609550
59438.983825,-1258.350101,-14211.954086,-1302.362347
59438.984135,-4737.318029,-14730.098246,-2911.162892
59438.984445,-4219.173869,-16062.468941,-1378.971896
59438.984755,-1776.494261,-13027.624579,153.219100
59438.985065,1628.453072,-10881.027347,2604.724693
59438.985375,2886.803174,-7105.977043,4596.572988
59438.985685,2294.638420,-9474.636058,5439.278036
59438.985995,74.020594,-5921.647536,2834.553343
59438.986305,592.164754,-7179.997637,4903.011187
59438.986614,-74.020594,-4737.318029,1149.143247
59438.986924,592.164754,-5625.565159,612.876398
59438.987234,0.000000,-6365.771101,0.000000
59438.987544,-444.123565,-10955.047942,-153.219100
59438.987854,-2072.576638,-12879.583391,-1302.362347
59438.988164,-3849.070898,-14508.036463,-2298.286494
59438.988474,-2442.679609,-15100.201217,-2451.505594
59438.988784,-1480.411884,-13471.748144,306.438199
59438.989094,2294.638420,-11251.130318,2374.896044
59438.989404,-3256.906145,-5995.668130,0.000000
59438.989713,-74.020594,-8290.306550,3677.258390
59438.990023,592.164754,-7179.997637,3983.696590
59438.990333,1184.329507,-4811.338623,2451.505594
59438.990643,148.041188,-4441.235652,2987.772442
59438.990953,962.267725,-4145.153275,1685.410096
59438.991263,1998.556043,-6069.688724,919.314598
59438.991573,592.164754,-7846.182985,0.000000
59438.991883,-2368.659014,-11621.233289,-1072.533697
59438.992193,-1406.391290,-13323.706956,-1302.362347
59438.992502,-5329.482782,-13101.645173,-4290.134789
59438.992812,0.000000,-14285.974681,306.438199
59438.993122,-2368.659014,-11325.150913,1225.752797
59438.993432,-1850.514855,-9030.512492,689.485948
59438.993742,-740.205942,-6069.688724,383.047749
59438.994052,444.123565,-6217.729913,1685.410096
59438.994362,1480.411884,-3849.070898,2451.505594
59438.994672,0.000000,-4811.338623,2068.457845
59438.994982,2368.659014,-3034.844362,1838.629195
59438.995292,4663.297435,-6809.894666,3600.648841
59438.995601,1184.329507,-5403.503377,2451.505594
59438.995911,2294.638420,-11251.130318,-76.609550
59438.996221,-4737.318029,-10732.986159,-2145.067394
59438.996531,-962.267725,-14508.036463,-1455.581446
59438.996841,-888.247130,-14656.077652,-612.876398
59438.997151,-1998.556043,-12731.542202,-383.047749
59438.997461,-3404.947333,-11917.315666,-459.657299
59438.997771,-3182.885551,-8882.471304,-229.828649
59438.998081,-296.082377,-10288.862594,2068.457845
59438.998391,0.000000,-8364.327145,3677.258390
59438.998700,1702.473667,-4737.318029,1149.143247
59438.999010,1184.329507,-5995.668130,3677.258390
59438.999320,2886.803174,-3330.926739,2145.067394
59438.999630,4367.215058,-7698.141797,3140.991542
59438.999939,962.267725,-8586.388927,766.095498
59439.000249,-1036.288319,-11769.274478,-612.876398
59439.000559,-1258.350101,-15174.221811,0.000000
59439.000869,-1258.350101,-14804.118840,-76.609550
59439.001178,-3330.926739,-15174.221811,229.828649
59439.001488,-5921.647536,-10732.986159,-4596.572988
59439.001798,-4441.235652,-11917.315666,0.000000
59439.002108,-1850.514855,-10658.965565,-76.609550
59439.002417,-1554.432478,-5921.647536,995.924147
59439.002727,-1776.494261,-3775.050304,1532.190996
59439.003037,3256.906145,-3627.009116,2451.505594
59439.003346,5181.441594,-5033.400406,5209.449386
59439.003656,3923.091493,-4589.276840,3370.820191
59439.003966,592.164754,-7031.956449,1762.019645
59439.004276,-74.020594,-11251.130318,383.047749
59439.004585,-1184.329507,-13693.809927,-612.876398
59439.004895,-2442.679609,-16580.613101,-689.485948
59439.005205,-8290.306550,-12509.480420,-4290.134789
59439.005515,-8512.368333,-14285.974681,-4903.011187
59439.005824,-5551.544565,-15100.201217,-1915.238745
59439.006134,-3627.009116,-10955.047942,-76.609550
59439.006444,-1850.514855,-6365.771101,1838.629195
59439.006753,2738.761985,-1036.288319,3064.381992
59439.007063,5033.400406,222.061783,5132.839837
59439.007373,7624.121203,-962.267725,5745.716235
59439.007683,3552.988522,-3034.844362,4290.134789
59439.007992,3478.967927,-7105.977043,3600.648841
59439.008302,-4737.318029,-9548.656652,0.000000
59439.008612,-74.020594,-14804.118840,-842.705048
59439.008922,-1110.308913,-15248.242405,-1762.019645
59439.009231,-6291.750507,-16284.530724,-3140.991542
59439.009541,-8956.491898,-14656.077652,-4903.011187
59439.009851,-7105.977043,-15470.304188,-4060.306139
59439.010160,-4219.173869,-11029.068536,-766.095498
59439.010470,-1554.432478,-6217.729913,1455.581446
59439.010780,1776.494261,-2442.679609,3064.381992
59439.011090,11177.109724,-2960.823768,9729.412825
59439.011399,11769.274478,-2368.659014,8503.660028
59439.011709,9400.615463,-4737.318029,7277.907231
59439.012019,2960.823768,-7105.977043,2911.162892
59439.012329,-888.247130,-12139.377449,229.828649
59439.012638,-1036.288319,-14508.036463,-1608.800546
59439.012948,-4515.256246,-16284.530724,-2834.553343
59439.013258,-7772.162391,-16580.613101,-4366.744339
59439.013567,-7179.997637,-17172.777854,-5592.497135
59439.013877,-7105.977043,-15026.180623,-4903.011187
59439.014187,-4737.318029,-10732.986159,0.000000
59439.014497,-74.020594,-9474.636058,2374.896044
59439.014806,8216.285956,-4737.318029,6052.154434
59439.015116,10955.047942,-666.185348,7967.393179
59439.015426,13397.727550,148.041188,9346.365076
59439.015736,7994.224174,-2146.597232,7660.954980
59439.016045,3256.906145,-4293.194464,3294.210641
59439.016355,1702.473667,-10436.903782,1838.629195
59439.016665,-74.020594,-13619.789333,-689.485948
59439.016974,-7476.080014,-14582.057057,-4826.401637
59439.017284,-10658.965565,-16654.633695,-4903.011187
59439.017594,-7179.997637,-20725.766376,-5592.497135
59439.017904,-5033.400406,-18949.272115,-2757.943793
59439.018213,-7698.141797,-11917.315666,-3677.258390
59439.018523,-1998.556043,-6661.853478,766.095498
59439.018833,5847.626942,-4293.194464,6052.154434
59439.019143,12139.377449,2886.803174,8120.612279
59439.019452,11177.109724,2590.720797,9193.145976
59439.019762,6291.750507,2442.679609,6511.811733
59439.020072,4071.132681,-2368.659014,3600.648841
59439.020381,0.000000,-5995.668130,0.000000
59439.020691,-74.020594,-13027.624579,-76.609550
59439.021001,-7105.977043,-15470.304188,-2834.553343
59439.021311,-11103.089130,-15766.386565,-7201.297681
59439.021620,-10732.986159,-18135.045579,-7890.783629
59439.021930,-10214.842000,-17616.901420,-5822.325785
59439.022240,-7254.018232,-13471.748144,-2221.676944
59439.022550,-2146.597232,-6587.832884,0.000000
59439.022859,6661.853478,-2960.823768,5822.325785
59439.023169,12657.521608,0.000000,9729.412825
59439.023479,7698.141797,5847.626942,6588.421283
59439.023788,5033.400406,-74.020594,7354.516781
59439.024098,1184.329507,-74.020594,3064.381992
59439.024408,148.041188,-7624.121203,919.314598
59439.024718,-1110.308913,-11917.315666,-689.485948
59439.025027,-5551.544565,-15544.324782,-3064.381992
59439.025337,-10066.800811,-17616.901420,-6588.421283
59439.025647,-10658.965565,-18283.086767,-8810.098227
59439.025957,-11251.130318,-19763.498651,-4903.011187
59439.026266,-7846.182985,-12435.459826,-3064.381992
59439.026576,-74.020594,-6513.812290,-76.609550
59439.026886,4737.318029,-1258.350101,4903.011187
59439.027195,10066.800811,7031.956449,7354.516781
59439.027505,10584.944971,1850.514855,9652.803275
59439.027815,5033.400406,444.123565,7354.516781
59439.028125,2590.720797,-2812.782580,2987.772442
59439.028434,1554.432478,-8142.265362,1378.971896
59439.028744,-2368.659014,-10066.800811,-1915.238745
59439.029054,-7698.141797,-13397.727550,-6741.640382
59439.029364,-9548.656652,-18357.107362,-6205.373534
59439.029673,-10732.986159,-18357.107362,-10495.508323
59439.029983,-11843.295072,-17246.798449,-6741.640382
59439.030293,-7994.224174,-10436.903782,-3370.820191
59439.030602,1406.391290,-5921.647536,2374.896044
59439.030912,9770.718434,-2146.597232,7660.954980
59439.031222,14434.015869,2368.659014,10648.727422
59439.031532,11843.295072,0.000000,11184.994271
59439.031841,7624.121203,-888.247130,8503.660028
59439.032151,5847.626942,-4441.235652,3753.867940
59439.032461,2368.659014,-9844.739029,2451.505594
59439.032771,-74.020594,-13027.624579,-1608.800546
59439.033080,-9474.636058,-15766.386565,-7048.078582
59439.033390,-10436.903782,-18949.272115,-9806.022374
59439.033700,-9696.697840,-22132.157666,-7660.954980
59439.034010,-9770.718434,-19541.436869,-6205.373534
59439.034319,-8290.306550,-13101.645173,-2681.334243
59439.034629,1406.391290,-5477.523971,2145.067394
59439.034939,10584.944971,-3256.906145,8503.660028
59439.035248,13397.727550,2442.679609,9422.974625
59439.035558,9474.636058,-74.020594,8580.269578
59439.035868,9400.615463,-3552.988522,9116.536426
59439.036178,3404.947333,-2442.679609,3370.820191
59439.036487,5847.626942,-8290.306550,2374.896044
59439.036797,444.123565,-10732.986159,383.047749
59439.037107,-7550.100608,-15988.448347,-4213.525239
59439.037417,-10510.924376,-18209.066173,-8810.098227
59439.037726,-13101.645173,-22280.198854,-9039.926876
59439.038036,-11917.315666,-21317.931130,-4979.620737
59439.038346,-9474.636058,-14878.139434,-2834.553343
59439.038655,1776.494261,-4219.173869,0.000000
59439.038965,12731.542202,-5403.503377,11644.651570
59439.039275,14137.933492,2368.659014,9729.412825
59439.039585,9400.615463,-2368.659014,9729.412825
59439.039894,3552.988522,-1258.350101,6894.859482
59439.040204,3552.988522,-4145.153275,4060.306139
59439.040514,518.144159,-8512.368333,1072.533697
59439.040824,-3552.988522,-11769.274478,-1838.629195
59439.041133,-7105.977043,-17394.839637,-2834.553343
59439.041443,-11991.336260,-19097.313304,-8963.317327
59439.041753,-13397.727550,-19615.457463,-10725.336972
59439.042062,-13027.624579,-20207.622217,-4903.011187
59439.042372,-5995.668130,-14211.954086,-1302.362347
59439.042682,7031.956449,-4441.235652,4213.525239
59439.042992,10955.047942,518.144159,9806.022374
59439.043301,11769.274478,5477.523971,8733.488677
59439.043611,7994.224174,2220.617826,9269.755526
59439.043921,5181.441594,1998.556043,5745.716235
59439.044231,4737.318029,-666.185348,3830.477490
59439.044540,2886.803174,-5921.647536,1149.143247
59439.044850,-3627.009116,-9548.656652,-5975.544884
59439.045160,-7031.956449,-18357.107362,-3907.087040
59439.045469,-11029.068536,-18949.272115,-10189.070123
59439.045779,-13027.624579,-20725.766376,-8963.317327
59439.046089,-13619.789333,-19837.519246,-6741.640382
59439.046399,-4293.194464,-10584.944971,-2987.772442
59439.046708,6661.853478,-7402.059420,5286.058936
59439.047018,12509.480420,-2664.741391,10648.727422
59439.047328,11843.295072,3182.885551,9806.022374
59439.047638,8808.450710,-444.123565,9806.022374
59439.047947,7031.956449,0.000000,7277.907231
59439.048257,2368.659014,-1258.350101,2451.505594
59439.048567,2886.803174,-8882.471304,2374.896044
59439.048876,-4145.153275,-11325.150913,-2145.067394
59439.049186,-7772.162391,-16580.613101,-6741.640382
59439.049496,-9918.759623,-17616.901420,-10572.117872
59439.049806,-13693.809927,-20207.622217,-10035.851024
59439.050115,-14804.118840,-16580.613101,-7354.516781
59439.050425,-4441.235652,-8956.491898,-3677.258390
59439.050735,9474.636058,-4811.338623,5515.887586
59439.051045,15100.201217,-4663.297435,14096.157163
59439.051354,12953.603985,0.000000,9729.412825
59439.051664,5921.647536,1702.473667,8120.612279
59439.051974,5921.647536,1110.308913,6741.640382
59439.052283,6143.709319,-3256.906145,4673.182538
59439.052593,1406.391290,-5995.668130,689.485948
59439.052903,-3552.988522,-11325.150913,-1915.238745
59439.053213,-8808.450710,-15248.242405,-6971.469032
59439.053522,-12213.398043,-16876.695478,-11414.822920
59439.053832,-15396.283594,-21391.951724,-9806.022374
59439.054142,-13619.789333,-17246.798449,-7048.078582
59439.054452,-74.020594,-12731.542202,-76.609550
59439.054761,6069.688724,-4811.338623,3677.258390
59439.055071,9474.636058,-1258.350101,8886.707777
59439.055381,10214.842000,888.247130,9652.803275
59439.055690,8068.244768,0.000000,9576.193725
59439.056000,7402.059420,0.000000,7967.393179
59439.056310,6291.750507,-2368.659014,5209.449386
59439.056620,3330.926739,-5181.441594,1149.143247
59439.056929,-4145.153275,-10140.821405,-2451.505594
59439.057239,-6809.894666,-16654.633695,-3600.648841
59439.057549,-10140.821405,-21317.931130,-9882.631924
59439.057859,-15988.448347,-20207.622217,-11031.775171
59439.058168,-13619.789333,-19023.292709,-7048.078582
59439.058478,-1554.432478,-12509.480420,-459.657299
59439.058788,5107.421000,-7179.997637,4903.011187
59439.059097,7994.224174,-2368.659014,9193.145976
59439.059407,8216.285956,1036.288319,8656.879127
59439.059717,9400.615463,0.000000,9729.412825
59439.060027,7105.977043,2294.638420,7354.516781
59439.060336,8216.285956,-2664.741391,8503.660028
59439.060646,74.020594,-3108.864956,0.000000
59439.060956,-3552.988522,-9844.739029,-1991.848295
59439.061266,-7772.162391,-14804.118840,-9576.193725
59439.061575,-14508.036463,-20207.622217,-11031.775171
59439.061885,-16728.654289,-22650.301825,-10955.165621
59439.062195,-12287.418637,-20429.683999,-6818.249932
59439.062504,-370.102971,-11547.212695,-383.047749
59439.062814,8808.450710,-7698.141797,6665.030833
59439.063124,7624.121203,-1184.329507,9116.536426
59439.063434,4737.318029,3478.967927,7354.516781
59439.063743,11769.274478,0.000000,9729.412825
59439.064053,7105.977043,1110.308913,7354.516781
59439.064363,7031.956449,-2368.659014,3907.087040
59439.064673,74.020594,-8734.430116,995.924147
59439.064982,-4515.256246,-11991.336260,-3294.210641
59439.065292,-8882.471304,-18431.127956,-7507.735880
59439.065602,-14804.118840,-24796.899057,-9269.755526
59439.065911,-15914.427753,-26795.455100,-9882.631924
59439.066221,-10140.821405,-22502.260637,-4979.620737
59439.066531,2294.638420,-13027.624579,-76.609550
59439.066841,2368.659014,-4811.338623,2757.943793
59439.067150,6513.812290,-2590.720797,9806.022374
59439.067460,10584.944971,1776.494261,9116.536426
59439.067770,10214.842000,3478.967927,9806.022374
59439.068080,9548.656652,2072.576638,9499.584175
59439.068389,6883.915261,888.247130,4979.620737
59439.068699,666.185348,-4959.379811,2451.505594
59439.069009,-3849.070898,-9844.739029,-2757.943793
59439.069318,-8956.491898,-15396.283594,-7431.126331
59439.069628,-14285.974681,-19171.333898,-12334.137518
59439.069938,-16580.613101,-23168.445985,-9806.022374
59439.070248,-9548.656652,-23094.425390,-5592.497135
59439.070557,1110.308913,-12879.583391,1762.019645
59439.070867,4663.297435,-7550.100608,4749.792088
59439.071177,7328.038826,-2664.741391,9269.755526
59439.071487,10362.883188,-666.185348,9959.241474
59439.071796,11917.315666,-2442.679609,12870.404366
59439.072106,11843.295072,-74.020594,9806.022374
59439.072416,7402.059420,-2220.617826,7967.393179
59439.072725,2294.638420,-6513.812290,-76.609550
59439.073035,-1776.494261,-12509.480420,-1225.752797
59439.073345,-8364.327145,-17764.942608,-6665.030833
59439.073655,-15988.448347,-21317.931130,-10495.508323
59439.073964,-16580.613101,-21836.075289,-11568.042020
59439.074274,-8734.430116,-17838.963202,-7277.907231
59439.074584,-1184.329507,-13471.748144,-383.047749
59439.074894,2960.823768,-7624.121203,3677.258390
59439.075203,2960.823768,-3923.091493,7354.516781
59439.075513,11251.130318,-1998.556043,10418.898773
59439.075823,14137.933492,0.000000,12180.918418
59439.076132,9474.636058,2294.638420,9806.022374
59439.076442,6513.812290,-222.061783,6435.202183
59439.076752,1480.411884,-7031.956449,2604.724693
59439.077062,-2072.576638,-11695.253884,-1608.800546
59439.077371,-7846.182985,-16062.468941,-6281.983084
59439.077681,-15174.221811,-19985.560434,-11721.261119
59439.077991,-14063.912898,-19319.375086,-13176.842566
59439.078301,-11177.109724,-19023.292709,-9193.145976
59439.078610,-1184.329507,-14285.974681,0.000000
59439.078920,2294.638420,-18949.272115,7277.907231
59439.079230,2960.823768,-5995.668130,6818.249932
59439.079539,9770.718434,-3627.009116,9729.412825
59439.079849,9474.636058,-3923.091493,12563.966167
59439.080159,10955.047942,-2516.700203,10955.165621
59439.080469,6883.915261,-814.226536,6358.592633
59439.080778,3182.885551,-6291.750507,3140.991542
59439.081088,-1998.556043,-10140.821405,-1915.238745
59439.081398,-10140.821405,-16580.613101,-7584.345430
59439.081708,-18061.024985,-19023.292709,-14709.033562
59439.082017,-14211.954086,-21391.951724,-11031.775171
59439.082327,-7772.162391,-18357.107362,-7431.126331
59439.082637,-7179.997637,-13989.892304,-383.047749
59439.082946,-1184.329507,-4811.338623,1838.629195
59439.083256,7624.121203,-4737.318029,9039.926876
59439.083566,9844.739029,-296.082377,9806.022374
59439.083876,11473.192101,518.144159,12257.527968
59439.084185,11177.109724,592.164754,12180.918418
59439.084495,8216.285956,2368.659014,5439.278036
59439.084805,0.000000,-1036.288319,-1608.800546
59439.085115,-4145.153275,-9548.656652,0.000000
59439.085424,-9548.656652,-16580.613101,-6818.249932
59439.085734,-18061.024985,-15692.365970,-13789.718964
59439.086044,-14211.954086,-19319.375086,-12257.527968
59439.086353,-8956.491898,-18949.272115,-6358.592633
59439.086663,-4589.276840,-14211.954086,-689.485948
59439.086973,740.205942,-6143.709319,2451.505594
59439.087283,6439.791695,-9178.553681,9576.193725
59439.087592,13841.851115,-3552.988522,13406.671215
59439.087902,10658.965565,1702.473667,9806.022374
59439.088212,12731.542202,-2368.659014,13713.109414
59439.088522,5847.626942,1480.411884,4136.915689
59439.088831,592.164754,-4811.338623,0.000000
59439.089141,-3404.947333,-10436.903782,-2681.334243
59439.089451,-9992.780217,-16062.468941,-7737.564530
59439.089760,-17098.757260,-19171.333898,-13636.499864
59439.090070,-13027.624579,-21243.910535,-12027.699319
59439.090380,-9548.656652,-21317.931130,-6205.373534
59439.090690,-2220.617826,-15396.283594,-76.609550
59439.090999,-1036.288319,-7994.224174,2068.457845
59439.091309,4737.318029,-4811.338623,7354.516781
59439.091619,15914.427753,-2072.576638,12793.794817
59439.091929,12879.583391,962.267725,12257.527968
59439.092238,9474.636058,6439.791695,8120.612279
59439.092548,5921.647536,3923.091493,3370.820191
59439.092858,1110.308913,-1480.411884,766.095498
59439.093167,-1850.514855,-7698.141797,-3524.039291
59439.093477,-11325.150913,-14804.118840,-6205.373534
59439.093787,-13101.645173,-17764.942608,-11108.384721
59439.094097,-10732.986159,-21317.931130,-9882.631924
59439.094406,-9548.656652,-17764.942608,-8963.317327
59439.094716,-5625.565159,-12509.480420,-1225.752797
59439.095026,814.226536,-10214.842000,1225.752797
59439.095336,5329.482782,-6883.915261,7354.516781
59439.095645,11843.295072,-2072.576638,11338.213370
59439.095955,13249.686362,1480.411884,12793.794817
59439.096265,11769.274478,2368.659014,11568.042020
59439.096574,8956.491898,2960.823768,6665.030833
59439.096884,5255.462188,-4145.153275,-76.609550
59439.097194,-3627.009116,-8290.306550,-3753.867940
59439.097504,-11843.295072,-12509.480420,-7354.516781
59439.097813,-11917.315666,-17764.942608,-12334.137518
59439.098123,-11917.315666,-15470.304188,-12870.404366
59439.098433,-11547.212695,-19541.436869,-6818.249932
59439.098742,-5995.668130,-14508.036463,-2528.115143
59439.099052,666.185348,-12361.439231,4060.306139
59439.099362,8068.244768,-4071.132681,8810.098227
59439.099671,13175.665768,-1554.432478,11031.775171
59439.099981,10658.965565,-2442.679609,14709.033562
59439.100291,13027.624579,0.000000,15321.909960
59439.100600,8216.285956,0.000000,4826.401637
59439.100910,0.000000,-6587.832884,0.000000
59439.101220,-4811.338623,-11103.089130,-3907.087040
59439.101529,-12583.501014,-18135.045579,-7277.907231
59439.101839,-13101.645173,-17912.983796,-13559.890315
59439.102149,-12139.377449,-20133.601622,-10648.727422
59439.102458,-11769.274478,-22502.260637,-6358.592633
59439.102768,-4071.132681,-16950.716072,-2451.505594
59439.103078,-1480.411884,-14285.974681,4903.011187
59439.103387,7698.141797,-2442.679609,7967.393179
59439.103697,11695.253884,-4367.215058,14402.595362
59439.104006,11769.274478,0.000000,14325.985813
59439.104316,7105.977043,5847.626942,6128.763984
59439.104626,4737.318029,74.020594,5209.449386
59439.104935,740.205942,-4293.194464,-383.047749
59439.105245,-6143.709319,-9844.739029,-3294.210641
59439.105555,-14878.139434,-17024.736666,-8656.879127
59439.105864,-14730.098246,-17838.963202,-15934.786358
59439.106174,-14211.954086,-19023.292709,-13483.280765
59439.106484,-11325.150913,-18431.127956,-9806.022374
59439.106793,-3552.988522,-14582.057057,612.876398
59439.107103,5255.462188,-11251.130318,6052.154434
59439.107413,8290.306550,-5403.503377,10265.679673
59439.107722,12435.459826,-3404.947333,16088.005458
59439.108032,14434.015869,1924.535449,14325.985813
59439.108342,13619.789333,3404.947333,11031.775171
59439.108651,6587.832884,0.000000,4903.011187
59439.108961,-1258.350101,-3034.844362,-3677.258390
59439.109271,-8882.471304,-5995.668130,-8580.269578
59439.109580,-14211.954086,-16062.468941,-9806.022374
59439.109890,-11325.150913,-21317.931130,-12947.013916
59439.110200,-13545.768739,-17098.757260,-13559.890315
59439.110509,-10362.883188,-19615.457463,-7660.954980
59439.110819,-3997.112087,-15840.407159,459.657299
59439.111128,3775.050304,-12065.356855,5898.935335
59439.111438,10510.924376,-3627.009116,11491.432470
59439.111748,14211.954086,-1036.288319,14019.547613
59439.112057,14137.933492,2886.803174,14938.862211
59439.112367,11473.192101,5921.647536,7507.735880
59439.112677,5921.647536,3478.967927,612.876398
59439.112986,2294.638420,-5921.647536,1149.143247
59439.113296,-5699.585753,-9474.636058,-6205.373534
59439.113606,-13323.706956,-14878.139434,-7890.783629
59439.113915,-13027.624579,-17838.963202,-14709.033562
59439.114225,-12731.542202,-20281.642811,-11338.213370
59439.114535,-11177.109724,-19985.560434,-7277.907231
59439.114844,-1924.535449,-13767.830521,0.000000
59439.115154,4145.153275,-11843.295072,7277.907231
59439.115464,10584.944971,-4441.235652,10342.289223
59439.115773,13027.624579,1184.329507,12793.794817
59439.116083,11843.295072,4663.297435,13483.280765
59439.116393,13101.645173,1998.556043,11338.213370
59439.116702,7031.956449,2368.659014,4826.401637
59439.117012,-4441.235652,-74.020594,-5515.887586
59439.117322,-10214.842000,-9918.759623,-6741.640382
59439.117631,-12139.377449,-15692.365970,-14632.424012
59439.117941,-15840.407159,-17394.839637,-17237.148705
59439.118250,-13027.624579,-21539.992912,-7507.735880
59439.118560,-5995.668130,-23686.590144,-2528.115143
59439.118870,-1850.514855,-18949.272115,3600.648841
59439.119179,1258.350101,-11029.068536,5975.544884
59439.119489,10658.965565,-5403.503377,13483.280765
59439.119799,12361.439231,-3256.906145,12257.527968
59439.120108,12657.521608,4737.318029,11568.042020
59439.120418,10362.883188,2442.679609,10495.508323
59439.120728,4515.256246,-962.267725,2987.772442
59439.121037,-1776.494261,-6069.688724,-1532.190996
59439.121347,-8364.327145,-12213.398043,-4596.572988
59439.121657,-11399.171507,-17764.942608,-9882.631924
59439.121966,-13693.809927,-21317.931130,-12947.013916
59439.122276,-14285.974681,-19541.436869,-10495.508323
59439.122586,-9474.636058,-17838.963202,-6741.640382
59439.122895,-740.205942,-15766.386565,-919.314598
59439.123205,4071.132681,-10362.883188,5439.278036
59439.123515,8290.306550,-5847.626942,11338.213370
59439.123824,12139.377449,-1702.473667,14172.766713
59439.124134,13545.768739,1554.432478,14172.766713
59439.124444,11843.295072,4663.297435,11338.213370
59439.124753,6513.812290,518.144159,5209.449386
59439.125063,-74.020594,-5921.647536,-76.609550
59439.125372,-7179.997637,-10362.883188,-6511.811733
59439.125682,-14211.954086,-14285.974681,-11338.213370
59439.125992,-13027.624579,-16580.613101,-13559.890315
59439.126301,-11917.315666,-22502.260637,-9882.631924
59439.126611,-9696.697840,-17912.983796,-6358.592633
59439.126921,592.164754,-13545.768739,76.609550
59439.127230,4071.132681,-14804.118840,6665.030833
59439.127540,7105.977043,-5403.503377,10418.898773
59439.127850,10066.800811,-2442.679609,12870.404366
59439.128159,13027.624579,1110.308913,14709.033562
59439.128469,12953.603985,3552.988522,9116.536426
59439.128779,2590.720797,2294.638420,689.485948
59439.129088,-1628.453072,-5329.482782,-229.828649
59439.129398,-6143.709319,-11251.130318,-5286.058936
59439.129708,-10288.862594,-13915.871710,-10572.117872
59439.130017,-11621.233289,-16506.592507,-12717.185267
59439.130327,-13397.727550,-20725.766376,-8427.050478
59439.130637,-8216.285956,-16654.633695,-6588.421283
59439.130946,-2368.659014,-15470.304188,1225.752797
59439.131256,4737.318029,-9548.656652,6128.763984
59439.131566,10584.944971,-8882.471304,12793.794817
59439.131875,9696.697840,-2442.679609,11568.042020
59439.132185,11843.295072,592.164754,13713.109414
59439.132495,8364.327145,2442.679609,8273.831378
59439.132804,2146.597232,-444.123565,1225.752797
59439.133114,-3478.967927,-6365.771101,-2298.286494
59439.133423,-5033.400406,-9992.780217,-4749.792088
59439.133733,-10436.903782,-11621.233289,-12947.013916
59439.134043,-13397.727550,-13101.645173,-14709.033562
59439.134352,-15396.283594,-16950.716072,-9806.022374
59439.134662,-6513.812290,-16654.633695,-3064.381992
59439.134972,-74.020594,-17172.777854,2374.896044
59439.135281,4071.132681,-9400.615463,7354.516781
59439.135591,9474.636058,-3627.009116,11797.870669
59439.135901,12435.459826,-1332.370696,12487.356617
59439.136210,12213.398043,2664.741391,12487.356617
59439.136520,8142.265362,4885.359217,5745.716235
59439.136830,2294.638420,592.164754,-76.609550
59439.137139,-3034.844362,-3849.070898,-3753.867940
59439.137449,-11029.068536,-7179.997637,-9806.022374
59439.137759,-10658.965565,-14582.057057,-9806.022374
59439.138068,-9548.656652,-15100.201217,-11108.384721
59439.138378,-11103.089130,-19319.375086,-6971.469032
59439.138688,-7698.141797,-15470.304188,-4903.011187
59439.138997,0.000000,-16654.633695,2451.505594
59439.139307,4515.256246,-12509.480420,7737.564530
59439.139617,9622.677246,-4589.276840,9959.241474
59439.139926,12953.603985,-2368.659014,12180.918418
59439.140236,12953.603985,-3552.988522,13406.671215
59439.140545,8216.285956,0.000000,6052.154434
59439.140855,0.000000,-666.185348,0.000000
59439.141165,-3627.009116,-8882.471304,-76.609550
59439.141474,-8882.471304,-12509.480420,-6741.640382
59439.141784,-10658.965565,-14285.974681,-11414.822920
59439.142094,-11547.212695,-17172.777854,-9806.022374
59439.142403,-11621.233289,-20281.642811,-6511.811733
59439.142713,-5403.503377,-17690.922014,-3447.429741
59439.143023,-74.020594,-23094.425390,6971.469032
59439.143332,8808.450710,-13027.624579,9729.412825
59439.143642,7624.121203,-4589.276840,9729.412825
59439.143952,8290.306550,-74.020594,11644.651570
59439.144261,9400.615463,1480.411884,12180.918418
59439.144571,444.123565,1998.556043,2451.505594
59439.144881,-3923.091493,-2516.700203,-766.095498
59439.145190,-8586.388927,-7476.080014,-2987.772442
59439.145500,-11769.274478,-11251.130318,-6511.811733
59439.145810,-12287.418637,-12361.439231,-10112.460574
59439.146119,-13323.706956,-20355.663405,-5669.106685
59439.146429,-11029.068536,-22502.260637,-2451.505594
59439.146739,-5995.668130,-22502.260637,-76.609550
59439.147048,-5551.544565,-17320.819043,2911.162892
59439.147358,1184.329507,-8660.409521,6128.763984
59439.147667,3923.091493,-4811.338623,8580.269578
59439.147977,5551.544565,0.000000,10342.289223
59439.148287,3997.112087,2590.720797,7890.783629
59439.148596,2294.638420,2738.761985,5056.230287
59439.148906,-2220.617826,-1924.535449,1608.800546
59439.149216,-10658.965565,-7772.162391,-2145.067394
59439.149525,-14211.954086,-11917.315666,-9193.145976
59439.149835,-17764.942608,-15470.304188,-9652.803275
59439.150145,-16654.633695,-18949.272115,-8963.317327
59439.150454,-13545.768739,-14285.974681,-7584.345430
59439.150764,-6661.853478,-16876.695478,842.705048
59439.151074,-74.020594,-11547.212695,6052.154434
59439.151383,1332.370696,-8586.388927,8044.002729
59439.151693,2590.720797,-7624.121203,10342.289223
59439.152003,4071.132681,-1850.514855,9729.412825
59439.152312,0.000000,2294.638420,4903.011187
59439.152622,-5921.647536,-74.020594,612.876398
59439.152932,-7105.977043,-6587.832884,1225.752797
59439.153241,-3627.009116,-8290.306550,-1915.238745
59439.153551,-5329.482782,-8660.409521,-4903.011187
59439.153861,-5995.668130,-10658.965565,-6205.373534
59439.154170,-11029.068536,-16580.613101,-5592.497135
59439.154480,-8216.285956,-17690.922014,-2987.772442
59439.154789,-4071.132681,-16358.551318,-1608.800546
59439.155099,-2072.576638,-17246.798449,2221.676944
59439.155409,-3552.988522,-12509.480420,2528.115143
59439.155718,-2368.659014,-9548.656652,3983.696590
59439.156028,592.164754,-3627.009116,7354.516781
59439.156338,7328.038826,-2368.659014,8350.440928
59439.156647,3552.988522,2294.638420,2451.505594
59439.156957,2590.720797,-3552.988522,4826.401637
59439.157267,-3552.988522,-8808.450710,612.876398
59439.157576,-8808.450710,-13619.789333,-4366.744339
59439.157886,-10436.903782,-16358.551318,-7354.516781
59439.158196,-9622.677246,-15914.427753,-7507.735880
59439.158505,-8364.327145,-11325.150913,-6205.373534
59439.158815,-7402.059420,-14211.954086,-2528.115143
59439.159125,-2664.741391,-11473.192101,1225.752797
59439.159434,3552.988522,-11917.315666,6435.202183
59439.159744,6439.791695,-9474.636058,9729.412825
59439.160054,6735.874072,-4737.318029,9729.412825
59439.160363,6069.688724,-666.185348,7354.516781
59439.160673,5477.523971,-2442.679609,5132.839837
59439.160983,-1702.473667,-8364.327145,383.047749
59439.161292,-8882.471304,-11991.336260,-4596.572988
59439.161602,-11917.315666,-17172.777854,-5592.497135
59439.161911,-10140.821405,-15396.283594,-5592.497135
59439.162221,-10066.800811,-11917.315666,-5822.325785
59439.162531,-7698.141797,-12509.480420,-1225.752797
59439.162840,-4811.338623,-13027.624579,-76.609550
59439.163150,-1776.494261,-12213.398043,4290.134789
59439.163460,0.000000,-8660.409521,6128.763984
59439.163769,1406.391290,-4367.215058,7967.393179
59439.164079,2368.659014,74.020594,7660.954980
59439.164389,3849.070898,4663.297435,5286.058936
59439.164698,4663.297435,2368.659014,4826.401637
59439.165008,2294.638420,-3256.906145,2374.896044
59439.165318,-5403.503377,-8586.388927,-4060.306139
59439.165627,-11843.295072,-13101.645173,-8580.269578
59439.165937,-14285.974681,-24278.754898,-7431.126331
59439.166247,-16580.613101,-22576.281231,-7967.393179
59439.166556,-13767.830521,-18431.127956,-4903.011187
59439.166866,-7402.059420,-13101.645173,383.047749
59439.167176,-1110.308913,-6439.791695,5286.058936
59439.167485,4293.194464,-1184.329507,9116.536426
59439.167795,9400.615463,0.000000,13406.671215
59439.168105,11769.274478,2368.659014,13406.671215
59439.168414,4663.297435,4145.153275,6052.154434
59439.168724,0.000000,-1850.514855,2757.943793
59439.169034,-6143.709319,-5477.523971,-4366.744339
59439.169343,-15396.283594,-11917.315666,-7354.516781
59439.169653,-16654.633695,-18875.251521,-10112.460574
59439.169962,-18431.127956,-21688.034101,-9959.241474
59439.170272,-14285.974681,-20947.828159,-6741.640382
59439.170582,-9030.512492,-14878.139434,-4060.306139
59439.170891,-1184.329507,-10732.986159,4290.134789
59439.171201,4737.318029,-4811.338623,9806.022374
59439.171511,10584.944971,-2368.659014,10955.165621
59439.171820,7624.121203,4293.194464,9346.365076
59439.172130,8290.306550,4071.132681,10418.898773
59439.172440,1628.453072,1998.556043,2451.505594
59439.172749,-74.020594,-2368.659014,-76.609550
59439.173059,-5181.441594,-9104.533087,-2451.505594
59439.173369,-9178.553681,-12213.398043,-7201.297681
59439.173678,-13027.624579,-17246.798449,-9729.412825
59439.173988,-13619.789333,-21984.116477,-8580.269578
59439.174298,-11843.295072,-21391.951724,-6741.640382
59439.174607,-3034.844362,-20577.725188,-689.485948
59439.174917,-370.102971,-12435.459826,1455.581446
59439.175227,0.000000,-3034.844362,4903.011187
59439.175536,6143.709319,-74.020594,7124.688131
59439.175846,8216.285956,1184.329507,11568.042020
59439.176156,6439.791695,3182.885551,9729.412825
59439.176465,4589.276840,2294.638420,6205.373534
59439.176775,74.020594,-3330.926739,4213.525239
59439.177084,-2960.823768,-5995.668130,0.000000
59439.177394,-7105.977043,-9548.656652,-3370.820191
59439.177704,-7550.100608,-16876.695478,-3600.648841
59439.178013,-8068.244768,-17764.942608,-6205.373534
59439.178323,-9474.636058,-16654.633695,-4903.011187
59439.178633,-3034.844362,-18949.272115,-995.924147
59439.178942,-74.020594,-13915.871710,2987.772442
59439.179252,2664.741391,-8364.327145,5515.887586
59439.179562,7254.018232,-4737.318029,9499.584175
59439.179871,9844.739029,0.000000,11338.213370
59439.180181,7105.977043,5847.626942,8580.269578
59439.180491,6291.750507,4219.173869,7277.907231
59439.180800,2368.659014,-74.020594,4903.011187
59439.181110,1406.391290,-8290.306550,3600.648841
59439.181420,-8882.471304,-9548.656652,0.000000
59439.181729,-5403.503377,-14211.954086,-1302.362347
59439.182039,-5403.503377,-17468.860231,-1225.752797
59439.182349,-3923.091493,-16136.489536,-229.828649
59439.182658,-2442.679609,-15322.262999,3370.820191
59439.182968,-740.205942,-12213.398043,5286.058936
59439.183278,1110.308913,-6957.935855,6052.154434
59439.183587,2294.638420,-5255.462188,7277.907231
59439.183897,4737.318029,-2442.679609,11031.775171
59439.184206,6439.791695,-4441.235652,12793.794817
59439.184516,4737.318029,-74.020594,12257.527968
59439.184826,7031.956449,-3552.988522,9729.412825
59439.185135,1480.411884,-5995.668130,7354.516781
59439.185445,-1036.288319,-9104.533087,3294.210641
59439.185755,-3701.029710,-14211.954086,3217.601092
59439.186064,-4589.276840,-20059.581028,3447.429741
59439.186374,-7179.997637,-23686.590144,4213.525239
59439.186684,-8364.327145,-23686.590144,3600.648841
59439.186993,-9474.636058,-16062.468941,3677.258390
59439.187303,-1776.494261,-10140.821405,10418.898773
59439.187613,7031.956449,-2368.659014,12180.918418
59439.187922,8882.471304,74.020594,17773.415554
59439.188232,7105.977043,4663.297435,12410.747068
59439.188542,6217.729913,1332.370696,12257.527968
59439.188851,1998.556043,-3849.070898,10189.070123
59439.189161,-888.247130,-7179.997637,6358.592633
59439.189471,-3627.009116,-12731.542202,3600.648841
59439.189780,-4811.338623,-13027.624579,1762.019645
59439.190090,-5699.585753,-13619.789333,-229.828649
59439.190400,-4737.318029,-15766.386565,0.000000
59439.190709,-3627.009116,-21317.931130,4213.525239
59439.191019,-8290.306550,-20207.622217,4903.011187
59439.191328,-3849.070898,-13101.645173,4443.353888
59439.191638,2072.576638,-6291.750507,7814.174080
59439.191948,3849.070898,-1554.432478,10342.289223
59439.192257,5107.421000,-592.164754,11261.603821
59439.192567,7031.956449,-2072.576638,10418.898773
59439.192877,7031.956449,-2368.659014,9116.536426
59439.193186,4663.297435,-6365.771101,4213.525239
59439.193496,-1184.329507,-11029.068536,0.000000
59439.193806,-2516.700203,-18949.272115,1762.019645
59439.194115,-10658.965565,-19023.292709,-3064.381992
59439.194425,-11991.336260,-21317.931130,-5592.497135
59439.194735,-10510.924376,-19985.560434,-4596.572988
59439.195044,-5773.606348,-16432.571912,-1608.800546
59439.195354,0.000000,-9622.677246,2068.457845
59439.195664,4441.235652,-6587.832884,6128.763984
59439.195973,7698.141797,-4737.318029,9499.584175
59439.196283,9400.615463,592.164754,7277.907231
59439.196593,7105.977043,1998.556043,6128.763984
59439.196902,8216.285956,-5921.647536,6665.030833
59439.197212,0.000000,-7772.162391,2757.943793
59439.197522,-74.020594,-10955.047942,229.828649
59439.197831,-2886.803174,-12361.439231,-3140.991542
59439.198141,-5921.647536,-14211.954086,-4290.134789
59439.198450,-6957.935855,-15248.242405,-4673.182538
59439.198760,-5921.647536,-14878.139434,-3677.258390
59439.199070,-3552.988522,-13101.645173,-3064.381992
59439.199379,0.000000,-14434.015869,612.876398
59439.199689,1702.473667,-11843.295072,2374.896044
59439.199999,0.000000,-7179.997637,3064.381992
59439.200308,3256.906145,-74.020594,2757.943793
59439.200618,6439.791695,592.164754,5132.839837
59439.200928,4515.256246,1184.329507,4826.401637
59439.201237,3627.009116,-444.123565,3524.039291
59439.201547,2960.823768,-5181.441594,1455.581446
59439.201857,0.000000,-7476.080014,-1225.752797
59439.202166,-6513.812290,-14878.139434,-2451.505594
59439.202476,-5921.647536,-22280.198854,-919.314598
59439.202785,-3034.844362,-18949.272115,-76.609550
59439.203095,-7105.977043,-12509.480420,-2451.505594
59439.203405,-1258.350101,-9178.553681,229.828649
59439.203714,4663.297435,-5921.647536,4826.401637
59439.204024,6439.791695,-6365.771101,7814.174080
59439.204334,3775.050304,-5551.544565,6052.154434
59439.204643,592.164754,-10214.842000,5439.278036
59439.204953,0.000000,-11917.315666,6128.763984
59439.205263,-3552.988522,-8364.327145,3677.258390
59439.205572,-1850.514855,-10658.965565,4213.525239
59439.205882,-4589.276840,-6587.832884,766.095498
59439.206191,-74.020594,-12805.562797,7124.688131
59439.206501,-666.185348,-10214.842000,2374.896044
59439.206811,-3034.844362,-13027.624579,2374.896044
59439.207120,-5921.647536,-13915.871710,2987.772442
59439.207430,-814.226536,-10955.047942,5669.106685
59439.207740,2442.679609,-8290.306550,7584.345430
59439.208049,0.000000,-74.020594,4903.011187
59439.208359,-4145.153275,-1258.350101,4903.011187
59439.208668,2516.700203,-3478.967927,6665.030833
59439.208978,2294.638420,-4441.235652,4826.401637
59439.209288,-3552.988522,-5403.503377,4903.011187
59439.209597,-3034.844362,-7698.141797,1762.019645
59439.209907,-1850.514855,-11547.212695,3217.601092
59439.210217,-2146.597232,-11473.192101,2834.553343
59439.210526,-3182.885551,-11029.068536,2834.553343
59439.210836,-2738.761985,-8956.491898,1838.629195
59439.211146,-3404.947333,-5995.668130,1225.752797
59439.211455,962.267725,-4811.338623,2451.505594
59439.211765,2368.659014,-5403.503377,4903.011187
59439.212074,2294.638420,-8734.430116,4826.401637
59439.212384,-2886.803174,-7772.162391,459.657299
59439.212694,1702.473667,-12731.542202,2374.896044
59439.213003,-888.247130,-12213.398043,1225.752797
59439.213313,-2664.741391,-11177.109724,536.266849
59439.213623,-1554.432478,-8438.347739,76.609550
59439.213932,-592.164754,-8364.327145,-306.438199
59439.214242,-962.267725,-8586.388927,-76.609550
59439.214551,-74.020594,-10658.965565,-689.485948
59439.214861,-1998.556043,-9548.656652,-1915.238745
59439.215171,0.000000,-9548.656652,0.000000
59439.215480,4663.297435,-9474.636058,-76.609550
59439.215790,5847.626942,-7105.977043,-76.609550
59439.216100,1776.494261,-7179.997637,0.000000
59439.216409,444.123565,-8956.491898,-1149.143247
59439.216719,148.041188,-10214.842000,-2987.772442
59439.217028,-444.123565,-11843.295072,-2681.334243
59439.217338,-1554.432478,-11251.130318,-1302.362347
59439.217648,-74.020594,-12435.459826,-1915.238745
59439.217957,-1850.514855,-8660.409521,-4060.306139
59439.218267,-2368.659014,-10732.986159,0.000000
59439.218577,3478.967927,-9474.636058,-689.485948
59439.218886,1480.411884,-9474.636058,-76.609550
59439.219196,296.082377,-4811.338623,-1225.752797
59439.219506,2220.617826,-5995.668130,-1455.581446
59439.219815,2442.679609,-5847.626942,-2068.457845
59439.220125,-1110.308913,-9548.656652,-2681.334243
59439.220434,-1850.514855,-11843.295072,-3447.429741
59439.220744,-1258.350101,-14211.954086,-4060.306139
59439.221054,-3552.988522,-11917.315666,-4596.572988
59439.221363,-1702.473667,-12213.398043,0.000000
59439.221673,-74.020594,-12731.542202,-76.609550
59439.221983,-1776.494261,-9696.697840,0.000000
59439.222292,-1184.329507,-8068.244768,-995.924147
59439.222602,1776.494261,-6661.853478,229.828649
59439.222911,1258.350101,-5847.626942,383.047749
59439.223221,1480.411884,-4515.256246,229.828649
59439.223531,4367.215058,-5921.647536,-76.609550
59439.223840,4663.297435,-8882.471304,2145.067394
59439.224150,-74.020594,-11251.130318,-76.609550
59439.224460,-4145.153275,-10140.821405,-4903.011187
59439.224769,-1332.370696,-15692.365970,-383.047749
59439.225079,-2368.659014,-13101.645173,0.000000
59439.225389,-1924.535449,-12435.459826,0.000000
59439.225698,-1702.473667,-11917.315666,1072.533697
59439.226008,-962.267725,-10140.821405,919.314598
59439.226317,370.102971,-9548.656652,2451.505594
59439.226627,3330.926739,-9104.533087,4596.572988
59439.226937,2960.823768,-6143.709319,5669.106685
59439.227246,3478.967927,-3997.112087,4213.525239
59439.227556,2368.659014,-1258.350101,1225.752797
59439.227866,4663.297435,-9474.636058,4826.401637
59439.228175,-4145.153275,-8364.327145,1225.752797
59439.228485,-4515.256246,-13175.665768,459.657299
59439.228794,-4367.215058,-15026.180623,0.000000
59439.229104,-2442.679609,-14434.015869,1608.800546
59439.229414,-2220.617826,-12805.562797,3064.381992
59439.229723,-1776.494261,-9548.656652,2451.505594
59439.230033,-2368.659014,-8364.327145,3064.381992
59439.230343,1702.473667,-8882.471304,4519.963438
59439.230652,296.082377,-4811.338623,306.438199
59439.230962,0.000000,-5403.503377,5515.887586
59439.231272,0.000000,-1850.514855,3064.381992
59439.231581,3330.926739,-2812.782580,3907.087040
59439.231891,2368.659014,-4589.276840,3830.477490
59439.232200,-1036.288319,-7994.224174,3064.381992
59439.232510,-3404.947333,-10881.027347,1072.533697
59439.232820,-4145.153275,-13101.645173,0.000000
59439.233129,-4145.153275,-13693.809927,612.876398
59439.233439,-2368.659014,-13693.809927,2451.505594
59439.233749,-1258.350101,-14211.954086,3600.648841
59439.234058,-4737.318029,-7328.038826,0.000000
59439.234368,-962.267725,-5921.647536,76.609550
59439.234677,1480.411884,-5551.544565,3217.601092
59439.234987,1554.432478,-3552.988522,3677.258390
59439.235297,3108.864956,-2368.659014,3370.820191
59439.235606,3627.009116,-3330.926739,2604.724693
59439.235916,592.164754,-6957.935855,2681.334243
59439.236226,-3552.988522,-8364.327145,0.000000
59439.236535,-2368.659014,-13101.645173,0.000000
59439.236845,-74.020594,-15988.448347,-76.609550
59439.237155,-2960.823768,-11917.315666,0.000000
59439.237464,-74.020594,-14211.954086,-383.047749
59439.237774,-1776.494261,-12509.480420,459.657299
59439.238083,-2146.597232,-11473.192101,689.485948
59439.238393,-148.041188,-8438.347739,612.876398
59439.238703,0.000000,-6365.771101,1149.143247
59439.239012,-74.020594,-2368.659014,2374.896044
59439.239322,2886.803174,-518.144159,842.705048
59439.239632,2960.823768,-2442.679609,1225.752797
59439.239941,2886.803174,-9474.636058,4213.525239
59439.240251,-4737.318029,-9548.656652,0.000000
59439.240560,-370.102971,-14211.954086,-1302.362347
59439.240870,-2220.617826,-13693.809927,-1225.752797
59439.241180,-1332.370696,-12287.418637,-306.438199
59439.241489,-2294.638420,-13471.748144,306.438199
59439.241799,-2590.720797,-12731.542202,-536.266849
59439.242109,-1850.514855,-14211.954086,-76.609550
59439.242418,-1258.350101,-9474.636058,-689.485948
59439.242728,-2072.576638,-5403.503377,-612.876398
59439.243038,2146.597232,-4737.318029,4213.525239
59439.243347,3330.926739,2812.782580,766.095498
59439.243657,7328.038826,-2368.659014,4213.525239
59439.243966,2368.659014,-5255.462188,995.924147
59439.244276,-1036.288319,-11325.150913,153.219100
59439.244586,-1776.494261,-14137.933492,-1378.971896
59439.244895,-1776.494261,-14508.036463,-1608.800546
59439.245205,-666.185348,-14211.954086,-76.609550
59439.245515,-74.020594,-14211.954086,-383.047749
59439.245824,-2442.679609,-10658.965565,-2528.115143
59439.246134,-4145.153275,-9548.656652,0.000000
59439.246443,-74.020594,-10658.965565,-76.609550
59439.246753,-296.082377,-8734.430116,1762.019645
59439.247063,1184.329507,-3330.926739,306.438199
59439.247372,4441.235652,-2146.597232,1455.581446
59439.247682,5033.400406,-2960.823768,2068.457845
59439.247992,2220.617826,-6365.771101,1532.190996
59439.248301,1184.329507,-12139.377449,919.314598
59439.248611,2294.638420,-14211.954086,-76.609550
59439.248921,-1628.453072,-12139.377449,-1685.410096
59439.249230,-2072.576638,-14285.974681,1225.752797
59439.249540,-1258.350101,-14211.954086,-1302.362347
59439.249849,-3552.988522,-11917.315666,-612.876398
59439.250159,-3478.967927,-10955.047942,-2528.115143
59439.250469,-2072.576638,-7698.141797,-2834.553343
59439.250778,-814.226536,-7031.956449,-689.485948
59439.251088,1110.308913,-4071.132681,536.266849
59439.251398,3552.988522,-3330.926739,306.438199
59439.251707,5403.503377,-6661.853478,4060.306139
59439.252017,1702.473667,-9474.636058,2374.896044
59439.252326,-2368.659014,-9548.656652,1225.752797
59439.252636,2294.638420,-13027.624579,-76.609550
59439.252946,-1184.329507,-10732.986159,1225.752797
59439.253255,-444.123565,-13027.624579,1838.629195
