#time,accel_x,accel_y,accel_z
163482.789081,0.000000,-9400.615463,306.438199
163482.789400,-74.020594,-9474.636058,-76.609550
163482.789720,0.000000,-8364.327145,612.876398
163482.790040,-74.020594,-9474.636058,1149.143247
163482.790360,-666.185348,-8734.430116,-76.609550
163482.790679,-74.020594,-8290.306550,-1302.362347
163482.790999,0.000000,-8660.409521,1532.190996
163482.791319,-888.247130,-8660.409521,-842.705048
163482.791639,-592.164754,-9104.533087,-1149.143247
163482.791958,-740.205942,-9474.636058,-612.876398
163482.792278,-740.205942,-8956.491898,-2451.505594
163482.792598,-74.020594,-9696.697840,-1608.800546
163482.792918,-2072.576638,-9548.656652,-1532.190996
163482.793237,-74.020594,-10584.944971,1762.019645
163482.793557,-74.020594,-8290.306550,-2068.457845
163482.793877,0.000000,-9918.759623,842.705048
163482.794197,0.000000,-9548.656652,612.876398
163482.794516,222.061783,-9622.677246,-459.657299
163482.794836,-148.041188,-9252.574275,-766.095498
163482.795156,0.000000,-9252.574275,0.000000
163482.795476,-1110.308913,-7179.997637,-2374.896044
163482.795795,74.020594,-9400.615463,-536.266849
163482.796115,-592.164754,-8142.265362,-1762.019645
163482.796435,0.000000,-8364.327145,612.876398
163482.796755,1036.288319,-10214.842000,766.095498
163482.797074,2294.638420,-11843.295072,-76.609550
163482.797394,-1184.329507,-8956.491898,0.000000
163482.797714,-592.164754,-8808.450710,153.219100
163482.798033,-666.185348,-9326.594869,-153.219100
163482.798353,-592.164754,-9252.574275,-383.047749
163482.798673,-2664.741391,-6587.832884,-1991.848295
163482.798993,-222.061783,-9474.636058,-76.609550
163482.799312,-2960.823768,-7772.162391,-1838.629195
163482.799632,-1184.329507,-9770.718434,-536.266849
163482.799952,-74.020594,-11547.212695,2374.896044
163482.800272,-2368.659014,-8364.327145,0.000000
163482.800591,-814.226536,-9178.553681,-842.705048
163482.800911,-222.061783,-9474.636058,-383.047749
163482.801231,0.000000,-9474.636058,-306.438199
163482.801551,-666.185348,-8364.327145,-1302.362347
163482.801870,-518.144159,-9548.656652,-1072.533697
163482.802190,-1628.453072,-8660.409521,-1225.752797
163482.802510,222.061783,-9400.615463,0.000000
163482.802830,1998.556043,-10658.965565,1532.190996
163482.803149,0.000000,-7772.162391,0.000000
163482.803469,222.061783,-8734.430116,-766.095498
163482.803789,0.000000,-9548.656652,76.609550
163482.804109,-148.041188,-8956.491898,76.609550
163482.804428,-296.082377,-9400.615463,-306.438199
163482.804748,1702.473667,-11843.295072,2374.896044
163482.805068,-1036.288319,-8660.409521,0.000000
163482.805388,-740.205942,-9474.636058,0.000000
163482.805707,-962.267725,-9474.636058,-459.657299
163482.806027,-740.205942,-9474.636058,0.000000
163482.806347,-2368.659014,-6587.832884,0.000000
163482.806667,-1850.514855,-6883.915261,-2068.457845
163482.806986,-1184.329507,-8956.491898,0.000000
163482.807306,-74.020594,-9474.636058,-76.609550
163482.807626,-1554.432478,-8734.430116,-1302.362347
163482.807946,-74.020594,-11695.253884,1149.143247
163482.808265,-1184.329507,-8956.491898,-1072.533697
163482.808585,-74.020594,-9844.739029,-689.485948
163482.808905,-74.020594,-9696.697840,-459.657299
163482.809224,-1702.473667,-8364.327145,0.000000
163482.809544,0.000000,-9548.656652,0.000000
163482.809864,-370.102971,-9178.553681,-1302.362347
163482.810184,-444.123565,-9548.656652,0.000000
163482.810503,2294.638420,-10658.965565,1149.143247
163482.810823,2294.638420,-9474.636058,-76.609550
163482.811143,592.164754,-10140.821405,1302.362347
163482.811463,0.000000,-8956.491898,153.219100
163482.811782,0.000000,-8734.430116,306.438199
163482.812102,0.000000,-9474.636058,0.000000
163482.812422,0.000000,-9252.574275,612.876398
163482.812742,-592.164754,-8956.491898,76.609550
163482.813061,1480.411884,-10658.965565,2374.896044
163482.813381,1110.308913,-9178.553681,-76.609550
163482.813701,0.000000,-8512.368333,0.000000
163482.814021,2294.638420,-9474.636058,-76.609550
163482.814340,222.061783,-8808.450710,0.000000
163482.814660,814.226536,-9548.656652,-1149.143247
163482.814980,1110.308913,-9548.656652,-1072.533697
163482.815300,2220.617826,-10658.965565,383.047749
163482.815619,1184.329507,-9548.656652,612.876398
163482.815939,0.000000,-7772.162391,-2145.067394
163482.816259,4663.297435,-11251.130318,-76.609550
163482.816579,2664.741391,-8660.409521,0.000000
163482.816898,3849.070898,-7179.997637,0.000000
163482.817218,7031.956449,-9474.636058,-76.609550
163482.817538,5477.523971,-9548.656652,612.876398
163482.817858,5107.421000,-9178.553681,306.438199
163482.818177,5847.626942,-9326.594869,0.000000
163482.818497,4737.318029,-9548.656652,0.000000
163482.818817,5847.626942,-9178.553681,-689.485948
163482.819137,4145.153275,-8364.327145,-1225.752797
163482.819456,6069.688724,-9252.574275,0.000000
163482.819776,8808.450710,-11251.130318,-76.609550
163482.820096,7031.956449,-7698.141797,-2068.457845
163482.820415,7476.080014,-9918.759623,995.924147
163482.820735,6217.729913,-10288.862594,76.609550
163482.821055,4885.359217,-10881.027347,-76.609550
163482.821375,3404.947333,-11621.233289,-229.828649
163482.821694,1702.473667,-12509.480420,1302.362347
163482.822014,2738.761985,-11547.212695,536.266849
163482.822334,2368.659014,-8068.244768,-1302.362347
163482.822654,3849.070898,-8364.327145,1838.629195
163482.822973,4515.256246,-6809.894666,0.000000
163482.823293,2886.803174,-3849.070898,-2528.115143
163482.823613,3256.906145,-5847.626942,-2374.896044
163482.823933,3627.009116,-7254.018232,-3217.601092
163482.824252,3478.967927,-9992.780217,-2604.724693
163482.824572,4663.297435,-14211.954086,-76.609550
163482.824892,3775.050304,-16728.654289,-76.609550
163482.825212,2368.659014,-16062.468941,2451.505594
163482.825531,3478.967927,-15100.201217,2987.772442
163482.825851,4071.132681,-10214.842000,4060.306139
163482.826171,1184.329507,-4811.338623,0.000000
163482.826491,2294.638420,-4737.318029,-689.485948
163482.826810,1998.556043,-5181.441594,0.000000
163482.827130,3256.906145,-6291.750507,383.047749
163482.827450,2368.659014,-7624.121203,76.609550
163482.827770,740.205942,-10436.903782,1302.362347
163482.828089,-1850.514855,-9474.636058,-383.047749
163482.828409,-2368.659014,-8660.409521,153.219100
163482.828729,592.164754,-9548.656652,0.000000
163482.829049,592.164754,-8956.491898,612.876398
163482.829368,0.000000,-7920.203579,0.000000
163482.829688,814.226536,-10140.821405,1149.143247
163482.830008,296.082377,-9252.574275,-383.047749
163482.830328,-888.247130,-8512.368333,-2911.162892
163482.830647,-2812.782580,-7698.141797,-4979.620737
163482.830967,-2960.823768,-9474.636058,-4366.744339
163482.831287,1628.453072,-12731.542202,-1915.238745
163482.831606,2368.659014,-11325.150913,0.000000
163482.831926,0.000000,-10140.821405,2451.505594
163482.832246,2072.576638,-9326.594869,1991.848295
163482.832566,0.000000,-6291.750507,-2451.505594
163482.832885,4367.215058,-9474.636058,1378.971896
163482.833205,6439.791695,-9252.574275,4749.792088
163482.833525,6735.874072,-7550.100608,5286.058936
163482.833845,7031.956449,-6809.894666,-76.609550
163482.834164,1702.473667,-7550.100608,-3753.867940
163482.834484,-74.020594,-12953.603985,-4979.620737
163482.834804,-962.267725,-13027.624579,-5286.058936
163482.835124,-1776.494261,-13693.809927,-3524.039291
163482.835443,0.000000,-11917.315666,0.000000
163482.835763,518.144159,-10955.047942,-1838.629195
163482.836083,5773.606348,-10584.944971,2681.334243
163482.836403,11547.212695,-7698.141797,7201.297681
163482.836722,12583.501014,-3256.906145,9269.755526
163482.837042,11769.274478,-2368.659014,6971.469032
163482.837362,4737.318029,-1850.514855,2451.505594
163482.837682,5847.626942,-9474.636058,-76.609550
163482.838001,3182.885551,-11843.295072,1149.143247
163482.838321,-74.020594,-13915.871710,-2298.286494
163482.838641,-5995.668130,-12287.418637,-8810.098227
163482.838961,-4219.173869,-14656.077652,-9039.926876
163482.839280,-1998.556043,-14285.974681,-5898.935335
163482.839600,1776.494261,-11769.274478,-2757.943793
163482.839920,5255.462188,-11843.295072,2374.896044
163482.840240,7031.956449,-7402.059420,1685.410096
163482.840559,8216.285956,-5921.647536,3294.210641
163482.840879,7994.224174,-4441.235652,3600.648841
163482.841199,5329.482782,-5107.421000,4903.011187
163482.841519,8216.285956,-8290.306550,4826.401637
163482.841838,7624.121203,-8290.306550,3600.648841
163482.842158,3108.864956,-8512.368333,-1225.752797
163482.842478,0.000000,-11917.315666,-4060.306139
163482.842797,-518.144159,-14063.912898,-4903.011187
163482.843117,-2368.659014,-13397.727550,-4903.011187
163482.843437,-518.144159,-13471.748144,-4136.915689
163482.843757,-296.082377,-11547.212695,-2298.286494
163482.844076,1036.288319,-9104.533087,-995.924147
163482.844396,3330.926739,-6291.750507,0.000000
163482.844716,7031.956449,-5625.565159,2987.772442
163482.845036,8512.368333,-7105.977043,5898.935335
163482.845355,6735.874072,-5033.400406,4519.963438
163482.845675,3108.864956,-4811.338623,1455.581446
163482.845995,2294.638420,-10658.965565,1149.143247
163482.846315,-3552.988522,-9548.656652,-3677.258390
163482.846634,-2812.782580,-11325.150913,-4673.182538
163482.846954,-2886.803174,-13249.686362,-4903.011187
163482.847274,-1776.494261,-13101.645173,-3294.210641
163482.847594,518.144159,-12139.377449,-1608.800546
163482.847913,3627.009116,-9474.636058,459.657299
163482.848233,6365.771101,-8290.306550,2374.896044
163482.848553,4737.318029,-6291.750507,3677.258390
163482.848873,6439.791695,-8290.306550,3294.210641
163482.849192,5181.441594,-8660.409521,4060.306139
163482.849512,1628.453072,-7476.080014,306.438199
163482.849832,1776.494261,-9622.677246,-919.314598
163482.850152,-222.061783,-9918.759623,-3064.381992
163482.850471,-592.164754,-10436.903782,-4060.306139
163482.850791,-740.205942,-10732.986159,-4903.011187
163482.851111,1332.370696,-11843.295072,-1838.629195
163482.851431,1184.329507,-9548.656652,0.000000
163482.851750,3404.947333,-10288.862594,3064.381992
163482.852070,4663.297435,-9474.636058,3600.648841
163482.852390,5329.482782,-9252.574275,6358.592633
163482.852710,5033.400406,-7179.997637,4596.572988
163482.853029,3627.009116,-7105.977043,2834.553343
163482.853349,740.205942,-6735.874072,-76.609550
163482.853669,-4737.318029,-5995.668130,-6128.763984
163482.853988,-6883.915261,-8364.327145,-6281.983084
163482.854308,-3034.844362,-11843.295072,-6511.811733
163482.854628,-4737.318029,-11029.068536,-4903.011187
163482.854948,-2368.659014,-11325.150913,-3140.991542
163482.855267,-74.020594,-13027.624579,-76.609550
163482.855587,592.164754,-11325.150913,3064.381992
163482.855907,2960.823768,-8808.450710,4826.401637
163482.856227,3256.906145,-6143.709319,4443.353888
163482.856546,1480.411884,-6587.832884,3447.429741
163482.856866,-2146.597232,-4589.276840,229.828649
163482.857186,-4145.153275,-7772.162391,-2298.286494
163482.857506,-4811.338623,-10955.047942,-3140.991542
163482.857825,-4293.194464,-11547.212695,-3753.867940
163482.858145,-5477.523971,-10436.903782,-4749.792088
163482.858465,-2442.679609,-13027.624579,-1915.238745
163482.858785,-4293.194464,-10732.986159,-2757.943793
163482.859104,-1628.453072,-12287.418637,1455.581446
163482.859424,3256.906145,-9918.759623,5515.887586
163482.859744,2886.803174,-7772.162391,6818.249932
163482.860063,0.000000,-4811.338623,6128.763984
163482.860383,-4441.235652,-3627.009116,612.876398
163482.860703,-5921.647536,-5699.585753,-2451.505594
163482.861023,-3849.070898,-7920.203579,-919.314598
163482.861342,-3182.885551,-8364.327145,-3753.867940
163482.861662,-4737.318029,-8956.491898,-3907.087040
163482.861982,-2442.679609,-11547.212695,-4060.306139
163482.862301,-3552.988522,-11917.315666,-4443.353888
163482.862621,-2368.659014,-13915.871710,-1915.238745
163482.862941,-74.020594,-13027.624579,1762.019645
163482.863261,296.082377,-11621.233289,2757.943793
163482.863580,-2368.659014,-5995.668130,0.000000
163482.863900,-1184.329507,-7476.080014,229.828649
163482.864220,-74.020594,-7698.141797,1149.143247
163482.864539,1776.494261,-3627.009116,0.000000
163482.864859,5847.626942,-7698.141797,1762.019645
163482.865179,2442.679609,-8364.327145,1225.752797
163482.865499,1554.432478,-9844.739029,-995.924147
163482.865818,814.226536,-11991.336260,-536.266849
163482.866138,4145.153275,-12509.480420,1532.190996
163482.866458,0.000000,-9548.656652,0.000000
163482.866777,-592.164754,-10732.986159,229.828649
163482.867097,-2146.597232,-8882.471304,-2451.505594
163482.867417,-2442.679609,-9474.636058,-3753.867940
163482.867737,-4145.153275,-7179.997637,-4903.011187
163482.868056,1702.473667,-7846.182985,-689.485948
163482.868376,4145.153275,-7254.018232,1762.019645
163482.868696,4959.379811,-6809.894666,2451.505594
163482.869016,4145.153275,-8882.471304,2374.896044
163482.869335,3849.070898,-10658.965565,2987.772442
163482.869655,3256.906145,-10362.883188,1072.533697
163482.869975,148.041188,-11251.130318,-383.047749
163482.870294,-4145.153275,-9548.656652,-2451.505594
163482.870614,-4737.318029,-8956.491898,-4903.011187
163482.870934,-5551.544565,-10140.821405,-4903.011187
163482.871254,2368.659014,-10362.883188,-1532.190996
163482.871573,1554.432478,-8142.265362,-612.876398
163482.871893,888.247130,-7179.997637,229.828649
163482.872213,1702.473667,-7105.977043,-689.485948
163482.872532,3330.926739,-9992.780217,2987.772442
163482.872852,4071.132681,-9474.636058,3600.648841
163482.873172,1184.329507,-10140.821405,3677.258390
163482.873492,148.041188,-10955.047942,3524.039291
163482.873811,-4145.153275,-7772.162391,-1225.752797
163482.874131,-7328.038826,-8956.491898,-5669.106685
163482.874451,-5477.523971,-10955.047942,-4213.525239
163482.874770,-3330.926739,-9326.594869,-3447.429741
163482.875090,-666.185348,-8660.409521,-842.705048
163482.875410,3478.967927,-8290.306550,-76.609550
163482.875730,592.164754,-7772.162391,1838.629195
163482.876049,2294.638420,-9474.636058,3600.648841
163482.876369,2146.597232,-8512.368333,2987.772442
163482.876689,-1110.308913,-9030.512492,2757.943793
163482.877008,-4219.173869,-7624.121203,0.000000
163482.877328,-5995.668130,-8216.285956,-2604.724693
163482.877648,-6587.832884,-9548.656652,-4290.134789
163482.877968,-4293.194464,-9326.594869,-3907.087040
163482.878287,-1258.350101,-10658.965565,-2528.115143
163482.878607,-2294.638420,-9178.553681,-3447.429741
163482.878927,-2590.720797,-7772.162391,-4136.915689
163482.879246,-2220.617826,-9548.656652,-3600.648841
163482.879566,2960.823768,-12953.603985,4596.572988
163482.879886,4663.297435,-10066.800811,2374.896044
163482.880206,4663.297435,-10955.047942,4826.401637
163482.880525,814.226536,-7772.162391,2528.115143
163482.880845,-1480.411884,-7402.059420,-995.924147
163482.881165,-2442.679609,-9474.636058,-1685.410096
163482.881484,-1776.494261,-8956.491898,0.000000
163482.881804,74.020594,-8882.471304,-1378.971896
163482.882124,518.144159,-9474.636058,-459.657299
163482.882444,74.020594,-8586.388927,-1838.629195
163482.882763,296.082377,-9844.739029,-1532.190996
163482.883083,2886.803174,-10214.842000,1149.143247
163482.883403,4663.297435,-10658.965565,3294.210641
163482.883722,-74.020594,-9474.636058,1225.752797
163482.884042,-3849.070898,-6735.874072,-1302.362347
163482.884362,-4515.256246,-9326.594869,-2528.115143
163482.884682,-2368.659014,-8364.327145,-1532.190996
163482.885001,1036.288319,-7920.203579,-1608.800546
163482.885321,1258.350101,-7920.203579,383.047749
163482.885641,1110.308913,-8290.306550,-1378.971896
163482.885960,814.226536,-8882.471304,-2298.286494
163482.886280,1480.411884,-10881.027347,0.000000
163482.886600,4663.297435,-12731.542202,1149.143247
163482.886920,2072.576638,-11843.295072,2374.896044
163482.887239,-1406.391290,-9770.718434,-1149.143247
163482.887559,-1258.350101,-11251.130318,-1302.362347
163482.887879,-3256.906145,-8956.491898,-3064.381992
163482.888198,-1036.288319,-9326.594869,-1915.238745
163482.888518,1184.329507,-8438.347739,-612.876398
163482.888838,2072.576638,-6587.832884,-153.219100
163482.889158,0.000000,-5995.668130,0.000000
163482.889477,1554.432478,-9178.553681,919.314598
163482.889797,2368.659014,-9548.656652,2604.724693
163482.890117,5847.626942,-12731.542202,4826.401637
163482.890436,1110.308913,-10288.862594,2681.334243
163482.890756,-1998.556043,-11843.295072,-76.609550
163482.891076,-6513.812290,-8586.388927,-3983.696590
163482.891396,-4441.235652,-10066.800811,-3677.258390
163482.891715,-2664.741391,-9548.656652,-2604.724693
163482.892035,-3256.906145,-7179.997637,-2451.505594
163482.892355,-2368.659014,-5403.503377,0.000000
163482.892674,-370.102971,-6513.812290,-2374.896044
163482.892994,0.000000,-8956.491898,1225.752797
163482.893314,2368.659014,-10881.027347,3677.258390
163482.893634,2886.803174,-10658.965565,3294.210641
163482.893953,-518.144159,-11843.295072,2374.896044
163482.894273,-5255.462188,-9326.594869,-2145.067394
163482.894593,-6143.709319,-9548.656652,-4903.011187
163482.894912,-3849.070898,-9622.677246,-2604.724693
163482.895232,-4145.153275,-6883.915261,-4290.134789
163482.895552,-1258.350101,-7698.141797,-1915.238745
163482.895872,0.000000,-7105.977043,-2068.457845
163482.896191,1480.411884,-6291.750507,-1762.019645
163482.896511,1776.494261,-9844.739029,2451.505594
163482.896831,7031.956449,-10658.965565,2987.772442
163482.897150,2886.803174,-10436.903782,5056.230287
163482.897470,-666.185348,-8882.471304,1532.190996
163482.897790,-3701.029710,-9474.636058,-1455.581446
163482.898110,-4219.173869,-10658.965565,-2068.457845
163482.898429,-2368.659014,-10510.924376,-1455.581446
163482.898749,-666.185348,-9178.553681,-1838.629195
163482.899069,-74.020594,-9474.636058,-76.609550
163482.899389,-74.020594,-6957.935855,-2374.896044
163482.899708,0.000000,-7772.162391,-2451.505594
163482.900028,4663.297435,-9474.636058,1762.019645
163482.900348,4293.194464,-10732.986159,3294.210641
163482.900667,2072.576638,-11103.089130,2604.724693
163482.900987,-2664.741391,-9696.697840,-383.047749
163482.901307,-4219.173869,-11769.274478,-689.485948
163482.901627,-3256.906145,-10288.862594,-2604.724693
163482.901946,-2368.659014,-9548.656652,-2451.505594
163482.902266,-74.020594,-9178.553681,-1915.238745
163482.902586,-74.020594,-7550.100608,-2528.115143
163482.902905,0.000000,-5995.668130,-3677.258390
163482.903225,5847.626942,-9474.636058,2374.896044
163482.903545,7105.977043,-9548.656652,3907.087040
163482.903865,6291.750507,-9696.697840,4826.401637
163482.904184,1924.535449,-9252.574275,2374.896044
163482.904504,-888.247130,-9548.656652,0.000000
163482.904824,-5107.421000,-8882.471304,-3677.258390
163482.905143,-4145.153275,-10732.986159,-3064.381992
163482.905463,-2220.617826,-9252.574275,-4903.011187
163482.905783,-1776.494261,-8364.327145,-919.314598
163482.906103,-3849.070898,-5995.668130,-6128.763984
163482.906422,-370.102971,-9104.533087,-1838.629195
163482.906742,1998.556043,-9178.553681,1838.629195
163482.907062,2738.761985,-9474.636058,3677.258390
163482.907381,2886.803174,-9474.636058,4213.525239
163482.907701,-1628.453072,-7994.224174,2374.896044
163482.908021,-4737.318029,-7476.080014,-1608.800546
163482.908341,-4737.318029,-8364.327145,-4290.134789
163482.908660,-3552.988522,-9844.739029,-1225.752797
163482.908980,-2368.659014,-9548.656652,0.000000
163482.909300,-5329.482782,-4811.338623,-4290.134789
163482.909619,-2146.597232,-9326.594869,-2834.553343
163482.909939,1110.308913,-10140.821405,0.000000
163482.910259,4071.132681,-9326.594869,2451.505594
163482.910579,4663.297435,-11251.130318,4826.401637
163482.910898,2294.638420,-10066.800811,3600.648841
163482.911218,-1406.391290,-8882.471304,-689.485948
163482.911538,-5625.565159,-8956.491898,-2451.505594
163482.911857,-2368.659014,-10732.986159,-1225.752797
163482.912177,-3256.906145,-9844.739029,0.000000
163482.912497,-1554.432478,-8364.327145,0.000000
163482.912817,0.000000,-6883.915261,-1762.019645
163482.913136,0.000000,-8068.244768,-995.924147
163482.913456,2294.638420,-9474.636058,1455.581446
163482.913776,5847.626942,-9474.636058,3294.210641
163482.914095,2368.659014,-10732.986159,4903.011187
163482.914415,-74.020594,-9474.636058,1149.143247
163482.914735,-5033.400406,-9548.656652,-2451.505594
163482.915055,-5255.462188,-9548.656652,-2145.067394
163482.915374,-3923.091493,-7624.121203,-4136.915689
163482.915694,-2294.638420,-9252.574275,-1225.752797
163482.916014,-1554.432478,-7105.977043,-2374.896044
163482.916333,-666.185348,-7402.059420,-2221.676944
163482.916653,3478.967927,-11843.295072,-76.609550
163482.916973,4959.379811,-9326.594869,1149.143247
163482.917293,3108.864956,-9548.656652,1915.238745
163482.917612,2368.659014,-10140.821405,1225.752797
163482.917932,-74.020594,-11251.130318,-76.609550
163482.918252,-3627.009116,-9474.636058,-4366.744339
163482.918571,-1554.432478,-12435.459826,-2528.115143
163482.918891,-2368.659014,-10140.821405,-2374.896044
163482.919211,-1036.288319,-8956.491898,-1608.800546
163482.919531,888.247130,-6587.832884,-842.705048
163482.919850,1184.329507,-6587.832884,2451.505594
163482.920170,3775.050304,-7328.038826,1302.362347
163482.920490,4885.359217,-7920.203579,3140.991542
163482.920809,4441.235652,-9252.574275,3753.867940
163482.921129,1850.514855,-9252.574275,766.095498
163482.921449,-2442.679609,-8882.471304,-2528.115143
163482.921769,-3034.844362,-13619.789333,-2528.115143
163482.922088,-5625.565159,-9548.656652,-3983.696590
163482.922408,-2368.659014,-10288.862594,-4290.134789
163482.922728,-74.020594,-9474.636058,-76.609550
163482.923047,0.000000,-5995.668130,-1532.190996
163482.923367,1110.308913,-7476.080014,-383.047749
163482.923687,3997.112087,-8512.368333,1685.410096
163482.924007,3552.988522,-8438.347739,2528.115143
163482.924326,962.267725,-8882.471304,2145.067394
163482.924646,-2220.617826,-8364.327145,-1532.190996
163482.924966,-2738.761985,-12435.459826,-1608.800546
163482.925285,-3330.926739,-13619.789333,-1302.362347
163482.925605,-5551.544565,-9548.656652,-3983.696590
163482.925925,-1850.514855,-12435.459826,-689.485948
163482.926245,-2960.823768,-7476.080014,-3294.210641
163482.926564,-666.185348,-7920.203579,-1991.848295
163482.926884,1924.535449,-8734.430116,995.924147
163482.927204,4811.338623,-7698.141797,3677.258390
163482.927523,2960.823768,-7179.997637,3983.696590
163482.927843,2368.659014,-8438.347739,2681.334243
163482.928163,-1480.411884,-8956.491898,612.876398
163482.928483,-1850.514855,-11843.295072,-76.609550
163482.928802,-3330.926739,-10955.047942,-2221.676944
163482.929122,-1258.350101,-13915.871710,-76.609550
163482.929442,-4293.194464,-8734.430116,-1685.410096
163482.929762,-2442.679609,-6439.791695,-2681.334243
163482.930081,-666.185348,-7994.224174,-2451.505594
163482.930401,1776.494261,-8364.327145,1225.752797
163482.930721,2368.659014,-7179.997637,3677.258390
163482.931040,1702.473667,-7105.977043,2528.115143
163482.931360,0.000000,-7179.997637,1838.629195
163482.931680,-962.267725,-9474.636058,-76.609550
163482.932000,-2146.597232,-8882.471304,-2528.115143
163482.932319,-1998.556043,-11843.295072,-536.266849
163482.932639,-3627.009116,-10658.965565,-3217.601092
163482.932959,-3108.864956,-9918.759623,-3830.477490
163482.933278,-2294.638420,-8290.306550,-3677.258390
163482.933598,0.000000,-9548.656652,-3370.820191
163482.933918,4663.297435,-10066.800811,536.266849
163482.934238,4441.235652,-8068.244768,2451.505594
163482.934557,3552.988522,-7179.997637,1225.752797
163482.934877,1184.329507,-7476.080014,1838.629195
163482.935197,-74.020594,-10510.924376,-1915.238745
163482.935516,-296.082377,-11325.150913,0.000000
163482.935836,-666.185348,-9918.759623,0.000000
163482.936156,-592.164754,-9696.697840,-842.705048
163482.936476,-888.247130,-7698.141797,-1915.238745
163482.936795,-1110.308913,-9030.512492,-1915.238745
163482.937115,1702.473667,-10066.800811,-459.657299
163482.937435,3478.967927,-11547.212695,2987.772442
163482.937754,1998.556043,-7772.162391,1302.362347
163482.938074,1184.329507,-7772.162391,1225.752797
163482.938394,-1258.350101,-7698.141797,-2528.115143
163482.938714,-3330.926739,-9844.739029,-1225.752797
163482.939033,-2812.782580,-10140.821405,-1608.800546
163482.939353,-3404.947333,-10066.800811,-1532.190996
163482.939673,-2442.679609,-10658.965565,-76.609550
163482.939992,-2664.741391,-8956.491898,-2221.676944
163482.940312,-740.205942,-10436.903782,-766.095498
163482.940632,2294.638420,-10362.883188,-76.609550
163482.940952,2516.700203,-8808.450710,1991.848295
163482.941271,1184.329507,-5995.668130,1225.752797
163482.941591,2294.638420,-7698.141797,1149.143247
163482.941911,-1628.453072,-9326.594869,-919.314598
163482.942230,-2072.576638,-11325.150913,-536.266849
163482.942550,-1036.288319,-10288.862594,-383.047749
163482.942870,-518.144159,-11695.253884,919.314598
163482.943190,-4737.318029,-7179.997637,-3064.381992
163482.943509,-2960.823768,-7179.997637,-2068.457845
163482.943829,1406.391290,-9178.553681,1225.752797
163482.944149,5329.482782,-10288.862594,3600.648841
163482.944468,0.000000,-5403.503377,2451.505594
163482.944788,518.144159,-7994.224174,1991.848295
163482.945108,-2146.597232,-8216.285956,919.314598
163482.945428,-370.102971,-10066.800811,153.219100
163482.945747,-1628.453072,-10066.800811,-76.609550
163482.946067,-4737.318029,-10362.883188,-689.485948
163482.946387,-5921.647536,-8364.327145,-2757.943793
163482.946706,-4737.318029,-8068.244768,-4060.306139
163482.947026,-4737.318029,-7772.162391,-3677.258390
163482.947346,-148.041188,-11029.068536,1225.752797
163482.947666,740.205942,-7179.997637,1225.752797
163482.947985,5403.503377,-9252.574275,3907.087040
163482.948305,3552.988522,-7179.997637,2451.505594
163482.948625,-962.267725,-8660.409521,-919.314598
163482.948944,-74.020594,-11547.212695,-76.609550
163482.949264,-74.020594,-11251.130318,-689.485948
163482.949584,-666.185348,-11843.295072,-76.609550
163482.949904,-3330.926739,-8068.244768,-2451.505594
163482.950223,-3552.988522,-8364.327145,-2757.943793
163482.950543,0.000000,-9548.656652,-1225.752797
163482.950863,2516.700203,-8734.430116,0.000000
163482.951182,4441.235652,-8734.430116,2374.896044
163482.951502,3108.864956,-8586.388927,3064.381992
163482.951822,1036.288319,-7476.080014,0.000000
163482.952142,-74.020594,-10658.965565,-1302.362347
163482.952461,-74.020594,-12509.480420,2298.286494
163482.952781,-74.020594,-10955.047942,-76.609550
163482.953101,-1776.494261,-8956.491898,0.000000
163482.953420,-4145.153275,-7179.997637,-3370.820191
163482.953740,-5181.441594,-6291.750507,-4749.792088
163482.954060,-444.123565,-9474.636058,-995.924147
163482.954380,3552.988522,-9030.512492,919.314598
163482.954699,4071.132681,-8734.430116,2221.676944
163482.955019,2886.803174,-8290.306550,2374.896044
163482.955339,-2220.617826,-7402.059420,-2068.457845
163482.955658,-5329.482782,-10140.821405,-3983.696590
163482.955978,-2368.659014,-11991.336260,-2451.505594
163482.956298,-666.185348,-14211.954086,-689.485948
163482.956618,-3923.091493,-9548.656652,-3064.381992
163482.956937,-2442.679609,-9474.636058,-3140.991542
163482.957257,-2664.741391,-8882.471304,-2451.505594
163482.957577,2072.576638,-9400.615463,689.485948
163482.957896,5551.544565,-8068.244768,3217.601092
163482.958216,5329.482782,-6883.915261,6435.202183
163482.958535,2442.679609,-6365.771101,2681.334243
163482.958855,0.000000,-7698.141797,0.000000
163482.959175,-1628.453072,-10140.821405,-689.485948
163482.959494,-1998.556043,-11621.233289,0.000000
163482.959814,-1258.350101,-11251.130318,-1225.752797
163482.960133,-2442.679609,-9178.553681,-1915.238745
163482.960453,-6513.812290,-7476.080014,-3983.696590
163482.960772,-2960.823768,-9548.656652,-4290.134789
163482.961092,1628.453072,-7994.224174,1149.143247
163482.961411,5255.462188,-8882.471304,4519.963438
163482.961731,1702.473667,-5847.626942,995.924147
163482.962050,-1184.329507,-6365.771101,-919.314598
163482.962370,-3404.947333,-9548.656652,-1378.971896
163482.962690,-3256.906145,-10732.986159,-1762.019645
163482.963009,-2072.576638,-12065.356855,0.000000
163482.963329,-3330.926739,-10732.986159,-1532.190996
163482.963648,-4145.153275,-8956.491898,-4903.011187
163482.963968,-4737.318029,-9548.656652,-3677.258390
163482.964287,-74.020594,-9474.636058,-689.485948
163482.964607,5033.400406,-10362.883188,2911.162892
163482.964926,4145.153275,-8068.244768,3064.381992
163482.965246,1924.535449,-6661.853478,1991.848295
163482.965565,-1258.350101,-7105.977043,-612.876398
163482.965885,-370.102971,-10140.821405,842.705048
163482.966205,666.185348,-11547.212695,229.828649
163482.966524,-962.267725,-11843.295072,-76.609550
163482.966844,-3701.029710,-9548.656652,-1838.629195
163482.967163,-3552.988522,-7772.162391,-3064.381992
163482.967483,-666.185348,-9474.636058,-3753.867940
163482.967802,1776.494261,-9918.759623,0.000000
163482.968122,3330.926739,-8586.388927,1608.800546
163482.968441,3108.864956,-8068.244768,2298.286494
163482.968761,1702.473667,-8142.265362,1762.019645
163482.969080,-1184.329507,-10140.821405,612.876398
163482.969400,-518.144159,-11621.233289,1532.190996
163482.969720,2146.597232,-11251.130318,-76.609550
163482.970039,-1036.288319,-9844.739029,383.047749
163482.970359,-4737.318029,-7179.997637,-2451.505594
163482.970678,-3034.844362,-9474.636058,-3140.991542
163482.970998,-1480.411884,-9178.553681,-1225.752797
163482.971317,2146.597232,-9030.512492,766.095498
163482.971637,2886.803174,-7994.224174,1685.410096
163482.971956,1184.329507,-7772.162391,153.219100
163482.972276,-4145.153275,-5403.503377,-3677.258390
163482.972595,-2368.659014,-10881.027347,-1532.190996
163482.972915,518.144159,-12657.521608,1149.143247
163482.973235,-74.020594,-12879.583391,-76.609550
163482.973554,-3034.844362,-8364.327145,-2451.505594
163482.973874,-1554.432478,-10362.883188,-1072.533697
163482.974193,-1036.288319,-9548.656652,-1608.800546
163482.974513,1110.308913,-9622.677246,1302.362347
163482.974832,3627.009116,-7994.224174,3140.991542
163482.975152,3034.844362,-7105.977043,4213.525239
163482.975471,888.247130,-4811.338623,1225.752797
163482.975791,-1480.411884,-5995.668130,-3064.381992
163482.976110,0.000000,-11769.274478,1378.971896
163482.976430,814.226536,-11843.295072,-76.609550
163482.976750,-4441.235652,-9548.656652,-2451.505594
163482.977069,-3849.070898,-11621.233289,-1378.971896
163482.977389,-5625.565159,-9770.718434,-3677.258390
163482.977708,-3330.926739,-10732.986159,-1838.629195
163482.978028,2886.803174,-9474.636058,1762.019645
163482.978347,4663.297435,-9474.636058,3294.210641
163482.978667,3182.885551,-8290.306550,3600.648841
163482.978986,-74.020594,-5921.647536,-383.047749
163482.979306,-2368.659014,-7328.038826,-1225.752797
163482.979625,-2368.659014,-9548.656652,0.000000
163482.979945,-2072.576638,-9992.780217,-2145.067394
163482.980265,-2072.576638,-11991.336260,-1302.362347
163482.980584,-2294.638420,-10955.047942,-1991.848295
163482.980904,-2368.659014,-10732.986159,-1915.238745
163482.981223,3478.967927,-11843.295072,-76.609550
163482.981543,4145.153275,-9548.656652,2451.505594
163482.981862,6365.771101,-9178.553681,4060.306139
163482.982182,3478.967927,-6217.729913,2374.896044
163482.982501,-1850.514855,-4071.132681,-1991.848295
163482.982821,-2368.659014,-8364.327145,0.000000
163482.983140,-518.144159,-10881.027347,-383.047749
163482.983460,-148.041188,-10658.965565,306.438199
163482.983780,-1480.411884,-10288.862594,76.609550
163482.984099,-2812.782580,-9548.656652,-3370.820191
163482.984419,-2886.803174,-9622.677246,-4060.306139
163482.984738,-2960.823768,-9548.656652,-1838.629195
163482.985058,0.000000,-8364.327145,-2451.505594
163482.985377,888.247130,-9252.574275,1378.971896
163482.985697,-74.020594,-8882.471304,-76.609550
163482.986016,-3552.988522,-7179.997637,-1838.629195
163482.986336,74.020594,-9474.636058,-995.924147
163482.986655,1998.556043,-10510.924376,-76.609550
163482.986975,740.205942,-10955.047942,536.266849
163482.987295,-1850.514855,-8660.409521,-2604.724693
163482.987614,-2442.679609,-9474.636058,-2451.505594
163482.987934,-1480.411884,-9548.656652,-3064.381992
163482.988253,592.164754,-10288.862594,766.095498
163482.988573,2368.659014,-9474.636058,1762.019645
163482.988892,3034.844362,-8882.471304,4213.525239
163482.989212,0.000000,-5995.668130,-1532.190996
163482.989531,-518.144159,-8734.430116,-1915.238745
163482.989851,814.226536,-10066.800811,0.000000
163482.990171,1036.288319,-10288.862594,689.485948
163482.990490,-666.185348,-8142.265362,-689.485948
163482.990810,-1258.350101,-11547.212695,-76.609550
163482.991129,-2738.761985,-9770.718434,-1991.848295
163482.991449,-2368.659014,-10140.821405,0.000000
163482.991768,0.000000,-9548.656652,1225.752797
163482.992088,-2368.659014,-5995.668130,612.876398
163482.992407,-1332.370696,-7179.997637,0.000000
163482.992727,-1628.453072,-6291.750507,-2145.067394
163482.993046,-666.185348,-8882.471304,-1225.752797
163482.993366,1702.473667,-8512.368333,-76.609550
163482.993686,1110.308913,-9844.739029,919.314598
163482.994005,0.000000,-9548.656652,0.000000
163482.994325,-3701.029710,-10140.821405,-4903.011187
163482.994644,-3552.988522,-11769.274478,-1532.190996
163482.994964,-3849.070898,-10362.883188,-2451.505594
163482.995283,1702.473667,-10658.965565,1762.019645
163482.995603,2960.823768,-8512.368333,1991.848295
163482.995922,-740.205942,-5995.668130,76.609550
163482.996242,-370.102971,-8142.265362,-1532.190996
163482.996561,2886.803174,-11251.130318,1762.019645
163482.996881,1184.329507,-8660.409521,0.000000
163482.997201,444.123565,-10214.842000,612.876398
163482.997520,-1924.535449,-11029.068536,-229.828649
163482.997840,-518.144159,-9696.697840,306.438199
163482.998159,0.000000,-8364.327145,1225.752797
163482.998479,1110.308913,-7402.059420,-689.485948
163482.998798,-2072.576638,-7476.080014,0.000000
163482.999118,-1258.350101,-7105.977043,-2451.505594
163482.999437,-2368.659014,-7105.977043,-3140.991542
163482.999757,-74.020594,-11547.212695,-76.609550
163483.000076,814.226536,-9696.697840,612.876398
163483.000396,1702.473667,-9178.553681,842.705048
163483.000716,0.000000,-9622.677246,766.095498
163483.001035,-2368.659014,-7772.162391,-995.924147
163483.001355,-2072.576638,-10732.986159,-612.876398
163483.001674,-74.020594,-11251.130318,536.266849
163483.001994,0.000000,-8364.327145,-1838.629195
163483.002313,0.000000,-8956.491898,1225.752797
163483.002633,-74.020594,-7105.977043,-1302.362347
163483.002952,-1554.432478,-8364.327145,-2451.505594
163483.003272,-444.123565,-9844.739029,-2757.943793
163483.003591,0.000000,-9918.759623,-1302.362347
163483.003911,0.000000,-10436.903782,306.438199
163483.004231,1184.329507,-9252.574275,919.314598
163483.004550,148.041188,-9770.718434,-612.876398
163483.004870,1702.473667,-13027.624579,2374.896044
163483.005189,0.000000,-8956.491898,612.876398
163483.005509,0.000000,-9548.656652,1838.629195
163483.005828,1998.556043,-9178.553681,-1302.362347
163483.006148,-1480.411884,-7550.100608,-1685.410096
163483.006467,-2072.576638,-8660.409521,-2068.457845
163483.006787,-296.082377,-9548.656652,-842.705048
163483.007106,1110.308913,-11251.130318,-76.609550
163483.007426,-1776.494261,-10732.986159,1225.752797
163483.007746,-2960.823768,-8364.327145,0.000000
163483.008065,-666.185348,-11251.130318,-76.609550
163483.008385,518.144159,-10510.924376,2145.067394
163483.008704,-1776.494261,-7476.080014,612.876398
163483.009024,-74.020594,-7994.224174,2068.457845
163483.009343,-1184.329507,-5847.626942,-306.438199
163483.009663,-3034.844362,-7624.121203,-3677.258390
163483.009982,-4071.132681,-10807.006753,-3064.381992
163483.010302,-2368.659014,-10732.986159,-1838.629195
163483.010621,-2886.803174,-9918.759623,-2451.505594
163483.010941,-1776.494261,-10436.903782,0.000000
163483.011261,-74.020594,-10066.800811,-1225.752797
163483.011580,1184.329507,-11917.315666,2528.115143
163483.011900,1110.308913,-7179.997637,612.876398
163483.012219,3182.885551,-9474.636058,3600.648841
163483.012539,1406.391290,-7772.162391,2528.115143
163483.012858,-518.144159,-5995.668130,-689.485948
163483.013178,-2146.597232,-7846.182985,-1762.019645
163483.013497,-592.164754,-9918.759623,-76.609550
163483.013817,1110.308913,-10288.862594,0.000000
163483.014136,592.164754,-9548.656652,-1455.581446
163483.014456,0.000000,-9548.656652,0.000000
163483.014776,-1184.329507,-10807.006753,-306.438199
163483.015095,-2368.659014,-9548.656652,-2145.067394
163483.015415,962.267725,-10807.006753,1225.752797
163483.015734,0.000000,-9030.512492,1838.629195
163483.016054,-666.185348,-7031.956449,459.657299
163483.016373,-666.185348,-7105.977043,-689.485948
163483.016693,-74.020594,-9474.636058,-383.047749
163483.017012,-74.020594,-10658.965565,-76.609550
163483.017332,1702.473667,-9178.553681,-689.485948
163483.017651,-1036.288319,-9252.574275,0.000000
163483.017971,0.000000,-9548.656652,0.000000
163483.018291,-962.267725,-10881.027347,-1455.581446
163483.018610,888.247130,-11843.295072,1225.752797
163483.018930,222.061783,-11029.068536,612.876398
163483.019249,-444.123565,-9770.718434,306.438199
163483.019569,-74.020594,-9474.636058,-1915.238745
163483.019888,-2664.741391,-8364.327145,-2451.505594
163483.020208,-74.020594,-10658.965565,-689.485948
163483.020527,1628.453072,-8068.244768,-76.609550
163483.020847,1110.308913,-6661.853478,766.095498
163483.021167,2368.659014,-7772.162391,2451.505594
163483.021486,1850.514855,-8216.285956,383.047749
163483.021806,1776.494261,-11325.150913,2068.457845
163483.022125,1480.411884,-11177.109724,2374.896044
163483.022445,-592.164754,-9548.656652,0.000000
163483.022764,-2590.720797,-9326.594869,-2221.676944
163483.023084,-6513.812290,-6883.915261,-4136.915689
163483.023403,-4959.379811,-9770.718434,-4673.182538
163483.023723,-1850.514855,-11251.130318,-2528.115143
163483.024042,-370.102971,-10658.965565,-1302.362347
163483.024362,-2368.659014,-8364.327145,0.000000
163483.024682,-222.061783,-7846.182985,-76.609550
163483.025001,296.082377,-9548.656652,153.219100
163483.025321,2738.761985,-11325.150913,3217.601092
163483.025640,1998.556043,-8956.491898,1685.410096
163483.025960,-74.020594,-9178.553681,2528.115143
163483.026279,-2072.576638,-7402.059420,-689.485948
163483.026599,-5847.626942,-6291.750507,-5822.325785
163483.026918,-5551.544565,-11029.068536,-3983.696590
163483.027238,-740.205942,-11843.295072,-76.609550
163483.027557,-1776.494261,-8956.491898,-2451.505594
163483.027877,296.082377,-9770.718434,-306.438199
163483.028197,888.247130,-7994.224174,-612.876398
163483.028516,1554.432478,-9844.739029,1149.143247
163483.028836,3330.926739,-8660.409521,2374.896044
163483.029155,2146.597232,-11843.295072,4826.401637
163483.029475,-1850.514855,-7476.080014,2145.067394
163483.029794,-2368.659014,-6883.915261,0.000000
163483.030114,-4737.318029,-6587.832884,-2757.943793
163483.030433,-4737.318029,-8364.327145,0.000000
163483.030753,-518.144159,-8734.430116,-842.705048
163483.031072,0.000000,-8882.471304,-1225.752797
163483.031392,0.000000,-8956.491898,-1532.190996
163483.031712,-1258.350101,-9474.636058,-3140.991542
163483.032031,0.000000,-11621.233289,0.000000
163483.032351,2368.659014,-10140.821405,2451.505594
163483.032670,3034.844362,-10436.903782,1225.752797
163483.032990,1480.411884,-9474.636058,3370.820191
163483.033309,-4441.235652,-4811.338623,-3677.258390
163483.033629,-2738.761985,-7105.977043,-2834.553343
163483.033948,-1036.288319,-8956.491898,-1302.362347
163483.034268,-370.102971,-8364.327145,-1532.190996
163483.034587,-444.123565,-9030.512492,-842.705048
163483.034907,1998.556043,-11843.295072,-76.609550
163483.035227,296.082377,-10510.924376,-1225.752797
163483.035546,3256.906145,-12435.459826,1378.971896
163483.035866,3182.885551,-11473.192101,2604.724693
163483.036185,1332.370696,-11325.150913,1532.190996
163483.036505,-3552.988522,-7179.997637,0.000000
163483.036824,-4515.256246,-6883.915261,-4903.011187
163483.037144,-1184.329507,-9548.656652,-459.657299
163483.037463,2294.638420,-8586.388927,2374.896044
163483.037783,2664.741391,-6513.812290,229.828649
163483.038102,3478.967927,-9474.636058,2374.896044
163483.038422,-592.164754,-8068.244768,-1149.143247
163483.038742,0.000000,-10732.986159,-383.047749
163483.039061,1332.370696,-12065.356855,1915.238745
163483.039381,0.000000,-10732.986159,1915.238745
163483.039700,-3849.070898,-10584.944971,76.609550
163483.040020,-6883.915261,-7846.182985,-4979.620737
163483.040339,-8290.306550,-8734.430116,-6511.811733
163483.040659,-6513.812290,-9548.656652,-3524.039291
163483.040978,-74.020594,-7105.977043,-1302.362347
163483.041298,2516.700203,-7698.141797,2681.334243
163483.041617,2294.638420,-5995.668130,842.705048
163483.041937,1702.473667,-7698.141797,612.876398
163483.042257,3552.988522,-10955.047942,2451.505594
163483.042576,3701.029710,-11399.171507,4136.915689
163483.042896,-592.164754,-13101.645173,1225.752797
163483.043215,-4811.338623,-11843.295072,-2528.115143
163483.043535,-7772.162391,-9104.533087,-6588.421283
163483.043854,-5921.647536,-11177.109724,-4136.915689
163483.044174,-74.020594,-10658.965565,-2528.115143
163483.044493,1702.473667,-6957.935855,1225.752797
163483.044813,3182.885551,-5921.647536,2604.724693
163483.045132,2294.638420,-4737.318029,1378.971896
163483.045452,3478.967927,-9474.636058,3600.648841
163483.045772,3256.906145,-12213.398043,5515.887586
163483.046091,2072.576638,-11325.150913,4903.011187
163483.046411,-1554.432478,-12435.459826,1149.143247
163483.046730,-7698.141797,-9548.656652,-2911.162892
163483.047050,-9474.636058,-8364.327145,-6741.640382
163483.047369,-3034.844362,-11547.212695,-2528.115143
163483.047689,-1628.453072,-7846.182985,-2681.334243
163483.048008,-296.082377,-7550.100608,-1302.362347
163483.048328,1110.308913,-6957.935855,-1378.971896
163483.048647,592.164754,-6587.832884,0.000000
163483.048967,2664.741391,-10881.027347,3983.696590
163483.049287,7031.956449,-11843.295072,3600.648841
163483.049606,1184.329507,-10732.986159,2451.505594
163483.049926,-74.020594,-10807.006753,612.876398
163483.050245,-5921.647536,-5995.668130,-3677.258390
163483.050565,-3627.009116,-9770.718434,-3907.087040
163483.050884,-1480.411884,-10584.944971,-2834.553343
163483.051204,1776.494261,-8586.388927,-919.314598
163483.051523,3182.885551,-7846.182985,536.266849
163483.051843,3478.967927,-6365.771101,-76.609550
163483.052163,814.226536,-7994.224174,-842.705048
163483.052482,3256.906145,-10510.924376,1762.019645
163483.052802,2368.659014,-9548.656652,3064.381992
163483.053121,1924.535449,-11473.192101,5439.278036
163483.053441,-4737.318029,-7179.997637,0.000000
163483.053760,-4811.338623,-8586.388927,-2834.553343
163483.054080,-3256.906145,-9548.656652,-3140.991542
163483.054399,-962.267725,-8882.471304,-2221.676944
163483.054719,1110.308913,-7698.141797,-689.485948
163483.055038,2294.638420,-8290.306550,-689.485948
163483.055358,-74.020594,-9474.636058,-383.047749
163483.055678,1702.473667,-9474.636058,-229.828649
163483.055997,3552.988522,-10732.986159,2451.505594
163483.056317,4145.153275,-10881.027347,3907.087040
163483.056636,-3256.906145,-9548.656652,0.000000
163483.056956,-6291.750507,-8438.347739,-3753.867940
163483.057275,-6809.894666,-11251.130318,-4673.182538
163483.057595,-4145.153275,-10732.986159,-2451.505594
163483.057914,-1184.329507,-6587.832884,-1838.629195
163483.058234,2886.803174,-7105.977043,0.000000
163483.058553,592.164754,-5995.668130,1225.752797
163483.058873,1776.494261,-7698.141797,0.000000
163483.059193,3997.112087,-9844.739029,4136.915689
163483.059512,3256.906145,-10436.903782,4136.915689
163483.059832,1702.473667,-13471.748144,3294.210641
163483.060151,-3775.050304,-11029.068536,0.000000
163483.060471,-6291.750507,-8882.471304,-3907.087040
163483.060791,-7031.956449,-11325.150913,-3907.087040
163483.061110,-3997.112087,-9548.656652,-2451.505594
163483.061430,-2146.597232,-5699.585753,-3064.381992
163483.061749,0.000000,-5995.668130,612.876398
163483.062069,370.102971,-5625.565159,-689.485948
163483.062389,0.000000,-7328.038826,0.000000
163483.062708,2960.823768,-10436.903782,3983.696590
163483.063028,4071.132681,-10658.965565,3600.648841
163483.063348,-2072.576638,-11325.150913,1838.629195
163483.063667,-7105.977043,-6587.832884,-4749.792088
163483.063987,-7772.162391,-9770.718434,-6128.763984
163483.064307,-6513.812290,-10584.944971,-4519.963438
163483.064626,-1258.350101,-10658.965565,-4979.620737
163483.064946,0.000000,-8068.244768,-2451.505594
163483.065266,1776.494261,-5995.668130,-2145.067394
163483.065585,1184.329507,-7031.956449,766.095498
163483.065905,2590.720797,-9178.553681,1762.019645
163483.066224,5625.565159,-10955.047942,4903.011187
163483.066544,4737.318029,-9548.656652,3370.820191
163483.066864,0.000000,-10288.862594,3217.601092
163483.067183,-2590.720797,-10362.883188,-76.609550
163483.067503,-4293.194464,-10140.821405,-2298.286494
163483.067823,-1554.432478,-11251.130318,-1915.238745
163483.068142,-962.267725,-8882.471304,-2528.115143
163483.068462,-3404.947333,-6587.832884,-3064.381992
163483.068782,-2368.659014,-5403.503377,-3064.381992
163483.069101,2886.803174,-8734.430116,-76.609550
163483.069421,5033.400406,-9548.656652,2528.115143
163483.069741,5921.647536,-10066.800811,3447.429741
163483.070060,3108.864956,-11621.233289,4826.401637
163483.070380,-1776.494261,-10140.821405,3677.258390
163483.070699,-4589.276840,-8660.409521,-2757.943793
163483.071019,-5773.606348,-11325.150913,-2145.067394
163483.071339,-3627.009116,-11843.295072,-2528.115143
163483.071658,-3404.947333,-7624.121203,-1915.238745
163483.071978,-1258.350101,-4219.173869,-3064.381992
163483.072298,1406.391290,-6513.812290,-1532.190996
163483.072617,2294.638420,-8290.306550,0.000000
163483.072937,6365.771101,-10436.903782,2681.334243
163483.073257,4737.318029,-10362.883188,2834.553343
163483.073576,0.000000,-12213.398043,2451.505594
163483.073896,-7105.977043,-8364.327145,-4903.011187
163483.074215,-4737.318029,-11991.336260,-3370.820191
163483.074535,-2442.679609,-12435.459826,-1532.190996
163483.074855,-74.020594,-9844.739029,-995.924147
163483.075174,2294.638420,-8882.471304,-76.609550
163483.075494,1332.370696,-5329.482782,0.000000
163483.075814,1110.308913,-5773.606348,0.000000
163483.076133,2960.823768,-8882.471304,2757.943793
163483.076453,5329.482782,-9548.656652,5515.887586
163483.076773,4367.215058,-10066.800811,5439.278036
163483.077092,-666.185348,-11547.212695,2374.896044
163483.077412,-5403.503377,-11843.295072,-1915.238745
163483.077732,-6587.832884,-10510.924376,-5132.839837
163483.078051,-3923.091493,-12435.459826,-2834.553343
163483.078371,-6513.812290,-8956.491898,-4903.011187
163483.078690,-3627.009116,-8290.306550,-3370.820191
163483.079010,-1036.288319,-8142.265362,-2834.553343
163483.079330,1776.494261,-8068.244768,0.000000
163483.079649,4367.215058,-5995.668130,0.000000
163483.079969,8364.327145,-9474.636058,5439.278036
163483.080289,5329.482782,-10658.965565,5132.839837
163483.080608,-444.123565,-9622.677246,76.609550
163483.080928,-3034.844362,-11251.130318,-2528.115143
163483.081248,-1258.350101,-14211.954086,-1838.629195
163483.081567,-74.020594,-12805.562797,-536.266849
163483.081887,-1258.350101,-10066.800811,-2221.676944
163483.082207,-74.020594,-8438.347739,-383.047749
163483.082526,0.000000,-5403.503377,-2451.505594
163483.082846,1702.473667,-6365.771101,0.000000
163483.083165,6217.729913,-9030.512492,4213.525239
163483.083485,6291.750507,-9400.615463,5515.887586
163483.083805,2960.823768,-8364.327145,3753.867940
163483.084124,-2294.638420,-9548.656652,536.266849
163483.084444,-5107.421000,-10732.986159,-1608.800546
163483.084764,-3849.070898,-10658.965565,-1762.019645
163483.085083,-3627.009116,-13027.624579,-76.609550
163483.085403,-3627.009116,-9474.636058,-3140.991542
163483.085723,-4737.318029,-4811.338623,-2451.505594
163483.086042,0.000000,-5995.668130,-1685.410096
163483.086362,4441.235652,-8660.409521,1455.581446
163483.086682,5403.503377,-8512.368333,2374.896044
163483.087001,2368.659014,-9696.697840,2834.553343
163483.087321,-2738.761985,-10732.986159,0.000000
163483.087640,-5921.647536,-11325.150913,-3524.039291
163483.087960,-4737.318029,-10732.986159,-2451.505594
163483.088280,-1258.350101,-11843.295072,-1302.362347
163483.088599,-2442.679609,-9474.636058,-1302.362347
163483.088919,-1184.329507,-8364.327145,-306.438199
163483.089239,222.061783,-5995.668130,-2374.896044
163483.089558,1554.432478,-7994.224174,-459.657299
163483.089878,3627.009116,-9474.636058,2757.943793
163483.090198,3256.906145,-8364.327145,2451.505594
163483.090517,1110.308913,-8364.327145,2374.896044
163483.090837,-1850.514855,-8882.471304,-689.485948
163483.091157,-6365.771101,-8956.491898,-2451.505594
163483.091476,-2886.803174,-10881.027347,-3677.258390
163483.091796,-1258.350101,-11843.295072,-1302.362347
163483.092115,-4441.235652,-8956.491898,-919.314598
163483.092435,-2442.679609,-5921.647536,-2145.067394
163483.092755,-962.267725,-7105.977043,-2834.553343
163483.093074,1480.411884,-9252.574275,-76.609550
163483.093394,1702.473667,-7402.059420,2068.457845
163483.093714,3478.967927,-10362.883188,3600.648841
163483.094033,-370.102971,-10510.924376,612.876398
163483.094353,-5255.462188,-9622.677246,-3907.087040
163483.094673,-5921.647536,-10732.986159,-2451.505594
163483.094992,-74.020594,-13027.624579,-76.609550
163483.095312,-1332.370696,-8660.409521,0.000000
163483.095631,-74.020594,-6957.935855,-842.705048
163483.095951,962.267725,-5107.421000,-2757.943793
163483.096271,1480.411884,-8364.327145,-459.657299
163483.096590,4737.318029,-9548.656652,2298.286494
163483.096910,4885.359217,-11399.171507,2681.334243
163483.097230,5773.606348,-12879.583391,4519.963438
163483.097549,-74.020594,-10066.800811,-1149.143247
163483.097869,-3034.844362,-10140.821405,-3600.648841
163483.098189,-74.020594,-13027.624579,-76.609550
163483.098508,-1924.535449,-10288.862594,-612.876398
163483.098828,-962.267725,-8438.347739,-229.828649
163483.099148,0.000000,-6069.688724,-612.876398
163483.099467,0.000000,-5995.668130,1225.752797
163483.099787,2368.659014,-6587.832884,1225.752797
163483.100106,2960.823768,-5995.668130,2451.505594
163483.100426,5033.400406,-9400.615463,4903.011187
163483.100746,3182.885551,-10066.800811,2451.505594
163483.101065,-2442.679609,-10066.800811,-2528.115143
163483.101385,-3108.864956,-13323.706956,-2834.553343
163483.101705,-3775.050304,-12805.562797,-3830.477490
163483.102024,-3775.050304,-11399.171507,-2757.943793
163483.102344,-3330.926739,-8808.450710,-2451.505594
163483.102664,-3552.988522,-4811.338623,-3677.258390
163483.102983,-74.020594,-7105.977043,-3753.867940
163483.103303,2072.576638,-7179.997637,612.876398
163483.103623,5921.647536,-8364.327145,2451.505594
163483.103942,6217.729913,-9252.574275,5975.544884
163483.104262,-74.020594,-7254.018232,-2068.457845
163483.104581,-5107.421000,-11769.274478,-2528.115143
163483.104901,-4145.153275,-12953.603985,-1915.238745
163483.105221,-1332.370696,-11843.295072,-306.438199
163483.105540,-2738.761985,-11251.130318,-689.485948
163483.105860,-3627.009116,-8290.306550,-2068.457845
163483.106180,-1554.432478,-7105.977043,-3140.991542
163483.106499,1258.350101,-9474.636058,-76.609550
163483.106819,3108.864956,-7179.997637,1838.629195
163483.107139,3552.988522,-7476.080014,2451.505594
163483.107458,4071.132681,-6957.935855,3600.648841
163483.107778,74.020594,-7402.059420,1378.971896
163483.108098,-4737.318029,-10140.821405,-1608.800546
163483.108417,-4737.318029,-10807.006753,-1915.238745
163483.108737,-3627.009116,-13619.789333,-76.609550
163483.109056,-4885.359217,-10881.027347,-1685.410096
163483.109376,-5033.400406,-8956.491898,-2374.896044
163483.109696,-2738.761985,-9326.594869,-3140.991542
163483.110015,-74.020594,-9030.512492,-689.485948
163483.110335,0.000000,-4811.338623,612.876398
163483.110655,3775.050304,-7994.224174,1762.019645
163483.110974,1110.308913,-8512.368333,1838.629195
163483.111294,-1554.432478,-10510.924376,-536.266849
163483.111614,-2738.761985,-11547.212695,-229.828649
163483.111933,1110.308913,-12731.542202,1149.143247
163483.112253,-2368.659014,-9548.656652,0.000000
163483.112573,-1406.391290,-10732.986159,-76.609550
163483.112892,-518.144159,-7772.162391,-1838.629195
163483.113212,-74.020594,-10658.965565,-1838.629195
163483.113531,3478.967927,-9474.636058,-76.609550
163483.113851,3849.070898,-8586.388927,2298.286494
163483.114171,3775.050304,-8512.368333,3064.381992
163483.114490,1998.556043,-7105.977043,1225.752797
163483.114810,-296.082377,-10288.862594,1762.019645
163483.115130,-666.185348,-11251.130318,-76.609550
163483.115449,-74.020594,-10066.800811,-995.924147
163483.115769,-1628.453072,-10362.883188,-689.485948
163483.116089,-4145.153275,-7328.038826,-3217.601092
163483.116408,-666.185348,-8882.471304,-3140.991542
163483.116728,1332.370696,-10140.821405,-612.876398
163483.117047,4737.318029,-9400.615463,1149.143247
163483.117367,5847.626942,-8808.450710,2528.115143
163483.117687,5033.400406,-8956.491898,2528.115143
163483.118006,0.000000,-5403.503377,0.000000
163483.118326,-1998.556043,-10658.965565,-2528.115143
163483.118646,-962.267725,-11843.295072,-1532.190996
163483.118965,-1036.288319,-10658.965565,-689.485948
163483.119285,-814.226536,-9252.574275,-459.657299
163483.119605,-74.020594,-7105.977043,-2374.896044
163483.119924,-74.020594,-9474.636058,-1608.800546
163483.120244,814.226536,-7624.121203,-1149.143247
163483.120564,2960.823768,-8290.306550,1149.143247
163483.120883,4071.132681,-10436.903782,3983.696590
163483.121203,0.000000,-7179.997637,0.000000
163483.121522,-2442.679609,-9178.553681,-1685.410096
163483.121842,-2442.679609,-11029.068536,-1302.362347
163483.122162,-1850.514855,-11399.171507,-612.876398
163483.122481,-1998.556043,-11843.295072,0.000000
163483.122801,-3552.988522,-9474.636058,-612.876398
163483.123121,-3923.091493,-8290.306550,-2528.115143
163483.123440,-3330.926739,-8290.306550,-2528.115143
163483.123760,592.164754,-7772.162391,306.438199
163483.124080,3108.864956,-8956.491898,6741.640382
163483.124399,888.247130,-6143.709319,2604.724693
163483.124719,-3404.947333,-8364.327145,-1302.362347
163483.125039,-7105.977043,-10288.862594,-3370.820191
163483.125358,-5477.523971,-12213.398043,-2987.772442
163483.125678,-4071.132681,-10881.027347,-2757.943793
163483.125997,-3849.070898,-11029.068536,-612.876398
163483.126317,-3552.988522,-8956.491898,-306.438199
163483.126637,-2442.679609,-8290.306550,-2221.676944
163483.126956,-74.020594,-7994.224174,-383.047749
163483.127276,3701.029710,-9844.739029,4290.134789
163483.127596,4441.235652,-7402.059420,2757.943793
163483.127915,2960.823768,-7772.162391,2681.334243
163483.128235,222.061783,-7994.224174,-306.438199
163483.128555,-4071.132681,-9548.656652,-3370.820191
163483.128874,-2960.823768,-10881.027347,-1608.800546
163483.129194,-1850.514855,-10658.965565,-2528.115143
163483.129514,-4737.318029,-10732.986159,-1685.410096
163483.129833,-3997.112087,-8364.327145,-4366.744339
163483.130153,-666.185348,-9474.636058,-1302.362347
163483.130472,2368.659014,-9252.574275,2451.505594
163483.130792,5033.400406,-6513.812290,3217.601092
163483.131112,4219.173869,-7031.956449,3830.477490
163483.131431,2368.659014,-6143.709319,1455.581446
163483.131751,-2960.823768,-7328.038826,-1915.238745
163483.132071,-370.102971,-13027.624579,-76.609550
163483.132390,-74.020594,-12139.377449,-1302.362347
163483.132710,-1480.411884,-10807.006753,-2528.115143
163483.133030,-4737.318029,-9548.656652,-2451.505594
163483.133349,-666.185348,-11251.130318,-3140.991542
163483.133669,-962.267725,-9252.574275,-2145.067394
163483.133989,4663.297435,-8660.409521,842.705048
163483.134308,6143.709319,-7254.018232,2451.505594
163483.134628,4959.379811,-6809.894666,3983.696590
163483.134947,1776.494261,-5995.668130,-383.047749
163483.135267,-592.164754,-9770.718434,-1532.190996
163483.135587,-370.102971,-14211.954086,-76.609550
163483.135906,-518.144159,-11251.130318,-1378.971896
163483.136226,-1480.411884,-10140.821405,-1225.752797
163483.136546,-74.020594,-9474.636058,-689.485948
163483.136865,-1332.370696,-8216.285956,-1838.629195
163483.137185,3552.988522,-8438.347739,612.876398
163483.137505,6143.709319,-7402.059420,2145.067394
163483.137824,4737.318029,-7772.162391,4903.011187
163483.138144,592.164754,-6587.832884,153.219100
163483.138463,-4737.318029,-6291.750507,-4290.134789
163483.138783,-2368.659014,-12139.377449,-1072.533697
163483.139103,1110.308913,-12731.542202,-76.609550
163483.139422,-74.020594,-10658.965565,-1608.800546
163483.139742,-74.020594,-10362.883188,842.705048
163483.140062,-4515.256246,-7550.100608,-2451.505594
163483.140381,-3478.967927,-8660.409521,-2757.943793
163483.140701,-888.247130,-8956.491898,-1072.533697
163483.141021,0.000000,-7179.997637,0.000000
163483.141340,-666.185348,-8290.306550,229.828649
163483.141660,-3849.070898,-5995.668130,-1838.629195
163483.141980,-4219.173869,-8808.450710,-1991.848295
163483.142299,-1258.350101,-12879.583391,-76.609550
163483.142619,-1850.514855,-9770.718434,-3524.039291
163483.142938,-1480.411884,-12361.439231,995.924147
163483.143258,-2960.823768,-9548.656652,-1455.581446
163483.143578,-3404.947333,-9104.533087,-2528.115143
163483.143897,-74.020594,-11251.130318,1762.019645
163483.144217,4145.153275,-11177.109724,4826.401637
163483.144537,4663.297435,-7105.977043,3524.039291
163483.144856,1776.494261,-5181.441594,2374.896044
163483.145176,-2368.659014,-5995.668130,0.000000
163483.145496,-4441.235652,-7179.997637,-2451.505594
163483.145815,-2442.679609,-9474.636058,-1915.238745
163483.146135,-2368.659014,-10732.986159,-229.828649
163483.146455,-3627.009116,-11029.068536,-459.657299
163483.146774,-3997.112087,-9992.780217,-2068.457845
163483.147094,-2442.679609,-11843.295072,-1302.362347
163483.147413,-1776.494261,-9400.615463,76.609550
163483.147733,518.144159,-9474.636058,-76.609550
163483.148053,-74.020594,-7624.121203,536.266849
163483.148372,0.000000,-5995.668130,306.438199
163483.148692,-2368.659014,-5403.503377,0.000000
163483.149012,370.102971,-9474.636058,-689.485948
163483.149331,1332.370696,-10584.944971,153.219100
163483.149651,296.082377,-11695.253884,-383.047749
163483.149971,-1406.391290,-11325.150913,-1225.752797
163483.150290,-74.020594,-12731.542202,-1608.800546
163483.150610,-1776.494261,-10140.821405,0.000000
163483.150930,3627.009116,-11103.089130,1149.143247
163483.151249,4663.297435,-8660.409521,1762.019645
163483.151569,3478.967927,-5921.647536,0.000000
163483.151888,3478.967927,-5625.565159,-76.609550
163483.152208,888.247130,-7179.997637,-995.924147
163483.152528,2294.638420,-9992.780217,459.657299
163483.152847,2294.638420,-10436.903782,-383.047749
163483.153167,1702.473667,-13619.789333,2681.334243
163483.153487,-814.226536,-11177.109724,-1302.362347
163483.153806,-2294.638420,-8734.430116,-2681.334243
163483.154126,0.000000,-10066.800811,-689.485948
163483.154446,0.000000,-7179.997637,0.000000
163483.154765,3478.967927,-8290.306550,2374.896044
163483.155085,2368.659014,-7105.977043,2145.067394
163483.155404,0.000000,-5625.565159,-2145.067394
163483.155724,0.000000,-8290.306550,-995.924147
163483.156044,1332.370696,-9770.718434,-766.095498
163483.156363,0.000000,-10140.821405,0.000000
163483.156683,-1110.308913,-11843.295072,-689.485948
163483.157003,-4219.173869,-10288.862594,-2451.505594
163483.157322,-3997.112087,-11029.068536,-3140.991542
163483.157642,-1110.308913,-8808.450710,-1915.238745
163483.157962,2294.638420,-10362.883188,-919.314598
163483.158281,2072.576638,-9474.636058,2911.162892
163483.158601,814.226536,-7105.977043,-76.609550
163483.158921,-1258.350101,-5921.647536,-1608.800546
163483.159240,1406.391290,-10732.986159,-76.609550
163483.159560,0.000000,-9548.656652,0.000000
163483.159879,-592.164754,-11917.315666,1302.362347
163483.160199,-2146.597232,-11103.089130,459.657299
163483.160518,-3404.947333,-10436.903782,-1762.019645
163483.160838,-2442.679609,-11843.295072,-612.876398
163483.161158,-1628.453072,-9104.533087,0.000000
163483.161477,518.144159,-8882.471304,1608.800546
163483.161797,-74.020594,-9474.636058,2987.772442
163483.162116,-1258.350101,-7698.141797,-76.609550
163483.162436,-3256.906145,-8364.327145,459.657299
163483.162755,-1184.329507,-8882.471304,2068.457845
163483.163075,-518.144159,-9844.739029,306.438199
163483.163394,-370.102971,-10955.047942,689.485948
163483.163714,-1776.494261,-10584.944971,-689.485948
163483.164034,-4219.173869,-9252.574275,-2757.943793
163483.164353,-3256.906145,-11029.068536,-1072.533697
163483.164673,-2368.659014,-9548.656652,0.000000
163483.164992,-296.082377,-10066.800811,995.924147
163483.165312,814.226536,-7550.100608,-76.609550
163483.165631,296.082377,-7772.162391,1225.752797
163483.165951,222.061783,-8216.285956,-306.438199
163483.166271,1480.411884,-8956.491898,-383.047749
163483.166590,222.061783,-10362.883188,0.000000
163483.166910,-2072.576638,-9548.656652,0.000000
163483.167229,-3552.988522,-9548.656652,-2451.505594
163483.167549,-3108.864956,-9548.656652,-1762.019645
163483.167868,0.000000,-9548.656652,1532.190996
163483.168188,1406.391290,-9548.656652,0.000000
163483.168508,2294.638420,-9474.636058,2987.772442
163483.168827,1184.329507,-6587.832884,306.438199
163483.169147,-740.205942,-6957.935855,-1149.143247
163483.169466,1184.329507,-9548.656652,-306.438199
163483.169786,1998.556043,-9252.574275,0.000000
163483.170105,592.164754,-9548.656652,536.266849
163483.170425,2294.638420,-10658.965565,-383.047749
163483.170744,-1554.432478,-10510.924376,-1838.629195
163483.171064,-888.247130,-11029.068536,0.000000
163483.171384,1184.329507,-10732.986159,919.314598
163483.171703,3478.967927,-9474.636058,-76.609550
163483.172023,148.041188,-8808.450710,0.000000
163483.172342,370.102971,-6809.894666,-2451.505594
163483.172662,-814.226536,-8882.471304,-2145.067394
163483.172981,1332.370696,-8882.471304,-76.609550
163483.173301,1628.453072,-9844.739029,-995.924147
163483.173621,2146.597232,-11547.212695,842.705048
163483.173940,-74.020594,-10658.965565,-689.485948
163483.174260,-2368.659014,-9844.739029,0.000000
163483.174579,1480.411884,-10732.986159,0.000000
163483.174899,4663.297435,-10658.965565,1762.019645
163483.175218,0.000000,-8364.327145,1225.752797
163483.175538,-666.185348,-6365.771101,-919.314598
163483.175858,-1184.329507,-7624.121203,-2451.505594
163483.176177,592.164754,-8660.409521,153.219100
163483.176497,0.000000,-8364.327145,0.000000
163483.176816,0.000000,-10140.821405,1838.629195
163483.177136,-74.020594,-11695.253884,-76.609550
163483.177455,-3627.009116,-10066.800811,-1072.533697
163483.177775,-3775.050304,-9918.759623,-2221.676944
163483.178094,-370.102971,-11547.212695,2374.896044
163483.178414,-1628.453072,-8512.368333,1225.752797
163483.178734,-2146.597232,-7328.038826,1149.143247
163483.179053,-3182.885551,-5477.523971,-1608.800546
163483.179373,-4145.153275,-5995.668130,-2451.505594
163483.179692,-2590.720797,-5995.668130,-3217.601092
163483.180012,-1776.494261,-8660.409521,-612.876398
163483.180331,-814.226536,-12287.418637,1149.143247
163483.180651,-666.185348,-9770.718434,-1915.238745
163483.180971,-1850.514855,-11547.212695,-2451.505594
163483.181290,-740.205942,-12509.480420,1378.971896
163483.181610,222.061783,-9918.759623,1225.752797
163483.181929,518.144159,-8142.265362,2298.286494
163483.182249,1258.350101,-8290.306550,2374.896044
163483.182568,-962.267725,-6513.812290,-689.485948
163483.182888,-666.185348,-7402.059420,-1302.362347
163483.183208,0.000000,-7105.977043,-1302.362347
163483.183527,-1480.411884,-8586.388927,-1991.848295
163483.183847,-2368.659014,-9548.656652,0.000000
163483.184166,-1554.432478,-9622.677246,-2528.115143
163483.184486,-2072.576638,-11843.295072,0.000000
163483.184805,-740.205942,-11769.274478,1149.143247
163483.185125,0.000000,-9622.677246,536.266849
163483.185444,1110.308913,-11251.130318,2987.772442
163483.185764,296.082377,-6735.874072,-536.266849
163483.186084,-666.185348,-9474.636058,-76.609550
163483.186403,-1258.350101,-7328.038826,-2451.505594
163483.186723,592.164754,-7772.162391,0.000000
163483.187042,0.000000,-8364.327145,0.000000
163483.187362,2294.638420,-9770.718434,-76.609550
163483.187681,1184.329507,-11473.192101,-153.219100
163483.188001,740.205942,-12287.418637,536.266849
163483.188321,1110.308913,-10955.047942,383.047749
163483.188640,2146.597232,-11843.295072,995.924147
163483.188960,-1776.494261,-8956.491898,0.000000
163483.189279,-74.020594,-7105.977043,-2528.115143
163483.189599,-2516.700203,-6143.709319,-3447.429741
163483.189918,518.144159,-6291.750507,-3370.820191
163483.190238,2294.638420,-7105.977043,-1455.581446
163483.190557,2368.659014,-8808.450710,919.314598
163483.190877,2368.659014,-9178.553681,459.657299
163483.191197,1332.370696,-11399.171507,-459.657299
163483.191516,3108.864956,-13619.789333,3447.429741
163483.191836,1702.473667,-11695.253884,1225.752797
163483.192155,222.061783,-9474.636058,459.657299
163483.192475,-2960.823768,-5403.503377,-3983.696590
163483.192794,-3552.988522,-7772.162391,-2451.505594
163483.193114,-74.020594,-9474.636058,-1608.800546
163483.193434,1184.329507,-9104.533087,1149.143247
163483.193753,888.247130,-8586.388927,1225.752797
163483.194073,740.205942,-9030.512492,1072.533697
163483.194392,-370.102971,-9326.594869,-612.876398
163483.194712,-3552.988522,-9548.656652,0.000000
163483.195031,-1554.432478,-11473.192101,-76.609550
163483.195351,-2812.782580,-11473.192101,76.609550
163483.195671,-3552.988522,-9918.759623,0.000000
163483.195990,-3923.091493,-6513.812290,-3140.991542
163483.196310,-2442.679609,-9474.636058,-4060.306139
163483.196629,-74.020594,-10362.883188,-612.876398
163483.196949,518.144159,-7698.141797,-1378.971896
163483.197268,0.000000,-7550.100608,-76.609550
163483.197588,2516.700203,-10214.842000,2145.067394
163483.197907,0.000000,-9548.656652,0.000000
163483.198227,1332.370696,-11843.295072,2681.334243
163483.198547,666.185348,-10807.006753,2221.676944
163483.198866,-1258.350101,-9992.780217,383.047749
163483.199186,-3330.926739,-9474.636058,-766.095498
163483.199505,-4145.153275,-8290.306550,-2068.457845
163483.199825,-3034.844362,-8882.471304,-1915.238745
163483.200144,-74.020594,-8882.471304,-76.609550
163483.200464,0.000000,-6661.853478,0.000000
163483.200784,1332.370696,-8660.409521,4443.353888
163483.201103,0.000000,-6587.832884,0.000000
163483.201423,-962.267725,-11029.068536,383.047749
163483.201742,0.000000,-12509.480420,1762.019645
163483.202062,-814.226536,-11399.171507,1608.800546
163483.202381,-2442.679609,-8956.491898,0.000000
163483.202701,-3552.988522,-8142.265362,-1685.410096
163483.203021,-6513.812290,-5995.668130,-3677.258390
163483.203340,-1924.535449,-9104.533087,-1838.629195
163483.203660,814.226536,-7994.224174,-995.924147
163483.203979,1184.329507,-10881.027347,1838.629195
163483.204299,1406.391290,-8808.450710,306.438199
163483.204618,1110.308913,-9400.615463,-1225.752797
163483.204938,1110.308913,-11843.295072,919.314598
163483.205257,1480.411884,-10732.986159,0.000000
163483.205577,444.123565,-9548.656652,536.266849
163483.205897,-2146.597232,-7179.997637,-1532.190996
163483.206216,-3256.906145,-7179.997637,-2451.505594
163483.206536,-2146.597232,-9844.739029,-2451.505594
163483.206855,2294.638420,-9474.636058,-76.609550
163483.207175,2516.700203,-7920.203579,459.657299
163483.207494,2812.782580,-8438.347739,1225.752797
163483.207814,3034.844362,-8142.265362,383.047749
163483.208134,2738.761985,-9400.615463,536.266849
163483.208453,1110.308913,-10510.924376,2374.896044
163483.208773,3478.967927,-12435.459826,2374.896044
163483.209092,-1628.453072,-10288.862594,0.000000
163483.209412,-4737.318029,-8364.327145,-4290.134789
163483.209731,-7105.977043,-8364.327145,-4903.011187
163483.210051,-3034.844362,-11251.130318,-1915.238745
163483.210371,296.082377,-7476.080014,-2068.457845
163483.210690,2516.700203,-7550.100608,0.000000
163483.211010,3034.844362,-7402.059420,459.657299
163483.211329,1184.329507,-7328.038826,-306.438199
163483.211649,1184.329507,-11621.233289,1225.752797
163483.211968,2664.741391,-13619.789333,1149.143247
163483.212288,1110.308913,-15396.283594,2374.896044
163483.212607,-3182.885551,-9844.739029,0.000000
163483.212927,-4145.153275,-7772.162391,-3294.210641
163483.213247,-1258.350101,-10658.965565,-1302.362347
163483.213566,-888.247130,-8142.265362,-612.876398
163483.213886,3034.844362,-5921.647536,536.266849
163483.214205,3034.844362,-6809.894666,1532.190996
163483.214525,1480.411884,-5403.503377,1838.629195
163483.214844,0.000000,-7179.997637,0.000000
163483.215164,0.000000,-10140.821405,2451.505594
163483.215484,1850.514855,-13619.789333,2298.286494
163483.215803,-2294.638420,-11843.295072,2374.896044
163483.216123,-4959.379811,-9474.636058,-2528.115143
163483.216442,-6291.750507,-9474.636058,-2834.553343
163483.216762,-6069.688724,-8216.285956,-3217.601092
163483.217081,-1554.432478,-8068.244768,-1378.971896
163483.217401,814.226536,-6143.709319,-383.047749
163483.217721,0.000000,-4811.338623,0.000000
163483.218040,2886.803174,-7105.977043,229.828649
163483.218360,296.082377,-9548.656652,306.438199
163483.218679,1184.329507,-13693.809927,4290.134789
163483.218999,2294.638420,-15396.283594,3600.648841
163483.219318,-1258.350101,-11695.253884,536.266849
163483.219638,-3108.864956,-9622.677246,-995.924147
163483.219957,-5403.503377,-7698.141797,-3753.867940
163483.220277,-3923.091493,-7698.141797,-2911.162892
163483.220597,-74.020594,-8734.430116,-1302.362347
163483.220916,-740.205942,-8512.368333,-689.485948
163483.221236,-74.020594,-7994.224174,-1608.800546
163483.221555,-74.020594,-11251.130318,-76.609550
163483.221875,0.000000,-10140.821405,0.000000
163483.222194,592.164754,-11325.150913,1225.752797
163483.222514,3478.967927,-11547.212695,3600.648841
163483.222834,0.000000,-9474.636058,2604.724693
163483.223153,-2368.659014,-7698.141797,-1225.752797
163483.223473,-3182.885551,-7994.224174,-2145.067394
163483.223792,-74.020594,-10066.800811,-76.609550
163483.224112,1850.514855,-7105.977043,-1072.533697
163483.224431,1554.432478,-9104.533087,1072.533697
163483.224751,2294.638420,-9178.553681,-1302.362347
163483.225071,0.000000,-8956.491898,-1915.238745
163483.225390,74.020594,-9844.739029,0.000000
163483.225710,3478.967927,-12731.542202,2374.896044
163483.226029,0.000000,-11769.274478,2298.286494
163483.226349,-3404.947333,-8290.306550,-766.095498
163483.226668,-4737.318029,-7105.977043,-3677.258390
163483.226988,-2960.823768,-9548.656652,-2681.334243
163483.227307,-2368.659014,-5995.668130,-3370.820191
163483.227627,222.061783,-8438.347739,-766.095498
163483.227947,-74.020594,-7698.141797,-76.609550
163483.228266,-74.020594,-8586.388927,-4136.915689
163483.228586,4663.297435,-11843.295072,-1302.362347
163483.228905,4293.194464,-12361.439231,1532.190996
163483.229225,3701.029710,-13175.665768,3294.210641
163483.229544,1480.411884,-11843.295072,2298.286494
163483.229864,-1480.411884,-9400.615463,2451.505594
163483.230184,-3923.091493,-8956.491898,-2145.067394
163483.230503,-1850.514855,-8290.306550,-1608.800546
163483.230823,0.000000,-6217.729913,-2374.896044
163483.231142,0.000000,-5107.421000,0.000000
163483.231462,3478.967927,-8290.306550,2374.896044
163483.231781,0.000000,-8068.244768,153.219100
163483.232101,1924.535449,-10510.924376,842.705048
163483.232420,1628.453072,-11991.336260,1455.581446
163483.232740,-1184.329507,-12805.562797,1915.238745
163483.233060,-7105.977043,-9548.656652,0.000000
163483.233379,-5477.523971,-9474.636058,-2681.334243
163483.233699,-5625.565159,-9104.533087,-2528.115143
163483.234018,-2146.597232,-7105.977043,-1302.362347
163483.234338,0.000000,-6217.729913,-76.609550
163483.234657,3478.967927,-8290.306550,-383.047749
163483.234977,3404.947333,-8290.306550,1455.581446
163483.235297,1110.308913,-9474.636058,-459.657299
163483.235616,1776.494261,-11843.295072,1149.143247
163483.235936,1776.494261,-13249.686362,3064.381992
163483.236255,-3552.988522,-11325.150913,0.000000
163483.236575,-3997.112087,-10955.047942,-1838.629195
163483.236894,-5033.400406,-9548.656652,-3447.429741
163483.237214,-3478.967927,-9622.677246,-1608.800546
163483.237534,-74.020594,-8216.285956,-995.924147
163483.237853,592.164754,-7254.018232,1378.971896
163483.238173,3404.947333,-6809.894666,2221.676944
163483.238492,2886.803174,-8882.471304,1762.019645
163483.238812,2812.782580,-8882.471304,1072.533697
163483.239131,2960.823768,-10732.986159,3677.258390
163483.239451,962.267725,-11325.150913,2681.334243
163483.239770,-1110.308913,-12065.356855,1072.533697
163483.240090,-4737.318029,-10214.842000,-2987.772442
163483.240410,-5921.647536,-10214.842000,-3983.696590
163483.240729,-3627.009116,-8808.450710,-3294.210641
163483.241049,-2072.576638,-7179.997637,-2451.505594
163483.241368,-2368.659014,-5403.503377,-1838.629195
163483.241688,1924.535449,-6809.894666,-76.609550
163483.242007,2960.823768,-6957.935855,-689.485948
163483.242327,2368.659014,-10140.821405,3064.381992
163483.242647,3404.947333,-11843.295072,2221.676944
163483.242966,592.164754,-11621.233289,2374.896044
163483.243286,-2368.659014,-10732.986159,-306.438199
163483.243605,-5773.606348,-7550.100608,-4903.011187
163483.243925,-5699.585753,-9474.636058,-4979.620737
163483.244244,-1258.350101,-9474.636058,-2528.115143
163483.244564,-1036.288319,-6883.915261,-2451.505594
163483.244884,592.164754,-5995.668130,-2834.553343
163483.245203,3478.967927,-9474.636058,-76.609550
163483.245523,1776.494261,-8660.409521,2451.505594
163483.245842,6291.750507,-10214.842000,3830.477490
163483.246162,4811.338623,-10881.027347,4443.353888
163483.246481,518.144159,-11325.150913,3370.820191
163483.246801,-3034.844362,-9326.594869,-1149.143247
163483.247120,-3627.009116,-11251.130318,-1302.362347
163483.247440,-4811.338623,-10658.965565,-3217.601092
163483.247760,-4071.132681,-8882.471304,-2528.115143
163483.248079,-3997.112087,-5995.668130,-2451.505594
163483.248399,2294.638420,-8290.306550,-76.609550
163483.248718,74.020594,-7254.018232,-919.314598
163483.249038,2664.741391,-9548.656652,995.924147
163483.249357,2886.803174,-10584.944971,2528.115143
163483.249677,1702.473667,-11399.171507,2911.162892
163483.249997,-592.164754,-10732.986159,2145.067394
163483.250316,-1554.432478,-11473.192101,-383.047749
163483.250636,-1258.350101,-13027.624579,-76.609550
163483.250955,-74.020594,-9474.636058,-1302.362347
163483.251275,-1554.432478,-5699.585753,-3294.210641
163483.251594,2294.638420,-9474.636058,-76.609550
163483.251914,0.000000,-6587.832884,-2145.067394
163483.252234,1998.556043,-8512.368333,-153.219100
163483.252553,4589.276840,-10807.006753,1762.019645
163483.252873,2960.823768,-10732.986159,4903.011187
163483.253192,0.000000,-10140.821405,2451.505594
163483.253512,-3552.988522,-7772.162391,0.000000
163483.253831,-3997.112087,-9844.739029,-1915.238745
163483.254151,-4219.173869,-11029.068536,-2451.505594
163483.254470,-1258.350101,-9474.636058,-1915.238745
163483.254790,-222.061783,-9178.553681,-76.609550
163483.255110,296.082377,-6513.812290,76.609550
163483.255429,1628.453072,-5847.626942,-995.924147
163483.255749,3552.988522,-8586.388927,1532.190996
163483.256068,2368.659014,-9548.656652,1225.752797
163483.256388,2886.803174,-10584.944971,1532.190996
163483.256707,-1776.494261,-10732.986159,1532.190996
163483.257027,-3849.070898,-9548.656652,-3677.258390
163483.257347,-5329.482782,-10732.986159,-3064.381992
163483.257666,-3627.009116,-9770.718434,-5592.497135
163483.257986,-3627.009116,-8660.409521,-2068.457845
163483.258305,-2960.823768,-7476.080014,-2068.457845
163483.258625,-1554.432478,-5847.626942,-3064.381992
163483.258944,1110.308913,-9178.553681,-1302.362347
163483.259264,2294.638420,-10584.944971,2221.676944
163483.259584,3775.050304,-9474.636058,842.705048
163483.259903,1184.329507,-8660.409521,0.000000
163483.260223,-2960.823768,-10732.986159,0.000000
163483.260542,-4737.318029,-9844.739029,-3064.381992
163483.260862,-3034.844362,-10955.047942,-2221.676944
163483.261181,-1850.514855,-9770.718434,-306.438199
163483.261501,-740.205942,-8364.327145,-153.219100
163483.261820,-370.102971,-6809.894666,0.000000
163483.262140,2294.638420,-7698.141797,1685.410096
163483.262459,2886.803174,-8290.306550,1302.362347
163483.262779,5403.503377,-11621.233289,4596.572988
163483.263098,4071.132681,-11843.295072,2987.772442
163483.263418,-444.123565,-11843.295072,3600.648841
163483.263737,-6217.729913,-8364.327145,-2451.505594
163483.264057,-8290.306550,-9548.656652,-5439.278036
163483.264377,-6217.729913,-9548.656652,-4903.011187
163483.264696,-4441.235652,-8956.491898,-2451.505594
163483.265016,-2886.803174,-7550.100608,-919.314598
163483.265335,-74.020594,-8290.306550,-689.485948
163483.265655,2442.679609,-8364.327145,1455.581446
163483.265974,3182.885551,-7698.141797,-76.609550
163483.266294,3108.864956,-9548.656652,2451.505594
163483.266613,1184.329507,-9548.656652,2451.505594
163483.266933,74.020594,-9548.656652,0.000000
163483.267252,-1406.391290,-10955.047942,-459.657299
163483.267572,-2886.803174,-11547.212695,-1378.971896
163483.267891,-1924.535449,-11325.150913,-1762.019645
163483.268211,-74.020594,-11843.295072,-76.609550
163483.268530,-666.185348,-7254.018232,-76.609550
163483.268850,0.000000,-4515.256246,-919.314598
163483.269169,2590.720797,-4811.338623,-1762.019645
163483.269489,4737.318029,-8364.327145,3677.258390
163483.269808,4663.297435,-9178.553681,2374.896044
163483.270128,2886.803174,-10955.047942,3600.648841
163483.270447,-1332.370696,-10436.903782,76.609550
163483.270767,-3775.050304,-11103.089130,-2374.896044
163483.271086,-4885.359217,-11769.274478,-2374.896044
163483.271406,-4737.318029,-9548.656652,0.000000
163483.271725,-1702.473667,-8290.306550,-995.924147
163483.272045,0.000000,-7328.038826,-1378.971896
163483.272364,592.164754,-6217.729913,-2451.505594
163483.272684,1776.494261,-7328.038826,-1838.629195
163483.273003,3404.947333,-7550.100608,0.000000
163483.273323,4663.297435,-10362.883188,2068.457845
163483.273642,148.041188,-9548.656652,1225.752797
163483.273962,-1480.411884,-10140.821405,0.000000
163483.274282,-1850.514855,-11843.295072,-1302.362347
163483.274601,-2072.576638,-11325.150913,-919.314598
163483.274921,-1998.556043,-9992.780217,-1991.848295
163483.275240,-1036.288319,-8882.471304,-1225.752797
163483.275560,-370.102971,-6957.935855,-2451.505594
163483.275879,740.205942,-7031.956449,-2911.162892
163483.276199,4071.132681,-9918.759623,1072.533697
163483.276518,3775.050304,-9030.512492,1762.019645
163483.276838,2812.782580,-8290.306550,1149.143247
163483.277157,0.000000,-8364.327145,612.876398
163483.277477,-74.020594,-11843.295072,-76.609550
163483.277796,-3552.988522,-10436.903782,-919.314598
163483.278116,-3330.926739,-10881.027347,-1149.143247
163483.278435,-3552.988522,-9030.512492,-1915.238745
163483.278755,-4589.276840,-7994.224174,-1378.971896
163483.279074,-3552.988522,-5995.668130,-2451.505594
163483.279394,-1480.411884,-6883.915261,-2451.505594
163483.279713,1184.329507,-9548.656652,1838.629195
163483.280033,3330.926739,-10658.965565,1762.019645
163483.280352,518.144159,-10066.800811,1762.019645
163483.280672,-666.185348,-11251.130318,-76.609550
163483.280991,-4737.318029,-11325.150913,-2451.505594
163483.281311,-4515.256246,-11695.253884,-1762.019645
163483.281630,-2664.741391,-10140.821405,-995.924147
163483.281950,-2368.659014,-9548.656652,919.314598
163483.282269,-2368.659014,-6291.750507,0.000000
163483.282589,-3552.988522,-4811.338623,-2451.505594
163483.282908,1184.329507,-8660.409521,1378.971896
163483.283228,4737.318029,-9474.636058,3064.381992
163483.283547,4071.132681,-9474.636058,2987.772442
163483.283867,3182.885551,-10658.965565,2987.772442
163483.284187,-3182.885551,-8512.368333,-919.314598
163483.284506,-2960.823768,-11695.253884,-766.095498
163483.284826,-1184.329507,-11177.109724,-229.828649
163483.285145,-2368.659014,-8956.491898,0.000000
163483.285465,-1554.432478,-8734.430116,536.266849
163483.285784,-2368.659014,-6291.750507,-2911.162892
163483.286104,296.082377,-5995.668130,-3370.820191
163483.286423,2960.823768,-8956.491898,2451.505594
163483.286743,4663.297435,-8882.471304,1149.143247
163483.287062,3478.967927,-10658.965565,2987.772442
163483.287382,444.123565,-9400.615463,229.828649
163483.287701,-1554.432478,-9844.739029,-1915.238745
163483.288021,-1332.370696,-11399.171507,-1149.143247
163483.288340,222.061783,-11991.336260,842.705048
163483.288660,-666.185348,-9474.636058,-1378.971896
163483.288979,-1258.350101,-9474.636058,-76.609550
163483.289299,-2886.803174,-4811.338623,-4903.011187
163483.289618,0.000000,-8364.327145,-2451.505594
163483.289938,4663.297435,-9474.636058,-689.485948
163483.290257,4663.297435,-9992.780217,2298.286494
163483.290577,3108.864956,-9326.594869,2374.896044
163483.290896,74.020594,-8660.409521,-1302.362347
163483.291216,-74.020594,-11843.295072,-1302.362347
163483.291535,-74.020594,-13027.624579,-229.828649
163483.291855,1184.329507,-11917.315666,1685.410096
163483.292174,-74.020594,-11103.089130,842.705048
163483.292494,-814.226536,-7550.100608,-689.485948
163483.292813,-2368.659014,-4811.338623,-3677.258390
163483.293133,2294.638420,-9474.636058,842.705048
163483.293453,4811.338623,-8956.491898,2757.943793
163483.293772,3330.926739,-8438.347739,3370.820191
163483.294092,1110.308913,-7624.121203,2757.943793
163483.294411,-666.185348,-9030.512492,-153.219100
163483.294731,-7105.977043,-8364.327145,-3677.258390
163483.295050,-4145.153275,-11843.295072,-1838.629195
163483.295370,-4811.338623,-10658.965565,-1302.362347
163483.295689,-4811.338623,-9474.636058,-3140.991542
163483.296009,-8882.471304,-5403.503377,-6128.763984
163483.296328,-3627.009116,-9474.636058,-3140.991542
163483.296648,370.102971,-9326.594869,919.314598
163483.296967,2886.803174,-8438.347739,2451.505594
163483.297287,2072.576638,-7994.224174,2987.772442
163483.297606,-1184.329507,-7328.038826,1149.143247
163483.297926,-4367.215058,-8364.327145,-2451.505594
163483.298245,-2072.576638,-11325.150913,0.000000
163483.298565,1184.329507,-13027.624579,2145.067394
163483.298884,-74.020594,-12435.459826,3064.381992
163483.299204,-4737.318029,-7179.997637,0.000000
163483.299523,-2590.720797,-7550.100608,-2451.505594
163483.299843,-518.144159,-8438.347739,-842.705048
163483.300162,3034.844362,-8882.471304,1532.190996
163483.300482,4663.297435,-9178.553681,2374.896044
163483.300801,1702.473667,-8586.388927,2987.772442
163483.301121,-1776.494261,-6217.729913,-2528.115143
163483.301440,-3552.988522,-9548.656652,0.000000
163483.301760,-74.020594,-11325.150913,995.924147
163483.302079,-1184.329507,-11029.068536,2451.505594
163483.302399,-3552.988522,-9696.697840,0.000000
163483.302718,-3108.864956,-8660.409521,-2374.896044
163483.303038,-3108.864956,-8512.368333,-3600.648841
163483.303358,-296.082377,-9992.780217,-1685.410096
163483.303677,4071.132681,-10658.965565,-76.609550
163483.303997,3256.906145,-11177.109724,3907.087040
163483.304316,1702.473667,-8882.471304,-229.828649
163483.304636,-2368.659014,-8068.244768,-2757.943793
163483.304955,0.000000,-9548.656652,0.000000
163483.305275,296.082377,-8364.327145,0.000000
163483.305594,1702.473667,-11251.130318,1455.581446
163483.305914,-370.102971,-9844.739029,76.609550
163483.306233,-1628.453072,-7994.224174,-2068.457845
163483.306553,1110.308913,-9474.636058,-76.609550
163483.306872,4515.256246,-9030.512492,1302.362347
163483.307192,4293.194464,-8364.327145,1762.019645
163483.307511,4145.153275,-7179.997637,842.705048
163483.307831,0.000000,-5995.668130,0.000000
163483.308150,-1258.350101,-7179.997637,-3907.087040
163483.308470,-74.020594,-12287.418637,-995.924147
163483.308789,592.164754,-11843.295072,-229.828649
163483.309109,-666.185348,-11177.109724,766.095498
163483.309428,-2368.659014,-8512.368333,-612.876398
163483.309748,-2368.659014,-7772.162391,-919.314598
163483.310067,0.000000,-7994.224174,-766.095498
163483.310387,3627.009116,-8364.327145,1608.800546
163483.310706,2812.782580,-7550.100608,2068.457845
163483.311026,592.164754,-7179.997637,0.000000
163483.311345,-2442.679609,-6587.832884,-4903.011187
163483.311665,-2442.679609,-11843.295072,-3753.867940
163483.311984,-3404.947333,-11325.150913,-2451.505594
163483.312304,-1258.350101,-13027.624579,-76.609550
163483.312623,-2442.679609,-11843.295072,-76.609550
163483.312943,-3552.988522,-8660.409521,-1225.752797
163483.313263,-2294.638420,-7846.182985,-2068.457845
163483.313582,1702.473667,-8882.471304,1685.410096
163483.313902,4219.173869,-7698.141797,3140.991542
163483.314221,2738.761985,-6513.812290,3064.381992
163483.314541,1110.308913,-7105.977043,1149.143247
163483.314860,-2146.597232,-8882.471304,-1302.362347
163483.315180,-2072.576638,-10362.883188,-1302.362347
163483.315499,-2368.659014,-10732.986159,0.000000
163483.315819,-74.020594,-14211.954086,-76.609550
163483.316138,-4737.318029,-10140.821405,-919.314598
163483.316458,-4663.297435,-8808.450710,-3140.991542
163483.316777,-3404.947333,-9474.636058,-1838.629195
163483.317097,-444.123565,-9400.615463,459.657299
163483.317416,0.000000,-6587.832884,1532.190996
163483.317736,962.267725,-7846.182985,2987.772442
163483.318055,-888.247130,-5995.668130,612.876398
163483.318375,-666.185348,-9474.636058,-383.047749
163483.318694,-1258.350101,-10214.842000,0.000000
163483.319014,1702.473667,-13619.789333,2374.896044
163483.319333,-2960.823768,-11547.212695,153.219100
163483.319653,-3923.091493,-10362.883188,-2145.067394
163483.319972,-3923.091493,-9770.718434,-2451.505594
163483.320292,0.000000,-9844.739029,0.000000
163483.320611,1184.329507,-5995.668130,612.876398
163483.320931,0.000000,-5995.668130,0.000000
163483.321250,0.000000,-7031.956449,0.000000
163483.321570,-962.267725,-8290.306550,-919.314598
163483.321889,-74.020594,-10066.800811,-1608.800546
163483.322209,2590.720797,-13619.789333,2374.896044
163483.322528,-740.205942,-11473.192101,689.485948
163483.322848,-2886.803174,-10807.006753,0.000000
163483.323168,-4145.153275,-9844.739029,-2528.115143
163483.323487,-4737.318029,-8512.368333,-2145.067394
163483.323807,-370.102971,-9400.615463,689.485948
163483.324126,-1184.329507,-6439.791695,2145.067394
163483.324446,0.000000,-5773.606348,0.000000
163483.324765,1258.350101,-6883.915261,2911.162892
163483.325085,-1850.514855,-7105.977043,-2528.115143
163483.325404,-3923.091493,-9844.739029,-1072.533697
163483.325724,-4145.153275,-11473.192101,-2528.115143
163483.326043,-5625.565159,-12731.542202,-1225.752797
163483.326363,-7254.018232,-11843.295072,-1915.238745
163483.326682,-8586.388927,-10881.027347,-2528.115143
163483.327002,-7179.997637,-11251.130318,-2221.676944
163483.327321,-4885.359217,-9474.636058,-76.609550
163483.327641,-5921.647536,-6883.915261,0.000000
163483.327960,-3849.070898,-5995.668130,1225.752797
163483.328280,-1258.350101,-5329.482782,-76.609550
163483.328599,-2960.823768,-6513.812290,995.924147
163483.328919,-4663.297435,-6735.874072,-1532.190996
163483.329238,-7476.080014,-9844.739029,-2221.676944
163483.329558,-6661.853478,-13471.748144,-229.828649
163483.329877,-5625.565159,-13397.727550,-153.219100
163483.330197,-7105.977043,-11917.315666,0.000000
163483.330516,-3627.009116,-11843.295072,1608.800546
163483.330836,-3923.091493,-8290.306550,1149.143247
163483.331155,-6957.935855,-4811.338623,0.000000
163483.331475,-3627.009116,-7105.977043,536.266849
163483.331794,-4589.276840,-6735.874072,1149.143247
163483.332114,-3997.112087,-7772.162391,1608.800546
163483.332434,-2960.823768,-8216.285956,1608.800546
163483.332753,-1184.329507,-9548.656652,3677.258390
163483.333073,-4441.235652,-6291.750507,0.000000
163483.333392,-5625.565159,-7772.162391,-2451.505594
163483.333712,-6217.729913,-10214.842000,-4903.011187
163483.334031,-5551.544565,-13323.706956,-1532.190996
163483.334351,-8882.471304,-10140.821405,-3677.258390
163483.334670,-6957.935855,-11695.253884,-1608.800546
163483.334990,-5699.585753,-10214.842000,-995.924147
163483.335309,-2590.720797,-9104.533087,1149.143247
163483.335629,-222.061783,-5921.647536,1149.143247
163483.335948,-1184.329507,-5921.647536,1762.019645
163483.336268,-2146.597232,-6883.915261,0.000000
163483.336587,-888.247130,-8290.306550,-689.485948
163483.336907,-2368.659014,-9548.656652,0.000000
163483.337226,-2368.659014,-10732.986159,0.000000
163483.337546,-3849.070898,-9844.739029,-3370.820191
163483.337865,74.020594,-11843.295072,-689.485948
163483.338185,1184.329507,-10436.903782,459.657299
163483.338504,-740.205942,-8438.347739,0.000000
163483.338824,-666.185348,-9474.636058,-1302.362347
163483.339143,-814.226536,-9474.636058,-1608.800546
163483.339463,-74.020594,-11843.295072,-76.609550
163483.339782,-2072.576638,-9548.656652,919.314598
163483.340102,-2664.741391,-9400.615463,2068.457845
163483.340421,-4145.153275,-7772.162391,612.876398
163483.340741,-2368.659014,-7772.162391,0.000000
163483.341060,148.041188,-9178.553681,2757.943793
163483.341380,0.000000,-7772.162391,3524.039291
163483.341699,-2146.597232,-5403.503377,1455.581446
163483.342019,-1850.514855,-5921.647536,-1608.800546
163483.342339,-4441.235652,-9104.533087,-2987.772442
163483.342658,-4219.173869,-11843.295072,-4979.620737
163483.342978,-6513.812290,-13101.645173,-2451.505594
163483.343297,-8290.306550,-11917.315666,0.000000
163483.343617,-8068.244768,-8956.491898,-4213.525239
163483.343936,-5403.503377,-9400.615463,-2374.896044
163483.344256,-2220.617826,-9178.553681,-459.657299
163483.344575,1702.473667,-8364.327145,3294.210641
163483.344895,4367.215058,-9474.636058,6052.154434
163483.345214,296.082377,-5625.565159,4060.306139
163483.345534,-4737.318029,-4811.338623,0.000000
163483.345853,-4145.153275,-6291.750507,-4903.011187
163483.346173,-2812.782580,-10510.924376,-2528.115143
163483.346492,-4811.338623,-10066.800811,-5286.058936
163483.346812,-5403.503377,-15396.283594,-1915.238745
163483.347131,-7328.038826,-15174.221811,-1762.019645
163483.347451,-7254.018232,-13619.789333,-153.219100
163483.347770,-6661.853478,-11177.109724,919.314598
163483.348090,-4737.318029,-7179.997637,3064.381992
163483.348409,-3182.885551,-3627.009116,919.314598
163483.348729,-666.185348,-4145.153275,3447.429741
163483.349048,-888.247130,-5329.482782,3217.601092
163483.349368,-1924.535449,-7179.997637,612.876398
163483.349687,-3627.009116,-8290.306550,-689.485948
163483.350007,-5995.668130,-11843.295072,-2528.115143
163483.350326,-11251.130318,-11325.150913,-4290.134789
163483.350646,-8956.491898,-12805.562797,-4903.011187
163483.350965,-6883.915261,-11843.295072,-2528.115143
163483.351285,-4737.318029,-8660.409521,-2451.505594
163483.351604,-1702.473667,-7476.080014,-1072.533697
163483.351924,-1406.391290,-6883.915261,-383.047749
163483.352244,-1776.494261,-8364.327145,383.047749
163483.352563,-3330.926739,-10288.862594,153.219100
163483.352883,-2442.679609,-11843.295072,2068.457845
163483.353202,-1850.514855,-11695.253884,3907.087040
163483.353522,-1554.432478,-9474.636058,4213.525239
163483.353841,-2368.659014,-6291.750507,2451.505594
163483.354161,1110.308913,-9178.553681,2374.896044
163483.354480,-2368.659014,-4811.338623,-1838.629195
163483.354800,-3627.009116,-6439.791695,-3524.039291
163483.355119,-4737.318029,-8290.306550,-4290.134789
163483.355439,-4885.359217,-10140.821405,-4213.525239
163483.355758,-4737.318029,-11029.068536,-2451.505594
163483.356078,-2368.659014,-11917.315666,-1302.362347
163483.356397,-74.020594,-13027.624579,2987.772442
163483.356717,-74.020594,-10362.883188,2834.553343
163483.357036,-888.247130,-8808.450710,1838.629195
163483.357356,1628.453072,-11843.295072,3600.648841
163483.357675,-1924.535449,-8290.306550,306.438199
163483.357995,-2886.803174,-8586.388927,-306.438199
163483.358314,-4145.153275,-9104.533087,-1149.143247
163483.358634,-4737.318029,-8364.327145,-1225.752797
163483.358953,-6513.812290,-7179.997637,-2451.505594
163483.359273,-5921.647536,-8364.327145,-3064.381992
163483.359592,-2368.659014,-10436.903782,76.609550
163483.359912,-370.102971,-10362.883188,2681.334243
163483.360231,-74.020594,-8586.388927,1149.143247
163483.360551,1924.535449,-10658.965565,3600.648841
163483.360871,0.000000,-9030.512492,2298.286494
163483.361190,-222.061783,-8586.388927,2374.896044
163483.361510,-1258.350101,-8660.409521,1838.629195
163483.361829,-2368.659014,-8068.244768,1225.752797
163483.362149,1998.556043,-10066.800811,2374.896044
163483.362468,1036.288319,-8364.327145,1838.629195
163483.362788,2368.659014,-9548.656652,2451.505594
163483.363107,2664.741391,-10436.903782,4826.401637
163483.363427,2294.638420,-9474.636058,1149.143247
163483.363746,592.164754,-8660.409521,3064.381992
163483.364066,0.000000,-8364.327145,1532.190996
163483.364386,0.000000,-9326.594869,3140.991542
163483.364705,0.000000,-9844.739029,4213.525239
163483.365025,222.061783,-10362.883188,6358.592633
163483.365344,-74.020594,-9178.553681,4596.572988
163483.365664,-1924.535449,-7698.141797,2987.772442
163483.365983,-3552.988522,-8364.327145,3677.258390
163483.366303,-1850.514855,-9918.759623,3677.258390
163483.366622,-2442.679609,-8586.388927,2068.457845
163483.366942,296.082377,-10362.883188,5209.449386
163483.367262,1110.308913,-10288.862594,6588.421283
163483.367581,1924.535449,-8734.430116,7124.688131
163483.367901,3182.885551,-9178.553681,7890.783629
163483.368220,2738.761985,-8216.285956,5745.716235
163483.368540,1110.308913,-9474.636058,4826.401637
163483.368859,-962.267725,-8068.244768,1915.238745
163483.369179,-1480.411884,-11621.233289,3753.867940
163483.369498,-2368.659014,-12509.480420,4903.011187
163483.369818,-74.020594,-14211.954086,7277.907231
163483.370137,-592.164754,-12805.562797,9652.803275
163483.370457,-888.247130,-10881.027347,10878.556072
163483.370777,-444.123565,-6365.771101,10342.289223
163483.371096,2294.638420,-3256.906145,9959.241474
163483.371416,0.000000,-74.020594,5209.449386
163483.371735,592.164754,-3034.844362,4903.011187
163483.372055,518.144159,-8290.306550,4903.011187
163483.372374,-74.020594,-13027.624579,3600.648841
163483.372694,-5921.647536,-11325.150913,2604.724693
163483.373013,-5403.503377,-14359.995275,1915.238745
163483.373333,-6513.812290,-12287.418637,1532.190996
163483.373653,-4885.359217,-10732.986159,2374.896044
163483.373972,-1332.370696,-7179.997637,3140.991542
163483.374292,3627.009116,-7772.162391,5745.716235
163483.374611,3552.988522,-7772.162391,7967.393179
163483.374931,2960.823768,-8364.327145,5515.887586
163483.375250,1258.350101,-9400.615463,7737.564530
163483.375570,-74.020594,-9474.636058,4213.525239
163483.375889,-4737.318029,-5995.668130,0.000000
163483.376209,-518.144159,-9104.533087,383.047749
163483.376528,1776.494261,-9622.677246,1991.848295
163483.376848,2664.741391,-11103.089130,1455.581446
163483.377168,-74.020594,-13027.624579,-1302.362347
163483.377487,-3034.844362,-13915.871710,-1608.800546
163483.377807,-6069.688724,-12583.501014,-1915.238745
163483.378126,-4737.318029,-10732.986159,0.000000
163483.378446,-1036.288319,-9622.677246,3064.381992
163483.378765,2368.659014,-8808.450710,6971.469032
163483.379085,3108.864956,-5403.503377,4903.011187
163483.379404,4737.318029,-6439.791695,5439.278036
163483.379724,2368.659014,-5255.462188,3983.696590
163483.380044,-296.082377,-5255.462188,-76.609550
163483.380363,-74.020594,-7328.038826,-2834.553343
163483.380683,1998.556043,-14211.954086,-76.609550
163483.381002,1406.391290,-11843.295072,-76.609550
163483.381322,-2442.679609,-10288.862594,-1915.238745
163483.381641,-7920.203579,-9548.656652,-6511.811733
163483.381961,-9474.636058,-10732.986159,-7967.393179
163483.382280,-6587.832884,-12435.459826,-4366.744339
163483.382600,-2442.679609,-11621.233289,1762.019645
163483.382920,2294.638420,-7550.100608,5745.716235
163483.383239,6143.709319,-3256.906145,4826.401637
163483.383559,5921.647536,-2886.803174,5132.839837
163483.383878,5921.647536,-4663.297435,4903.011187
163483.384198,2886.803174,-6365.771101,3294.210641
163483.384517,-74.020594,-9474.636058,-2528.115143
163483.384837,-3552.988522,-10732.986159,-1838.629195
163483.385156,-4737.318029,-11621.233289,-4673.182538
163483.385476,-5921.647536,-13101.645173,-4136.915689
163483.385795,-3034.844362,-14952.160028,-2451.505594
163483.386115,-1850.514855,-12583.501014,-76.609550
163483.386435,-74.020594,-10658.965565,-76.609550
163483.386754,-3256.906145,-7179.997637,1225.752797
163483.387074,0.000000,-8142.265362,2528.115143
163483.387393,4515.256246,-7031.956449,6588.421283
163483.387713,7105.977043,-5625.565159,9729.412825
163483.388032,3849.070898,-5403.503377,6128.763984
163483.388352,0.000000,-7179.997637,2451.505594
163483.388671,-74.020594,-11843.295072,1149.143247
163483.388991,-5477.523971,-11991.336260,-1762.019645
163483.389311,-7031.956449,-14285.974681,-3677.258390
163483.389630,-3627.009116,-14804.118840,-689.485948
163483.389950,-3552.988522,-10732.986159,-536.266849
163483.390269,-1036.288319,-8734.430116,1762.019645
163483.390589,-296.082377,-6661.853478,3907.087040
163483.390908,0.000000,-5551.544565,4903.011187
163483.391228,1406.391290,-4219.173869,4596.572988
163483.391547,2960.823768,-4811.338623,4903.011187
163483.391867,6439.791695,-8586.388927,8580.269578
163483.392186,7031.956449,-11547.212695,9116.536426
163483.392506,1998.556043,-9844.739029,4749.792088
163483.392826,-666.185348,-14211.954086,3600.648841
163483.393145,-5033.400406,-13101.645173,689.485948
163483.393465,-5625.565159,-12805.562797,383.047749
163483.393784,-5033.400406,-12065.356855,1149.143247
163483.394104,-2664.741391,-10658.965565,3447.429741
163483.394423,-1184.329507,-7476.080014,4979.620737
163483.394743,222.061783,-4737.318029,6052.154434
163483.395062,0.000000,-2442.679609,4903.011187
163483.395382,1480.411884,-5847.626942,6894.859482
163483.395702,2442.679609,-5699.585753,4903.011187
163483.396021,4441.235652,-8290.306550,6894.859482
163483.396341,592.164754,-11029.068536,6052.154434
163483.396660,-1406.391290,-13175.665768,4213.525239
163483.396980,-3256.906145,-14211.954086,1915.238745
163483.397299,-3330.926739,-15396.283594,3600.648841
163483.397619,-4811.338623,-12805.562797,1149.143247
163483.397938,-5403.503377,-11547.212695,-76.609550
163483.398258,-3923.091493,-7105.977043,1762.019645
163483.398577,0.000000,-4811.338623,1532.190996
163483.398897,1702.473667,-3627.009116,2757.943793
163483.399217,5625.565159,-4811.338623,4826.401637
163483.399536,5329.482782,-7031.956449,6052.154434
163483.399856,4071.132681,-8364.327145,6665.030833
163483.400175,4663.297435,-11843.295072,6052.154434
163483.400495,1184.329507,-12213.398043,6128.763984
163483.400814,-666.185348,-11843.295072,1762.019645
163483.401134,-3627.009116,-10510.924376,-612.876398
163483.401453,-4959.379811,-11547.212695,-2221.676944
163483.401773,-7105.977043,-7179.997637,-4903.011187
163483.402093,-4515.256246,-8216.285956,-4979.620737
163483.402412,-962.267725,-7698.141797,-2911.162892
163483.402732,2368.659014,-7179.997637,-1762.019645
163483.403051,2886.803174,-8438.347739,1685.410096
163483.403371,4589.276840,-9178.553681,2374.896044
163483.403690,2368.659014,-8956.491898,2757.943793
163483.404010,4293.194464,-10732.986159,2451.505594
163483.404329,1628.453072,-11177.109724,-76.609550
163483.404649,-2442.679609,-12435.459826,-2528.115143
163483.404968,-5625.565159,-9548.656652,-5822.325785
163483.405288,-5699.585753,-11029.068536,-8963.317327
163483.405608,-5995.668130,-9696.697840,-10035.851024
163483.405927,-3256.906145,-7328.038826,-10878.556072
163483.406247,-222.061783,-10436.903782,-7890.783629
163483.406566,2886.803174,-10362.883188,-5132.839837
163483.406886,1258.350101,-11843.295072,-1302.362347
163483.407205,3552.988522,-8956.491898,1532.190996
163483.407525,7031.956449,-8290.306550,1455.581446
163483.407844,2294.638420,-9474.636058,1608.800546
163483.408164,0.000000,-7772.162391,-2451.505594
163483.408484,444.123565,-7105.977043,-3907.087040
163483.408803,-814.226536,-8882.471304,-4443.353888
163483.409123,-1924.535449,-6513.812290,-8503.660028
163483.409442,-3627.009116,-7402.059420,-9882.631924
163483.409762,-1036.288319,-11843.295072,-6281.983084
163483.410081,-74.020594,-12435.459826,-6358.592633
163483.410401,-1332.370696,-11991.336260,-2834.553343
163483.410720,1702.473667,-9474.636058,-2374.896044
163483.411040,4145.153275,-11843.295072,2987.772442
163483.411359,0.000000,-9030.512492,-612.876398
163483.411679,-1184.329507,-6957.935855,-1685.410096
163483.411999,-1628.453072,-6661.853478,-2834.553343
163483.412318,148.041188,-6143.709319,-4596.572988
163483.412638,1628.453072,-5847.626942,-5515.887586
163483.412957,1036.288319,-9104.533087,-3753.867940
163483.413277,518.144159,-11843.295072,-2604.724693
163483.413596,-74.020594,-14211.954086,-2834.553343
163483.413916,-2442.679609,-14211.954086,-1302.362347
163483.414235,-444.123565,-13323.706956,-76.609550
163483.414555,-2072.576638,-11103.089130,-306.438199
163483.414875,-1110.308913,-7624.121203,0.000000
163483.415194,888.247130,-5551.544565,1378.971896
163483.415514,0.000000,-4811.338623,612.876398
163483.415833,3034.844362,-3034.844362,1685.410096
163483.416153,3552.988522,-4811.338623,0.000000
163483.416472,0.000000,-8068.244768,1225.752797
163483.416792,444.123565,-12361.439231,1608.800546
163483.417111,-74.020594,-15396.283594,3600.648841
163483.417431,-888.247130,-13767.830521,3064.381992
163483.417750,-1184.329507,-12657.521608,1455.581446
163483.418070,-2294.638420,-12509.480420,2374.896044
163483.418390,-2812.782580,-8660.409521,2068.457845
163483.418709,-6513.812290,-4811.338623,612.876398
163483.419029,-2294.638420,-5329.482782,2068.457845
163483.419348,0.000000,-3034.844362,1532.190996
163483.419668,3478.967927,-5921.647536,3600.648841
163483.419987,888.247130,-5181.441594,2681.334243
163483.420307,1184.329507,-11917.315666,6741.640382
163483.420626,444.123565,-13249.686362,4213.525239
163483.420946,-296.082377,-14137.933492,4519.963438
163483.421266,-3552.988522,-14285.974681,2221.676944
163483.421585,-6365.771101,-10140.821405,0.000000
163483.421905,-4737.318029,-8068.244768,306.438199
163483.422224,-2442.679609,-8586.388927,1915.238745
163483.422544,-74.020594,-6217.729913,1762.019645
163483.422863,1406.391290,-2960.823768,0.000000
163483.423183,1184.329507,-4811.338623,3677.258390
163483.423502,1258.350101,-6661.853478,2451.505594
163483.423822,1776.494261,-10955.047942,4826.401637
163483.424141,1776.494261,-12509.480420,6358.592633
163483.424461,2368.659014,-12287.418637,5362.668486
163483.424781,-74.020594,-11843.295072,3600.648841
163483.425100,-4737.318029,-10140.821405,1685.410096
163483.425420,-4811.338623,-7402.059420,-459.657299
163483.425739,-3701.029710,-7920.203579,-1149.143247
163483.426059,-2368.659014,-6217.729913,-383.047749
163483.426378,-2960.823768,-5403.503377,-2451.505594
163483.426698,-2368.659014,-5995.668130,0.000000
163483.427017,1998.556043,-10362.883188,-76.609550
163483.427337,1406.391290,-10658.965565,1455.581446
163483.427657,666.185348,-10732.986159,1225.752797
163483.427976,4663.297435,-13027.624579,2374.896044
163483.428296,-666.185348,-9622.677246,1302.362347
163483.428615,-2590.720797,-10436.903782,0.000000
163483.428935,-2960.823768,-8438.347739,-2145.067394
163483.429254,-1776.494261,-7846.182985,-2451.505594
163483.429574,-666.185348,-5551.544565,-4749.792088
163483.429893,-1184.329507,-5995.668130,-5209.449386
163483.430213,592.164754,-6735.874072,-5132.839837
163483.430532,0.000000,-9548.656652,-2145.067394
163483.430852,2294.638420,-11251.130318,-536.266849
163483.431172,4367.215058,-12287.418637,1455.581446
163483.431491,2072.576638,-11029.068536,383.047749
163483.431811,-1258.350101,-9992.780217,0.000000
163483.432130,-2664.741391,-9696.697840,-2221.676944
163483.432450,-2294.638420,-9474.636058,-689.485948
163483.432769,0.000000,-7772.162391,-2451.505594
163483.433089,-444.123565,-6217.729913,-4366.744339
163483.433408,-1776.494261,-6143.709319,-4903.011187
163483.433728,0.000000,-9252.574275,-2451.505594
163483.434048,222.061783,-10732.986159,-3753.867940
163483.434367,1036.288319,-12065.356855,229.828649
163483.434687,370.102971,-9326.594869,-1378.971896
163483.435006,-2738.761985,-9844.739029,-3753.867940
163483.435326,-2294.638420,-12435.459826,-2528.115143
163483.435645,-74.020594,-12731.542202,-76.609550
163483.435965,0.000000,-11621.233289,153.219100
163483.436284,-74.020594,-8882.471304,-2834.553343
163483.436604,-2368.659014,-4811.338623,-5592.497135
163483.436923,0.000000,-5995.668130,-6128.763984
163483.437243,2294.638420,-8586.388927,-4826.401637
163483.437563,4071.132681,-12287.418637,919.314598
163483.437882,2442.679609,-12435.459826,1378.971896
163483.438202,-592.164754,-12509.480420,-383.047749
163483.438521,-1554.432478,-13027.624579,-1302.362347
163483.438841,-6513.812290,-8364.327145,-4290.134789
163483.439160,-4145.153275,-8660.409521,-2451.505594
163483.439480,814.226536,-5921.647536,-1838.629195
163483.439799,4071.132681,-5625.565159,-383.047749
163483.440119,0.000000,-2442.679609,0.000000
163483.440439,2886.803174,-7994.224174,-995.924147
163483.440758,1702.473667,-10955.047942,766.095498
163483.441078,1406.391290,-12583.501014,1838.629195
163483.441397,370.102971,-11695.253884,919.314598
163483.441717,-2516.700203,-12065.356855,-229.828649
163483.442036,-3997.112087,-9548.656652,0.000000
163483.442356,-2960.823768,-7772.162391,-3370.820191
163483.442675,-3552.988522,-8364.327145,0.000000
163483.442995,-2220.617826,-7105.977043,-689.485948
163483.443314,-2368.659014,-3627.009116,-2451.505594
163483.443634,1628.453072,-7105.977043,-689.485948
163483.443954,2516.700203,-8512.368333,459.657299
163483.444273,2294.638420,-10288.862594,2681.334243
163483.444593,4663.297435,-11251.130318,3907.087040
163483.444912,3478.967927,-11843.295072,2374.896044
163483.445232,-1850.514855,-14211.954086,2987.772442
163483.445551,-5181.441594,-9844.739029,0.000000
163483.445871,-5329.482782,-9548.656652,76.609550
163483.446190,-2368.659014,-9548.656652,3677.258390
163483.446510,-2072.576638,-4219.173869,0.000000
163483.446830,1480.411884,-4959.379811,1532.190996
163483.447149,2664.741391,-5551.544565,1838.629195
163483.447469,2738.761985,-8882.471304,2604.724693
163483.447788,4071.132681,-9474.636058,4213.525239
163483.448108,2368.659014,-13101.645173,5209.449386
163483.448427,-74.020594,-14211.954086,4673.182538
163483.448747,-3627.009116,-11991.336260,2374.896044
163483.449066,-4219.173869,-11251.130318,1762.019645
163483.449386,-4737.318029,-8956.491898,1838.629195
163483.449706,-3034.844362,-6069.688724,612.876398
163483.450025,-2368.659014,-5255.462188,0.000000
163483.450345,-1406.391290,-5625.565159,0.000000
163483.450664,148.041188,-7624.121203,0.000000
163483.450984,2442.679609,-8734.430116,612.876398
163483.451303,1184.329507,-8956.491898,2451.505594
163483.451623,2368.659014,-12065.356855,3064.381992
163483.451942,2294.638420,-14211.954086,2987.772442
163483.452262,-666.185348,-14211.954086,2374.896044
163483.452581,-4737.318029,-11917.315666,612.876398
163483.452901,-3404.947333,-10584.944971,229.828649
163483.453221,-1332.370696,-7031.956449,-1762.019645
163483.453540,666.185348,-4737.318029,-766.095498
163483.453860,1110.308913,-4219.173869,-3370.820191
163483.454179,2738.761985,-6365.771101,-306.438199
163483.454499,3849.070898,-7179.997637,0.000000
163483.454818,4737.318029,-12065.356855,3983.696590
163483.455138,1702.473667,-11177.109724,229.828649
163483.455457,-74.020594,-14211.954086,-76.609550
163483.455777,-4145.153275,-10881.027347,-1532.190996
163483.456097,-3997.112087,-10807.006753,-1608.800546
163483.456416,-2738.761985,-9770.718434,-1838.629195
163483.456736,-1332.370696,-6809.894666,-2757.943793
163483.457055,-2368.659014,-4219.173869,-4903.011187
163483.457375,592.164754,-7105.977043,-689.485948
163483.457694,814.226536,-7105.977043,-2221.676944
163483.458014,1776.494261,-8068.244768,612.876398
163483.458333,592.164754,-8364.327145,0.000000
163483.458653,0.000000,-10140.821405,2451.505594
163483.458972,-2294.638420,-10436.903782,-1302.362347
163483.459292,-5107.421000,-9770.718434,-3217.601092
163483.459613,-5181.441594,-11029.068536,-4366.744339
163483.459932,-2220.617826,-8660.409521,-5439.278036
163483.460252,-1480.411884,-8364.327145,-4903.011187
163483.460571,0.000000,-7476.080014,-1838.629195
163483.460891,1628.453072,-7476.080014,-1838.629195
163483.461210,4663.297435,-9326.594869,-76.609550
163483.461530,2368.659014,-7772.162391,0.000000
163483.461849,3478.967927,-10214.842000,153.219100
163483.462169,1258.350101,-12213.398043,1302.362347
163483.462489,-2220.617826,-10807.006753,306.438199
163483.462808,-4515.256246,-10658.965565,-2298.286494
163483.463128,-2516.700203,-11251.130318,-1302.362347
163483.463447,-3552.988522,-6291.750507,-4903.011187
163483.463767,-1258.350101,-5329.482782,-5056.230287
163483.464086,1110.308913,-6883.915261,-2451.505594
163483.464406,2960.823768,-8512.368333,0.000000
163483.464725,592.164754,-9548.656652,0.000000
163483.465045,1110.308913,-8882.471304,-1455.581446
163483.465364,-2368.659014,-11917.315666,-1225.752797
163483.465684,-1776.494261,-13397.727550,0.000000
163483.466004,-3627.009116,-10510.924376,-1915.238745
163483.466323,-1258.350101,-12731.542202,-76.609550
163483.466643,-2368.659014,-7179.997637,-2834.553343
163483.466962,-1036.288319,-6291.750507,-3217.601092
163483.467282,0.000000,-5921.647536,-3830.477490
163483.467601,888.247130,-7179.997637,-2451.505594
163483.467921,2516.700203,-9548.656652,0.000000
163483.468240,4071.132681,-10510.924376,1149.143247
163483.468560,1776.494261,-10807.006753,229.828649
163483.468879,0.000000,-11917.315666,2451.505594
163483.469199,-74.020594,-11547.212695,-76.609550
163483.469519,-1850.514855,-11473.192101,1149.143247
163483.469838,-1850.514855,-8956.491898,0.000000
163483.470158,-888.247130,-6291.750507,0.000000
163483.470477,-888.247130,-6513.812290,-536.266849
163483.470797,666.185348,-6735.874072,1149.143247
163483.471116,888.247130,-7772.162391,76.609550
163483.471436,3478.967927,-9474.636058,3600.648841
163483.471755,2294.638420,-8216.285956,1149.143247
163483.472075,148.041188,-11029.068536,2145.067394
163483.472394,-74.020594,-11843.295072,1762.019645
163483.472714,-1480.411884,-12509.480420,2528.115143
163483.473034,-3701.029710,-10510.924376,1072.533697
163483.473353,-3701.029710,-8956.491898,0.000000
163483.473673,-1406.391290,-8290.306550,-76.609550
163483.473992,-1184.329507,-8956.491898,1225.752797
163483.474312,0.000000,-6291.750507,612.876398
163483.474631,1998.556043,-8586.388927,2374.896044
163483.474951,2294.638420,-7772.162391,2374.896044
163483.475270,592.164754,-6587.832884,0.000000
163483.475590,2294.638420,-11547.212695,1762.019645
163483.475909,-888.247130,-12805.562797,1455.581446
163483.476229,-2368.659014,-13101.645173,842.705048
163483.476548,-2960.823768,-12435.459826,459.657299
163483.476868,-2072.576638,-10140.821405,919.314598
163483.477188,-3552.988522,-5995.668130,-1838.629195
163483.477507,-2368.659014,-5551.544565,-1225.752797
163483.477827,1554.432478,-6883.915261,612.876398
163483.478146,4441.235652,-7772.162391,2987.772442
163483.478466,2368.659014,-5995.668130,0.000000
163483.478785,3330.926739,-10066.800811,2681.334243
163483.479105,-666.185348,-11547.212695,1455.581446
163483.479424,-2442.679609,-12509.480420,536.266849
163483.479744,-3552.988522,-11177.109724,-766.095498
163483.480063,-3552.988522,-10658.965565,842.705048
163483.480383,-2960.823768,-7179.997637,-1838.629195
163483.480703,-1184.329507,-7105.977043,-1915.238745
163483.481022,-2368.659014,-6735.874072,0.000000
163483.481342,0.000000,-7328.038826,0.000000
163483.481661,0.000000,-4811.338623,-2451.505594
163483.481981,1702.473667,-8290.306550,-76.609550
163483.482300,1332.370696,-10214.842000,0.000000
163483.482620,0.000000,-10955.047942,766.095498
163483.482939,-74.020594,-11843.295072,-76.609550
163483.483259,-370.102971,-11843.295072,-689.485948
163483.483578,-1036.288319,-11843.295072,-76.609550
163483.483898,-1258.350101,-9178.553681,-3753.867940
163483.484218,-1406.391290,-8438.347739,-3447.429741
163483.484537,0.000000,-8364.327145,0.000000
163483.484857,1924.535449,-7698.141797,-1072.533697
163483.485176,3552.988522,-9252.574275,1608.800546
163483.485496,3108.864956,-8364.327145,306.438199
163483.485815,370.102971,-9548.656652,-383.047749
163483.486135,-74.020594,-12731.542202,-76.609550
163483.486454,-1776.494261,-9548.656652,0.000000
163483.486774,-666.185348,-11251.130318,-689.485948
163483.487093,-2960.823768,-8364.327145,-2834.553343
163483.487413,-3627.009116,-7698.141797,-4443.353888
163483.487733,-3552.988522,-7179.997637,-1838.629195
163483.488052,-222.061783,-7031.956449,-1378.971896
163483.488372,814.226536,-7402.059420,0.000000
163483.488691,2072.576638,-7402.059420,-459.657299
163483.489011,2368.659014,-7179.997637,-2451.505594
163483.489330,1850.514855,-10140.821405,-1532.190996
163483.489650,-2072.576638,-11325.150913,0.000000
163483.489969,-2886.803174,-13323.706956,-153.219100
163483.490289,-2442.679609,-12435.459826,-2528.115143
163483.490608,-3627.009116,-11251.130318,-3753.867940
163483.490928,-4737.318029,-8364.327145,-3677.258390
163483.491248,370.102971,-7550.100608,-2528.115143
163483.491567,1554.432478,-7031.956449,0.000000
163483.491887,3404.947333,-7328.038826,842.705048
163483.492206,3478.967927,-6365.771101,-1608.800546
163483.492526,2294.638420,-9474.636058,76.609550
163483.492845,0.000000,-9918.759623,-689.485948
163483.493165,-3552.988522,-10140.821405,0.000000
163483.493484,-2368.659014,-12435.459826,-766.095498
163483.493804,-74.020594,-13027.624579,-76.609550
163483.494123,-2960.823768,-8364.327145,-2145.067394
163483.494443,-1406.391290,-8364.327145,-1302.362347
163483.494763,-740.205942,-7179.997637,-1072.533697
163483.495082,740.205942,-7846.182985,612.876398
163483.495402,2886.803174,-6143.709319,536.266849
163483.495721,4663.297435,-9474.636058,4213.525239
163483.496041,2294.638420,-9474.636058,1762.019645
163483.496360,-1776.494261,-9252.574275,76.609550
163483.496680,-4737.318029,-8660.409521,-995.924147
163483.496999,-4737.318029,-9548.656652,0.000000
163483.497319,-2738.761985,-9622.677246,-1991.848295
163483.497638,-3330.926739,-9622.677246,-1838.629195
163483.497958,-1628.453072,-9326.594869,-995.924147
163483.498278,-370.102971,-7105.977043,-689.485948
163483.498597,888.247130,-7550.100608,766.095498
163483.498917,1776.494261,-5995.668130,1225.752797
163483.499236,3627.009116,-8290.306550,2451.505594
163483.499556,3478.967927,-9474.636058,-76.609550
163483.499875,-2368.659014,-8364.327145,0.000000
163483.500195,-370.102971,-11695.253884,842.705048
163483.500514,-1184.329507,-11473.192101,919.314598
163483.500834,-1628.453072,-10510.924376,-306.438199
163483.501153,-1998.556043,-9696.697840,-1225.752797
163483.501473,-74.020594,-10658.965565,1685.410096
163483.501793,-888.247130,-7179.997637,0.000000
163483.502112,2072.576638,-7402.059420,1762.019645
163483.502432,3108.864956,-7550.100608,1455.581446
163483.502751,2368.659014,-8364.327145,1225.752797
163483.503071,-2368.659014,-7179.997637,0.000000
163483.503390,-3034.844362,-8882.471304,-1378.971896
163483.503710,-4145.153275,-11029.068536,0.000000
163483.504029,-2442.679609,-10362.883188,-76.609550
163483.504349,-3330.926739,-8882.471304,-2528.115143
163483.504668,-740.205942,-10658.965565,-76.609550
163483.504988,-518.144159,-8956.491898,-612.876398
163483.505308,1480.411884,-8956.491898,842.705048
163483.505627,1924.535449,-8142.265362,1072.533697
163483.505947,0.000000,-7328.038826,229.828649
163483.506266,518.144159,-9178.553681,-153.219100
163483.506586,-1628.453072,-8068.244768,-1149.143247
163483.506905,-1184.329507,-9548.656652,0.000000
163483.507225,-74.020594,-11843.295072,1762.019645
163483.507544,1702.473667,-10066.800811,-1302.362347
163483.507864,-296.082377,-10436.903782,-383.047749
163483.508183,-1554.432478,-8956.491898,-1378.971896
163483.508503,-370.102971,-8882.471304,0.000000
163483.508823,1850.514855,-9474.636058,1302.362347
163483.509142,2960.823768,-8956.491898,2451.505594
163483.509462,1924.535449,-7476.080014,1302.362347
163483.509781,-222.061783,-9474.636058,-76.609550
163483.510101,-3552.988522,-7846.182985,-2298.286494
163483.510420,-1184.329507,-11029.068536,0.000000
163483.510740,-74.020594,-10658.965565,-689.485948
163483.511059,-2294.638420,-8882.471304,-612.876398
163483.511379,-2442.679609,-9770.718434,-2298.286494
163483.511698,-1332.370696,-8734.430116,-1455.581446
163483.512018,1406.391290,-8734.430116,612.876398
163483.512337,1184.329507,-8068.244768,2451.505594
163483.512657,0.000000,-5995.668130,0.000000
163483.512977,1702.473667,-9992.780217,229.828649
163483.513296,-814.226536,-10436.903782,-383.047749
163483.513616,-3849.070898,-9548.656652,-3294.210641
163483.513935,-666.185348,-13027.624579,-842.705048
163483.514255,-1850.514855,-10881.027347,-1915.238745
163483.514574,-2368.659014,-9474.636058,-2451.505594
163483.514894,-1998.556043,-8882.471304,-2911.162892
163483.515213,0.000000,-7920.203579,0.000000
163483.515533,1110.308913,-7402.059420,0.000000
163483.515852,2368.659014,-7476.080014,1225.752797
163483.516172,2368.659014,-7624.121203,0.000000
163483.516492,1998.556043,-11251.130318,-76.609550
163483.516811,-2294.638420,-7476.080014,-4136.915689
163483.517131,-444.123565,-10658.965565,-76.609550
163483.517450,0.000000,-10658.965565,76.609550
163483.517770,-740.205942,-9474.636058,-1225.752797
163483.518089,-1776.494261,-10066.800811,-1149.143247
163483.518409,-2368.659014,-9326.594869,-1608.800546
163483.518728,-1628.453072,-8586.388927,-1762.019645
163483.519048,0.000000,-9178.553681,-689.485948
163483.519367,0.000000,-7476.080014,612.876398
163483.519687,2294.638420,-8586.388927,1225.752797
163483.520007,-2146.597232,-5995.668130,-2451.505594
163483.520326,-962.267725,-9178.553681,-995.924147
163483.520646,-1036.288319,-9474.636058,-689.485948
163483.520965,74.020594,-9400.615463,-1378.971896
163483.521285,-74.020594,-11843.295072,-1302.362347
163483.521604,-74.020594,-12731.542202,-1302.362347
163483.521924,-74.020594,-13619.789333,-76.609550
163483.522243,-74.020594,-10510.924376,-76.609550
163483.522563,0.000000,-8364.327145,1225.752797
163483.522882,0.000000,-5995.668130,1225.752797
163483.523202,518.144159,-5847.626942,-1149.143247
163483.523522,666.185348,-7550.100608,0.000000
163483.523841,666.185348,-8734.430116,919.314598
163483.524161,888.247130,-9622.677246,1072.533697
163483.524480,2294.638420,-11843.295072,1149.143247
163483.524800,-3552.988522,-9844.739029,0.000000
163483.525119,-1554.432478,-12731.542202,-76.609550
163483.525439,-2442.679609,-10510.924376,-76.609550
163483.525758,-74.020594,-9474.636058,1149.143247
163483.526078,0.000000,-5995.668130,2451.505594
163483.526397,814.226536,-6513.812290,383.047749
163483.526717,-962.267725,-7254.018232,76.609550
163483.527037,-1554.432478,-8290.306550,-229.828649
163483.527356,-1702.473667,-8512.368333,-1302.362347
163483.527676,-814.226536,-10362.883188,-689.485948
163483.527995,-2960.823768,-9844.739029,-2451.505594
163483.528315,-2220.617826,-11547.212695,0.000000
163483.528634,-74.020594,-11843.295072,-76.609550
163483.528954,-74.020594,-10658.965565,2987.772442
163483.529273,0.000000,-8364.327145,1225.752797
163483.529593,888.247130,-7994.224174,229.828649
163483.529912,-444.123565,-7402.059420,-1072.533697
163483.530232,0.000000,-7328.038826,-1455.581446
163483.530552,-74.020594,-8882.471304,-2221.676944
163483.530871,814.226536,-10066.800811,-689.485948
163483.531191,296.082377,-8142.265362,-2528.115143
163483.531510,0.000000,-8364.327145,-1532.190996
163483.531830,0.000000,-10881.027347,-919.314598
163483.532149,1480.411884,-12805.562797,2374.896044
163483.532469,0.000000,-10732.986159,459.657299
163483.532788,1258.350101,-10066.800811,1838.629195
163483.533108,592.164754,-8956.491898,229.828649
163483.533427,0.000000,-8512.368333,-766.095498
163483.533747,-1258.350101,-6365.771101,-2528.115143
163483.534067,-74.020594,-9474.636058,-76.609550
163483.534386,-74.020594,-7254.018232,-2221.676944
163483.534706,-1184.329507,-8438.347739,-2834.553343
163483.535025,-4145.153275,-9548.656652,-2145.067394
163483.535345,-4737.318029,-9548.656652,0.000000
163483.535664,-1850.514855,-12139.377449,229.828649
163483.535984,-1628.453072,-9770.718434,766.095498
