#time,accel_x,accel_y,accel_z
59542.765873,148.041188,-9326.594869,1838.629195
59542.766183,1702.473667,-11251.130318,2374.896044
59542.766492,-1776.494261,-7920.203579,0.000000
59542.766802,1406.391290,-11843.295072,3600.648841
59542.767111,-1258.350101,-7698.141797,-689.485948
59542.767421,0.000000,-9770.718434,1455.581446
59542.767730,-74.020594,-9030.512492,1149.143247
59542.768040,-74.020594,-9400.615463,919.314598
59542.768349,-370.102971,-8956.491898,1072.533697
59542.768659,-222.061783,-8364.327145,0.000000
59542.768968,-592.164754,-8660.409521,0.000000
59542.769278,0.000000,-9548.656652,1838.629195
59542.769587,-74.020594,-9104.533087,536.266849
59542.769897,0.000000,-9548.656652,2451.505594
59542.770206,-74.020594,-9474.636058,-76.609550
59542.770516,-1184.329507,-9548.656652,1225.752797
59542.770826,-74.020594,-9474.636058,842.705048
59542.771135,-592.164754,-9030.512492,459.657299
59542.771445,-444.123565,-8734.430116,919.314598
59542.771754,-592.164754,-7772.162391,536.266849
59542.772064,-1776.494261,-7772.162391,0.000000
59542.772373,-2072.576638,-8364.327145,612.876398
59542.772683,1110.308913,-10066.800811,1762.019645
59542.772992,0.000000,-8956.491898,1225.752797
59542.773302,-74.020594,-9474.636058,-76.609550
59542.773611,-888.247130,-8364.327145,0.000000
59542.773921,-74.020594,-9252.574275,1072.533697
59542.774230,-370.102971,-9104.533087,689.485948
59542.774540,-518.144159,-8882.471304,383.047749
59542.774849,-444.123565,-8882.471304,1149.143247
59542.775159,-1776.494261,-7772.162391,0.000000
59542.775468,-2368.659014,-7772.162391,0.000000
59542.775778,-74.020594,-10362.883188,1762.019645
59542.776087,-3552.988522,-6291.750507,0.000000
59542.776397,1628.453072,-10658.965565,3524.039291
59542.776706,0.000000,-7476.080014,0.000000
59542.777016,0.000000,-9474.636058,1149.143247
59542.777326,-444.123565,-9178.553681,1072.533697
59542.777635,-74.020594,-8956.491898,919.314598
59542.777945,-74.020594,-9474.636058,1762.019645
59542.778254,-888.247130,-7624.121203,842.705048
59542.778564,-1554.432478,-7772.162391,0.000000
59542.778873,0.000000,-9548.656652,2145.067394
59542.779183,-74.020594,-7994.224174,-383.047749
59542.779492,0.000000,-8364.327145,1225.752797
59542.779802,-1184.329507,-7476.080014,0.000000
59542.780111,0.000000,-8956.491898,1225.752797
59542.780421,-74.020594,-8956.491898,689.485948
59542.780730,-592.164754,-9030.512492,612.876398
59542.781040,-74.020594,-10658.965565,2374.896044
59542.781349,-666.185348,-8882.471304,1149.143247
59542.781659,-666.185348,-8290.306550,153.219100
59542.781968,-1184.329507,-8956.491898,2451.505594
59542.782278,-74.020594,-7994.224174,-689.485948
59542.782587,-1776.494261,-8364.327145,0.000000
59542.782897,-370.102971,-8586.388927,-76.609550
59542.783206,-962.267725,-8512.368333,612.876398
59542.783516,-296.082377,-9030.512492,612.876398
59542.783825,-222.061783,-9326.594869,766.095498
59542.784135,1110.308913,-10584.944971,2987.772442
59542.784445,-74.020594,-10658.965565,2374.896044
59542.784754,-666.185348,-8290.306550,-76.609550
59542.785064,0.000000,-8660.409521,2145.067394
59542.785373,-1258.350101,-7698.141797,-536.266849
59542.785683,0.000000,-9548.656652,0.000000
59542.785992,-74.020594,-9474.636058,-76.609550
59542.786302,-592.164754,-8956.491898,689.485948
59542.786611,-74.020594,-9326.594869,995.924147
59542.786921,-296.082377,-9178.553681,919.314598
59542.787230,148.041188,-9548.656652,2451.505594
59542.787540,1110.308913,-11103.089130,2374.896044
59542.787849,-74.020594,-9474.636058,1149.143247
59542.788159,-1480.411884,-8364.327145,0.000000
59542.788468,-74.020594,-10658.965565,-76.609550
59542.788778,-2368.659014,-5995.668130,-1762.019645
59542.789087,1702.473667,-9474.636058,2374.896044
59542.789397,-666.185348,-8956.491898,536.266849
59542.789706,-444.123565,-9104.533087,766.095498
59542.790016,-592.164754,-8956.491898,919.314598
59542.790325,0.000000,-7772.162391,1225.752797
59542.790635,-74.020594,-9622.677246,2757.943793
59542.790944,1110.308913,-10362.883188,1762.019645
59542.791254,-1776.494261,-7476.080014,0.000000
59542.791564,2294.638420,-11843.295072,2374.896044
59542.791873,-2368.659014,-6587.832884,-229.828649
59542.792183,1702.473667,-9474.636058,1455.581446
59542.792492,0.000000,-8734.430116,766.095498
59542.792802,370.102971,-8808.450710,536.266849
59542.793111,666.185348,-8808.450710,995.924147
59542.793421,0.000000,-7179.997637,0.000000
59542.793730,2072.576638,-8956.491898,1838.629195
59542.794040,2220.617826,-9770.718434,1915.238745
59542.794349,1554.432478,-7328.038826,-1915.238745
59542.794659,3552.988522,-10584.944971,3064.381992
59542.794968,1702.473667,-9178.553681,-76.609550
59542.795278,4071.132681,-10658.965565,2374.896044
59542.795587,2886.803174,-9474.636058,612.876398
59542.795897,2516.700203,-9252.574275,459.657299
59542.796206,2664.741391,-9400.615463,766.095498
59542.796516,1776.494261,-7772.162391,0.000000
59542.796825,2368.659014,-7179.997637,0.000000
59542.797135,4737.318029,-9548.656652,2451.505594
59542.797444,6143.709319,-7402.059420,-76.609550
59542.797754,5329.482782,-9548.656652,2757.943793
59542.798063,7031.956449,-9474.636058,2374.896044
59542.798373,5329.482782,-8956.491898,2145.067394
59542.798683,5847.626942,-8882.471304,766.095498
59542.798992,5551.544565,-8734.430116,0.000000
59542.799302,5847.626942,-8956.491898,0.000000
59542.799611,5847.626942,-7846.182985,-1608.800546
59542.799921,4737.318029,-7772.162391,-2145.067394
59542.800230,4737.318029,-9844.739029,0.000000
59542.800540,5847.626942,-11177.109724,-1302.362347
59542.800849,3552.988522,-13101.645173,1225.752797
59542.801159,4663.297435,-14211.954086,2374.896044
59542.801468,1184.329507,-10140.821405,306.438199
59542.801778,2590.720797,-9474.636058,995.924147
59542.802087,3256.906145,-7105.977043,1378.971896
59542.802397,4293.194464,-5477.523971,1915.238745
59542.802706,6735.874072,-4145.153275,2068.457845
59542.803016,6143.709319,-2886.803174,1149.143247
59542.803325,8290.306550,-3034.844362,2451.505594
59542.803635,9400.615463,-9474.636058,6052.154434
59542.803944,4071.132681,-8660.409521,0.000000
59542.804254,1776.494261,-14582.057057,612.876398
59542.804563,-4737.318029,-16654.633695,-3370.820191
59542.804873,-3849.070898,-16358.551318,-3064.381992
59542.805183,-3849.070898,-14211.954086,-2298.286494
59542.805492,-2590.720797,-8660.409521,-2068.457845
59542.805802,-74.020594,-11251.130318,2374.896044
59542.806111,3478.967927,-5921.647536,3447.429741
59542.806421,3182.885551,-5329.482782,4136.915689
59542.806730,3849.070898,-5995.668130,7354.516781
59542.807040,2294.638420,-3552.988522,2374.896044
59542.807349,0.000000,-3627.009116,4903.011187
59542.807659,2368.659014,-2442.679609,1455.581446
59542.807968,3849.070898,-4811.338623,2145.067394
59542.808278,2812.782580,-6661.853478,0.000000
59542.808587,-518.144159,-12361.439231,-1991.848295
59542.808897,-2442.679609,-20133.601622,-383.047749
59542.809206,-4811.338623,-20133.601622,-4060.306139
59542.809516,-5699.585753,-15544.324782,-5286.058936
59542.809825,-7105.977043,-7179.997637,-4903.011187
59542.810135,2294.638420,-8290.306550,-76.609550
59542.810444,0.000000,-3034.844362,0.000000
59542.810754,4663.297435,-3849.070898,4519.963438
59542.811063,5773.606348,-5699.585753,5898.935335
59542.811373,7179.997637,-4515.256246,5975.544884
59542.811682,8808.450710,-4071.132681,6052.154434
59542.811992,9326.594869,-4885.359217,7890.783629
59542.812302,8068.244768,-9178.553681,5898.935335
59542.812611,1702.473667,-11251.130318,-383.047749
59542.812921,-3552.988522,-14285.974681,-3677.258390
59542.813230,-74.020594,-18949.272115,-3753.867940
59542.813540,-5921.647536,-11917.315666,-8580.269578
59542.813849,-4811.338623,-17172.777854,-4979.620737
59542.814159,-4811.338623,-10436.903782,-4443.353888
59542.814468,74.020594,-9548.656652,0.000000
59542.814778,7920.203579,-3997.112087,4060.306139
59542.815087,12435.459826,-74.020594,7354.516781
59542.815397,15248.242405,-3330.926739,10265.679673
59542.815706,13693.809927,-4737.318029,9116.536426
59542.816016,8216.285956,-4811.338623,2374.896044
59542.816325,5329.482782,-8660.409521,3064.381992
59542.816635,2294.638420,-10658.965565,-2528.115143
59542.816944,-1850.514855,-14211.954086,-4060.306139
59542.817254,-3478.967927,-15544.324782,-5362.668486
59542.817563,1036.288319,-13693.809927,-4060.306139
59542.817873,4145.153275,-11473.192101,-1378.971896
59542.818182,2368.659014,-7179.997637,0.000000
59542.818492,2516.700203,-8364.327145,0.000000
59542.818801,6883.915261,-9400.615463,2374.896044
59542.819111,3701.029710,-2442.679609,612.876398
59542.819421,6661.853478,-3034.844362,4903.011187
59542.819730,4663.297435,-4737.318029,-76.609550
59542.820040,5847.626942,-7105.977043,2298.286494
59542.820349,8142.265362,-8882.471304,2681.334243
59542.820659,5403.503377,-9474.636058,2834.553343
59542.820968,-1480.411884,-11843.295072,-229.828649
59542.821278,-4737.318029,-11917.315666,-4903.011187
59542.821587,-2960.823768,-11917.315666,-2451.505594
59542.821897,-888.247130,-11177.109724,0.000000
59542.822206,-74.020594,-8734.430116,-1302.362347
59542.822516,3849.070898,-8216.285956,2604.724693
59542.822825,9400.615463,-7105.977043,3600.648841
59542.823135,5921.647536,-7846.182985,4749.792088
59542.823444,3182.885551,-6735.874072,2451.505594
59542.823754,2516.700203,-6661.853478,1838.629195
59542.824063,4441.235652,-5403.503377,1225.752797
59542.824373,1406.391290,-7476.080014,-2145.067394
59542.824682,0.000000,-8364.327145,0.000000
59542.824992,0.000000,-10732.986159,0.000000
59542.825301,-74.020594,-13619.789333,-2528.115143
59542.825611,-4441.235652,-12509.480420,-1838.629195
59542.825920,-74.020594,-15396.283594,2374.896044
59542.826230,592.164754,-8364.327145,612.876398
59542.826540,4367.215058,-6957.935855,2451.505594
59542.826849,6365.771101,-5403.503377,3447.429741
59542.827159,4811.338623,-6513.812290,3524.039291
59542.827468,4663.297435,-5329.482782,842.705048
59542.827778,1184.329507,-6587.832884,0.000000
59542.828087,1184.329507,-7179.997637,0.000000
59542.828397,4663.297435,-11843.295072,2987.772442
59542.828706,0.000000,-8364.327145,0.000000
59542.829016,1184.329507,-12065.356855,2145.067394
59542.829325,-1776.494261,-10140.821405,-2451.505594
59542.829635,-74.020594,-12139.377449,-689.485948
59542.829944,2590.720797,-9400.615463,459.657299
59542.830254,3923.091493,-8216.285956,995.924147
59542.830563,5847.626942,-9474.636058,1762.019645
59542.830873,4367.215058,-7550.100608,1455.581446
59542.831182,3552.988522,-7179.997637,0.000000
59542.831492,6439.791695,-9474.636058,2987.772442
59542.831801,2960.823768,-5995.668130,1225.752797
59542.832111,4441.235652,-10732.986159,3064.381992
59542.832420,1184.329507,-8660.409521,153.219100
59542.832730,-1184.329507,-10436.903782,153.219100
59542.833040,-814.226536,-10140.821405,-1225.752797
59542.833349,1998.556043,-8956.491898,-612.876398
59542.833659,6439.791695,-7105.977043,2374.896044
59542.833968,4663.297435,-8882.471304,1149.143247
59542.834278,1776.494261,-4219.173869,-3677.258390
59542.834587,6513.812290,-12435.459826,2681.334243
59542.834897,4737.318029,-7179.997637,612.876398
59542.835206,4737.318029,-8364.327145,2451.505594
59542.835516,3182.885551,-9178.553681,0.000000
59542.835825,1332.370696,-10214.842000,-919.314598
59542.836132,1628.453072,-11547.212695,-536.266849
59542.836442,3478.967927,-10658.965565,229.828649
59542.836752,3923.091493,-11251.130318,3600.648841
59542.837061,3478.967927,-9474.636058,-76.609550
59542.837371,1110.308913,-7698.141797,-1302.362347
59542.837681,2368.659014,-8068.244768,2451.505594
59542.837990,6439.791695,-7105.977043,3294.210641
59542.838300,2368.659014,-2442.679609,1225.752797
59542.838610,4071.132681,-7105.977043,1149.143247
59542.838919,1776.494261,-8364.327145,-229.828649
59542.839229,1554.432478,-11695.253884,76.609550
59542.839539,3182.885551,-10288.862594,-383.047749
59542.839849,2368.659014,-12879.583391,1532.190996
59542.840158,3552.988522,-12213.398043,1532.190996
59542.840468,2368.659014,-13693.809927,1225.752797
59542.840778,5847.626942,-10066.800811,2374.896044
59542.841087,148.041188,-7179.997637,0.000000
59542.841397,2738.761985,-8808.450710,1149.143247
59542.841707,2294.638420,-8290.306550,536.266849
59542.842016,2072.576638,-7624.121203,1991.848295
59542.842326,4959.379811,-5107.421000,1991.848295
59542.842636,2960.823768,-7476.080014,2604.724693
59542.842946,1184.329507,-5107.421000,612.876398
59542.843255,2368.659014,-11621.233289,1838.629195
59542.843565,4663.297435,-13027.624579,3600.648841
59542.843875,518.144159,-10066.800811,-842.705048
59542.844184,0.000000,-10732.986159,153.219100
59542.844494,-74.020594,-11843.295072,-1302.362347
59542.844804,2294.638420,-10066.800811,536.266849
59542.845113,3701.029710,-9104.533087,2145.067394
59542.845423,4811.338623,-6365.771101,2681.334243
59542.845733,3404.947333,-7698.141797,1608.800546
59542.846043,2368.659014,-5995.668130,1225.752797
59542.846352,1480.411884,-8364.327145,1225.752797
59542.846662,2294.638420,-11843.295072,3600.648841
59542.846972,-3256.906145,-7328.038826,-2451.505594
59542.847281,-74.020594,-11251.130318,-76.609550
59542.847591,2294.638420,-9474.636058,-76.609550
59542.847901,1628.453072,-10732.986159,1838.629195
59542.848210,2072.576638,-10436.903782,1915.238745
59542.848520,1998.556043,-10510.924376,1915.238745
59542.848830,0.000000,-9918.759623,612.876398
59542.849140,-4737.318029,-7179.997637,-1838.629195
59542.849449,-4737.318029,-8364.327145,0.000000
59542.849759,-74.020594,-9474.636058,2374.896044
59542.850069,-2146.597232,-5403.503377,-1302.362347
59542.850378,-296.082377,-7550.100608,1532.190996
59542.850688,-74.020594,-10658.965565,-76.609550
59542.850998,1480.411884,-8808.450710,2451.505594
59542.851307,0.000000,-10510.924376,1378.971896
59542.851617,-3256.906145,-9252.574275,-612.876398
59542.851927,-4515.256246,-11251.130318,-919.314598
59542.852237,-3182.885551,-7772.162391,-1532.190996
59542.852546,-2960.823768,-8068.244768,0.000000
59542.852856,-444.123565,-10288.862594,3370.820191
59542.853166,-666.185348,-8290.306550,842.705048
59542.853475,1776.494261,-8290.306550,3677.258390
59542.853785,-74.020594,-9474.636058,4826.401637
59542.854095,-5921.647536,-7476.080014,0.000000
59542.854404,-5033.400406,-8512.368333,-306.438199
59542.854714,-1406.391290,-6957.935855,229.828649
59542.855024,-1036.288319,-7772.162391,1149.143247
59542.855334,-666.185348,-7698.141797,0.000000
59542.855643,-1184.329507,-9548.656652,689.485948
59542.855953,0.000000,-8364.327145,612.876398
59542.856263,-370.102971,-14211.954086,3294.210641
59542.856572,-4811.338623,-8290.306550,-1302.362347
59542.856882,-5329.482782,-12509.480420,1378.971896
59542.857192,0.000000,-6069.688724,1225.752797
59542.857501,592.164754,-8290.306550,2374.896044
59542.857811,370.102971,-6735.874072,2451.505594
59542.858121,370.102971,-8290.306550,1762.019645
59542.858431,2294.638420,-7105.977043,842.705048
59542.858740,-1628.453072,-8956.491898,0.000000
59542.859050,-7105.977043,-9548.656652,0.000000
59542.859360,-2442.679609,-9474.636058,-1915.238745
59542.859669,-2368.659014,-9548.656652,0.000000
59542.859979,296.082377,-7179.997637,0.000000
59542.860289,2294.638420,-11103.089130,2068.457845
59542.860598,3849.070898,-8364.327145,2068.457845
59542.860908,4589.276840,-10436.903782,3140.991542
59542.861218,1628.453072,-8882.471304,1685.410096
59542.861528,-3404.947333,-11621.233289,612.876398
59542.861837,-1258.350101,-9474.636058,-76.609550
59542.862147,-1258.350101,-4811.338623,-2221.676944
59542.862457,3256.906145,-8956.491898,2451.505594
59542.862766,2886.803174,-5699.585753,306.438199
59542.863076,6587.832884,-10658.965565,4213.525239
59542.863386,4293.194464,-8290.306550,1225.752797
59542.863695,74.020594,-11325.150913,1072.533697
59542.864005,-2738.761985,-10955.047942,-1302.362347
59542.864315,-1924.535449,-10955.047942,-1532.190996
59542.864625,-1110.308913,-8142.265362,-1762.019645
59542.864934,296.082377,-9548.656652,-2451.505594
59542.865244,4441.235652,-10807.006753,3524.039291
59542.865554,5847.626942,-7105.977043,2068.457845
59542.865863,2960.823768,-7179.997637,2451.505594
59542.866173,0.000000,-7179.997637,1378.971896
59542.866483,-2442.679609,-10066.800811,-536.266849
59542.866792,-2368.659014,-9326.594869,-689.485948
59542.867102,-814.226536,-9104.533087,-842.705048
59542.867412,0.000000,-8956.491898,76.609550
59542.867722,3256.906145,-10362.883188,2451.505594
59542.868031,6439.791695,-10658.965565,4826.401637
59542.868341,2294.638420,-8882.471304,1149.143247
59542.868651,-3552.988522,-9548.656652,612.876398
59542.868960,-3627.009116,-13619.789333,-76.609550
59542.869270,-3034.844362,-9474.636058,-1915.238745
59542.869580,-3478.967927,-9104.533087,-612.876398
59542.869889,-1628.453072,-7031.956449,459.657299
59542.870199,444.123565,-7920.203579,2298.286494
59542.870509,2516.700203,-6439.791695,3600.648841
59542.870819,0.000000,-6883.915261,1532.190996
59542.871128,-4737.318029,-7179.997637,0.000000
59542.871438,-2442.679609,-13027.624579,2068.457845
59542.871748,-4219.173869,-8438.347739,-1378.971896
59542.872057,-962.267725,-12435.459826,2528.115143
59542.872367,-1480.411884,-11251.130318,2374.896044
59542.872677,-74.020594,-9992.780217,1302.362347
59542.872986,1924.535449,-9400.615463,2604.724693
59542.873296,1036.288319,-9030.512492,2757.943793
59542.873606,-2368.659014,-8956.491898,0.000000
59542.873916,-1924.535449,-10658.965565,1762.019645
59542.874225,-1258.350101,-9178.553681,-76.609550
59542.874535,-4737.318029,-7179.997637,0.000000
59542.874845,-666.185348,-9178.553681,-76.609550
59542.875154,-3552.988522,-7179.997637,0.000000
59542.875464,1776.494261,-7179.997637,1532.190996
59542.875774,3256.906145,-8956.491898,3294.210641
59542.876083,-296.082377,-9622.677246,1915.238745
59542.876393,-2960.823768,-10362.883188,0.000000
59542.876703,-1850.514855,-10658.965565,-76.609550
59542.877013,-2072.576638,-8364.327145,-1915.238745
59542.877322,-2368.659014,-8364.327145,0.000000
59542.877632,1998.556043,-9474.636058,1762.019645
59542.877942,1776.494261,-6587.832884,0.000000
59542.878251,5847.626942,-9474.636058,3600.648841
59542.878561,2886.803174,-9474.636058,2068.457845
59542.878871,-1924.535449,-8364.327145,229.828649
59542.879180,-1628.453072,-7994.224174,-842.705048
59542.879490,-444.123565,-9548.656652,-383.047749
59542.879800,0.000000,-8364.327145,0.000000
59542.880110,4663.297435,-11103.089130,2987.772442
59542.880419,5847.626942,-7105.977043,1149.143247
59542.880729,1184.329507,-8956.491898,1225.752797
59542.881039,-370.102971,-11251.130318,-76.609550
59542.881348,-4441.235652,-10732.986159,0.000000
59542.881658,-3552.988522,-8364.327145,-2145.067394
59542.881968,-1998.556043,-10066.800811,-1072.533697
59542.882277,-370.102971,-8734.430116,-76.609550
59542.882587,3034.844362,-8734.430116,1915.238745
59542.882897,7031.956449,-7105.977043,2987.772442
59542.883207,1480.411884,-7179.997637,1532.190996
59542.883516,0.000000,-9622.677246,1838.629195
59542.883826,-1258.350101,-10658.965565,-76.609550
59542.884136,-1184.329507,-10140.821405,612.876398
59542.884445,-3627.009116,-9474.636058,-2528.115143
59542.884755,-3330.926739,-12435.459826,-1608.800546
59542.885065,1776.494261,-9104.533087,919.314598
59542.885374,3997.112087,-8956.491898,2681.334243
59542.885684,2072.576638,-7624.121203,2987.772442
59542.885994,-4737.318029,-8364.327145,0.000000
59542.886304,-1258.350101,-10658.965565,-76.609550
59542.886613,-2146.597232,-7994.224174,-995.924147
59542.886923,-4737.318029,-8660.409521,1838.629195
59542.887233,-3034.844362,-7031.956449,-1762.019645
59542.887542,3552.988522,-10436.903782,5209.449386
59542.887852,4737.318029,-7179.997637,3064.381992
59542.888162,296.082377,-9622.677246,3140.991542
59542.888471,-3404.947333,-9474.636058,919.314598
59542.888781,-2368.659014,-9400.615463,-153.219100
59542.889091,-1850.514855,-8882.471304,-229.828649
59542.889401,-4737.318029,-9548.656652,0.000000
59542.889710,-2072.576638,-10140.821405,1685.410096
59542.890020,1702.473667,-6809.894666,0.000000
59542.890330,7031.956449,-9474.636058,4826.401637
59542.890639,-1258.350101,-5107.421000,612.876398
59542.890949,-1850.514855,-9474.636058,1149.143247
59542.891259,-2220.617826,-7994.224174,-459.657299
59542.891568,-2664.741391,-9770.718434,-842.705048
59542.891878,-3034.844362,-9696.697840,-612.876398
59542.892188,-592.164754,-11769.274478,2145.067394
59542.892498,3775.050304,-9178.553681,2068.457845
59542.892807,3330.926739,-7179.997637,919.314598
59542.893117,3256.906145,-11029.068536,5515.887586
59542.893427,-1554.432478,-8142.265362,153.219100
59542.893736,-1406.391290,-9474.636058,1149.143247
59542.894046,-1850.514855,-9474.636058,-153.219100
59542.894356,-2590.720797,-9474.636058,-459.657299
59542.894665,-592.164754,-9030.512492,153.219100
59542.894975,2812.782580,-7772.162391,1378.971896
59542.895285,592.164754,-6587.832884,1225.752797
59542.895595,2072.576638,-9400.615463,2145.067394
59542.895904,-74.020594,-10510.924376,1762.019645
59542.896214,-4737.318029,-6587.832884,-2451.505594
59542.896524,-1554.432478,-13027.624579,-76.609550
59542.896833,-2664.741391,-10658.965565,-76.609550
59542.897143,0.000000,-9548.656652,0.000000
59542.897453,3701.029710,-8512.368333,2221.676944
59542.897762,3552.988522,-7698.141797,2604.724693
59542.898072,2146.597232,-7476.080014,2604.724693
59542.898382,1110.308913,-9178.553681,995.924147
59542.898692,-1184.329507,-7772.162391,612.876398
59542.899001,-3552.988522,-9548.656652,-1072.533697
59542.899311,-3108.864956,-9474.636058,-536.266849
59542.899621,-814.226536,-10881.027347,-76.609550
59542.899930,4145.153275,-9252.574275,2528.115143
59542.900240,3775.050304,-9326.594869,2987.772442
59542.900550,0.000000,-6291.750507,0.000000
59542.900859,-74.020594,-11843.295072,2374.896044
59542.901169,-2146.597232,-8290.306550,-1302.362347
59542.901479,-1258.350101,-10066.800811,-76.609550
59542.901789,-3552.988522,-7920.203579,0.000000
59542.902098,0.000000,-9770.718434,919.314598
59542.902408,3330.926739,-8216.285956,1838.629195
59542.902718,3330.926739,-7846.182985,2681.334243
59542.903027,0.000000,-7179.997637,1225.752797
59542.903337,-1036.288319,-9548.656652,3447.429741
59542.903647,-1850.514855,-5773.606348,-1455.581446
59542.903956,-1776.494261,-10732.986159,1225.752797
59542.904266,-1258.350101,-10658.965565,-76.609550
59542.904576,1110.308913,-11843.295072,2068.457845
59542.904886,2294.638420,-7994.224174,1225.752797
59542.905195,592.164754,-8364.327145,0.000000
59542.905505,-74.020594,-11251.130318,2374.896044
59542.905815,-4145.153275,-7179.997637,0.000000
59542.906124,-666.185348,-9474.636058,-76.609550
59542.906434,-2590.720797,-10658.965565,0.000000
59542.906744,-3404.947333,-10214.842000,0.000000
59542.907053,74.020594,-9992.780217,1378.971896
59542.907363,3478.967927,-7994.224174,2528.115143
59542.907673,592.164754,-5107.421000,2451.505594
59542.907983,518.144159,-9178.553681,2834.553343
59542.908292,-962.267725,-8660.409521,1302.362347
59542.908602,-2294.638420,-9474.636058,-612.876398
59542.908912,-4737.318029,-9104.533087,-2221.676944
59542.909221,-3997.112087,-11917.315666,-383.047749
59542.909531,-74.020594,-10658.965565,1532.190996
59542.909841,2294.638420,-6291.750507,-76.609550
59542.910150,2368.659014,-8956.491898,4290.134789
59542.910460,-74.020594,-7846.182985,1455.581446
59542.910770,-1332.370696,-6587.832884,1532.190996
59542.911080,-370.102971,-9474.636058,689.485948
59542.911389,-2960.823768,-8808.450710,-689.485948
59542.911699,-3256.906145,-9696.697840,-229.828649
59542.912009,444.123565,-8438.347739,536.266849
59542.912318,4367.215058,-9474.636058,2374.896044
59542.912628,1628.453072,-8882.471304,1762.019645
59542.912938,0.000000,-7772.162391,1225.752797
59542.913247,-370.102971,-9178.553681,-76.609550
59542.913557,-3478.967927,-10732.986159,-689.485948
59542.913867,-2590.720797,-6883.915261,-1225.752797
59542.914177,-1998.556043,-12361.439231,919.314598
59542.914486,2442.679609,-7105.977043,995.924147
59542.914796,2368.659014,-8882.471304,2681.334243
59542.915106,3182.885551,-6513.812290,2834.553343
59542.915415,2738.761985,-9474.636058,4213.525239
59542.915725,1110.308913,-8882.471304,-76.609550
59542.916035,-4441.235652,-7772.162391,-2145.067394
59542.916344,-1850.514855,-11843.295072,-76.609550
59542.916654,-3108.864956,-11399.171507,-2451.505594
59542.916964,518.144159,-9326.594869,-2451.505594
59542.917274,2664.741391,-8808.450710,1378.971896
59542.917583,2294.638420,-9474.636058,2145.067394
59542.917893,592.164754,-8142.265362,1915.238745
59542.918203,888.247130,-9104.533087,2068.457845
59542.918512,1184.329507,-11251.130318,3600.648841
59542.918822,-74.020594,-11843.295072,2374.896044
59542.919132,-2886.803174,-7179.997637,0.000000
59542.919441,2368.659014,-8364.327145,2451.505594
59542.919751,3478.967927,-7698.141797,2374.896044
59542.920061,1702.473667,-7698.141797,0.000000
59542.920371,-2368.659014,-9696.697840,306.438199
59542.920680,-1554.432478,-9696.697840,-612.876398
59542.920990,-3701.029710,-10510.924376,-919.314598
59542.921300,-4811.338623,-11103.089130,-76.609550
59542.921609,-2664.741391,-11547.212695,1378.971896
59542.921919,2294.638420,-9474.636058,2374.896044
59542.922229,0.000000,-5403.503377,0.000000
59542.922538,2294.638420,-9474.636058,3600.648841
59542.922848,-962.267725,-7179.997637,1378.971896
59542.923158,2294.638420,-8142.265362,229.828649
59542.923468,-1184.329507,-8068.244768,919.314598
59542.923777,-3997.112087,-9622.677246,-383.047749
59542.924087,-2220.617826,-10584.944971,76.609550
59542.924397,1554.432478,-9178.553681,2374.896044
59542.924706,0.000000,-8956.491898,3217.601092
59542.925016,-74.020594,-9474.636058,3600.648841
59542.925326,-2368.659014,-7179.997637,0.000000
59542.925636,1850.514855,-9178.553681,2757.943793
59542.925945,-370.102971,-9178.553681,536.266849
59542.926255,-2146.597232,-10066.800811,-76.609550
59542.926565,-2516.700203,-10436.903782,0.000000
59542.926874,1332.370696,-8808.450710,995.924147
59542.927184,1554.432478,-8512.368333,1915.238745
59542.927494,0.000000,-7920.203579,2451.505594
59542.927803,0.000000,-7179.997637,1838.629195
59542.928113,1702.473667,-10658.965565,2374.896044
59542.928423,-2886.803174,-8364.327145,-1225.752797
59542.928733,-4145.153275,-10140.821405,0.000000
59542.929042,-666.185348,-11251.130318,-76.609550
59542.929352,2590.720797,-9992.780217,-76.609550
59542.929662,888.247130,-9104.533087,1225.752797
59542.929971,888.247130,-8512.368333,1455.581446
59542.930281,2146.597232,-7550.100608,1838.629195
59542.930591,2368.659014,-8364.327145,1225.752797
59542.930900,-2368.659014,-8068.244768,0.000000
59542.931210,-4441.235652,-9548.656652,0.000000
59542.931520,-74.020594,-13027.624579,-76.609550
59542.931830,-2368.659014,-7772.162391,-1225.752797
59542.932139,-74.020594,-10658.965565,1915.238745
59542.932449,1332.370696,-9474.636058,3294.210641
59542.932759,1702.473667,-7772.162391,1838.629195
59542.933068,1702.473667,-7994.224174,1685.410096
59542.933378,-1036.288319,-9178.553681,842.705048
59542.933688,-2220.617826,-9548.656652,0.000000
59542.933997,-2368.659014,-7179.997637,-1225.752797
59542.934307,0.000000,-7772.162391,0.000000
59542.934617,2294.638420,-10658.965565,-76.609550
59542.934927,-1776.494261,-8660.409521,153.219100
59542.935236,2590.720797,-9030.512492,2374.896044
59542.935546,148.041188,-10362.883188,2528.115143
59542.935856,-1998.556043,-8882.471304,153.219100
59542.936165,-2516.700203,-10955.047942,0.000000
59542.936475,296.082377,-9104.533087,1149.143247
59542.936785,444.123565,-9548.656652,153.219100
59542.937094,-666.185348,-7105.977043,0.000000
59542.937404,-2368.659014,-5403.503377,0.000000
59542.937714,3701.029710,-8142.265362,3677.258390
59542.938024,1110.308913,-6513.812290,842.705048
59542.938333,-2368.659014,-8956.491898,919.314598
59542.938643,-4737.318029,-10436.903782,0.000000
59542.938952,-2442.679609,-11547.212695,-995.924147
59542.939262,-1480.411884,-11029.068536,-842.705048
59542.939571,-1480.411884,-9844.739029,229.828649
59542.939881,-222.061783,-6587.832884,76.609550
59542.940190,2886.803174,-5625.565159,536.266849
59542.940500,0.000000,-4811.338623,0.000000
59542.940810,1184.329507,-10584.944971,3370.820191
59542.941119,-1258.350101,-10658.965565,842.705048
59542.941429,0.000000,-8364.327145,612.876398
59542.941738,666.185348,-10881.027347,2221.676944
59542.942048,-962.267725,-10658.965565,2374.896044
59542.942357,-222.061783,-7698.141797,842.705048
59542.942667,1628.453072,-7402.059420,1072.533697
59542.942976,444.123565,-8364.327145,842.705048
59542.943286,-2442.679609,-9474.636058,-1608.800546
59542.943596,-7105.977043,-10140.821405,0.000000
59542.943905,-666.185348,-12287.418637,1455.581446
59542.944215,-666.185348,-9474.636058,-76.609550
59542.944524,-2072.576638,-7179.997637,1762.019645
59542.944834,0.000000,-7179.997637,2451.505594
59542.945143,2664.741391,-5921.647536,2681.334243
59542.945453,2146.597232,-7402.059420,2757.943793
59542.945763,-518.144159,-8956.491898,1991.848295
59542.946072,-2146.597232,-9474.636058,842.705048
59542.946382,-74.020594,-9474.636058,-1302.362347
59542.946691,-3330.926739,-7476.080014,-2145.067394
59542.947001,-1776.494261,-10436.903782,1225.752797
59542.947310,-1554.432478,-8290.306550,-995.924147
59542.947620,148.041188,-8512.368333,1838.629195
59542.947929,148.041188,-7772.162391,1225.752797
59542.948239,-1036.288319,-10584.944971,1532.190996
59542.948549,-1776.494261,-10066.800811,919.314598
59542.948858,148.041188,-8586.388927,306.438199
59542.949168,444.123565,-9474.636058,2374.896044
59542.949477,2294.638420,-9474.636058,1608.800546
59542.949787,-74.020594,-5329.482782,-76.609550
59542.950096,0.000000,-7179.997637,612.876398
59542.950406,-74.020594,-9474.636058,-76.609550
59542.950715,-2664.741391,-9548.656652,0.000000
59542.951025,-2960.823768,-8956.491898,0.000000
59542.951335,-592.164754,-10436.903782,153.219100
59542.951644,-222.061783,-10214.842000,689.485948
59542.951954,-222.061783,-10214.842000,995.924147
59542.952263,1998.556043,-9474.636058,3600.648841
59542.952573,4663.297435,-8882.471304,3600.648841
59542.952882,-74.020594,-8290.306550,-76.609550
59542.953192,-3552.988522,-10732.986159,0.000000
59542.953502,2294.638420,-8882.471304,1762.019645
59542.953811,0.000000,-8956.491898,1225.752797
59542.954121,-2294.638420,-5995.668130,-1225.752797
59542.954430,-2960.823768,-9622.677246,0.000000
59542.954740,1480.411884,-7476.080014,919.314598
59542.955049,1554.432478,-8734.430116,1455.581446
59542.955359,-74.020594,-10362.883188,2068.457845
59542.955668,-888.247130,-13101.645173,0.000000
59542.955978,3182.885551,-11843.295072,-76.609550
59542.956288,0.000000,-9548.656652,0.000000
59542.956597,-592.164754,-9400.615463,3600.648841
59542.956907,-1850.514855,-7328.038826,0.000000
59542.957216,-74.020594,-6883.915261,-229.828649
59542.957526,1184.329507,-7846.182985,1838.629195
59542.957835,-148.041188,-8364.327145,2298.286494
59542.958145,-1554.432478,-9104.533087,612.876398
59542.958455,1110.308913,-9844.739029,1225.752797
59542.958764,0.000000,-11547.212695,1225.752797
59542.959074,-74.020594,-11843.295072,2068.457845
59542.959383,-3923.091493,-8364.327145,0.000000
59542.959693,0.000000,-7920.203579,1225.752797
59542.960002,1110.308913,-9104.533087,0.000000
59542.960312,-74.020594,-8882.471304,1762.019645
59542.960621,-1480.411884,-9918.759623,1532.190996
59542.960931,1036.288319,-8660.409521,1225.752797
59542.961241,0.000000,-9178.553681,1302.362347
59542.961550,-1184.329507,-8660.409521,1532.190996
59542.961860,-3552.988522,-6587.832884,536.266849
59542.962169,-2442.679609,-10658.965565,536.266849
59542.962479,0.000000,-8660.409521,-689.485948
59542.962788,3034.844362,-8586.388927,2374.896044
59542.963098,0.000000,-9696.697840,842.705048
59542.963407,2294.638420,-8290.306550,1149.143247
59542.963717,-2812.782580,-11621.233289,612.876398
59542.964027,-1554.432478,-8512.368333,-612.876398
59542.964336,-3256.906145,-11621.233289,1149.143247
59542.964646,0.000000,-5403.503377,0.000000
59542.964955,296.082377,-7772.162391,3447.429741
59542.965265,2368.659014,-5995.668130,3064.381992
59542.965574,1998.556043,-10658.965565,1762.019645
59542.965884,0.000000,-7772.162391,3447.429741
59542.966194,-666.185348,-9474.636058,-383.047749
59542.966503,-666.185348,-11843.295072,-76.609550
59542.966813,-2516.700203,-8808.450710,-766.095498
59542.967122,-814.226536,-9696.697840,76.609550
59542.967432,962.267725,-8216.285956,766.095498
59542.967741,0.000000,-7772.162391,0.000000
59542.968051,0.000000,-8364.327145,1149.143247
59542.968360,0.000000,-8364.327145,1225.752797
59542.968670,1110.308913,-11251.130318,3294.210641
59542.968980,-962.267725,-7846.182985,-76.609550
59542.969289,-1110.308913,-8290.306550,1149.143247
59542.969599,2146.597232,-8660.409521,1762.019645
59542.969908,-666.185348,-8438.347739,76.609550
59542.970218,-814.226536,-8956.491898,0.000000
59542.970527,-222.061783,-9844.739029,612.876398
59542.970837,-1554.432478,-9548.656652,0.000000
59542.971147,-2516.700203,-10584.944971,229.828649
59542.971456,-4737.318029,-9548.656652,0.000000
59542.971766,-74.020594,-9474.636058,-76.609550
59542.972075,962.267725,-7179.997637,0.000000
59542.972385,2368.659014,-8882.471304,3447.429741
59542.972694,2368.659014,-10140.821405,3447.429741
59542.973004,2442.679609,-8808.450710,2374.896044
59542.973313,1036.288319,-9400.615463,1838.629195
59542.973623,-1332.370696,-8956.491898,766.095498
59542.973933,-4293.194464,-8512.368333,-76.609550
59542.974242,-1702.473667,-7698.141797,-76.609550
59542.974552,-74.020594,-7698.141797,-689.485948
59542.974861,0.000000,-7179.997637,0.000000
59542.975171,-74.020594,-11843.295072,-76.609550
59542.975480,222.061783,-11399.171507,1762.019645
59542.975790,296.082377,-10140.821405,1532.190996
59542.976099,-962.267725,-9844.739029,1302.362347
59542.976409,-2294.638420,-9474.636058,689.485948
59542.976719,0.000000,-7994.224174,842.705048
59542.977028,1998.556043,-7105.977043,1762.019645
59542.977338,-74.020594,-8882.471304,2987.772442
59542.977647,-1554.432478,-7772.162391,0.000000
59542.977957,2368.659014,-10658.965565,3064.381992
59542.978266,1110.308913,-8882.471304,-76.609550
59542.978576,-1776.494261,-9844.739029,1838.629195
59542.978886,-5329.482782,-9548.656652,0.000000
59542.979195,-2294.638420,-9030.512492,-612.876398
59542.979505,-1480.411884,-9030.512492,-306.438199
59542.979814,-370.102971,-9030.512492,766.095498
59542.980124,2294.638420,-9474.636058,2374.896044
59542.980433,3330.926739,-8364.327145,2757.943793
59542.980743,2886.803174,-9474.636058,2987.772442
59542.981052,-3404.947333,-7179.997637,153.219100
59542.981362,-962.267725,-11843.295072,2987.772442
59542.981672,-1184.329507,-8364.327145,1378.971896
59542.981981,-2960.823768,-7772.162391,-1225.752797
59542.982291,-1184.329507,-9400.615463,306.438199
59542.982600,444.123565,-10362.883188,1149.143247
59542.982910,1998.556043,-8586.388927,842.705048
59542.983219,-370.102971,-11251.130318,1762.019645
59542.983529,-1702.473667,-10881.027347,1532.190996
59542.983839,-2442.679609,-11251.130318,-76.609550
59542.984148,-1776.494261,-5403.503377,0.000000
59542.984458,2220.617826,-9474.636058,3600.648841
59542.984767,0.000000,-6291.750507,1225.752797
59542.985077,888.247130,-7772.162391,919.314598
59542.985386,3108.864956,-7846.182985,2221.676944
59542.985696,370.102971,-9326.594869,1608.800546
59542.986005,-2960.823768,-9696.697840,-383.047749
59542.986315,-2442.679609,-11843.295072,-383.047749
59542.986625,-1036.288319,-11325.150913,-1225.752797
59542.986934,-666.185348,-11251.130318,-383.047749
59542.987244,-2072.576638,-7772.162391,0.000000
59542.987553,4663.297435,-12435.459826,4826.401637
59542.987863,3552.988522,-7179.997637,153.219100
59542.988172,1998.556043,-9178.553681,2681.334243
59542.988482,-2516.700203,-7772.162391,612.876398
59542.988791,-3997.112087,-9326.594869,612.876398
59542.989101,296.082377,-6883.915261,76.609550
59542.989411,888.247130,-9992.780217,1838.629195
59542.989720,0.000000,-7179.997637,1225.752797
59542.990030,2294.638420,-11251.130318,2374.896044
59542.990339,1776.494261,-6291.750507,0.000000
59542.990649,2368.659014,-11325.150913,4596.572988
59542.990958,-4367.215058,-8364.327145,-2145.067394
59542.991268,-3923.091493,-9178.553681,-1302.362347
59542.991578,-2886.803174,-9252.574275,-919.314598
59542.991887,0.000000,-9548.656652,0.000000
59542.992197,-222.061783,-10510.924376,1532.190996
59542.992506,2368.659014,-7179.997637,1225.752797
59542.992816,3182.885551,-8882.471304,1685.410096
59542.993125,2442.679609,-9474.636058,2911.162892
59542.993435,-2442.679609,-9474.636058,229.828649
59542.993744,-1554.432478,-11843.295072,2987.772442
59542.994054,-1554.432478,-7328.038826,-689.485948
59542.994364,-74.020594,-10658.965565,1149.143247
59542.994673,-814.226536,-9622.677246,459.657299
59542.994983,1702.473667,-8808.450710,2451.505594
59542.995292,2294.638420,-8068.244768,2068.457845
59542.995602,-1776.494261,-8660.409521,1225.752797
59542.995911,-2516.700203,-10066.800811,766.095498
59542.996221,-4145.153275,-8364.327145,0.000000
59542.996530,-1258.350101,-9474.636058,-76.609550
59542.996840,-4737.318029,-5403.503377,0.000000
59542.997150,-74.020594,-7994.224174,-76.609550
59542.997459,3478.967927,-9474.636058,2068.457845
59542.997769,2220.617826,-7476.080014,1302.362347
59542.998078,-1332.370696,-9992.780217,1072.533697
59542.998388,-3330.926739,-10288.862594,-459.657299
59542.998697,-4145.153275,-8660.409521,-2451.505594
59542.999007,-666.185348,-9326.594869,-689.485948
59542.999317,-2368.659014,-7772.162391,0.000000
59542.999626,1702.473667,-9474.636058,2374.896044
59542.999936,0.000000,-4811.338623,0.000000
59543.000245,4663.297435,-8290.306550,3600.648841
59543.000555,2146.597232,-9474.636058,3600.648841
59543.000864,-1850.514855,-9474.636058,1455.581446
59543.001174,-1850.514855,-8364.327145,-306.438199
59543.001483,-2220.617826,-9474.636058,-1302.362347
59543.001793,-3108.864956,-8068.244768,-1302.362347
59543.002103,-1258.350101,-9030.512492,-1455.581446
59543.002412,1776.494261,-8364.327145,1225.752797
59543.002722,4071.132681,-10658.965565,2987.772442
59543.003031,-2886.803174,-7920.203579,0.000000
59543.003341,-1850.514855,-11843.295072,-76.609550
59543.003650,-1702.473667,-10658.965565,383.047749
59543.003960,-1258.350101,-9400.615463,-536.266849
59543.004270,-1036.288319,-8438.347739,229.828649
59543.004579,814.226536,-8364.327145,2068.457845
59543.004889,3182.885551,-5921.647536,2834.553343
59543.005198,2294.638420,-8290.306550,2374.896044
59543.005508,-2368.659014,-8364.327145,1225.752797
59543.005817,-1258.350101,-10658.965565,1149.143247
59543.006127,-4737.318029,-5995.668130,-3370.820191
59543.006436,-1258.350101,-11843.295072,-76.609550
59543.006746,-1776.494261,-8956.491898,0.000000
59543.007056,222.061783,-10955.047942,842.705048
59543.007365,2664.741391,-8438.347739,919.314598
59543.007675,888.247130,-10881.027347,1838.629195
59543.007984,518.144159,-10510.924376,2374.896044
59543.008294,-518.144159,-8956.491898,2604.724693
59543.008603,-962.267725,-6735.874072,76.609550
59543.008913,-2368.659014,-7772.162391,612.876398
59543.009222,-74.020594,-8882.471304,-76.609550
59543.009532,1924.535449,-9474.636058,2221.676944
59543.009842,2368.659014,-7179.997637,1532.190996
59543.010151,1110.308913,-8882.471304,1685.410096
59543.010461,-1406.391290,-10066.800811,919.314598
59543.010770,-1184.329507,-9696.697840,0.000000
59543.011080,-370.102971,-10658.965565,-689.485948
59543.011389,-2516.700203,-9548.656652,-229.828649
59543.011699,-1850.514855,-9178.553681,-1608.800546
59543.012009,1184.329507,-9844.739029,3600.648841
59543.012318,4663.297435,-8290.306550,1149.143247
59543.012628,2368.659014,-9548.656652,3983.696590
59543.012937,0.000000,-7772.162391,1225.752797
59543.013247,444.123565,-8586.388927,1685.410096
59543.013556,148.041188,-8364.327145,459.657299
59543.013866,-2294.638420,-9326.594869,0.000000
59543.014175,-1258.350101,-10658.965565,459.657299
59543.014485,592.164754,-8956.491898,306.438199
59543.014795,3478.967927,-8882.471304,1149.143247
59543.015104,592.164754,-8512.368333,2757.943793
59543.015414,-74.020594,-9474.636058,-76.609550
59543.015723,-4145.153275,-8364.327145,0.000000
59543.016033,-4737.318029,-8364.327145,-1532.190996
59543.016342,-2664.741391,-9548.656652,459.657299
59543.016652,-740.205942,-8512.368333,536.266849
59543.016962,2072.576638,-7624.121203,1378.971896
59543.017271,3182.885551,-9030.512492,1915.238745
59543.017581,0.000000,-8734.430116,1532.190996
59543.017890,-74.020594,-9474.636058,842.705048
59543.018200,-1184.329507,-8660.409521,1149.143247
59543.018509,-2738.761985,-8586.388927,-2834.553343
59543.018819,-4737.318029,-9548.656652,0.000000
59543.019128,-3552.988522,-9992.780217,-1225.752797
59543.019438,-1258.350101,-9474.636058,-229.828649
59543.019748,1702.473667,-10066.800811,1608.800546
59543.020057,3404.947333,-6587.832884,3217.601092
59543.020367,1998.556043,-9548.656652,3907.087040
59543.020676,0.000000,-7179.997637,1532.190996
59543.020986,-2442.679609,-9474.636058,-76.609550
59543.021295,-2368.659014,-7179.997637,0.000000
59543.021605,-74.020594,-11843.295072,-76.609550
59543.021914,0.000000,-5995.668130,0.000000
59543.022224,740.205942,-9992.780217,76.609550
59543.022534,740.205942,-9622.677246,1455.581446
59543.022843,-370.102971,-10807.006753,919.314598
59543.023153,-2220.617826,-9474.636058,383.047749
59543.023462,-1776.494261,-7772.162391,-1072.533697
59543.023772,-2368.659014,-9548.656652,0.000000
59543.024081,1702.473667,-9474.636058,1149.143247
59543.024391,444.123565,-7179.997637,0.000000
59543.024701,5329.482782,-9104.533087,5515.887586
59543.025010,370.102971,-5995.668130,1838.629195
59543.025320,1702.473667,-7105.977043,1762.019645
59543.025629,-1258.350101,-7846.182985,383.047749
59543.025939,-2886.803174,-9548.656652,0.000000
59543.026248,-2886.803174,-9548.656652,-842.705048
59543.026558,-3552.988522,-10362.883188,0.000000
59543.026867,-2368.659014,-7772.162391,0.000000
59543.027177,1406.391290,-10658.965565,2145.067394
59543.027487,1998.556043,-7105.977043,-689.485948
59543.027796,1184.329507,-9548.656652,3677.258390
59543.028106,74.020594,-6661.853478,0.000000
59543.028415,-962.267725,-9474.636058,-76.609550
59543.028725,-2220.617826,-8734.430116,383.047749
59543.029034,-740.205942,-9548.656652,383.047749
59543.029344,1110.308913,-8734.430116,995.924147
59543.029654,0.000000,-8068.244768,1608.800546
59543.029963,0.000000,-6587.832884,306.438199
59543.030273,888.247130,-10288.862594,2451.505594
59543.030582,-74.020594,-8290.306550,-689.485948
59543.030892,-4737.318029,-9548.656652,0.000000
59543.031201,-2738.761985,-10658.965565,-2528.115143
59543.031511,-1258.350101,-11695.253884,-76.609550
59543.031820,0.000000,-9326.594869,153.219100
59543.032130,1406.391290,-8956.491898,1762.019645
59543.032440,1184.329507,-7179.997637,2451.505594
59543.032749,0.000000,-7402.059420,2834.553343
59543.033059,-2368.659014,-5995.668130,0.000000
59543.033368,-1702.473667,-10584.944971,1608.800546
59543.033678,-3923.091493,-7846.182985,-3447.429741
59543.033987,-888.247130,-10436.903782,1225.752797
59543.034297,2294.638420,-9474.636058,-76.609550
59543.034606,2442.679609,-9474.636058,2145.067394
59543.034916,370.102971,-9030.512492,1455.581446
59543.035226,-518.144159,-9400.615463,995.924147
59543.035535,-1406.391290,-9770.718434,459.657299
59543.035845,-3627.009116,-9770.718434,-76.609550
59543.036154,-2812.782580,-9844.739029,459.657299
59543.036464,0.000000,-7476.080014,612.876398
59543.036773,4071.132681,-7994.224174,1762.019645
59543.037083,0.000000,-5995.668130,2451.505594
59543.037393,3478.967927,-9474.636058,3600.648841
59543.037702,222.061783,-8660.409521,1455.581446
59543.038012,-2442.679609,-10214.842000,-383.047749
59543.038322,-3478.967927,-10732.986159,-766.095498
59543.038631,-2368.659014,-10436.903782,-383.047749
59543.038941,1110.308913,-9474.636058,842.705048
59543.039251,2516.700203,-8068.244768,1532.190996
59543.039560,592.164754,-7179.997637,1225.752797
59543.039870,2294.638420,-9474.636058,3600.648841
59543.040180,-1702.473667,-7179.997637,0.000000
59543.040489,-74.020594,-11843.295072,2374.896044
59543.040799,-666.185348,-10658.965565,-76.609550
59543.041109,-370.102971,-10288.862594,1149.143247
59543.041418,1110.308913,-7920.203579,1072.533697
59543.041728,1258.350101,-8364.327145,995.924147
59543.042037,-1480.411884,-7550.100608,536.266849
59543.042347,-74.020594,-10510.924376,1302.362347
59543.042657,-1776.494261,-7772.162391,0.000000
59543.042966,-592.164754,-11473.192101,2298.286494
59543.043276,-666.185348,-9474.636058,-1302.362347
59543.043586,-1554.432478,-10658.965565,-689.485948
59543.043895,1554.432478,-9474.636058,1378.971896
59543.044205,1998.556043,-8142.265362,1455.581446
59543.044515,1258.350101,-7105.977043,1915.238745
59543.044824,148.041188,-9178.553681,1685.410096
59543.045134,370.102971,-7846.182985,1915.238745
59543.045444,-74.020594,-10214.842000,1838.629195
59543.045753,-3256.906145,-8364.327145,0.000000
59543.046063,-1776.494261,-9844.739029,612.876398
59543.046373,2294.638420,-10658.965565,-76.609550
59543.046682,-74.020594,-9474.636058,1762.019645
59543.046992,-2368.659014,-11473.192101,612.876398
59543.047302,740.205942,-9474.636058,1149.143247
59543.047611,1184.329507,-8734.430116,1608.800546
59543.047921,74.020594,-8068.244768,1608.800546
59543.048231,-1554.432478,-7105.977043,-76.609550
59543.048540,-1184.329507,-8956.491898,766.095498
59543.048850,666.185348,-6291.750507,-689.485948
59543.049160,0.000000,-10140.821405,2374.896044
59543.049469,-1258.350101,-5625.565159,-995.924147
59543.049779,1184.329507,-11325.150913,3677.258390
59543.050089,1184.329507,-8364.327145,306.438199
59543.050398,-1628.453072,-11695.253884,229.828649
59543.050708,-3256.906145,-9622.677246,-1225.752797
59543.051018,-1998.556043,-11251.130318,-689.485948
59543.051327,1702.473667,-9474.636058,-76.609550
59543.051637,0.000000,-8660.409521,1072.533697
59543.051947,518.144159,-8290.306550,1762.019645
59543.052256,1480.411884,-7772.162391,3677.258390
59543.052566,4663.297435,-8290.306550,2374.896044
59543.052876,592.164754,-7772.162391,3677.258390
59543.053185,-2368.659014,-7772.162391,306.438199
59543.053495,-740.205942,-9252.574275,536.266849
59543.053805,444.123565,-8808.450710,229.828649
59543.054114,-1480.411884,-9918.759623,229.828649
59543.054424,-666.185348,-11251.130318,1455.581446
59543.054733,1850.514855,-11251.130318,2068.457845
59543.055043,-74.020594,-9474.636058,-76.609550
59543.055353,-2368.659014,-9548.656652,0.000000
59543.055662,-74.020594,-11843.295072,2374.896044
59543.055972,0.000000,-8364.327145,1532.190996
59543.056282,0.000000,-6291.750507,0.000000
59543.056591,-592.164754,-8808.450710,1149.143247
59543.056901,-592.164754,-9326.594869,1378.971896
59543.057211,296.082377,-8808.450710,1302.362347
59543.057520,1628.453072,-9326.594869,995.924147
59543.057830,-1184.329507,-10584.944971,1378.971896
59543.058140,-1850.514855,-10066.800811,-383.047749
59543.058449,-2368.659014,-10140.821405,612.876398
59543.058759,2294.638420,-11843.295072,2068.457845
59543.059069,0.000000,-8364.327145,1225.752797
59543.059378,0.000000,-8364.327145,459.657299
59543.059688,2072.576638,-7772.162391,2298.286494
59543.059998,1776.494261,-8364.327145,1608.800546
59543.060307,-444.123565,-8660.409521,2221.676944
59543.060617,-296.082377,-10140.821405,1455.581446
59543.060927,0.000000,-8956.491898,1532.190996
59543.061236,-74.020594,-9474.636058,-76.609550
59543.061546,-3552.988522,-7179.997637,0.000000
59543.061856,-74.020594,-11843.295072,-76.609550
59543.062165,-3552.988522,-5995.668130,0.000000
59543.062475,-222.061783,-8586.388927,-76.609550
59543.062785,-814.226536,-8734.430116,1225.752797
59543.063094,-592.164754,-9474.636058,995.924147
59543.063404,666.185348,-8882.471304,1072.533697
59543.063714,1184.329507,-8364.327145,1838.629195
59543.064023,0.000000,-7772.162391,2451.505594
59543.064333,1110.308913,-9326.594869,1149.143247
59543.064643,296.082377,-6587.832884,1225.752797
59543.064952,4071.132681,-10658.965565,-76.609550
59543.065262,-3256.906145,-7179.997637,0.000000
59543.065572,-2886.803174,-12435.459826,-306.438199
59543.065881,-2664.741391,-9548.656652,-919.314598
59543.066191,-2294.638420,-10807.006753,-612.876398
59543.066501,296.082377,-8068.244768,1378.971896
59543.066810,0.000000,-8068.244768,1225.752797
59543.067120,1258.350101,-7105.977043,1072.533697
59543.067429,0.000000,-9400.615463,1378.971896
59543.067739,-666.185348,-7179.997637,-1762.019645
59543.068049,1258.350101,-11547.212695,3370.820191
59543.068358,-74.020594,-7105.977043,-1072.533697
59543.068668,-74.020594,-9474.636058,-76.609550
59543.068978,-1924.535449,-9548.656652,306.438199
59543.069287,-444.123565,-9918.759623,0.000000
59543.069597,444.123565,-9030.512492,536.266849
59543.069907,-2294.638420,-9252.574275,0.000000
59543.070216,-1406.391290,-10510.924376,-689.485948
59543.070526,-1776.494261,-10732.986159,612.876398
59543.070836,1702.473667,-11843.295072,2374.896044
59543.071145,-2368.659014,-7179.997637,0.000000
59543.071455,1110.308913,-7994.224174,1149.143247
59543.071765,2294.638420,-8882.471304,2681.334243
59543.072074,2072.576638,-6143.709319,1838.629195
59543.072384,518.144159,-8956.491898,2374.896044
59543.072694,-444.123565,-9474.636058,1455.581446
59543.073003,-1406.391290,-10510.924376,1455.581446
59543.073313,-962.267725,-8068.244768,-689.485948
59543.073623,-2368.659014,-9548.656652,612.876398
59543.073932,-1258.350101,-9474.636058,-76.609550
59543.074242,-4145.153275,-7179.997637,0.000000
59543.074552,1702.473667,-8882.471304,-76.609550
59543.074861,592.164754,-10362.883188,2068.457845
59543.075171,-592.164754,-8660.409521,919.314598
59543.075481,-814.226536,-9696.697840,1072.533697
59543.075790,0.000000,-8956.491898,919.314598
59543.076100,-74.020594,-8808.450710,2987.772442
59543.076410,666.185348,-7920.203579,2451.505594
59543.076719,1184.329507,-6291.750507,2451.505594
59543.077029,4071.132681,-8290.306550,2374.896044
59543.077339,-1258.350101,-6365.771101,0.000000
59543.077648,-1258.350101,-12435.459826,1762.019645
59543.077958,0.000000,-10881.027347,919.314598
59543.078268,-74.020594,-9400.615463,-76.609550
59543.078577,-2960.823768,-9844.739029,0.000000
59543.078887,-3701.029710,-9104.533087,-766.095498
59543.079197,-666.185348,-9474.636058,1149.143247
59543.079506,2072.576638,-6957.935855,766.095498
59543.079816,-1554.432478,-8290.306550,536.266849
59543.080125,-74.020594,-9474.636058,2834.553343
59543.080435,-74.020594,-11251.130318,1149.143247
59543.080745,3330.926739,-9474.636058,2374.896044
59543.081054,-1184.329507,-10140.821405,1532.190996
59543.081364,-370.102971,-8290.306550,995.924147
59543.081674,1406.391290,-9474.636058,995.924147
59543.081983,2294.638420,-8512.368333,1149.143247
59543.082293,518.144159,-8660.409521,1915.238745
59543.082603,-888.247130,-10436.903782,766.095498
59543.082912,-74.020594,-10066.800811,-76.609550
59543.083222,-2368.659014,-10732.986159,612.876398
59543.083532,-1258.350101,-11843.295072,-76.609550
59543.083841,-1480.411884,-11399.171507,1149.143247
59543.084151,0.000000,-6587.832884,0.000000
59543.084461,1628.453072,-8068.244768,1991.848295
59543.084770,740.205942,-7920.203579,1762.019645
59543.085080,666.185348,-8808.450710,1915.238745
59543.085390,1702.473667,-7920.203579,1532.190996
59543.085699,0.000000,-9548.656652,919.314598
59543.086009,-666.185348,-8512.368333,536.266849
59543.086319,-74.020594,-13027.624579,2911.162892
59543.086628,-74.020594,-7105.977043,-689.485948
59543.086938,-1184.329507,-10140.821405,1225.752797
59543.087248,-1628.453072,-7772.162391,0.000000
59543.087557,0.000000,-10732.986159,689.485948
59543.087867,444.123565,-8808.450710,1532.190996
59543.088177,-740.205942,-9696.697840,536.266849
59543.088486,-1332.370696,-8956.491898,0.000000
59543.088796,444.123565,-9770.718434,2374.896044
59543.089106,2294.638420,-6957.935855,1149.143247
59543.089415,0.000000,-7179.997637,2451.505594
59543.089725,2294.638420,-9474.636058,2374.896044
59543.090035,0.000000,-9548.656652,1378.971896
59543.090344,0.000000,-9548.656652,306.438199
59543.090654,-2220.617826,-11325.150913,0.000000
59543.090964,-3034.844362,-10140.821405,-383.047749
59543.091273,-2368.659014,-10362.883188,0.000000
59543.091583,0.000000,-7179.997637,383.047749
59543.091893,148.041188,-8956.491898,2298.286494
59543.092202,1110.308913,-8290.306550,2374.896044
59543.092512,-3552.988522,-5995.668130,0.000000
59543.092821,2294.638420,-10658.965565,2374.896044
59543.093131,-3552.988522,-9548.656652,0.000000
59543.093441,-3330.926739,-9030.512492,-1302.362347
59543.093750,-1628.453072,-9252.574275,0.000000
59543.094060,370.102971,-7772.162391,459.657299
59543.094370,370.102971,-8882.471304,766.095498
59543.094679,296.082377,-8808.450710,919.314598
59543.094989,592.164754,-10510.924376,1302.362347
59543.095299,2812.782580,-10510.924376,3600.648841
59543.095608,-1258.350101,-9178.553681,-383.047749
59543.095918,-2368.659014,-10140.821405,1225.752797
59543.096228,-3256.906145,-7179.997637,0.000000
59543.096537,1406.391290,-6957.935855,536.266849
59543.096847,740.205942,-7105.977043,1532.190996
59543.097157,1036.288319,-7550.100608,1838.629195
59543.097466,1850.514855,-8808.450710,2145.067394
59543.097776,888.247130,-8882.471304,1762.019645
59543.098086,-2294.638420,-9770.718434,306.438199
59543.098395,-3552.988522,-10436.903782,1838.629195
59543.098705,-2738.761985,-7476.080014,-1762.019645
59543.099015,0.000000,-8364.327145,612.876398
59543.099324,-1036.288319,-6587.832884,0.000000
59543.099634,814.226536,-9474.636058,1149.143247
59543.099944,1184.329507,-9622.677246,1378.971896
59543.100253,2146.597232,-9844.739029,1532.190996
59543.100563,-666.185348,-10066.800811,1149.143247
59543.100873,-2072.576638,-9474.636058,-76.609550
59543.101182,-222.061783,-8660.409521,612.876398
59543.101492,1776.494261,-7476.080014,2987.772442
59543.101802,-370.102971,-5847.626942,-689.485948
59543.102111,1184.329507,-9104.533087,2451.505594
59543.102421,2146.597232,-8290.306550,229.828649
59543.102731,3478.967927,-10288.862594,2834.553343
59543.103040,-592.164754,-9400.615463,1225.752797
59543.103350,-3108.864956,-9252.574275,0.000000
59543.103660,-1850.514855,-9770.718434,-766.095498
59543.103969,-1258.350101,-9474.636058,-1302.362347
59543.104279,-3849.070898,-10658.965565,-1149.143247
59543.104589,-1776.494261,-9548.656652,0.000000
59543.104898,4663.297435,-11843.295072,3600.648841
59543.105208,2368.659014,-7772.162391,1072.533697
59543.105517,-74.020594,-7994.224174,536.266849
59543.105827,-2590.720797,-10066.800811,1302.362347
59543.106137,-1110.308913,-7476.080014,229.828649
59543.106446,-1184.329507,-8882.471304,612.876398
59543.106756,-1184.329507,-7550.100608,766.095498
59543.107066,814.226536,-11843.295072,3294.210641
59543.107375,4515.256246,-7402.059420,2681.334243
59543.107685,592.164754,-10140.821405,2451.505594
59543.107995,-1258.350101,-9474.636058,-76.609550
59543.108304,-7624.121203,-10140.821405,-2911.162892
59543.108614,-74.020594,-8290.306550,-76.609550
59543.108924,-888.247130,-8956.491898,612.876398
59543.109233,-1110.308913,-8586.388927,689.485948
59543.109543,-888.247130,-9104.533087,612.876398
59543.109853,2590.720797,-9252.574275,2451.505594
59543.110162,3478.967927,-9400.615463,3294.210641
59543.110472,-2442.679609,-9474.636058,1149.143247
59543.110782,-3552.988522,-6587.832884,-3677.258390
59543.111091,3478.967927,-10658.965565,2374.896044
59543.111401,518.144159,-7105.977043,229.828649
59543.111711,-74.020594,-9474.636058,2374.896044
59543.112020,0.000000,-8512.368333,153.219100
59543.112330,2442.679609,-9770.718434,766.095498
59543.112640,-370.102971,-10732.986159,919.314598
59543.112949,-4071.132681,-10214.842000,-383.047749
59543.113259,-2072.576638,-11621.233289,1378.971896
59543.113569,1702.473667,-8290.306550,-76.609550
59543.113878,0.000000,-7179.997637,0.000000
59543.114188,2294.638420,-9474.636058,2374.896044
59543.114498,0.000000,-7179.997637,0.000000
59543.114807,4663.297435,-9474.636058,3600.648841
59543.115117,0.000000,-9400.615463,1225.752797
59543.115427,-1924.535449,-9252.574275,766.095498
59543.115736,-2220.617826,-10066.800811,-459.657299
59543.116046,-814.226536,-9178.553681,-919.314598
59543.116356,-2368.659014,-10732.986159,0.000000
59543.116665,-1258.350101,-10066.800811,-76.609550
59543.116975,0.000000,-9548.656652,0.000000
59543.117285,6365.771101,-9474.636058,4826.401637
59543.117594,2294.638420,-8882.471304,2374.896044
59543.117904,-1036.288319,-9474.636058,3140.991542
59543.118213,-1702.473667,-9622.677246,229.828649
59543.118523,222.061783,-7846.182985,229.828649
59543.118833,-296.082377,-8956.491898,612.876398
59543.119142,-1554.432478,-7772.162391,-383.047749
59543.119452,0.000000,-7772.162391,612.876398
59543.119762,2516.700203,-9326.594869,1685.410096
59543.120071,-74.020594,-8216.285956,-689.485948
59543.120381,-4145.153275,-10140.821405,1225.752797
59543.120691,-1554.432478,-11547.212695,-76.609550
59543.121000,-2220.617826,-9844.739029,306.438199
59543.121310,-1850.514855,-9474.636058,383.047749
59543.121620,0.000000,-7105.977043,1532.190996
59543.121929,3627.009116,-7105.977043,3217.601092
59543.122239,5033.400406,-6439.791695,3064.381992
59543.122549,0.000000,-7772.162391,1225.752797
59543.122858,-2072.576638,-9548.656652,919.314598
59543.123168,-1554.432478,-9474.636058,-689.485948
59543.123478,-2368.659014,-8364.327145,0.000000
59543.123787,-666.185348,-10658.965565,-76.609550
59543.124097,-2960.823768,-9548.656652,153.219100
59543.124407,2590.720797,-9474.636058,2068.457845
59543.124716,3182.885551,-7920.203579,1915.238745
59543.125026,-222.061783,-9622.677246,1762.019645
59543.125336,-2368.659014,-9178.553681,766.095498
59543.125645,-3404.947333,-7179.997637,0.000000
59543.125955,-1776.494261,-7772.162391,0.000000
59543.126265,-1258.350101,-10658.965565,-76.609550
59543.126574,0.000000,-7179.997637,0.000000
59543.126884,4663.297435,-9474.636058,3294.210641
59543.127194,2664.741391,-7179.997637,2451.505594
59543.127503,666.185348,-10140.821405,2145.067394
59543.127813,-2738.761985,-10732.986159,0.000000
59543.128123,-3478.967927,-10807.006753,-1072.533697
59543.128432,-2960.823768,-10732.986159,-842.705048
59543.128742,-3627.009116,-7328.038826,-1915.238745
59543.129052,-2368.659014,-9548.656652,612.876398
59543.129361,2886.803174,-8290.306550,-76.609550
59543.129671,0.000000,-7772.162391,2451.505594
59543.129981,2294.638420,-9474.636058,3600.648841
59543.130290,-1776.494261,-7550.100608,1225.752797
59543.130600,-666.185348,-8142.265362,689.485948
59543.130909,-2220.617826,-8512.368333,-842.705048
59543.131219,-3627.009116,-9918.759623,-919.314598
59543.131529,-740.205942,-10436.903782,306.438199
59543.131838,2294.638420,-8882.471304,-76.609550
59543.132148,592.164754,-8364.327145,0.000000
59543.132458,-296.082377,-11325.150913,3983.696590
59543.132767,-1258.350101,-11843.295072,-76.609550
59543.133077,-2442.679609,-7698.141797,-536.266849
59543.133387,-1924.535449,-6587.832884,0.000000
59543.133696,518.144159,-7772.162391,1378.971896
59543.134006,2294.638420,-8586.388927,2451.505594
59543.134316,3552.988522,-6957.935855,2374.896044
59543.134625,888.247130,-9326.594869,2068.457845
59543.134935,-74.020594,-9474.636058,1762.019645
59543.135245,-2368.659014,-9622.677246,-842.705048
59543.135554,-2368.659014,-8364.327145,0.000000
59543.135864,-74.020594,-11843.295072,-76.609550
59543.136174,-4589.276840,-7772.162391,-2145.067394
59543.136483,-1332.370696,-9548.656652,0.000000
59543.136793,2368.659014,-8956.491898,2145.067394
59543.137103,1998.556043,-8734.430116,2221.676944
59543.137412,370.102971,-7698.141797,1915.238745
59543.137722,592.164754,-8364.327145,2221.676944
59543.138032,1110.308913,-8882.471304,1762.019645
59543.138341,-2146.597232,-8586.388927,-995.924147
59543.138651,-1184.329507,-10436.903782,1838.629195
59543.138961,-814.226536,-9030.512492,-995.924147
59543.139270,1776.494261,-8512.368333,1378.971896
59543.139580,-74.020594,-10066.800811,0.000000
59543.139889,0.000000,-9844.739029,1991.848295
59543.140199,888.247130,-9918.759623,1915.238745
59543.140508,148.041188,-8808.450710,689.485948
59543.140818,-2442.679609,-9770.718434,-76.609550
59543.141127,-1554.432478,-10658.965565,-76.609550
59543.141437,-74.020594,-9474.636058,995.924147
59543.141746,2886.803174,-8734.430116,1149.143247
59543.142056,0.000000,-7179.997637,2451.505594
59543.142366,-74.020594,-9474.636058,2374.896044
59543.142675,-74.020594,-9474.636058,0.000000
59543.142985,-222.061783,-9474.636058,1608.800546
59543.143294,-3627.009116,-9178.553681,-1608.800546
59543.143604,-3552.988522,-9622.677246,-1225.752797
59543.143913,518.144159,-10881.027347,1608.800546
59543.144223,4071.132681,-9474.636058,3600.648841
59543.144532,1110.308913,-8882.471304,2374.896044
59543.144842,0.000000,-7179.997637,1225.752797
59543.145151,1702.473667,-9474.636058,1762.019645
59543.145461,0.000000,-6587.832884,0.000000
59543.145770,-962.267725,-9474.636058,0.000000
59543.146080,-2368.659014,-8956.491898,0.000000
59543.146389,222.061783,-10362.883188,995.924147
59543.146699,2220.617826,-9252.574275,1455.581446
59543.147008,0.000000,-8586.388927,2374.896044
59543.147318,-74.020594,-9474.636058,3140.991542
59543.147627,-666.185348,-8882.471304,-76.609550
59543.147937,-2368.659014,-9548.656652,612.876398
59543.148247,-2738.761985,-10658.965565,-1302.362347
59543.148556,-4145.153275,-10140.821405,0.000000
59543.148866,2294.638420,-9326.594869,383.047749
59543.149175,3552.988522,-7550.100608,2834.553343
59543.149485,3256.906145,-6587.832884,4213.525239
59543.149794,1628.453072,-7179.997637,3370.820191
59543.150104,1036.288319,-7698.141797,2987.772442
59543.150413,-148.041188,-10288.862594,995.924147
59543.150723,-3627.009116,-11843.295072,-995.924147
59543.151032,-4737.318029,-10732.986159,0.000000
59543.151342,-74.020594,-9474.636058,-1302.362347
59543.151651,0.000000,-9548.656652,0.000000
59543.151961,-74.020594,-9474.636058,-76.609550
59543.152270,0.000000,-9104.533087,1532.190996
59543.152580,1776.494261,-7328.038826,2374.896044
59543.152889,-444.123565,-8956.491898,766.095498
59543.153199,-1850.514855,-8142.265362,612.876398
59543.153508,0.000000,-11029.068536,2451.505594
59543.153818,4071.132681,-9474.636058,3600.648841
59543.154128,0.000000,-6143.709319,0.000000
59543.154437,-888.247130,-8364.327145,1838.629195
59543.154747,-74.020594,-11103.089130,-76.609550
59543.155056,1110.308913,-9326.594869,1149.143247
59543.155366,-2072.576638,-10436.903782,0.000000
59543.155675,-3478.967927,-10066.800811,-919.314598
59543.155985,-2146.597232,-10881.027347,-995.924147
59543.156294,1184.329507,-9104.533087,0.000000
59543.156604,1332.370696,-7179.997637,1225.752797
59543.156913,2886.803174,-8586.388927,4213.525239
59543.157223,0.000000,-4811.338623,0.000000
59543.157532,3182.885551,-8882.471304,2987.772442
59543.157842,-3330.926739,-8882.471304,-995.924147
59543.158151,-5181.441594,-10658.965565,-76.609550
59543.158461,-2738.761985,-10658.965565,-1072.533697
59543.158770,666.185348,-9474.636058,229.828649
59543.159080,518.144159,-9104.533087,1685.410096
59543.159390,-1036.288319,-8512.368333,0.000000
59543.159699,-3256.906145,-9548.656652,612.876398
59543.160009,-1702.473667,-9548.656652,2834.553343
59543.160318,-2442.679609,-11251.130318,-76.609550
59543.160628,-7105.977043,-7476.080014,0.000000
59543.160937,-3034.844362,-11029.068536,2374.896044
59543.161247,-1184.329507,-9178.553681,4060.306139
59543.161556,-2146.597232,-8364.327145,2911.162892
59543.161866,-2072.576638,-5255.462188,2757.943793
59543.162175,-3034.844362,-7624.121203,1991.848295
59543.162485,-2368.659014,-5995.668130,0.000000
59543.162794,-8882.471304,-9548.656652,-2451.505594
59543.163104,-11251.130318,-10732.986159,-3064.381992
59543.163413,-10732.986159,-14211.954086,-3753.867940
59543.163723,-9474.636058,-11917.315666,-2451.505594
59543.164032,-4811.338623,-10658.965565,-76.609550
59543.164342,-4737.318029,-9178.553681,3600.648841
59543.164651,-2812.782580,-5921.647536,2987.772442
59543.164961,-2146.597232,-7402.059420,4443.353888
59543.165271,-592.164754,-5699.585753,3600.648841
59543.165580,-4663.297435,-7772.162391,1762.019645
59543.165890,-7994.224174,-5107.421000,0.000000
59543.166199,-9178.553681,-9548.656652,0.000000
59543.166509,-4737.318029,-9622.677246,2221.676944
59543.166818,-5403.503377,-10066.800811,-76.609550
59543.167128,-6513.812290,-10288.862594,1455.581446
59543.167437,-6809.894666,-8956.491898,306.438199
59543.167747,-6143.709319,-11547.212695,919.314598
59543.168056,-4441.235652,-7920.203579,-612.876398
59543.168366,-7179.997637,-11177.109724,536.266849
59543.168675,-6587.832884,-7105.977043,-689.485948
59543.168985,-7772.162391,-9178.553681,-1225.752797
59543.169294,-3552.988522,-5403.503377,0.000000
59543.169604,2812.782580,-8586.388927,7277.907231
59543.169913,3478.967927,-5329.482782,4826.401637
59543.170223,0.000000,-4811.338623,3983.696590
59543.170532,-3256.906145,-8364.327145,0.000000
59543.170842,-2590.720797,-10584.944971,-919.314598
59543.171152,-3256.906145,-11473.192101,-1149.143247
59543.171461,-4959.379811,-10881.027347,-2834.553343
59543.171771,-6069.688724,-12287.418637,-2528.115143
59543.172080,-5403.503377,-11547.212695,-3753.867940
59543.172390,-3478.967927,-10732.986159,-3064.381992
59543.172699,1184.329507,-10140.821405,4903.011187
59543.173009,3478.967927,-7994.224174,4519.963438
59543.173318,592.164754,-5699.585753,4903.011187
59543.173628,1184.329507,-4811.338623,3677.258390
59543.173937,518.144159,-8216.285956,3600.648841
59543.174247,148.041188,-8216.285956,1685.410096
59543.174556,-740.205942,-6587.832884,-612.876398
59543.174866,-3627.009116,-11251.130318,-689.485948
59543.175175,-3627.009116,-11843.295072,-3140.991542
59543.175485,-6957.935855,-12139.377449,-4979.620737
59543.175794,-8290.306550,-12509.480420,-3064.381992
59543.176104,-962.267725,-11843.295072,995.924147
59543.176413,1406.391290,-9474.636058,2451.505594
59543.176723,0.000000,-4811.338623,2451.505594
59543.177033,444.123565,-6735.874072,3294.210641
59543.177342,1480.411884,-7254.018232,3524.039291
59543.177652,444.123565,-7624.121203,3294.210641
59543.177961,370.102971,-8882.471304,3600.648841
59543.178271,-74.020594,-9474.636058,-76.609550
59543.178580,-6143.709319,-9474.636058,-2528.115143
59543.178890,-9474.636058,-11917.315666,-2451.505594
59543.179199,-8364.327145,-15396.283594,-2528.115143
59543.179509,-9548.656652,-11621.233289,-3370.820191
59543.179818,-7105.977043,-8660.409521,-1455.581446
59543.180128,-1628.453072,-7179.997637,2604.724693
59543.180437,888.247130,-5699.585753,5209.449386
59543.180747,0.000000,-5847.626942,4903.011187
59543.181056,-1258.350101,-8660.409521,4826.401637
59543.181366,-2442.679609,-9474.636058,3600.648841
59543.181675,-5995.668130,-6809.894666,-1302.362347
59543.181985,-7105.977043,-8364.327145,0.000000
59543.182294,-3627.009116,-9474.636058,-76.609550
59543.182604,-7105.977043,-8956.491898,-2451.505594
59543.182914,-10140.821405,-11843.295072,-3753.867940
59543.183223,-10807.006753,-14211.954086,-2451.505594
59543.183533,-8364.327145,-12805.562797,-459.657299
59543.183842,-6069.688724,-10584.944971,2068.457845
59543.184152,-2664.741391,-8290.306550,4749.792088
59543.184461,518.144159,-7105.977043,8503.660028
59543.184771,4663.297435,-4737.318029,9116.536426
59543.185080,296.082377,-1258.350101,3294.210641
59543.185390,-1776.494261,-7698.141797,4443.353888
59543.185699,-3627.009116,-7920.203579,-995.924147
59543.186009,-6291.750507,-8586.388927,-3140.991542
59543.186318,-9474.636058,-10732.986159,-3983.696590
59543.186628,-10214.842000,-13027.624579,-3370.820191
59543.186937,-4737.318029,-11325.150913,-3140.991542
59543.187247,-2368.659014,-12805.562797,306.438199
59543.187556,-4737.318029,-13989.892304,2451.505594
59543.187866,-2442.679609,-15396.283594,4519.963438
59543.188175,-74.020594,-9474.636058,3294.210641
59543.188485,592.164754,-5403.503377,4903.011187
59543.188795,1110.308913,-5773.606348,4519.963438
59543.189104,-74.020594,-6513.812290,4213.525239
59543.189414,740.205942,-5403.503377,3524.039291
59543.189723,3182.885551,-4885.359217,1915.238745
59543.190033,-592.164754,-6957.935855,76.609550
59543.190342,-7105.977043,-9844.739029,0.000000
59543.190652,-8290.306550,-11917.315666,-2451.505594
59543.190961,-6809.894666,-13101.645173,-2451.505594
59543.191271,-3034.844362,-14211.954086,-2528.115143
59543.191580,-7105.977043,-10732.986159,-2451.505594
59543.191890,-4737.318029,-11991.336260,-689.485948
59543.192199,-74.020594,-11251.130318,2374.896044
59543.192509,4145.153275,-6069.688724,5132.839837
59543.192818,7624.121203,-4441.235652,8503.660028
59543.193128,5699.585753,-2368.659014,5898.935335
59543.193437,-2072.576638,-4811.338623,306.438199
59543.193747,-5921.647536,-9548.656652,0.000000
59543.194057,-5921.647536,-11917.315666,-1225.752797
59543.194366,-4811.338623,-12435.459826,-3140.991542
59543.194676,-9474.636058,-9844.739029,-4903.011187
59543.194985,-9548.656652,-14211.954086,-2528.115143
59543.195295,-6143.709319,-15618.345376,-76.609550
59543.195604,-3034.844362,-11029.068536,2068.457845
59543.195914,-666.185348,-5551.544565,3217.601092
59543.196223,1480.411884,-3330.926739,5822.325785
59543.196533,3552.988522,-74.020594,5515.887586
59543.196842,2368.659014,-1258.350101,4903.011187
59543.197152,0.000000,-6587.832884,4903.011187
59543.197461,-4811.338623,-11843.295072,-1302.362347
59543.197771,-11843.295072,-13397.727550,-4903.011187
59543.198080,-8956.491898,-15988.448347,-3140.991542
59543.198390,-9474.636058,-11621.233289,-3370.820191
59543.198699,-8364.327145,-10658.965565,-4366.744339
59543.199009,-8882.471304,-13101.645173,-1532.190996
59543.199318,-5625.565159,-13249.686362,612.876398
59543.199628,-5403.503377,-9696.697840,842.705048
59543.199938,-4737.318029,-4811.338623,3064.381992
59543.200247,0.000000,-74.020594,4903.011187
59543.200557,4145.153275,-1258.350101,10112.460574
59543.200866,5847.626942,1776.494261,6358.592633
59543.201176,3256.906145,-3849.070898,5592.497135
59543.201485,-2368.659014,-7772.162391,2451.505594
59543.201795,-7476.080014,-13619.789333,-4060.306139
59543.202104,-14508.036463,-19097.313304,-7584.345430
59543.202414,-18061.024985,-23168.445985,-7431.126331
59543.202723,-15174.221811,-18949.272115,-7431.126331
59543.203033,-13619.789333,-11325.150913,-7048.078582
59543.203342,-9474.636058,-7179.997637,0.000000
59543.203652,296.082377,-4811.338623,5898.935335
59543.203961,6439.791695,-1776.494261,7890.783629
59543.204271,7105.977043,-1184.329507,11261.603821
59543.204580,8290.306550,-222.061783,11031.775171
59543.204890,5551.544565,-2368.659014,8503.660028
59543.205199,296.082377,-6217.729913,4826.401637
59543.205509,-4737.318029,-9548.656652,-306.438199
59543.205819,-10362.883188,-11325.150913,-5822.325785
59543.206128,-14211.954086,-14285.974681,-8580.269578
59543.206438,-16580.613101,-16950.716072,-7967.393179
59543.206747,-12509.480420,-20059.581028,-3753.867940
59543.207057,-9104.533087,-12657.521608,-4213.525239
59543.207366,-1776.494261,-9474.636058,2221.676944
59543.207676,2664.741391,-5255.462188,5669.106685
59543.207985,7031.956449,-1332.370696,7201.297681
59543.208295,8216.285956,-962.267725,7814.174080
59543.208604,7254.018232,-2368.659014,7277.907231
59543.208914,4441.235652,-2738.761985,4290.134789
59543.209223,2368.659014,-8734.430116,2298.286494
59543.209533,-3330.926739,-11843.295072,-536.266849
59543.209842,-8956.491898,-11917.315666,-8273.831378
59543.210152,-9770.718434,-20429.683999,-5132.839837
59543.210461,-10732.986159,-19837.519246,-8120.612279
59543.210771,-10066.800811,-16950.716072,-6128.763984
59543.211080,-5033.400406,-15026.180623,-1378.971896
59543.211390,-1184.329507,-9992.780217,2374.896044
59543.211700,2294.638420,-4737.318029,5132.839837
59543.212009,5847.626942,-3997.112087,9729.412825
59543.212319,7920.203579,-2368.659014,11568.042020
59543.212628,4663.297435,-2368.659014,9729.412825
59543.212938,296.082377,-74.020594,3677.258390
59543.213247,1184.329507,-8068.244768,4826.401637
59543.213557,-3627.009116,-9178.553681,306.438199
59543.213866,-7179.997637,-11251.130318,-2528.115143
59543.214176,-9474.636058,-14878.139434,-4596.572988
59543.214485,-9918.759623,-18135.045579,-3983.696590
59543.214795,-7254.018232,-15840.407159,-3370.820191
59543.215104,-3923.091493,-16506.592507,1225.752797
59543.215414,518.144159,-11843.295072,5745.716235
59543.215723,7031.956449,-8882.471304,8503.660028
59543.216033,6513.812290,-74.020594,7354.516781
59543.216342,10288.862594,-1480.411884,11568.042020
59543.216652,7920.203579,-296.082377,7890.783629
59543.216961,6439.791695,-2960.823768,8503.660028
59543.217271,2220.617826,-6957.935855,7048.078582
59543.217581,-2738.761985,-10140.821405,3983.696590
59543.217890,-5403.503377,-13397.727550,1149.143247
59543.218200,-6513.812290,-14285.974681,0.000000
59543.218509,-5033.400406,-17838.963202,2451.505594
59543.218819,-1258.350101,-18949.272115,4213.525239
59543.219128,-5921.647536,-11325.150913,612.876398
59543.219438,-1776.494261,-11325.150913,6128.763984
59543.219747,3478.967927,-5625.565159,7277.907231
59543.220057,7031.956449,-5921.647536,10648.727422
59543.220366,5477.523971,-2886.803174,10801.946522
59543.220676,5033.400406,-1702.473667,10342.289223
59543.220985,4663.297435,-3330.926739,9959.241474
59543.221295,2368.659014,-3627.009116,7354.516781
59543.221604,0.000000,-9548.656652,8580.269578
59543.221914,-592.164754,-12509.480420,7967.393179
59543.222223,-1258.350101,-16580.613101,4826.401637
59543.222533,-7105.977043,-15618.345376,2451.505594
59543.222842,-8142.265362,-18653.189738,3600.648841
59543.223152,-5995.668130,-15100.201217,4213.525239
59543.223462,-3701.029710,-10066.800811,6971.469032
59543.223771,3849.070898,-1850.514855,9806.022374
59543.224081,7179.997637,1628.453072,11721.261119
59543.224390,4737.318029,2886.803174,11031.775171
59543.224700,2368.659014,-74.020594,12257.527968
59543.225009,1184.329507,-4811.338623,9806.022374
59543.225319,-74.020594,-9474.636058,8350.440928
59543.225628,-6513.812290,-8364.327145,3370.820191
59543.225938,-3627.009116,-11843.295072,4213.525239
59543.226247,-296.082377,-12805.562797,4213.525239
59543.226557,-1554.432478,-11991.336260,2374.896044
59543.226866,-5403.503377,-14211.954086,2298.286494
59543.227176,-6291.750507,-15026.180623,1225.752797
59543.227485,-5921.647536,-11917.315666,306.438199
59543.227795,-2368.659014,-4811.338623,4903.011187
59543.228104,0.000000,-1258.350101,5515.887586
59543.228414,6069.688724,-370.102971,9499.584175
59543.228724,5255.462188,0.000000,7277.907231
59543.229033,3701.029710,-2368.659014,7890.783629
59543.229343,3552.988522,-4663.297435,6435.202183
59543.229652,814.226536,-9474.636058,4443.353888
59543.229962,-1332.370696,-12731.542202,2528.115143
59543.230271,-4441.235652,-17246.798449,0.000000
59543.230581,-9400.615463,-17542.880825,-2834.553343
59543.230890,-11251.130318,-14285.974681,-4903.011187
59543.231200,-9474.636058,-11917.315666,-3677.258390
59543.231509,-148.041188,-9030.512492,919.314598
59543.231819,518.144159,-5033.400406,1302.362347
59543.232128,3775.050304,-4959.379811,5515.887586
59543.232438,6513.812290,-2442.679609,5515.887586
59543.232747,7328.038826,-3849.070898,5132.839837
59543.233057,3552.988522,-5995.668130,3907.087040
59543.233366,222.061783,-9992.780217,2681.334243
59543.233676,-74.020594,-8882.471304,536.266849
59543.233985,-666.185348,-9178.553681,-842.705048
59543.234295,-4737.318029,-7772.162391,0.000000
59543.234605,-2294.638420,-11769.274478,-306.438199
59543.234914,-3627.009116,-13249.686362,-1915.238745
59543.235224,888.247130,-11769.274478,612.876398
59543.235533,0.000000,-10140.821405,0.000000
59543.235843,-370.102971,-10658.965565,842.705048
59543.236152,592.164754,-8586.388927,1455.581446
59543.236462,3182.885551,-6143.709319,2528.115143
59543.236771,5847.626942,-4737.318029,3600.648841
59543.237081,3478.967927,-4737.318029,2987.772442
59543.237390,-666.185348,-3923.091493,153.219100
59543.237700,592.164754,-9548.656652,3370.820191
59543.238009,1110.308913,-8586.388927,-76.609550
59543.238319,-2368.659014,-11325.150913,1225.752797
59543.238628,-5921.647536,-14878.139434,0.000000
59543.238938,-3701.029710,-13841.851115,-229.828649
59543.239247,-2294.638420,-11843.295072,842.705048
59543.239557,-814.226536,-6883.915261,1685.410096
59543.239867,3182.885551,-6809.894666,4826.401637
59543.240176,7031.956449,-4737.318029,6665.030833
59543.240486,1998.556043,-3256.906145,2374.896044
59543.240795,0.000000,-9696.697840,5209.449386
59543.241105,-74.020594,-11695.253884,4826.401637
59543.241414,0.000000,-7772.162391,4903.011187
59543.241724,-2960.823768,-7179.997637,2834.553343
59543.242033,-2220.617826,-7328.038826,3983.696590
59543.242343,0.000000,-6587.832884,4290.134789
59543.242652,1036.288319,-7698.141797,4749.792088
59543.242962,-74.020594,-11251.130318,4519.963438
59543.243271,-1258.350101,-13027.624579,3600.648841
59543.243581,-1258.350101,-11843.295072,3600.648841
59543.243890,0.000000,-7179.997637,4903.011187
59543.244200,2294.638420,-8882.471304,7277.907231
59543.244510,-2960.823768,-5995.668130,3677.258390
59543.244819,222.061783,-7031.956449,6741.640382
59543.245129,1998.556043,-7772.162391,7431.126331
59543.245438,148.041188,-8364.327145,7354.516781
59543.245748,-1998.556043,-8956.491898,6741.640382
59543.246057,-74.020594,-10066.800811,7890.783629
59543.246367,-74.020594,-13619.789333,8580.269578
59543.246676,-74.020594,-9474.636058,6665.030833
59543.246986,-4145.153275,-5403.503377,2757.943793
59543.247295,-74.020594,-9474.636058,7890.783629
59543.247605,0.000000,-5107.421000,3064.381992
59543.247914,518.144159,-6143.709319,4443.353888
59543.248224,-2516.700203,-9696.697840,4366.744339
59543.248534,-2590.720797,-11473.192101,4749.792088
59543.248843,-888.247130,-11103.089130,4749.792088
59543.249153,222.061783,-11621.233289,7354.516781
59543.249462,740.205942,-9474.636058,6128.763984
59543.249772,2886.803174,-9474.636058,9116.536426
59543.250081,0.000000,-7179.997637,5515.887586
59543.250391,1184.329507,-7402.059420,7048.078582
59543.250700,-1258.350101,-7624.121203,3600.648841
59543.251010,1998.556043,-6809.894666,4519.963438
59543.251319,0.000000,-6439.791695,3600.648841
59543.251629,-370.102971,-8290.306550,3600.648841
59543.251938,-2072.576638,-7846.182985,2145.067394
59543.252248,-2368.659014,-9548.656652,1838.629195
59543.252558,0.000000,-10732.986159,2451.505594
59543.252867,-74.020594,-12139.377449,5439.278036
59543.253177,-74.020594,-12435.459826,4213.525239
59543.253486,-1776.494261,-10140.821405,3677.258390
59543.253796,814.226536,-8882.471304,3600.648841
59543.254105,1998.556043,-9474.636058,4826.401637
59543.254415,148.041188,-7179.997637,4826.401637
59543.254724,1628.453072,-6883.915261,4213.525239
59543.255034,1850.514855,-6661.853478,3677.258390
59543.255343,0.000000,-5403.503377,2451.505594
59543.255653,0.000000,-5995.668130,612.876398
59543.255962,-1776.494261,-10732.986159,3677.258390
59543.256272,-74.020594,-11251.130318,1762.019645
59543.256581,-2368.659014,-10140.821405,2451.505594
59543.256891,1998.556043,-9474.636058,2374.896044
59543.257201,1110.308913,-9326.594869,3140.991542
59543.257510,0.000000,-9918.759623,2681.334243
59543.257820,1184.329507,-8808.450710,2528.115143
59543.258129,296.082377,-11325.150913,3370.820191
59543.258439,0.000000,-7179.997637,1378.971896
59543.258748,-4145.153275,-8364.327145,612.876398
59543.259058,-592.164754,-10140.821405,4290.134789
59543.259367,-74.020594,-7105.977043,1149.143247
59543.259677,-1184.329507,-4811.338623,1838.629195
59543.259986,-74.020594,-7105.977043,2374.896044
59543.260296,0.000000,-8882.471304,3140.991542
59543.260605,1184.329507,-8882.471304,1762.019645
59543.260915,-962.267725,-13471.748144,3217.601092
59543.261225,0.000000,-11843.295072,3294.210641
59543.261534,-3478.967927,-13989.892304,2374.896044
59543.261844,-2960.823768,-9326.594869,2374.896044
59543.262153,-3552.988522,-7179.997637,1225.752797
59543.262463,1702.473667,-5625.565159,4136.915689
59543.262772,0.000000,-4811.338623,0.000000
59543.263082,2072.576638,-7105.977043,4826.401637
59543.263391,0.000000,-9400.615463,2451.505594
59543.263701,-1480.411884,-13619.789333,3524.039291
59543.264010,-2294.638420,-13249.686362,2451.505594
59543.264320,-2738.761985,-12657.521608,3140.991542
59543.264629,-962.267725,-4885.359217,2068.457845
59543.264939,0.000000,-2368.659014,2374.896044
59543.265248,0.000000,-3627.009116,3677.258390
59543.265558,4071.132681,-8882.471304,5439.278036
59543.265868,222.061783,-11325.150913,153.219100
59543.266177,296.082377,-15544.324782,5515.887586
59543.266487,-3552.988522,-14285.974681,3370.820191
59543.266796,-2368.659014,-11251.130318,3447.429741
59543.267106,-1702.473667,-5033.400406,1532.190996
59543.267415,-962.267725,-1036.288319,76.609550
59543.267725,-74.020594,-3552.988522,2374.896044
59543.268034,2294.638420,-7105.977043,3600.648841
59543.268344,0.000000,-7179.997637,0.000000
59543.268653,-1628.453072,-10288.862594,1225.752797
59543.268963,-2590.720797,-14211.954086,-76.609550
59543.269272,-2368.659014,-11325.150913,1838.629195
59543.269582,-1776.494261,-9844.739029,306.438199
59543.269892,740.205942,-5699.585753,459.657299
59543.270201,444.123565,-6513.812290,459.657299
59543.270511,2146.597232,-6217.729913,459.657299
59543.270820,4071.132681,-11251.130318,2374.896044
59543.271130,-74.020594,-13619.789333,-76.609550
59543.271439,-4515.256246,-12953.603985,-2987.772442
59543.271749,-2368.659014,-12805.562797,0.000000
59543.272058,-74.020594,-8660.409521,-2451.505594
59543.272368,0.000000,-3627.009116,0.000000
59543.272677,0.000000,-3923.091493,-919.314598
59543.272987,2812.782580,-6143.709319,0.000000
59543.273296,2886.803174,-11843.295072,766.095498
59543.273606,74.020594,-14063.912898,612.876398
59543.273916,-814.226536,-18801.230927,1149.143247
59543.274225,-74.020594,-15396.283594,2987.772442
59543.274535,-74.020594,-7698.141797,-383.047749
59543.274844,0.000000,-3627.009116,0.000000
59543.275154,1702.473667,-4145.153275,-76.609550
59543.275463,0.000000,-3034.844362,0.000000
59543.275773,1850.514855,-9030.512492,-689.485948
59543.276082,-740.205942,-11917.315666,-1225.752797
59543.276392,-4515.256246,-13841.851115,-2451.505594
59543.276701,-4737.318029,-11843.295072,-3064.381992
59543.277011,-1554.432478,-10066.800811,-1302.362347
59543.277320,-74.020594,-7772.162391,459.657299
59543.277630,-74.020594,-7105.977043,-689.485948
59543.277939,296.082377,-6587.832884,-1225.752797
59543.278249,3478.967927,-14211.954086,3294.210641
59543.278559,-2368.659014,-11325.150913,0.000000
59543.278868,-3034.844362,-13915.871710,-995.924147
59543.279178,-2294.638420,-10436.903782,-1149.143247
59543.279487,-1110.308913,-7105.977043,-842.705048
59543.279797,-666.185348,-4737.318029,-689.485948
59543.280106,888.247130,-4367.215058,1225.752797
59543.280416,2368.659014,-4811.338623,612.876398
59543.280725,4663.297435,-10658.965565,-76.609550
59543.281035,-2738.761985,-12509.480420,-995.924147
59543.281344,-3552.988522,-16062.468941,2451.505594
59543.281654,-3923.091493,-13545.768739,-2298.286494
59543.281963,-666.185348,-10362.883188,-76.609550
59543.282273,0.000000,-5699.585753,766.095498
59543.282583,2220.617826,-2146.597232,1532.190996
59543.282892,4515.256246,-2590.720797,2145.067394
59543.283202,3849.070898,-4811.338623,3064.381992
59543.283511,0.000000,-9548.656652,1225.752797
59543.283821,-1184.329507,-15766.386565,3677.258390
59543.284130,-1258.350101,-13915.871710,1149.143247
59543.284440,-2368.659014,-9548.656652,1838.629195
59543.284749,-666.185348,-5033.400406,-689.485948
59543.285059,2886.803174,-4737.318029,2374.896044
59543.285368,3701.029710,-6217.729913,3217.601092
59543.285678,3552.988522,-8290.306550,3140.991542
59543.285987,296.082377,-13101.645173,3370.820191
59543.286297,-3552.988522,-11917.315666,1532.190996
59543.286607,-6513.812290,-9548.656652,0.000000
59543.286916,-1702.473667,-8512.368333,2374.896044
59543.287226,-1406.391290,-5329.482782,-76.609550
59543.287535,592.164754,-5995.668130,3677.258390
59543.287845,2294.638420,-7105.977043,-76.609550
59543.288154,1554.432478,-10955.047942,2374.896044
59543.288464,-2294.638420,-13619.789333,2068.457845
59543.288773,-4071.132681,-13249.686362,1455.581446
59543.289083,-4367.215058,-11325.150913,919.314598
59543.289392,-4737.318029,-5403.503377,-1225.752797
59543.289702,-3034.844362,-5773.606348,306.438199
59543.290011,0.000000,-6587.832884,3677.258390
59543.290321,3478.967927,-10066.800811,4826.401637
59543.290630,0.000000,-6587.832884,2451.505594
59543.290940,-74.020594,-12435.459826,5745.716235
59543.291250,-444.123565,-9474.636058,4903.011187
59543.291559,-666.185348,-7105.977043,2834.553343
59543.291869,0.000000,-4663.297435,2834.553343
59543.292178,0.000000,-5551.544565,2681.334243
59543.292488,0.000000,-5477.523971,1455.581446
59543.292797,2294.638420,-9474.636058,2681.334243
59543.293107,0.000000,-9548.656652,2757.943793
59543.293416,-592.164754,-13841.851115,5822.325785
59543.293726,-1258.350101,-10362.883188,1149.143247
59543.294035,-1258.350101,-10658.965565,2374.896044
59543.294345,-2368.659014,-5995.668130,612.876398
59543.294654,-2368.659014,-6809.894666,229.828649
59543.294964,0.000000,-5625.565159,689.485948
59543.295274,1702.473667,-7920.203579,1532.190996
59543.295583,1702.473667,-8882.471304,2374.896044
59543.295893,2294.638420,-11843.295072,2374.896044
59543.296202,0.000000,-9548.656652,919.314598
59543.296512,-74.020594,-10658.965565,1149.143247
59543.296821,-1776.494261,-6587.832884,0.000000
59543.297131,-74.020594,-10658.965565,-76.609550
59543.297440,592.164754,-7772.162391,-1072.533697
59543.297750,1998.556043,-10658.965565,76.609550
59543.298059,1110.308913,-11917.315666,0.000000
59543.298369,-1036.288319,-14656.077652,0.000000
59543.298678,-74.020594,-13027.624579,-76.609550
59543.298988,-74.020594,-11547.212695,-76.609550
59543.299297,-2960.823768,-4811.338623,-3064.381992
59543.299607,814.226536,-7105.977043,-76.609550
59543.299917,0.000000,-3627.009116,0.000000
59543.300226,3552.988522,-9400.615463,1532.190996
59543.300536,296.082377,-9548.656652,-1225.752797
59543.300845,-1036.288319,-11991.336260,-612.876398
59543.301155,-2294.638420,-12509.480420,-1225.752797
59543.301464,-3256.906145,-10955.047942,-1991.848295
59543.301774,-1258.350101,-11251.130318,-1685.410096
59543.302083,-74.020594,-9474.636058,-689.485948
59543.302393,1110.308913,-6809.894666,-1915.238745
59543.302702,1480.411884,-7179.997637,0.000000
59543.303012,4071.132681,-9474.636058,-76.609550
59543.303321,-2368.659014,-10140.821405,1225.752797
59543.303631,-1776.494261,-9696.697840,-1378.971896
59543.303941,-1332.370696,-8956.491898,-459.657299
59543.304250,-2146.597232,-8216.285956,-1608.800546
59543.304560,-1628.453072,-6661.853478,-1225.752797
59543.304869,2294.638420,-10362.883188,-153.219100
59543.305179,4663.297435,-10658.965565,2987.772442
59543.305488,2294.638420,-10658.965565,-76.609550
59543.305798,-2368.659014,-9548.656652,-2451.505594
59543.306107,-2368.659014,-10732.986159,0.000000
59543.306417,-3552.988522,-8364.327145,0.000000
59543.306726,-3330.926739,-8734.430116,-1608.800546
59543.307036,-2220.617826,-7328.038826,-612.876398
59543.307345,740.205942,-7476.080014,536.266849
59543.307655,3108.864956,-6735.874072,2374.896044
59543.307965,3256.906145,-8364.327145,2987.772442
59543.308274,1480.411884,-8956.491898,3677.258390
59543.308584,2294.638420,-11843.295072,3294.210641
59543.308893,-888.247130,-7772.162391,0.000000
59543.309203,-2368.659014,-11621.233289,2451.505594
59543.309512,-3404.947333,-6587.832884,0.000000
59543.309822,1110.308913,-8734.430116,1302.362347
59543.310131,2812.782580,-7476.080014,3370.820191
59543.310441,2146.597232,-9992.780217,3753.867940
59543.310750,962.267725,-10436.903782,4290.134789
59543.311060,0.000000,-9844.739029,3064.381992
59543.311369,-2368.659014,-7772.162391,2451.505594
59543.311679,-1850.514855,-9474.636058,2757.943793
59543.311988,-1554.432478,-4367.215058,-995.924147
59543.312298,1776.494261,-8364.327145,4290.134789
59543.312608,814.226536,-6217.729913,2451.505594
59543.312917,814.226536,-11843.295072,3294.210641
59543.313227,-1776.494261,-11621.233289,2451.505594
59543.313536,-2886.803174,-11843.295072,1608.800546
59543.313846,-3997.112087,-9696.697840,689.485948
59543.314155,-6513.812290,-8364.327145,0.000000
59543.314465,-4737.318029,-5403.503377,0.000000
59543.314774,1036.288319,-8882.471304,3294.210641
59543.315084,2294.638420,-4811.338623,383.047749
59543.315393,2368.659014,-8660.409521,5515.887586
59543.315703,814.226536,-8290.306550,2451.505594
59543.316012,518.144159,-10066.800811,2681.334243
59543.316322,-1924.535449,-8586.388927,1072.533697
59543.316632,-3330.926739,-9918.759623,612.876398
59543.316941,-1332.370696,-8068.244768,689.485948
59543.317251,0.000000,-8364.327145,1302.362347
59543.317560,0.000000,-6587.832884,1225.752797
59543.317870,2072.576638,-10807.006753,4136.915689
59543.318179,2294.638420,-9474.636058,2374.896044
59543.318489,0.000000,-7179.997637,1225.752797
59543.318798,-74.020594,-7105.977043,-689.485948
59543.319108,-1850.514855,-10362.883188,-76.609550
59543.319417,-370.102971,-8882.471304,-459.657299
59543.319727,1036.288319,-10140.821405,383.047749
59543.320036,1332.370696,-7698.141797,229.828649
59543.320346,-74.020594,-7105.977043,1149.143247
59543.320656,0.000000,-5403.503377,0.000000
59543.320965,1776.494261,-9548.656652,1532.190996
59543.321275,-666.185348,-10658.965565,-1302.362347
59543.321584,-5921.647536,-11917.315666,-2451.505594
59543.321894,-74.020594,-13619.789333,-689.485948
59543.322203,666.185348,-11325.150913,0.000000
59543.322513,1702.473667,-9104.533087,766.095498
59543.322822,518.144159,-7698.141797,229.828649
59543.323132,1924.535449,-7254.018232,1149.143247
59543.323441,1998.556043,-7994.224174,1762.019645
59543.323751,-1850.514855,-8882.471304,-1608.800546
59543.324060,-5921.647536,-9548.656652,-2451.505594
59543.324370,-518.144159,-13027.624579,-76.609550
59543.324679,-3256.906145,-7179.997637,-1838.629195
59543.324989,2294.638420,-10362.883188,2374.896044
59543.325299,0.000000,-7179.997637,842.705048
59543.325608,1332.370696,-8142.265362,536.266849
59543.325918,74.020594,-7105.977043,0.000000
59543.326227,-3775.050304,-10066.800811,-1302.362347
59543.326537,-3627.009116,-11843.295072,-1302.362347
59543.326846,-74.020594,-11843.295072,-1302.362347
59543.327156,0.000000,-8364.327145,0.000000
59543.327465,2886.803174,-9474.636058,3600.648841
59543.327775,0.000000,-4811.338623,0.000000
59543.328084,4589.276840,-9326.594869,4213.525239
59543.328394,1924.535449,-6291.750507,1378.971896
59543.328703,-1110.308913,-9918.759623,842.705048
59543.329013,-1850.514855,-9474.636058,0.000000
59543.329323,-370.102971,-11251.130318,0.000000
59543.329632,2516.700203,-10658.965565,2757.943793
59543.329942,2294.638420,-10658.965565,-76.609550
59543.330251,0.000000,-7179.997637,0.000000
59543.330561,2294.638420,-11251.130318,-76.609550
59543.330870,-3552.988522,-7179.997637,0.000000
59543.331180,-3256.906145,-11769.274478,1149.143247
59543.331489,-3034.844362,-8734.430116,-842.705048
59543.331799,-740.205942,-9326.594869,0.000000
59543.332108,666.185348,-7476.080014,995.924147
59543.332418,-148.041188,-9844.739029,1685.410096
59543.332727,1332.370696,-8660.409521,2451.505594
59543.333037,3478.967927,-11251.130318,3600.648841
59543.333346,1110.308913,-7105.977043,842.705048
59543.333656,-4737.318029,-9548.656652,0.000000
59543.333966,-74.020594,-9474.636058,-76.609550
59543.334275,0.000000,-9844.739029,306.438199
59543.334585,1036.288319,-8734.430116,919.314598
59543.334894,-296.082377,-10436.903782,1302.362347
59543.335204,444.123565,-9474.636058,1762.019645
59543.335513,888.247130,-9770.718434,1455.581446
59543.335823,-1480.411884,-7179.997637,0.000000
59543.336132,-3552.988522,-9696.697840,919.314598
59543.336442,-1258.350101,-7698.141797,-689.485948
59543.336751,0.000000,-9548.656652,1225.752797
59543.337061,2294.638420,-9474.636058,1762.019645
59543.337370,0.000000,-9548.656652,919.314598
59543.337680,1702.473667,-8882.471304,1762.019645
59543.337990,1406.391290,-8586.388927,1762.019645
59543.338299,-444.123565,-7624.121203,459.657299
59543.338609,-3182.885551,-8882.471304,-689.485948
59543.338918,-3552.988522,-7179.997637,-2451.505594
59543.339228,-2368.659014,-11917.315666,306.438199
59543.339537,-74.020594,-11843.295072,1149.143247
59543.339847,0.000000,-10732.986159,2451.505594
59543.340156,3478.967927,-9474.636058,3600.648841
59543.340466,148.041188,-4811.338623,1225.752797
59543.340775,814.226536,-7105.977043,2068.457845
59543.341085,-2146.597232,-9030.512492,1532.190996
59543.341395,-962.267725,-8586.388927,383.047749
59543.341704,0.000000,-10288.862594,1302.362347
59543.342014,-1184.329507,-7179.997637,76.609550
59543.342324,0.000000,-7772.162391,1838.629195
59543.342633,444.123565,-6587.832884,0.000000
59543.342943,3478.967927,-10658.965565,3600.648841
59543.343253,-2960.823768,-6587.832884,-1685.410096
59543.343562,-4145.153275,-8364.327145,-1225.752797
59543.343872,-4071.132681,-8068.244768,-2451.505594
59543.344182,-1776.494261,-10732.986159,1225.752797
59543.344491,-74.020594,-10362.883188,1302.362347
59543.344801,370.102971,-9474.636058,2911.162892
59543.345111,2590.720797,-7698.141797,3294.210641
59543.345420,296.082377,-4811.338623,1532.190996
59543.345730,888.247130,-8364.327145,4826.401637
59543.346040,-2442.679609,-6143.709319,0.000000
59543.346349,0.000000,-9844.739029,1225.752797
59543.346659,-370.102971,-10658.965565,-995.924147
59543.346969,-888.247130,-10732.986159,919.314598
59543.347278,-74.020594,-10658.965565,1532.190996
59543.347588,1480.411884,-8734.430116,2221.676944
59543.347898,962.267725,-7402.059420,2374.896044
59543.348207,-74.020594,-9474.636058,1762.019645
59543.348517,-2294.638420,-8290.306550,-536.266849
59543.348827,-2368.659014,-11029.068536,1838.629195
59543.349136,-666.185348,-9474.636058,-76.609550
59543.349446,-2368.659014,-9548.656652,1225.752797
59543.349756,-74.020594,-8882.471304,1149.143247
59543.350065,1036.288319,-6587.832884,1991.848295
59543.350375,1332.370696,-5699.585753,1685.410096
59543.350685,-1036.288319,-7550.100608,612.876398
59543.350994,-1776.494261,-8956.491898,1762.019645
59543.351304,-74.020594,-13027.624579,1149.143247
59543.351614,-1258.350101,-10066.800811,-995.924147
59543.351923,-2960.823768,-9548.656652,0.000000
59543.352233,-74.020594,-9474.636058,-76.609550
59543.352543,0.000000,-7772.162391,0.000000
59543.352852,2590.720797,-8586.388927,1762.019645
59543.353162,-1184.329507,-8364.327145,229.828649
59543.353472,-1480.411884,-6883.915261,-612.876398
59543.353781,-1702.473667,-9030.512492,-689.485948
59543.354091,-1184.329507,-7105.977043,-1072.533697
59543.354401,-74.020594,-12213.398043,1608.800546
59543.354710,1702.473667,-11251.130318,-76.609550
59543.355020,296.082377,-9696.697840,0.000000
59543.355330,4071.132681,-9474.636058,2374.896044
59543.355639,-1406.391290,-6513.812290,-1378.971896
59543.355949,-148.041188,-5699.585753,-76.609550
59543.356259,-518.144159,-9844.739029,-1225.752797
59543.356568,148.041188,-11029.068536,-306.438199
59543.356878,-1258.350101,-13323.706956,-995.924147
59543.357188,-518.144159,-11991.336260,0.000000
59543.357497,1776.494261,-9844.739029,1991.848295
59543.357807,2886.803174,-7105.977043,-76.609550
59543.358117,-1184.329507,-5995.668130,0.000000
59543.358426,1184.329507,-8068.244768,2145.067394
59543.358736,1110.308913,-9474.636058,-76.609550
59543.359046,296.082377,-10362.883188,1762.019645
59543.359355,-1258.350101,-10436.903782,153.219100
59543.359665,148.041188,-8660.409521,689.485948
59543.359975,1998.556043,-8438.347739,689.485948
59543.360284,1036.288319,-7179.997637,0.000000
59543.360594,-1776.494261,-8660.409521,612.876398
59543.360904,-74.020594,-11843.295072,1762.019645
59543.361213,-74.020594,-11251.130318,-76.609550
59543.361523,-4145.153275,-7179.997637,-2451.505594
59543.361833,-666.185348,-11177.109724,2068.457845
59543.362142,0.000000,-9474.636058,2987.772442
59543.362452,1702.473667,-7698.141797,1762.019645
59543.362762,666.185348,-7179.997637,1378.971896
59543.363071,-1184.329507,-8956.491898,1532.190996
59543.363381,-814.226536,-8660.409521,0.000000
59543.363691,-2368.659014,-9548.656652,0.000000
59543.364000,-1332.370696,-11177.109724,1608.800546
59543.364310,-2590.720797,-9178.553681,-1608.800546
59543.364620,592.164754,-10140.821405,2834.553343
59543.364929,1702.473667,-7698.141797,2374.896044
59543.365239,0.000000,-7846.182985,2757.943793
59543.365549,-1258.350101,-8882.471304,1685.410096
59543.365858,-666.185348,-9844.739029,1455.581446
59543.366168,-296.082377,-10807.006753,2298.286494
59543.366478,-962.267725,-8364.327145,229.828649
59543.366787,-2960.823768,-7179.997637,0.000000
59543.367097,1184.329507,-7772.162391,3677.258390
59543.367407,2294.638420,-4737.318029,1149.143247
59543.367716,0.000000,-6883.915261,2757.943793
59543.368026,-74.020594,-9474.636058,2374.896044
59543.368336,0.000000,-9548.656652,1532.190996
59543.368645,518.144159,-11473.192101,1149.143247
59543.368955,-2220.617826,-11917.315666,383.047749
59543.369265,-2664.741391,-11103.089130,383.047749
59543.369574,0.000000,-8882.471304,842.705048
59543.369884,666.185348,-5107.421000,0.000000
59543.370194,0.000000,-5995.668130,1225.752797
59543.370503,1110.308913,-9474.636058,3600.648841
59543.370813,0.000000,-7772.162391,0.000000
59543.371123,2294.638420,-10658.965565,3600.648841
59543.371432,-1776.494261,-9548.656652,612.876398
59543.371742,-1702.473667,-10584.944971,842.705048
59543.372052,518.144159,-9696.697840,919.314598
59543.372361,1702.473667,-6883.915261,1225.752797
59543.372671,-666.185348,-7698.141797,-76.609550
59543.372981,-666.185348,-5329.482782,-2528.115143
59543.373290,-2368.659014,-9548.656652,0.000000
59543.373600,-74.020594,-15100.201217,3140.991542
59543.373910,-4219.173869,-13175.665768,-1991.848295
59543.374219,-2812.782580,-12509.480420,1225.752797
59543.374529,-1184.329507,-7179.997637,0.000000
59543.374839,2072.576638,-4737.318029,2221.676944
59543.375148,1332.370696,-5107.421000,1838.629195
59543.375458,1480.411884,-5921.647536,1762.019645
59543.375768,1406.391290,-10658.965565,2374.896044
59543.376077,-370.102971,-10658.965565,-76.609550
59543.376387,-5625.565159,-11917.315666,0.000000
59543.376697,-1776.494261,-12509.480420,3064.381992
59543.377006,-74.020594,-8290.306550,-689.485948
59543.377316,-1776.494261,-4219.173869,0.000000
59543.377626,-2220.617826,-4811.338623,-2145.067394
59543.377935,0.000000,-7179.997637,0.000000
59543.378245,1110.308913,-10140.821405,383.047749
59543.378555,-148.041188,-11843.295072,612.876398
59543.378864,-1850.514855,-14804.118840,2068.457845
59543.379174,-74.020594,-11843.295072,2374.896044
59543.379484,0.000000,-6439.791695,-76.609550
59543.379793,592.164754,-3627.009116,2451.505594
59543.380103,2294.638420,-4737.318029,-76.609550
59543.380413,592.164754,-4219.173869,0.000000
59543.380722,1702.473667,-10214.842000,-383.047749
59543.381032,-1776.494261,-12879.583391,-612.876398
59543.381342,-3627.009116,-16358.551318,-383.047749
59543.381651,-1850.514855,-13027.624579,-383.047749
59543.381961,-74.020594,-10066.800811,1762.019645
59543.382271,2294.638420,-8882.471304,-76.609550
59543.382580,1110.308913,-5625.565159,-76.609550
59543.382890,2368.659014,-7179.997637,3677.258390
59543.383200,2886.803174,-10658.965565,-76.609550
59543.383509,-2220.617826,-10732.986159,0.000000
59543.383819,-1258.350101,-13915.871710,1149.143247
59543.384129,-888.247130,-10140.821405,919.314598
59543.384438,740.205942,-7550.100608,995.924147
59543.384748,740.205942,-5033.400406,536.266849
59543.385058,888.247130,-6291.750507,2451.505594
59543.385367,3256.906145,-9474.636058,3600.648841
59543.385677,1110.308913,-12435.459826,2374.896044
59543.385987,-3034.844362,-12879.583391,-1302.362347
59543.386296,-3849.070898,-15174.221811,1532.190996
59543.386606,-1258.350101,-10214.842000,-383.047749
59543.386916,-74.020594,-6513.812290,1149.143247
59543.387225,-592.164754,-3627.009116,842.705048
59543.387535,592.164754,-3775.050304,1302.362347
59543.387845,1850.514855,-5477.523971,1378.971896
59543.388154,0.000000,-8364.327145,1225.752797
59543.388464,-2960.823768,-13397.727550,2451.505594
59543.388774,-3034.844362,-14211.954086,-76.609550
59543.389083,-6513.812290,-9548.656652,0.000000
59543.389393,-74.020594,-10658.965565,2068.457845
59543.389703,-1850.514855,-5921.647536,-383.047749
59543.390012,2294.638420,-5921.647536,1149.143247
59543.390322,2146.597232,-5625.565159,1608.800546
59543.390632,1406.391290,-7698.141797,1762.019645
59543.390941,-814.226536,-11325.150913,1685.410096
59543.391251,-2960.823768,-11325.150913,0.000000
59543.391561,-1776.494261,-11325.150913,2451.505594
59543.391870,888.247130,-8882.471304,2145.067394
59543.392180,-74.020594,-7105.977043,-76.609550
59543.392490,0.000000,-3627.009116,612.876398
59543.392799,4663.297435,-8290.306550,2374.896044
59543.393109,2886.803174,-10658.965565,2374.896044
59543.393419,-1850.514855,-13619.789333,76.609550
59543.393728,-2368.659014,-14137.933492,842.705048
59543.394038,-1406.391290,-11843.295072,536.266849
59543.394348,-2368.659014,-5107.421000,0.000000
59543.394657,-2368.659014,-4811.338623,0.000000
59543.394967,2368.659014,-4663.297435,2604.724693
59543.395277,4663.297435,-6513.812290,-76.609550
59543.395586,0.000000,-7179.997637,766.095498
59543.395896,2886.803174,-14211.954086,3600.648841
59543.396206,888.247130,-14063.912898,2068.457845
59543.396515,-2072.576638,-14952.160028,-76.609550
59543.396825,-3552.988522,-10584.944971,-1378.971896
59543.397135,-3108.864956,-10510.924376,-1225.752797
59543.397444,0.000000,-4811.338623,-1762.019645
59543.397754,0.000000,-2442.679609,0.000000
59543.398064,1184.329507,-7179.997637,2451.505594
59543.398373,-74.020594,-13619.789333,2374.896044
59543.398683,-3256.906145,-11917.315666,0.000000
59543.398993,-1258.350101,-16580.613101,2374.896044
59543.399302,-3849.070898,-9252.574275,0.000000
59543.399612,-1702.473667,-7105.977043,-76.609550
59543.399922,1110.308913,-3552.988522,459.657299
59543.400231,2146.597232,-4219.173869,995.924147
59543.400541,1110.308913,-7105.977043,-76.609550
59543.400851,-3552.988522,-11325.150913,0.000000
59543.401160,-2960.823768,-14285.974681,0.000000
59543.401470,-74.020594,-16580.613101,2374.896044
59543.401780,-4145.153275,-5995.668130,0.000000
59543.402089,-74.020594,-8290.306550,3600.648841
59543.402399,1184.329507,-2442.679609,1225.752797
59543.402709,3627.009116,-6587.832884,2757.943793
59543.403018,1702.473667,-8290.306550,1685.410096
59543.403328,-814.226536,-12287.418637,1762.019645
59543.403638,-666.185348,-11843.295072,2374.896044
59543.403947,-2738.761985,-8290.306550,-1455.581446
59543.404257,-3552.988522,-5995.668130,0.000000
59543.404567,-74.020594,-9474.636058,-76.609550
59543.404876,0.000000,-4959.379811,0.000000
59543.405186,3849.070898,-10140.821405,3983.696590
59543.405496,0.000000,-9548.656652,612.876398
59543.405805,-222.061783,-11621.233289,1302.362347
59543.406115,-1036.288319,-10955.047942,766.095498
59543.406425,-1258.350101,-9326.594869,0.000000
59543.406734,-74.020594,-9474.636058,-76.609550
59543.407044,-74.020594,-8290.306550,-76.609550
59543.407353,1036.288319,-5107.421000,-2298.286494
59543.407663,1184.329507,-9548.656652,2451.505594
59543.407973,3478.967927,-10658.965565,2374.896044
59543.408282,-2368.659014,-9548.656652,0.000000
59543.408592,-3108.864956,-10140.821405,0.000000
59543.408902,-2072.576638,-10214.842000,-842.705048
59543.409211,-3034.844362,-10658.965565,-536.266849
59543.409521,-1850.514855,-9844.739029,76.609550
59543.409831,2294.638420,-11251.130318,2374.896044
59543.410140,4663.297435,-9474.636058,2374.896044
59543.410450,518.144159,-7698.141797,536.266849
59543.410760,0.000000,-9252.574275,3983.696590
59543.411069,-222.061783,-7994.224174,-76.609550
59543.411379,-4737.318029,-5995.668130,0.000000
59543.411689,-3034.844362,-8438.347739,-689.485948
59543.411998,-2368.659014,-9548.656652,0.000000
59543.412308,222.061783,-8660.409521,229.828649
59543.412618,1110.308913,-8364.327145,995.924147
59543.412927,1924.535449,-10955.047942,3294.210641
59543.413237,-74.020594,-11251.130318,2374.896044
59543.413547,-1702.473667,-9474.636058,-76.609550
59543.413856,-4737.318029,-7179.997637,0.000000
59543.414166,-2442.679609,-10658.965565,-76.609550
59543.414476,-4737.318029,-5995.668130,0.000000
59543.414785,1702.473667,-7698.141797,536.266849
59543.415095,2146.597232,-6291.750507,1608.800546
59543.415405,1332.370696,-8216.285956,2068.457845
59543.415714,444.123565,-8660.409521,2145.067394
59543.416024,888.247130,-11325.150913,3064.381992
59543.416334,1702.473667,-11843.295072,2068.457845
59543.416643,-2442.679609,-9474.636058,-1302.362347
59543.416953,-3552.988522,-7179.997637,0.000000
59543.417263,2886.803174,-11251.130318,1762.019645
59543.417572,0.000000,-5995.668130,0.000000
59543.417882,2146.597232,-11251.130318,2374.896044
59543.418192,148.041188,-9548.656652,1762.019645
59543.418501,-222.061783,-10066.800811,995.924147
59543.418811,-814.226536,-8586.388927,766.095498
59543.419121,-1776.494261,-8956.491898,1838.629195
59543.419430,1776.494261,-8660.409521,2757.943793
59543.419740,4663.297435,-11843.295072,4673.182538
59543.420050,1554.432478,-6587.832884,536.266849
59543.420359,592.164754,-10732.986159,2757.943793
59543.420669,-74.020594,-10658.965565,1149.143247
59543.420979,-74.020594,-11843.295072,1608.800546
59543.421288,-3256.906145,-9326.594869,-1149.143247
59543.421598,-3849.070898,-9252.574275,-919.314598
59543.421908,-1036.288319,-7254.018232,-459.657299
59543.422217,0.000000,-5995.668130,0.000000
59543.422527,1480.411884,-8364.327145,2451.505594
59543.422837,2294.638420,-14211.954086,4826.401637
59543.423146,-1998.556043,-9548.656652,612.876398
59543.423456,-444.123565,-10732.986159,2451.505594
59543.423766,-1258.350101,-8290.306550,-76.609550
59543.424075,-1998.556043,-7772.162391,459.657299
59543.424385,-444.123565,-6439.791695,0.000000
59543.424695,814.226536,-8882.471304,1149.143247
59543.425004,444.123565,-9474.636058,842.705048
59543.425314,-3552.988522,-10140.821405,0.000000
59543.425624,-3552.988522,-10732.986159,612.876398
59543.425933,-148.041188,-12139.377449,3524.039291
59543.426243,-1850.514855,-8290.306550,-383.047749
59543.426553,-3552.988522,-6883.915261,0.000000
59543.426862,2294.638420,-8290.306550,-76.609550
59543.427172,2812.782580,-8290.306550,2911.162892
59543.427482,2294.638420,-8586.388927,2681.334243
59543.427791,814.226536,-9622.677246,2681.334243
59543.428101,888.247130,-9548.656652,2145.067394
59543.428411,-1406.391290,-6143.709319,0.000000
59543.428720,-4737.318029,-5995.668130,0.000000
59543.429030,-1776.494261,-10732.986159,2451.505594
59543.429340,-370.102971,-7698.141797,-1608.800546
59543.429649,1184.329507,-9548.656652,612.876398
59543.429959,3478.967927,-13027.624579,3294.210641
59543.430269,0.000000,-9548.656652,1455.581446
59543.430578,1110.308913,-10214.842000,1762.019645
59543.430888,444.123565,-8660.409521,919.314598
59543.431198,-1480.411884,-8586.388927,-383.047749
59543.431507,-1850.514855,-8290.306550,-1608.800546
59543.431817,-1628.453072,-6291.750507,-1991.848295
59543.432127,296.082377,-7179.997637,1225.752797
59543.432436,4071.132681,-10658.965565,2374.896044
59543.432746,0.000000,-7772.162391,153.219100
59543.433056,1184.329507,-12805.562797,2681.334243
59543.433365,-2368.659014,-11917.315666,0.000000
59543.433675,-3404.947333,-12139.377449,-1302.362347
59543.433985,-3478.967927,-9770.718434,-995.924147
59543.434294,-74.020594,-7698.141797,-76.609550
59543.434604,3478.967927,-6217.729913,-76.609550
59543.434914,1110.308913,-7402.059420,1149.143247
59543.435223,0.000000,-7179.997637,2451.505594
59543.435533,2886.803174,-12731.542202,3600.648841
59543.435843,-1850.514855,-7624.121203,0.000000
59543.436152,-2368.659014,-9548.656652,1838.629195
59543.436462,-3552.988522,-5995.668130,0.000000
59543.436772,-296.082377,-8068.244768,76.609550
59543.437081,370.102971,-8586.388927,383.047749
59543.437391,-666.185348,-11029.068536,1532.190996
59543.437701,-74.020594,-11843.295072,2374.896044
59543.438010,-74.020594,-10066.800811,1149.143247
59543.438320,-4737.318029,-5403.503377,-2145.067394
59543.438630,-3552.988522,-9548.656652,766.095498
59543.438939,-1258.350101,-6957.935855,-76.609550
59543.439249,0.000000,-5995.668130,306.438199
59543.439559,592.164754,-5403.503377,1225.752797
59543.439868,1332.370696,-7846.182985,2528.115143
59543.440178,1406.391290,-9104.533087,2451.505594
59543.440488,370.102971,-10214.842000,1608.800546
59543.440797,-74.020594,-11251.130318,2374.896044
59543.441107,-3034.844362,-13027.624579,-76.609550
59543.441417,-4515.256246,-5477.523971,-4060.306139
59543.441726,0.000000,-10732.986159,919.314598
59543.442036,1110.308913,-8586.388927,1149.143247
59543.442345,-2368.659014,-7179.997637,0.000000
59543.442655,1702.473667,-8956.491898,1762.019645
59543.442965,592.164754,-9548.656652,1838.629195
59543.443274,-370.102971,-8438.347739,842.705048
59543.443584,-2368.659014,-9474.636058,306.438199
59543.443894,962.267725,-8882.471304,1762.019645
59543.444203,2886.803174,-10658.965565,2374.896044
59543.444513,1110.308913,-7402.059420,-689.485948
59543.444823,0.000000,-10732.986159,2451.505594
59543.445132,2294.638420,-12435.459826,2374.896044
59543.445442,-2368.659014,-10140.821405,0.000000
59543.445751,-1554.432478,-10214.842000,-76.609550
59543.446061,-2960.823768,-9104.533087,0.000000
59543.446371,-518.144159,-6291.750507,0.000000
59543.446680,1776.494261,-6365.771101,1532.190996
59543.446990,2960.823768,-8512.368333,4290.134789
59543.447300,3478.967927,-11621.233289,5209.449386
59543.447609,4663.297435,-11843.295072,3600.648841
59543.447919,0.000000,-9548.656652,1838.629195
59543.448229,-666.185348,-7698.141797,-76.609550
59543.448538,-4589.276840,-5403.503377,-3370.820191
59543.448848,-1258.350101,-8882.471304,-689.485948
59543.449158,-1332.370696,-9400.615463,-1378.971896
59543.449467,-1702.473667,-11473.192101,-689.485948
59543.449777,-1480.411884,-11695.253884,842.705048
59543.450086,-1776.494261,-9548.656652,2451.505594
59543.450396,0.000000,-8956.491898,0.000000
59543.450706,-74.020594,-9474.636058,2374.896044
59543.451015,-3627.009116,-5403.503377,-1072.533697
59543.451325,666.185348,-7179.997637,2987.772442
59543.451635,2294.638420,-5921.647536,-1302.362347
59543.451944,2294.638420,-8290.306550,2221.676944
59543.452254,1036.288319,-9918.759623,2068.457845
59543.452564,1332.370696,-11325.150913,1991.848295
59543.452873,-1406.391290,-11325.150913,612.876398
59543.453183,-4737.318029,-9548.656652,0.000000
59543.453492,-4145.153275,-8364.327145,0.000000
59543.453802,-74.020594,-10658.965565,1149.143247
59543.454112,1110.308913,-7698.141797,-76.609550
59543.454421,0.000000,-9548.656652,2757.943793
59543.454731,3478.967927,-11843.295072,2374.896044
59543.455041,3478.967927,-10955.047942,3524.039291
59543.455350,814.226536,-8956.491898,2834.553343
59543.455660,-1184.329507,-8586.388927,1225.752797
59543.455970,-962.267725,-7105.977043,229.828649
59543.456279,0.000000,-4811.338623,0.000000
59543.456589,0.000000,-5995.668130,0.000000
59543.456899,1184.329507,-10732.986159,2528.115143
59543.457208,2294.638420,-12435.459826,1455.581446
59543.457518,0.000000,-11325.150913,0.000000
59543.457827,-74.020594,-13619.789333,2374.896044
59543.458137,-2812.782580,-13249.686362,1225.752797
59543.458447,-1628.453072,-9178.553681,536.266849
59543.458756,518.144159,-7846.182985,1149.143247
59543.459066,1776.494261,-4589.276840,1532.190996
59543.459376,0.000000,-3034.844362,229.828649
59543.459685,0.000000,-5107.421000,1149.143247
59543.459995,1184.329507,-9548.656652,3677.258390
59543.460305,-1258.350101,-10658.965565,1149.143247
59543.460614,-3849.070898,-13249.686362,1149.143247
59543.460924,-1258.350101,-11843.295072,-76.609550
59543.461233,-3256.906145,-9178.553681,-1225.752797
59543.461543,-1406.391290,-6735.874072,-842.705048
59543.461853,-1184.329507,-7994.224174,153.219100
59543.462162,962.267725,-8586.388927,1608.800546
59543.462472,222.061783,-8808.450710,842.705048
59543.462782,-2368.659014,-8660.409521,-76.609550
59543.463091,-2368.659014,-11917.315666,3064.381992
59543.463401,-74.020594,-7994.224174,1149.143247
59543.463711,0.000000,-4811.338623,612.876398
59543.464020,2886.803174,-7105.977043,2987.772442
59543.464330,0.000000,-5995.668130,919.314598
59543.464640,1702.473667,-9696.697840,1608.800546
59543.464949,296.082377,-11695.253884,842.705048
59543.465259,-3108.864956,-12213.398043,-1149.143247
59543.465568,-3627.009116,-13027.624579,-1302.362347
59543.465878,-2442.679609,-9474.636058,-1302.362347
59543.466188,-2960.823768,-7179.997637,0.000000
59543.466497,2294.638420,-8882.471304,1149.143247
59543.466807,592.164754,-6291.750507,0.000000
59543.467117,5329.482782,-10436.903782,4903.011187
59543.467426,2368.659014,-8660.409521,1838.629195
59543.467736,-222.061783,-8882.471304,536.266849
59543.468046,-2072.576638,-10436.903782,0.000000
59543.468355,-666.185348,-9474.636058,-459.657299
59543.468665,-74.020594,-9474.636058,-76.609550
59543.468974,-74.020594,-11843.295072,-76.609550
59543.469284,-1406.391290,-6735.874072,-1685.410096
59543.469594,1184.329507,-9548.656652,1378.971896
59543.469903,2294.638420,-9474.636058,-76.609550
59543.470213,0.000000,-9548.656652,612.876398
59543.470523,-2220.617826,-9918.759623,76.609550
59543.470832,-962.267725,-9696.697840,306.438199
59543.471142,-592.164754,-9400.615463,766.095498
59543.471452,-444.123565,-8068.244768,612.876398
59543.471761,2294.638420,-9474.636058,3907.087040
59543.472071,4663.297435,-9474.636058,4826.401637
59543.472381,0.000000,-5477.523971,153.219100
59543.472690,-1480.411884,-10140.821405,1915.238745
59543.473000,-3034.844362,-10658.965565,-76.609550
59543.473309,-4737.318029,-9548.656652,0.000000
59543.473619,-2886.803174,-9918.759623,-689.485948
59543.473929,-1776.494261,-8660.409521,306.438199
59543.474238,222.061783,-8216.285956,2298.286494
59543.474548,1998.556043,-7031.956449,2681.334243
59543.474858,2812.782580,-8882.471304,4213.525239
59543.475167,1332.370696,-9844.739029,4136.915689
59543.475477,-1258.350101,-9474.636058,1149.143247
59543.475787,-3552.988522,-9548.656652,0.000000
59543.476096,-1258.350101,-8290.306550,-76.609550
59543.476406,-3552.988522,-5995.668130,0.000000
59543.476715,1110.308913,-8882.471304,1762.019645
59543.477025,1184.329507,-9400.615463,1915.238745
59543.477335,1406.391290,-8290.306550,1915.238745
59543.477644,-592.164754,-9474.636058,1532.190996
59543.477954,-592.164754,-9548.656652,1838.629195
59543.478264,296.082377,-11473.192101,3064.381992
59543.478573,-74.020594,-7698.141797,-689.485948
59543.478883,0.000000,-10732.986159,1838.629195
59543.479193,2294.638420,-10658.965565,3600.648841
59543.479502,0.000000,-5403.503377,306.438199
59543.479812,2294.638420,-6809.894666,1915.238745
59543.480122,296.082377,-7772.162391,1455.581446
59543.480431,-370.102971,-8068.244768,766.095498
59543.480741,-1406.391290,-10807.006753,0.000000
59543.481050,-2368.659014,-10732.986159,0.000000
59543.481360,-3552.988522,-11917.315666,612.876398
59543.481670,1998.556043,-12435.459826,2374.896044
59543.481979,0.000000,-7179.997637,612.876398
59543.482289,3997.112087,-7328.038826,4366.744339
59543.482599,-74.020594,-4737.318029,-995.924147
59543.482908,-444.123565,-8364.327145,919.314598
59543.483218,-1258.350101,-12805.562797,459.657299
59543.483528,-1258.350101,-11769.274478,-229.828649
59543.483837,-2146.597232,-12065.356855,459.657299
59543.484147,-2072.576638,-5995.668130,0.000000
59543.484456,0.000000,-4811.338623,1225.752797
59543.484766,4071.132681,-8290.306550,2987.772442
59543.485076,-1554.432478,-7846.182985,0.000000
59543.485385,-1776.494261,-13619.789333,2374.896044
59543.485695,-1258.350101,-11843.295072,-689.485948
59543.486005,-2146.597232,-10066.800811,0.000000
59543.486314,-2146.597232,-9474.636058,919.314598
59543.486624,-222.061783,-5995.668130,919.314598
59543.486934,814.226536,-6439.791695,1225.752797
59543.487243,0.000000,-4811.338623,0.000000
59543.487553,-3404.947333,-5995.668130,0.000000
59543.487863,-2368.659014,-9548.656652,612.876398
59543.488172,-74.020594,-12435.459826,1149.143247
59543.488482,-1776.494261,-9548.656652,0.000000
59543.488791,-74.020594,-11843.295072,-76.609550
59543.489101,444.123565,-9104.533087,1225.752797
59543.489411,1998.556043,-7402.059420,1149.143247
59543.489720,1184.329507,-7031.956449,919.314598
59543.490030,-370.102971,-7846.182985,459.657299
59543.490340,-1554.432478,-7772.162391,-1225.752797
59543.490649,-74.020594,-9770.718434,-689.485948
59543.490959,0.000000,-10140.821405,612.876398
59543.491269,-74.020594,-11547.212695,842.705048
59543.491578,296.082377,-9548.656652,2757.943793
59543.491888,4663.297435,-8882.471304,2068.457845
59543.492197,0.000000,-6661.853478,0.000000
59543.492507,-518.144159,-8660.409521,153.219100
59543.492817,0.000000,-10288.862594,0.000000
59543.493126,0.000000,-11843.295072,689.485948
59543.493436,-1258.350101,-11843.295072,-76.609550
59543.493746,-74.020594,-9474.636058,-76.609550
59543.494055,0.000000,-8364.327145,1225.752797
59543.494365,3478.967927,-8290.306550,3294.210641
59543.494675,0.000000,-4811.338623,306.438199
59543.494984,2664.741391,-9474.636058,4213.525239
59543.495294,74.020594,-8216.285956,383.047749
59543.495604,-814.226536,-9992.780217,842.705048
59543.495913,-2960.823768,-11473.192101,0.000000
59543.496223,-2812.782580,-12065.356855,612.876398
59543.496532,-74.020594,-11251.130318,2374.896044
59543.496842,2294.638420,-8290.306550,2374.896044
59543.497152,-2368.659014,-4811.338623,0.000000
59543.497461,-74.020594,-7105.977043,2681.334243
59543.497771,-3404.947333,-5995.668130,0.000000
59543.498081,592.164754,-11621.233289,3753.867940
59543.498390,-2516.700203,-11843.295072,919.314598
59543.498700,-2072.576638,-9844.739029,1225.752797
59543.499010,-74.020594,-9030.512492,1762.019645
59543.499319,444.123565,-5255.462188,1302.362347
59543.499629,1110.308913,-7105.977043,2374.896044
59543.499938,-74.020594,-9474.636058,2374.896044
59543.500248,-74.020594,-9474.636058,-689.485948
59543.500558,-2368.659014,-8956.491898,0.000000
59543.500867,-666.185348,-11843.295072,-76.609550
59543.501177,-2368.659014,-9548.656652,1378.971896
59543.501487,666.185348,-9474.636058,1149.143247
59543.501796,1184.329507,-6883.915261,306.438199
59543.502106,962.267725,-7994.224174,1149.143247
59543.502416,1924.535449,-6957.935855,1762.019645
59543.502725,3108.864956,-10362.883188,2911.162892
59543.503035,3478.967927,-11251.130318,-76.609550
59543.503345,-3108.864956,-11029.068536,0.000000
59543.503654,0.000000,-12065.356855,1608.800546
59543.503964,-3552.988522,-9548.656652,0.000000
59543.504273,1184.329507,-9400.615463,2145.067394
59543.504583,-74.020594,-7105.977043,-76.609550
59543.504893,370.102971,-6291.750507,153.219100
59543.505202,1998.556043,-8734.430116,842.705048
59543.505512,518.144159,-10362.883188,612.876398
59543.505822,-74.020594,-14211.954086,2068.457845
59543.506131,-74.020594,-11843.295072,-76.609550
59543.506441,-2368.659014,-8068.244768,0.000000
59543.506751,1110.308913,-7846.182985,3140.991542
59543.507060,-74.020594,-8290.306550,-76.609550
59543.507370,1480.411884,-7402.059420,2604.724693
59543.507679,962.267725,-8364.327145,536.266849
59543.507989,-814.226536,-10066.800811,383.047749
59543.508299,-2442.679609,-12361.439231,766.095498
59543.508608,-1924.535449,-11399.171507,306.438199
59543.508918,-74.020594,-10658.965565,1455.581446
59543.509228,-4145.153275,-5403.503377,0.000000
59543.509537,-74.020594,-8808.450710,2528.115143
59543.509847,1110.308913,-6513.812290,842.705048
59543.510157,0.000000,-7772.162391,2451.505594
59543.510466,-1702.473667,-8660.409521,383.047749
59543.510776,-3256.906145,-11029.068536,229.828649
59543.511086,-1332.370696,-11695.253884,1149.143247
59543.511395,-1258.350101,-9400.615463,842.705048
59543.511705,-1258.350101,-7846.182985,689.485948
59543.512014,888.247130,-7179.997637,2757.943793
59543.512324,2368.659014,-6587.832884,3677.258390
59543.512634,3478.967927,-9474.636058,2374.896044
59543.512943,-1850.514855,-8660.409521,0.000000
