#time,accel_x,accel_y,accel_z
163563.784760,-74.020594,-9474.636058,-919.314598
163563.785080,2294.638420,-10658.965565,-689.485948
163563.785400,-1406.391290,-8956.491898,-1532.190996
163563.785720,592.164754,-9844.739029,0.000000
163563.786040,2072.576638,-11621.233289,2374.896044
163563.786360,0.000000,-8364.327145,0.000000
163563.786679,592.164754,-9548.656652,-76.609550
163563.786999,814.226536,-9252.574275,306.438199
163563.787319,666.185348,-9326.594869,459.657299
163563.787639,1554.432478,-9474.636058,536.266849
163563.787959,0.000000,-9548.656652,612.876398
163563.788279,814.226536,-9918.759623,842.705048
163563.788598,-74.020594,-11843.295072,-76.609550
163563.788918,-370.102971,-9178.553681,-76.609550
163563.789238,-888.247130,-10732.986159,2451.505594
163563.789558,-814.226536,-8438.347739,-306.438199
163563.789878,-740.205942,-8586.388927,0.000000
163563.790198,-888.247130,-8808.450710,-76.609550
163563.790517,-2664.741391,-7772.162391,-2451.505594
163563.790837,-2220.617826,-8142.265362,-1532.190996
163563.791157,-2368.659014,-8734.430116,-1225.752797
163563.791477,-1776.494261,-9548.656652,0.000000
163563.791797,-74.020594,-9474.636058,-1302.362347
163563.792117,-74.020594,-10658.965565,1149.143247
163563.792436,-1776.494261,-9548.656652,0.000000
163563.792756,0.000000,-9548.656652,-459.657299
163563.793076,296.082377,-9326.594869,-306.438199
163563.793396,222.061783,-9030.512492,0.000000
163563.793716,-666.185348,-7476.080014,-2834.553343
163563.794036,296.082377,-9252.574275,-76.609550
163563.794355,-1850.514855,-7179.997637,-2298.286494
163563.794675,0.000000,-8660.409521,0.000000
163563.794995,740.205942,-9918.759623,0.000000
163563.795315,0.000000,-8364.327145,612.876398
163563.795635,814.226536,-9326.594869,229.828649
163563.795954,592.164754,-8660.409521,459.657299
163563.796274,296.082377,-8956.491898,229.828649
163563.796594,-296.082377,-7920.203579,-459.657299
163563.796914,-74.020594,-10362.883188,612.876398
163563.797234,-2368.659014,-7179.997637,0.000000
163563.797554,-74.020594,-10066.800811,-76.609550
163563.797873,-74.020594,-11547.212695,-76.609550
163563.798193,-3701.029710,-7179.997637,-3524.039291
163563.798513,-666.185348,-9474.636058,-995.924147
163563.798833,-1184.329507,-9844.739029,-383.047749
163563.799153,-962.267725,-9548.656652,-612.876398
163563.799473,-888.247130,-9252.574275,-383.047749
163563.799792,1036.288319,-11251.130318,2834.553343
163563.800112,0.000000,-8882.471304,-306.438199
163563.800432,814.226536,-9770.718434,-76.609550
163563.800752,-74.020594,-8142.265362,-1762.019645
163563.801072,0.000000,-9548.656652,0.000000
163563.801392,2294.638420,-11251.130318,-76.609550
163563.801711,0.000000,-9548.656652,-536.266849
163563.802031,444.123565,-9548.656652,-76.609550
163563.802351,962.267725,-9252.574275,229.828649
163563.802671,962.267725,-8956.491898,2221.676944
163563.802991,0.000000,-5995.668130,0.000000
163563.803311,740.205942,-9400.615463,459.657299
163563.803630,814.226536,-8586.388927,766.095498
163563.803950,0.000000,-8882.471304,612.876398
163563.804270,-74.020594,-9474.636058,-76.609550
163563.804590,-814.226536,-9178.553681,-536.266849
163563.804910,-1036.288319,-9548.656652,612.876398
163563.805230,-222.061783,-10362.883188,1762.019645
163563.805549,-74.020594,-9474.636058,-689.485948
163563.805869,-2368.659014,-9548.656652,1225.752797
163563.806189,-1998.556043,-7476.080014,-1225.752797
163563.806509,-962.267725,-8882.471304,-306.438199
163563.806829,-1258.350101,-8808.450710,-612.876398
163563.807148,-888.247130,-9178.553681,-459.657299
163563.807468,-74.020594,-9178.553681,-689.485948
163563.807788,-666.185348,-9474.636058,-689.485948
163563.808108,0.000000,-9844.739029,0.000000
163563.808428,-74.020594,-9474.636058,-689.485948
163563.808748,-1184.329507,-8364.327145,-1838.629195
163563.809067,0.000000,-9548.656652,0.000000
163563.809387,518.144159,-9474.636058,-689.485948
163563.809707,814.226536,-9326.594869,0.000000
163563.810027,814.226536,-8956.491898,76.609550
163563.810347,740.205942,-7772.162391,-689.485948
163563.810667,1998.556043,-9474.636058,-689.485948
163563.810986,444.123565,-9474.636058,-76.609550
163563.811306,-370.102971,-7920.203579,-1072.533697
163563.811626,-1184.329507,-8956.491898,0.000000
163563.811946,1554.432478,-11177.109724,1762.019645
163563.812266,-2960.823768,-7772.162391,0.000000
163563.812586,-370.102971,-9252.574275,0.000000
163563.812905,-962.267725,-9326.594869,-612.876398
163563.813225,-962.267725,-9400.615463,0.000000
163563.813545,-74.020594,-9178.553681,-76.609550
163563.813865,-74.020594,-9474.636058,1149.143247
163563.814185,-74.020594,-9474.636058,-76.609550
163563.814505,-1850.514855,-8660.409521,-1225.752797
163563.814824,-3552.988522,-7772.162391,-2451.505594
163563.815144,0.000000,-9844.739029,1838.629195
163563.815464,0.000000,-8364.327145,-1225.752797
163563.815784,962.267725,-9548.656652,-459.657299
163563.816104,1036.288319,-9178.553681,-306.438199
163563.816424,1480.411884,-9548.656652,-383.047749
163563.816743,1702.473667,-8882.471304,-1149.143247
163563.817063,888.247130,-8660.409521,-1072.533697
163563.817383,3034.844362,-10362.883188,306.438199
163563.817703,4663.297435,-10658.965565,-76.609550
163563.818023,2368.659014,-8068.244768,306.438199
163563.818342,2516.700203,-8956.491898,2451.505594
163563.818662,4441.235652,-9252.574275,383.047749
163563.818982,4737.318029,-9030.512492,842.705048
163563.819302,4959.379811,-9104.533087,919.314598
163563.819622,3849.070898,-7179.997637,0.000000
163563.819942,5255.462188,-8586.388927,-76.609550
163563.820261,5625.565159,-9474.636058,-76.609550
163563.820581,2960.823768,-7772.162391,-2145.067394
163563.820901,3849.070898,-8660.409521,-919.314598
163563.821221,5773.606348,-11103.089130,1149.143247
163563.821541,2664.741391,-8364.327145,-1225.752797
163563.821861,5995.668130,-9178.553681,-919.314598
163563.822180,7105.977043,-8882.471304,-76.609550
163563.822500,7105.977043,-9178.553681,-76.609550
163563.822820,7031.956449,-8882.471304,-689.485948
163563.823140,4885.359217,-11029.068536,0.000000
163563.823460,4071.132681,-13027.624579,-689.485948
163563.823780,1480.411884,-11917.315666,-766.095498
163563.824099,0.000000,-9548.656652,0.000000
163563.824419,4737.318029,-11621.233289,2528.115143
163563.824739,3923.091493,-7179.997637,306.438199
163563.825059,4663.297435,-6217.729913,459.657299
163563.825379,4885.359217,-5033.400406,-536.266849
163563.825699,4885.359217,-5107.421000,-2451.505594
163563.826018,5773.606348,-7328.038826,-3677.258390
163563.826338,3552.988522,-8956.491898,-2145.067394
163563.826658,4441.235652,-13101.645173,0.000000
163563.826978,4663.297435,-16580.613101,1149.143247
163563.827298,3478.967927,-16580.613101,2374.896044
163563.827618,2960.823768,-13693.809927,4290.134789
163563.827937,3034.844362,-9548.656652,2374.896044
163563.828257,2516.700203,-6069.688724,536.266849
163563.828577,1776.494261,-4663.297435,-766.095498
163563.828897,592.164754,-3627.009116,-2451.505594
163563.829217,1480.411884,-5403.503377,-1302.362347
163563.829537,0.000000,-7698.141797,-689.485948
163563.829856,-3182.885551,-7550.100608,-2221.676944
163563.830176,-4737.318029,-9696.697840,-1838.629195
163563.830496,-74.020594,-13027.624579,-76.609550
163563.830816,0.000000,-9548.656652,0.000000
163563.831136,1480.411884,-9844.739029,536.266849
163563.831455,1110.308913,-10214.842000,229.828649
163563.831775,1332.370696,-9918.759623,1149.143247
163563.832095,1406.391290,-6957.935855,-842.705048
163563.832415,1406.391290,-9474.636058,-383.047749
163563.832735,-814.226536,-8290.306550,-5132.839837
163563.833055,-1628.453072,-8956.491898,-5209.449386
163563.833374,0.000000,-11325.150913,-2221.676944
163563.833694,0.000000,-10732.986159,1225.752797
163563.834014,2294.638420,-11547.212695,2374.896044
163563.834334,1924.535449,-7624.121203,1225.752797
163563.834654,2738.761985,-7476.080014,76.609550
163563.834974,5255.462188,-8290.306550,2374.896044
163563.835293,7031.956449,-8142.265362,5592.497135
163563.835613,6513.812290,-5403.503377,5209.449386
163563.835933,5329.482782,-4811.338623,0.000000
163563.836253,0.000000,-6291.750507,-4136.915689
163563.836573,-2960.823768,-10140.821405,-8580.269578
163563.836893,-1258.350101,-14211.954086,-4979.620737
163563.837212,-1850.514855,-14508.036463,-4290.134789
163563.837532,-2146.597232,-12731.542202,-3677.258390
163563.837852,-592.164754,-11547.212695,-3370.820191
163563.838172,6217.729913,-12509.480420,3524.039291
163563.838492,11103.089130,-7179.997637,5822.325785
163563.838812,13915.871710,-3997.112087,9269.755526
163563.839131,10362.883188,-1628.453072,5898.935335
163563.839451,6809.894666,-2442.679609,0.000000
163563.839771,3034.844362,-6439.791695,-2451.505594
163563.840091,4071.132681,-11843.295072,-842.705048
163563.840411,-1184.329507,-12509.480420,-3600.648841
163563.840731,-2146.597232,-14952.160028,-4903.011187
163563.841050,-1850.514855,-15988.448347,-7431.126331
163563.841370,0.000000,-14285.974681,-3064.381992
163563.841690,3182.885551,-10955.047942,-1685.410096
163563.842010,5625.565159,-8660.409521,383.047749
163563.842330,7105.977043,-6809.894666,2221.676944
163563.842649,8068.244768,-4737.318029,3370.820191
163563.842969,7698.141797,-4515.256246,4443.353888
163563.843289,7994.224174,-6809.894666,7507.735880
163563.843609,9992.780217,-9326.594869,8963.317327
163563.843929,7031.956449,-7105.977043,3447.429741
163563.844249,3923.091493,-9474.636058,-76.609550
163563.844568,-2960.823768,-10732.986159,-5362.668486
163563.844888,-3923.091493,-13989.892304,-6205.373534
163563.845208,-3552.988522,-14952.160028,-6205.373534
163563.845528,-3182.885551,-14285.974681,-5439.278036
163563.845848,-2960.823768,-10732.986159,-4903.011187
163563.846168,0.000000,-8586.388927,-2374.896044
163563.846487,2960.823768,-7179.997637,1532.190996
163563.846807,7031.956449,-7698.141797,2987.772442
163563.847127,6735.874072,-5329.482782,3907.087040
163563.847447,7624.121203,-8290.306550,6971.469032
163563.847767,4293.194464,-6883.915261,2757.943793
163563.848087,2516.700203,-8882.471304,153.219100
163563.848406,-370.102971,-9696.697840,-1608.800546
163563.848726,-3404.947333,-10732.986159,-4903.011187
163563.849046,-3849.070898,-10732.986159,-5286.058936
163563.849366,-74.020594,-12731.542202,-3140.991542
163563.849686,0.000000,-10732.986159,-1225.752797
163563.850006,2960.823768,-8068.244768,0.000000
163563.850325,5847.626942,-8290.306550,2987.772442
163563.850645,4737.318029,-7328.038826,2757.943793
163563.850965,4959.379811,-6513.812290,3064.381992
163563.851285,3256.906145,-6735.874072,1762.019645
163563.851605,1628.453072,-8438.347739,919.314598
163563.851925,0.000000,-7698.141797,-1915.238745
163563.852244,-888.247130,-9548.656652,-3064.381992
163563.852564,-74.020594,-11695.253884,-3753.867940
163563.852884,296.082377,-11843.295072,-2528.115143
163563.853204,1406.391290,-10658.965565,-2604.724693
163563.853524,5847.626942,-11843.295072,2374.896044
163563.853843,3552.988522,-9400.615463,612.876398
163563.854163,4589.276840,-9400.615463,2528.115143
163563.854483,5847.626942,-8142.265362,3064.381992
163563.854803,6439.791695,-7550.100608,3983.696590
163563.855123,4737.318029,-6587.832884,1838.629195
163563.855443,2072.576638,-6143.709319,-612.876398
163563.855762,-1036.288319,-9844.739029,-2528.115143
163563.856082,-666.185348,-10362.883188,-5592.497135
163563.856402,148.041188,-10066.800811,-5592.497135
163563.856722,3330.926739,-14211.954086,-1302.362347
163563.857042,3552.988522,-12139.377449,-1149.143247
163563.857361,3701.029710,-10807.006753,0.000000
163563.857681,5921.647536,-11917.315666,3524.039291
163563.858001,5921.647536,-7179.997637,4903.011187
163563.858320,6513.812290,-7179.997637,4596.572988
163563.858640,2960.823768,-3034.844362,1532.190996
163563.858960,2368.659014,-5403.503377,612.876398
163563.859279,2294.638420,-9104.533087,-76.609550
163563.859599,3478.967927,-9474.636058,-1302.362347
163563.859919,2072.576638,-11029.068536,-2145.067394
163563.860238,-1258.350101,-10362.883188,-4903.011187
163563.860558,222.061783,-12213.398043,-3140.991542
163563.860878,1036.288319,-11843.295072,-1072.533697
163563.861198,1480.411884,-9548.656652,0.000000
163563.861517,5847.626942,-9474.636058,2374.896044
163563.861837,1332.370696,-6809.894666,0.000000
163563.862157,888.247130,-7179.997637,0.000000
163563.862476,5181.441594,-8364.327145,2604.724693
163563.862796,7624.121203,-9474.636058,3600.648841
163563.863116,4145.153275,-7328.038826,766.095498
163563.863435,2590.720797,-9474.636058,-1532.190996
163563.863755,1332.370696,-11325.150913,-1915.238745
163563.864075,2960.823768,-12509.480420,0.000000
163563.864394,1480.411884,-10140.821405,-1838.629195
163563.864714,1480.411884,-11843.295072,-1149.143247
163563.865034,2886.803174,-11843.295072,-229.828649
163563.865353,1998.556043,-8068.244768,-1149.143247
163563.865673,3997.112087,-7179.997637,76.609550
163563.865993,5847.626942,-9178.553681,2987.772442
163563.866312,4219.173869,-8660.409521,2987.772442
163563.866632,4441.235652,-6513.812290,2451.505594
163563.866952,3775.050304,-8216.285956,1685.410096
163563.867272,1184.329507,-6587.832884,1225.752797
163563.867591,740.205942,-8438.347739,-766.095498
163563.867911,0.000000,-8364.327145,-2451.505594
163563.868231,2368.659014,-9844.739029,-2451.505594
163563.868550,1110.308913,-12435.459826,-1991.848295
163563.868870,-74.020594,-11843.295072,-4979.620737
163563.869190,370.102971,-11547.212695,-995.924147
163563.869509,-518.144159,-9178.553681,-1685.410096
163563.869829,0.000000,-8882.471304,-229.828649
163563.870149,2072.576638,-8364.327145,383.047749
163563.870468,2368.659014,-5403.503377,1838.629195
163563.870788,8216.285956,-6513.812290,2374.896044
163563.871108,5329.482782,-6143.709319,1991.848295
163563.871427,6513.812290,-9400.615463,919.314598
163563.871747,3997.112087,-11103.089130,-76.609550
163563.872067,0.000000,-12805.562797,-1072.533697
163563.872387,-2368.659014,-11251.130318,-5362.668486
163563.872706,-296.082377,-13101.645173,-4979.620737
163563.873026,2738.761985,-11029.068536,-2374.896044
163563.873346,1184.329507,-9548.656652,-3370.820191
163563.873665,1480.411884,-11029.068536,1225.752797
163563.873985,2220.617826,-8882.471304,536.266849
163563.874305,1702.473667,-9474.636058,3600.648841
163563.874624,1480.411884,-4811.338623,766.095498
163563.874944,2368.659014,-7179.997637,4903.011187
163563.875264,5403.503377,-5699.585753,3677.258390
163563.875583,1332.370696,-6883.915261,1455.581446
163563.875903,148.041188,-11325.150913,2221.676944
163563.876223,-1850.514855,-9474.636058,-3600.648841
163563.876542,-5107.421000,-11251.130318,-4979.620737
163563.876862,-9104.533087,-11843.295072,-6435.202183
163563.877182,-6291.750507,-12879.583391,-5745.716235
163563.877501,-2146.597232,-10362.883188,-3140.991542
163563.877821,0.000000,-9844.739029,612.876398
163563.878141,-1776.494261,-11843.295072,2374.896044
163563.878461,-2368.659014,-4811.338623,0.000000
163563.878780,0.000000,-7179.997637,2757.943793
163563.879100,1110.308913,-8290.306550,2374.896044
163563.879420,0.000000,-7179.997637,1302.362347
163563.879739,4071.132681,-9474.636058,4519.963438
163563.880059,296.082377,-8882.471304,1225.752797
163563.880379,-2220.617826,-10807.006753,-1225.752797
163563.880698,-5921.647536,-10955.047942,-3217.601092
163563.881018,-9178.553681,-11843.295072,-3753.867940
163563.881338,-6957.935855,-11177.109724,-2757.943793
163563.881657,-4737.318029,-9548.656652,-3064.381992
163563.881977,-2368.659014,-7179.997637,612.876398
163563.882297,3256.906145,-7402.059420,5132.839837
163563.882616,3478.967927,-5921.647536,2374.896044
163563.882936,-74.020594,-8290.306550,2681.334243
163563.883256,-3330.926739,-8068.244768,153.219100
163563.883575,-5255.462188,-8512.368333,-2145.067394
163563.883895,-4885.359217,-9992.780217,-1302.362347
163563.884215,-1850.514855,-12065.356855,536.266849
163563.884535,-444.123565,-11251.130318,-76.609550
163563.884854,-1258.350101,-9770.718434,-3140.991542
163563.885174,-3552.988522,-9844.739029,-2451.505594
163563.885494,-2146.597232,-9030.512492,-3677.258390
163563.885813,-1258.350101,-8290.306550,-3753.867940
163563.886133,-518.144159,-9992.780217,-536.266849
163563.886453,2590.720797,-9104.533087,1532.190996
163563.886772,4959.379811,-7476.080014,2757.943793
163563.887092,6587.832884,-9696.697840,6665.030833
163563.887412,5329.482782,-7772.162391,1225.752797
163563.887731,1776.494261,-10066.800811,1378.971896
163563.888051,-1258.350101,-10214.842000,-2221.676944
163563.888371,-2516.700203,-12435.459826,-2528.115143
163563.888690,-2664.741391,-9548.656652,-4903.011187
163563.889010,3478.967927,-10955.047942,-383.047749
163563.889330,5477.523971,-9548.656652,842.705048
163563.889649,4367.215058,-8882.471304,1608.800546
163563.889969,2072.576638,-7624.121203,76.609550
163563.890289,-1184.329507,-7772.162391,-689.485948
163563.890609,0.000000,-7179.997637,-2451.505594
163563.890928,1184.329507,-9696.697840,383.047749
163563.891248,3552.988522,-9548.656652,2451.505594
163563.891568,4663.297435,-10658.965565,2374.896044
163563.891887,1110.308913,-7402.059420,-2451.505594
163563.892207,-814.226536,-9474.636058,-2221.676944
163563.892527,-4515.256246,-11029.068536,-4136.915689
163563.892846,-3849.070898,-10584.944971,-4366.744339
163563.893166,-814.226536,-11547.212695,-689.485948
163563.893486,3330.926739,-11251.130318,2374.896044
163563.893805,3775.050304,-8882.471304,1762.019645
163563.894125,4071.132681,-9474.636058,1762.019645
163563.894445,0.000000,-7772.162391,919.314598
163563.894764,-2960.823768,-8364.327145,0.000000
163563.895084,-3627.009116,-8068.244768,-3294.210641
163563.895404,-3034.844362,-11399.171507,-995.924147
163563.895724,-370.102971,-10362.883188,1072.533697
163563.896043,1406.391290,-8586.388927,153.219100
163563.896363,-74.020594,-11547.212695,2374.896044
163563.896683,1036.288319,-9548.656652,0.000000
163563.897002,1184.329507,-8956.491898,-76.609550
163563.897322,-3775.050304,-9474.636058,-995.924147
163563.897642,-3627.009116,-11251.130318,-76.609550
163563.897961,-4737.318029,-7179.997637,0.000000
163563.898281,2294.638420,-8290.306550,536.266849
163563.898601,1406.391290,-9474.636058,2451.505594
163563.898920,-2960.823768,-9992.780217,0.000000
163563.899240,-4367.215058,-7920.203579,-919.314598
163563.899560,-2960.823768,-9548.656652,0.000000
163563.899879,-5773.606348,-7772.162391,-4290.134789
163563.900199,-2812.782580,-9474.636058,-459.657299
163563.900519,-74.020594,-12435.459826,4519.963438
163563.900838,3182.885551,-8882.471304,4060.306139
163563.901158,0.000000,-4811.338623,0.000000
163563.901478,-2442.679609,-8512.368333,-612.876398
163563.901798,-4071.132681,-9992.780217,-2068.457845
163563.902117,-3182.885551,-9474.636058,-3447.429741
163563.902437,-74.020594,-11843.295072,-2528.115143
163563.902757,1702.473667,-11843.295072,-76.609550
163563.903076,1480.411884,-10140.821405,0.000000
163563.903396,0.000000,-8364.327145,0.000000
163563.903716,-1480.411884,-9104.533087,-919.314598
163563.904035,-2960.823768,-9548.656652,0.000000
163563.904355,-3256.906145,-8364.327145,-2757.943793
163563.904675,2220.617826,-8808.450710,995.924147
163563.904994,4737.318029,-7772.162391,3600.648841
163563.905314,5847.626942,-8364.327145,3753.867940
163563.905634,5847.626942,-9474.636058,2374.896044
163563.905953,222.061783,-9326.594869,0.000000
163563.906273,-1554.432478,-11843.295072,-2374.896044
163563.906593,-5551.544565,-11251.130318,-4519.963438
163563.906912,-4737.318029,-11029.068536,-4290.134789
163563.907232,1110.308913,-10658.965565,-2221.676944
163563.907552,3775.050304,-8586.388927,1532.190996
163563.907872,3034.844362,-8216.285956,1608.800546
163563.908191,888.247130,-6809.894666,0.000000
163563.908511,-1850.514855,-8882.471304,-76.609550
163563.908831,-2368.659014,-8142.265362,-995.924147
163563.909150,-1998.556043,-7476.080014,-1532.190996
163563.909470,2072.576638,-9548.656652,1225.752797
163563.909790,4663.297435,-11843.295072,4826.401637
163563.910109,4663.297435,-9474.636058,-76.609550
163563.910429,2146.597232,-9474.636058,-76.609550
163563.910749,-2886.803174,-11251.130318,-2834.553343
163563.911068,-2146.597232,-10066.800811,-2757.943793
163563.911388,-740.205942,-10584.944971,-1378.971896
163563.911708,0.000000,-7772.162391,0.000000
163563.912027,3034.844362,-8586.388927,612.876398
163563.912347,4071.132681,-9918.759623,3370.820191
163563.912667,4663.297435,-9326.594869,2374.896044
163563.912986,-1554.432478,-7846.182985,383.047749
163563.913306,-2368.659014,-9844.739029,1532.190996
163563.913626,-2664.741391,-8364.327145,-1225.752797
163563.913946,296.082377,-9622.677246,0.000000
163563.914265,370.102971,-8882.471304,612.876398
163563.914585,222.061783,-9992.780217,0.000000
163563.914905,-1554.432478,-8882.471304,-1915.238745
163563.915224,-5551.544565,-10066.800811,-3983.696590
163563.915544,-6883.915261,-11177.109724,-4749.792088
163563.915864,-4737.318029,-10807.006753,-2757.943793
163563.916183,-296.082377,-9844.739029,0.000000
163563.916503,1776.494261,-8364.327145,1225.752797
163563.916823,2960.823768,-8364.327145,2451.505594
163563.917142,3775.050304,-9030.512492,3600.648841
163563.917462,-74.020594,-10362.883188,-76.609550
163563.917782,-5773.606348,-7179.997637,-4903.011187
163563.918101,-3627.009116,-10955.047942,-1915.238745
163563.918421,0.000000,-9030.512492,-612.876398
163563.918741,1924.535449,-9474.636058,1225.752797
163563.919061,2368.659014,-9252.574275,2374.896044
163563.919380,1406.391290,-9474.636058,1762.019645
163563.919700,-2368.659014,-7772.162391,-1225.752797
163563.920020,-3552.988522,-7402.059420,-2528.115143
163563.920339,-4145.153275,-7772.162391,-2298.286494
163563.920659,0.000000,-9030.512492,1378.971896
163563.920979,518.144159,-5995.668130,0.000000
163563.921298,1924.535449,-8808.450710,1608.800546
163563.921618,0.000000,-8290.306550,766.095498
163563.921938,-1924.535449,-8068.244768,-995.924147
163563.922257,-3108.864956,-9474.636058,-1302.362347
163563.922577,-1628.453072,-11843.295072,-76.609550
163563.922897,-1184.329507,-10732.986159,1225.752797
163563.923216,1110.308913,-9474.636058,-76.609550
163563.923536,1776.494261,-9104.533087,919.314598
163563.923856,1184.329507,-9548.656652,612.876398
163563.924175,518.144159,-7476.080014,-2451.505594
163563.924495,-2146.597232,-10510.924376,-2834.553343
163563.924815,-2146.597232,-11769.274478,-2834.553343
163563.925135,0.000000,-10214.842000,-1838.629195
163563.925454,2294.638420,-11843.295072,-76.609550
163563.925774,0.000000,-9844.739029,0.000000
163563.926094,4367.215058,-11547.212695,1455.581446
163563.926413,1702.473667,-7846.182985,689.485948
163563.926733,2294.638420,-7698.141797,-689.485948
163563.927053,-2368.659014,-5995.668130,0.000000
163563.927372,1406.391290,-8882.471304,229.828649
163563.927692,2146.597232,-9400.615463,1302.362347
163563.928012,1628.453072,-9400.615463,1915.238745
163563.928331,444.123565,-9252.574275,1225.752797
163563.928651,-814.226536,-8808.450710,-689.485948
163563.928971,-4737.318029,-8956.491898,-3677.258390
163563.929290,-4737.318029,-8660.409521,-4749.792088
163563.929610,-2368.659014,-9696.697840,0.000000
163563.929930,814.226536,-8734.430116,1762.019645
163563.930249,0.000000,-5995.668130,0.000000
163563.930569,1406.391290,-7994.224174,1072.533697
163563.930889,0.000000,-7624.121203,536.266849
163563.931209,-1776.494261,-8142.265362,-459.657299
163563.931528,-1850.514855,-9474.636058,-1302.362347
163563.931848,-74.020594,-11251.130318,-76.609550
163563.932168,-1850.514855,-9474.636058,-76.609550
163563.932487,-1776.494261,-8364.327145,0.000000
163563.932807,1036.288319,-9844.739029,306.438199
163563.933127,592.164754,-8956.491898,766.095498
163563.933446,-2738.761985,-8364.327145,-2834.553343
163563.933766,-2886.803174,-10214.842000,-2221.676944
163563.934086,-2516.700203,-11029.068536,-1991.848295
163563.934405,-814.226536,-10658.965565,-306.438199
163563.934725,3478.967927,-11843.295072,2374.896044
163563.935045,2368.659014,-8364.327145,2451.505594
163563.935364,2886.803174,-8290.306550,1149.143247
163563.935684,-1184.329507,-8068.244768,0.000000
163563.936004,-4737.318029,-7772.162391,-2451.505594
163563.936324,-3552.988522,-9548.656652,0.000000
163563.936643,-1406.391290,-9770.718434,-1455.581446
163563.936963,-444.123565,-9844.739029,-1149.143247
163563.937283,-1258.350101,-9918.759623,-383.047749
163563.937602,444.123565,-7476.080014,-1685.410096
163563.937922,-666.185348,-8808.450710,-1915.238745
163563.938242,-3552.988522,-8068.244768,-3064.381992
163563.938561,-2960.823768,-9548.656652,-3677.258390
163563.938881,-74.020594,-10658.965565,1072.533697
163563.939201,1110.308913,-10658.965565,2374.896044
163563.939520,0.000000,-8364.327145,1225.752797
163563.939840,814.226536,-8216.285956,536.266849
163563.940160,296.082377,-8882.471304,459.657299
163563.940479,-666.185348,-8808.450710,-612.876398
163563.940799,-74.020594,-9474.636058,-1455.581446
163563.941119,-74.020594,-9474.636058,-536.266849
163563.941438,0.000000,-10066.800811,-1302.362347
163563.941758,74.020594,-8956.491898,-1149.143247
163563.942078,1184.329507,-9992.780217,612.876398
163563.942398,592.164754,-10881.027347,2681.334243
163563.942717,0.000000,-7476.080014,-1838.629195
163563.943037,0.000000,-10436.903782,383.047749
163563.943357,962.267725,-7772.162391,995.924147
163563.943676,-666.185348,-8290.306550,842.705048
163563.943996,-74.020594,-8882.471304,1762.019645
163563.944316,2294.638420,-9474.636058,2068.457845
163563.944635,-666.185348,-8216.285956,-995.924147
163563.944955,-1184.329507,-9548.656652,-612.876398
163563.945275,-1776.494261,-9548.656652,1225.752797
163563.945594,-4737.318029,-7179.997637,-2451.505594
163563.945914,-296.082377,-9548.656652,-2068.457845
163563.946234,-1184.329507,-9844.739029,-842.705048
163563.946553,-666.185348,-8660.409521,0.000000
163563.946873,-370.102971,-9474.636058,-76.609550
163563.947193,-1258.350101,-9178.553681,-766.095498
163563.947512,-1480.411884,-9104.533087,-995.924147
163563.947832,1480.411884,-8364.327145,1225.752797
163563.948152,3478.967927,-9474.636058,2374.896044
163563.948472,-74.020594,-7402.059420,-1608.800546
163563.948791,-74.020594,-10658.965565,-76.609550
163563.949111,-1702.473667,-9326.594869,-1838.629195
163563.949431,-1480.411884,-11325.150913,-2221.676944
163563.949750,-2146.597232,-10732.986159,-1378.971896
163563.950070,0.000000,-9844.739029,2451.505594
163563.950390,222.061783,-8586.388927,383.047749
163563.950709,1850.514855,-8290.306550,459.657299
163563.951029,1184.329507,-7550.100608,1225.752797
163563.951349,-148.041188,-8364.327145,919.314598
163563.951668,814.226536,-7105.977043,-1302.362347
163563.951988,-666.185348,-8438.347739,-1915.238745
163563.952308,-1776.494261,-9548.656652,0.000000
163563.952627,-592.164754,-9326.594869,919.314598
163563.952947,-666.185348,-10658.965565,-76.609550
163563.953267,-2368.659014,-8364.327145,-1225.752797
163563.953586,-2146.597232,-8586.388927,-2451.505594
163563.953906,-2812.782580,-9548.656652,-2834.553343
163563.954226,-2368.659014,-9400.615463,-1532.190996
163563.954546,-962.267725,-9770.718434,-1915.238745
163563.954865,1702.473667,-9474.636058,-76.609550
163563.955185,1702.473667,-8882.471304,-76.609550
163563.955505,444.123565,-7846.182985,-76.609550
163563.955824,0.000000,-8364.327145,1838.629195
163563.956144,1702.473667,-11621.233289,2068.457845
163563.956464,-2072.576638,-8956.491898,-1838.629195
163563.956784,-444.123565,-10066.800811,-1225.752797
163563.957103,518.144159,-10214.842000,0.000000
163563.957423,1406.391290,-10807.006753,153.219100
163563.957743,0.000000,-7476.080014,0.000000
163563.958063,222.061783,-8364.327145,0.000000
163563.958382,0.000000,-7772.162391,306.438199
163563.958702,3775.050304,-10066.800811,1149.143247
163563.959022,2886.803174,-9474.636058,2757.943793
163563.959341,2368.659014,-9400.615463,4290.134789
163563.959661,-888.247130,-9030.512492,919.314598
163563.959981,-2294.638420,-8660.409521,-1455.581446
163563.960301,-2738.761985,-9178.553681,-1072.533697
163563.960620,-3923.091493,-7772.162391,-3370.820191
163563.960940,-2442.679609,-7179.997637,-3677.258390
163563.961260,-1702.473667,-9178.553681,-2145.067394
163563.961580,0.000000,-8956.491898,0.000000
163563.961899,518.144159,-10140.821405,0.000000
163563.962219,2294.638420,-11843.295072,2987.772442
163563.962539,-74.020594,-8882.471304,-229.828649
163563.962859,-1628.453072,-8512.368333,-2145.067394
163563.963178,-1036.288319,-9178.553681,-1225.752797
163563.963498,222.061783,-10658.965565,-229.828649
163563.963818,0.000000,-8660.409521,536.266849
163563.964138,-74.020594,-10658.965565,-76.609550
163563.964457,-1628.453072,-8512.368333,0.000000
163563.964777,592.164754,-7179.997637,-2145.067394
163563.965097,0.000000,-8068.244768,612.876398
163563.965417,2294.638420,-9474.636058,-76.609550
163563.965736,0.000000,-8956.491898,0.000000
163563.966056,1554.432478,-8808.450710,919.314598
163563.966376,740.205942,-9326.594869,995.924147
163563.966696,-296.082377,-9400.615463,2068.457845
163563.967015,-1332.370696,-8660.409521,153.219100
163563.967335,-1258.350101,-10658.965565,-1915.238745
163563.967655,-2738.761985,-10658.965565,-3140.991542
163563.967975,-4145.153275,-9548.656652,0.000000
163563.968294,962.267725,-7772.162391,76.609550
163563.968614,3478.967927,-11251.130318,2374.896044
163563.968934,148.041188,-8364.327145,306.438199
163563.969254,-1184.329507,-8290.306550,0.000000
163563.969573,-592.164754,-7772.162391,229.828649
163563.969893,-2368.659014,-7179.997637,-1225.752797
163563.970213,-3256.906145,-9548.656652,0.000000
163563.970533,0.000000,-9548.656652,0.000000
163563.970852,-74.020594,-10362.883188,-1302.362347
163563.971172,-2368.659014,-10140.821405,-919.314598
163563.971492,-2442.679609,-10066.800811,-4366.744339
163563.971812,-3034.844362,-11251.130318,-995.924147
163563.972131,-592.164754,-8956.491898,-1532.190996
163563.972451,1776.494261,-9030.512492,459.657299
163563.972771,4589.276840,-8216.285956,2911.162892
163563.973091,1184.329507,-5403.503377,2451.505594
163563.973410,814.226536,-5699.585753,1378.971896
163563.973730,740.205942,-8586.388927,1685.410096
163563.974050,-1702.473667,-9474.636058,-383.047749
163563.974370,-5921.647536,-7920.203579,-3370.820191
163563.974689,-2442.679609,-9474.636058,-1915.238745
163563.975009,-1036.288319,-11473.192101,-842.705048
163563.975329,0.000000,-9548.656652,-995.924147
163563.975649,-740.205942,-8660.409521,-995.924147
163563.975968,-1554.432478,-10658.965565,1149.143247
163563.976288,-2442.679609,-9992.780217,-612.876398
163563.976608,-1850.514855,-9474.636058,-2068.457845
163563.976928,-1628.453072,-7179.997637,-2221.676944
163563.977247,592.164754,-8364.327145,2451.505594
163563.977567,3256.906145,-7179.997637,766.095498
163563.977887,4071.132681,-9474.636058,2374.896044
163563.978207,148.041188,-9548.656652,612.876398
163563.978526,-2072.576638,-9548.656652,-3140.991542
163563.978846,-3701.029710,-11029.068536,-4136.915689
163563.979166,-2960.823768,-13101.645173,-2068.457845
163563.979486,-1628.453072,-11843.295072,-612.876398
163563.979805,1924.535449,-10658.965565,1302.362347
163563.980125,2886.803174,-9474.636058,-229.828649
163563.980445,666.185348,-9030.512492,1149.143247
163563.980764,-962.267725,-5403.503377,0.000000
163563.981084,-74.020594,-7698.141797,1838.629195
163563.981404,1184.329507,-7031.956449,536.266849
163563.981724,2812.782580,-8438.347739,2298.286494
163563.982043,4589.276840,-8364.327145,2987.772442
163563.982363,1776.494261,-8660.409521,1838.629195
163563.982683,-4737.318029,-8364.327145,-2451.505594
163563.983003,-5329.482782,-10881.027347,-3064.381992
163563.983322,-4367.215058,-11325.150913,-3677.258390
163563.983642,-740.205942,-10362.883188,-2221.676944
163563.983962,3478.967927,-11843.295072,-76.609550
163563.984282,2146.597232,-7476.080014,2145.067394
163563.984601,3701.029710,-7031.956449,1915.238745
163563.984921,1924.535449,-7105.977043,1378.971896
163563.985241,-2368.659014,-8364.327145,612.876398
163563.985561,-4737.318029,-9548.656652,-2145.067394
163563.985880,-5107.421000,-11843.295072,-2528.115143
163563.986200,-3701.029710,-10362.883188,-3907.087040
163563.986520,0.000000,-9548.656652,0.000000
163563.986840,2960.823768,-12435.459826,4060.306139
163563.987159,0.000000,-9548.656652,306.438199
163563.987479,-740.205942,-8586.388927,-306.438199
163563.987799,-3182.885551,-8660.409521,-2221.676944
163563.988119,-1924.535449,-9696.697840,-2068.457845
163563.988438,-74.020594,-8586.388927,-3447.429741
163563.988758,2664.741391,-8660.409521,2374.896044
163563.989078,2960.823768,-9030.512492,2604.724693
163563.989398,1998.556043,-9474.636058,1149.143247
163563.989717,-74.020594,-11251.130318,-76.609550
163563.990037,-4145.153275,-11325.150913,-2451.505594
163563.990357,-5329.482782,-11991.336260,-2145.067394
163563.990677,-1258.350101,-11547.212695,-995.924147
163563.990996,1406.391290,-8290.306550,1762.019645
163563.991316,2368.659014,-5403.503377,0.000000
163563.991636,3182.885551,-7105.977043,2374.896044
163563.991956,592.164754,-7772.162391,1991.848295
163563.992275,-2516.700203,-6809.894666,-1225.752797
163563.992595,-3923.091493,-8882.471304,-1991.848295
163563.992915,-2368.659014,-10732.986159,-1302.362347
163563.993235,1110.308913,-12139.377449,995.924147
163563.993554,592.164754,-8364.327145,306.438199
163563.993874,0.000000,-9548.656652,306.438199
163563.994194,814.226536,-11843.295072,-76.609550
163563.994514,-4145.153275,-5995.668130,-4903.011187
163563.994833,-3923.091493,-11547.212695,-2298.286494
163563.995153,-2738.761985,-9844.739029,-1838.629195
163563.995473,1776.494261,-9178.553681,-229.828649
163563.995793,4663.297435,-9622.677246,3217.601092
163563.996112,7328.038826,-9474.636058,4213.525239
163563.996432,222.061783,-7772.162391,1225.752797
163563.996752,-4737.318029,-7179.997637,0.000000
163563.997072,-2960.823768,-10362.883188,-2451.505594
163563.997391,-1998.556043,-11325.150913,-1225.752797
163563.997711,0.000000,-7772.162391,0.000000
163563.998031,1332.370696,-9696.697840,1455.581446
163563.998351,1406.391290,-9252.574275,995.924147
163563.998670,-296.082377,-9844.739029,153.219100
163563.998990,-1258.350101,-10658.965565,-76.609550
163563.999310,-2738.761985,-11251.130318,-2451.505594
163563.999630,-2368.659014,-10214.842000,-153.219100
163563.999949,-74.020594,-10066.800811,-76.609550
163564.000269,2146.597232,-8882.471304,1762.019645
163564.000589,0.000000,-7179.997637,0.000000
163564.000909,-370.102971,-9548.656652,0.000000
163564.001228,-1850.514855,-9992.780217,-2068.457845
163564.001548,-5329.482782,-11029.068536,-3217.601092
163564.001868,-4589.276840,-10362.883188,-2604.724693
163564.002187,-74.020594,-9992.780217,-76.609550
163564.002507,1480.411884,-8364.327145,1838.629195
163564.002827,5625.565159,-8586.388927,3064.381992
163564.003147,4663.297435,-11547.212695,4826.401637
163564.003466,1702.473667,-7994.224174,-76.609550
163564.003786,-4145.153275,-6587.832884,-2451.505594
163564.004106,-4219.173869,-9918.759623,-3294.210641
163564.004426,-2812.782580,-11325.150913,-1455.581446
163564.004745,814.226536,-9992.780217,-383.047749
163564.005065,1850.514855,-9548.656652,689.485948
163564.005385,2294.638420,-8586.388927,-76.609550
163564.005705,-1554.432478,-8364.327145,-689.485948
163564.006024,-1850.514855,-9178.553681,-1915.238745
163564.006344,-4145.153275,-7772.162391,-2451.505594
163564.006664,-296.082377,-11029.068536,2528.115143
163564.006984,0.000000,-6587.832884,1838.629195
163564.007303,3478.967927,-8290.306550,2834.553343
163564.007623,1554.432478,-8290.306550,2451.505594
163564.007943,-1850.514855,-7328.038826,-766.095498
163564.008263,-3034.844362,-10658.965565,-2528.115143
163564.008582,-4811.338623,-11843.295072,-4290.134789
163564.008902,-2442.679609,-13619.789333,-2528.115143
163564.009222,-370.102971,-10066.800811,-842.705048
163564.009542,1776.494261,-8882.471304,-76.609550
163564.009861,2368.659014,-9844.739029,2757.943793
163564.010181,2146.597232,-6809.894666,153.219100
163564.010501,-296.082377,-7550.100608,0.000000
163564.010821,-2960.823768,-9400.615463,-1225.752797
163564.011140,-2516.700203,-10140.821405,-1149.143247
163564.011460,2886.803174,-11843.295072,2987.772442
163564.011780,2368.659014,-7476.080014,2451.505594
163564.012100,3478.967927,-10658.965565,2604.724693
163564.012419,1258.350101,-9474.636058,-76.609550
163564.012739,-1850.514855,-8290.306550,-689.485948
163564.013059,-4737.318029,-9548.656652,-2451.505594
163564.013379,-5255.462188,-10510.924376,-3677.258390
163564.013698,-1850.514855,-9622.677246,-1532.190996
163564.014018,1628.453072,-9548.656652,1762.019645
163564.014338,2886.803174,-6735.874072,1072.533697
163564.014658,2590.720797,-8290.306550,1149.143247
163564.014977,0.000000,-7179.997637,153.219100
163564.015297,-2368.659014,-8364.327145,0.000000
163564.015617,-666.185348,-10658.965565,-383.047749
163564.015937,-74.020594,-10955.047942,1149.143247
163564.016256,0.000000,-9548.656652,0.000000
163564.016576,1110.308913,-10214.842000,-229.828649
163564.016896,0.000000,-9770.718434,-306.438199
163564.017216,-1258.350101,-9770.718434,-919.314598
163564.017535,-2442.679609,-8142.265362,-4060.306139
163564.017855,-3182.885551,-9030.512492,-3447.429741
163564.018175,-1332.370696,-8068.244768,-2757.943793
163564.018495,1776.494261,-9548.656652,1225.752797
163564.018814,4367.215058,-9474.636058,4826.401637
163564.019134,0.000000,-5995.668130,0.000000
163564.019454,-518.144159,-7994.224174,-995.924147
163564.019774,-4293.194464,-10436.903782,-1838.629195
163564.020093,-3552.988522,-9992.780217,-1838.629195
163564.020413,-1628.453072,-10362.883188,-689.485948
163564.020733,1776.494261,-8956.491898,1072.533697
163564.021053,1776.494261,-7772.162391,1225.752797
163564.021372,2590.720797,-10214.842000,1685.410096
163564.021692,2072.576638,-9992.780217,2298.286494
163564.022012,-1850.514855,-7624.121203,-2451.505594
163564.022332,-1850.514855,-10658.965565,-689.485948
163564.022651,-1184.329507,-10288.862594,0.000000
163564.022971,1184.329507,-8364.327145,1149.143247
163564.023291,2072.576638,-8216.285956,1915.238745
163564.023610,1480.411884,-8364.327145,4290.134789
163564.023930,-370.102971,-9030.512492,-766.095498
163564.024250,-3330.926739,-9474.636058,-766.095498
163564.024570,-3627.009116,-9178.553681,-4979.620737
163564.024889,-5329.482782,-9696.697840,-3064.381992
163564.025209,1702.473667,-10658.965565,-76.609550
163564.025529,1332.370696,-9252.574275,0.000000
163564.025849,1850.514855,-9918.759623,1455.581446
163564.026168,962.267725,-8734.430116,-612.876398
163564.026488,-1554.432478,-9844.739029,612.876398
163564.026808,-4071.132681,-6587.832884,-3370.820191
163564.027128,-962.267725,-10436.903782,-766.095498
163564.027447,888.247130,-9548.656652,919.314598
163564.027767,4367.215058,-9400.615463,2374.896044
163564.028087,5551.544565,-10066.800811,3907.087040
163564.028407,3182.885551,-8882.471304,995.924147
163564.028726,-740.205942,-10140.821405,-383.047749
163564.029046,-2738.761985,-9326.594869,-1915.238745
163564.029366,-2442.679609,-11843.295072,-3140.991542
163564.029686,-4737.318029,-9548.656652,0.000000
163564.030005,-370.102971,-9696.697840,-919.314598
163564.030325,1406.391290,-9548.656652,919.314598
163564.030645,370.102971,-7772.162391,383.047749
163564.030965,-814.226536,-6809.894666,-76.609550
163564.031284,-1850.514855,-8882.471304,-76.609550
163564.031604,-2960.823768,-8512.368333,-612.876398
163564.031924,-1184.329507,-7179.997637,-2911.162892
163564.032244,0.000000,-9548.656652,1225.752797
163564.032563,2442.679609,-10510.924376,1685.410096
163564.032883,0.000000,-9548.656652,1225.752797
163564.033203,-74.020594,-9178.553681,-766.095498
163564.033523,-2442.679609,-8216.285956,-3370.820191
163564.033842,-4219.173869,-10510.924376,-3830.477490
163564.034162,-2146.597232,-9030.512492,-1915.238745
163564.034482,-74.020594,-9474.636058,-689.485948
163564.034802,2590.720797,-9474.636058,2374.896044
163564.035121,2368.659014,-6661.853478,1225.752797
163564.035441,2960.823768,-7624.121203,2911.162892
163564.035761,1998.556043,-7994.224174,2528.115143
163564.036081,-3552.988522,-5995.668130,0.000000
163564.036400,-370.102971,-9770.718434,-306.438199
163564.036720,370.102971,-11029.068536,-689.485948
163564.037040,-296.082377,-10955.047942,-229.828649
163564.037360,-74.020594,-11843.295072,-689.485948
163564.037679,-666.185348,-11029.068536,612.876398
163564.037999,-2442.679609,-10955.047942,-2068.457845
163564.038319,-3182.885551,-9474.636058,-1915.238745
163564.038639,-1258.350101,-8882.471304,-1915.238745
163564.038958,0.000000,-8660.409521,2451.505594
163564.039278,222.061783,-7328.038826,76.609550
163564.039598,1776.494261,-7846.182985,2221.676944
163564.039918,814.226536,-8364.327145,612.876398
163564.040237,-666.185348,-9474.636058,229.828649
163564.040557,-1998.556043,-9178.553681,-2145.067394
163564.040877,-3256.906145,-10140.821405,-1225.752797
163564.041197,-1036.288319,-10362.883188,-2451.505594
163564.041516,1110.308913,-13027.624579,-76.609550
163564.041836,962.267725,-10436.903782,-76.609550
163564.042156,0.000000,-8364.327145,1838.629195
163564.042476,1110.308913,-7920.203579,383.047749
163564.042795,296.082377,-8512.368333,0.000000
163564.043115,148.041188,-9548.656652,229.828649
163564.043435,0.000000,-6809.894666,-1149.143247
163564.043755,1110.308913,-8734.430116,1915.238745
163564.044074,1776.494261,-7179.997637,0.000000
163564.044394,0.000000,-7772.162391,1532.190996
163564.044714,-1850.514855,-9178.553681,-689.485948
163564.045033,-2442.679609,-10214.842000,-1302.362347
163564.045353,-4737.318029,-10140.821405,-2298.286494
163564.045673,-2812.782580,-9474.636058,-1991.848295
163564.045993,-1850.514855,-10140.821405,-2221.676944
163564.046312,-222.061783,-9548.656652,-459.657299
163564.046632,2294.638420,-8290.306550,-1302.362347
163564.046952,1924.535449,-10362.883188,2068.457845
163564.047272,-666.185348,-8734.430116,-1302.362347
163564.047591,0.000000,-9548.656652,919.314598
163564.047911,2960.823768,-9548.656652,2757.943793
163564.048231,3552.988522,-10658.965565,4519.963438
163564.048551,0.000000,-8068.244768,842.705048
163564.048870,1406.391290,-7698.141797,0.000000
163564.049190,296.082377,-8364.327145,-2221.676944
163564.049510,-1850.514855,-10658.965565,-3753.867940
163564.049830,-3627.009116,-11547.212695,-4903.011187
163564.050149,-1850.514855,-10658.965565,-2528.115143
163564.050469,-444.123565,-11251.130318,-76.609550
163564.050789,0.000000,-8364.327145,0.000000
163564.051109,1110.308913,-8882.471304,766.095498
163564.051428,2294.638420,-9474.636058,3294.210641
163564.051748,296.082377,-7624.121203,536.266849
163564.052068,518.144159,-8142.265362,995.924147
163564.052388,962.267725,-8882.471304,1991.848295
163564.052707,0.000000,-7179.997637,1225.752797
163564.053027,740.205942,-8068.244768,612.876398
163564.053347,444.123565,-9548.656652,612.876398
163564.053667,-1036.288319,-9918.759623,-995.924147
163564.053986,-4219.173869,-9474.636058,-5745.716235
163564.054306,-3034.844362,-12435.459826,-3753.867940
163564.054626,-2664.741391,-11621.233289,-2528.115143
163564.054946,-2590.720797,-10140.821405,-842.705048
163564.055265,-222.061783,-8808.450710,689.485948
163564.055585,1554.432478,-7402.059420,1608.800546
163564.055905,0.000000,-5995.668130,0.000000
163564.056225,518.144159,-6957.935855,-76.609550
163564.056544,-3256.906145,-8364.327145,612.876398
163564.056864,-370.102971,-9474.636058,-689.485948
163564.057184,-1184.329507,-9696.697840,-1915.238745
163564.057504,0.000000,-13101.645173,2451.505594
163564.057823,-518.144159,-9548.656652,-689.485948
163564.058143,-296.082377,-9770.718434,-153.219100
163564.058463,-222.061783,-7772.162391,-2681.334243
163564.058782,-2368.659014,-7772.162391,-4213.525239
163564.059102,-1332.370696,-9622.677246,-612.876398
163564.059422,1628.453072,-10658.965565,1685.410096
163564.059741,1998.556043,-10066.800811,3294.210641
163564.060061,222.061783,-5995.668130,1378.971896
163564.060381,592.164754,-5995.668130,3677.258390
163564.060700,148.041188,-5107.421000,0.000000
163564.061020,-1480.411884,-7772.162391,0.000000
163564.061339,-2368.659014,-9548.656652,-1225.752797
163564.061659,-962.267725,-9400.615463,-2298.286494
163564.061979,-74.020594,-12731.542202,-76.609550
163564.062298,-1628.453072,-10214.842000,-1532.190996
163564.062618,-1554.432478,-10066.800811,-1225.752797
163564.062938,-1554.432478,-8882.471304,-3140.991542
163564.063257,-2368.659014,-9918.759623,-1685.410096
163564.063577,-2368.659014,-8364.327145,0.000000
163564.063897,-2368.659014,-7772.162391,0.000000
163564.064216,1776.494261,-9252.574275,2528.115143
163564.064536,2590.720797,-9474.636058,2757.943793
163564.064855,1998.556043,-6587.832884,383.047749
163564.065175,4663.297435,-9474.636058,-76.609550
163564.065495,0.000000,-9770.718434,-1072.533697
163564.065814,-1850.514855,-10584.944971,-1455.581446
163564.066134,-1258.350101,-9918.759623,-766.095498
163564.066454,-1184.329507,-11029.068536,-1532.190996
163564.066773,888.247130,-10584.944971,0.000000
163564.067093,814.226536,-9178.553681,0.000000
163564.067413,0.000000,-7105.977043,-76.609550
163564.067732,-1480.411884,-6587.832884,-1685.410096
163564.068052,-74.020594,-9474.636058,-689.485948
163564.068371,1406.391290,-9474.636058,1149.143247
163564.068691,962.267725,-9326.594869,1685.410096
163564.069011,1184.329507,-9178.553681,2604.724693
163564.069330,-296.082377,-7179.997637,-153.219100
163564.069650,-3034.844362,-8660.409521,1608.800546
163564.069970,-2442.679609,-8290.306550,-1991.848295
163564.070289,-1554.432478,-8882.471304,-1302.362347
163564.070609,-2146.597232,-7846.182985,-1608.800546
163564.070928,-1480.411884,-9548.656652,-1225.752797
163564.071248,-74.020594,-11251.130318,-1302.362347
163564.071568,-1184.329507,-9252.574275,-1532.190996
163564.071887,-962.267725,-10066.800811,-1149.143247
163564.072207,-1332.370696,-10510.924376,-1149.143247
163564.072527,2294.638420,-11621.233289,1608.800546
163564.072846,2664.741391,-9548.656652,2451.505594
163564.073166,2960.823768,-8364.327145,2451.505594
163564.073486,4071.132681,-11251.130318,3600.648841
163564.073805,814.226536,-8438.347739,2068.457845
163564.074125,-1776.494261,-5995.668130,-1532.190996
163564.074444,-1258.350101,-9474.636058,-1302.362347
163564.074764,-2146.597232,-9918.759623,-1532.190996
163564.075084,-1110.308913,-9770.718434,-766.095498
163564.075403,-1184.329507,-10214.842000,-1378.971896
163564.075723,-2960.823768,-10140.821405,0.000000
163564.076043,-3923.091493,-8660.409521,-3677.258390
163564.076362,-4441.235652,-9548.656652,-1838.629195
163564.076682,-2886.803174,-9548.656652,-4290.134789
163564.077002,-1776.494261,-9548.656652,306.438199
163564.077321,1110.308913,-7179.997637,0.000000
163564.077641,4515.256246,-8290.306550,2451.505594
163564.077960,3108.864956,-8364.327145,1762.019645
163564.078280,1332.370696,-8956.491898,1608.800546
163564.078600,-444.123565,-9696.697840,536.266849
163564.078919,-3552.988522,-9474.636058,-1762.019645
163564.079239,-2738.761985,-10510.924376,-3447.429741
163564.079559,-2442.679609,-11251.130318,-3753.867940
163564.079878,-1110.308913,-9030.512492,-2757.943793
163564.080198,-1036.288319,-10140.821405,0.000000
163564.080518,-74.020594,-8734.430116,-1302.362347
163564.080837,-962.267725,-8512.368333,536.266849
163564.081157,-1258.350101,-7402.059420,-689.485948
163564.081476,0.000000,-7994.224174,689.485948
163564.081796,4071.132681,-9474.636058,2987.772442
163564.082116,4293.194464,-8882.471304,3600.648841
163564.082435,2294.638420,-11843.295072,3600.648841
163564.082755,-74.020594,-8290.306550,-536.266849
163564.083075,-1776.494261,-9548.656652,0.000000
163564.083394,-4737.318029,-7179.997637,0.000000
163564.083714,-3849.070898,-8734.430116,-4213.525239
163564.084034,-2368.659014,-10955.047942,-2911.162892
163564.084353,148.041188,-10732.986159,-1455.581446
163564.084673,666.185348,-10288.862594,0.000000
163564.084992,2294.638420,-11843.295072,1762.019645
163564.085312,0.000000,-8364.327145,306.438199
163564.085632,0.000000,-7772.162391,612.876398
163564.085951,1110.308913,-7105.977043,536.266849
163564.086271,1110.308913,-5403.503377,0.000000
163564.086591,1776.494261,-7179.997637,612.876398
163564.086910,2886.803174,-9474.636058,1149.143247
163564.087230,-666.185348,-11103.089130,-1378.971896
163564.087550,-3997.112087,-11843.295072,-2451.505594
163564.087869,-4737.318029,-11991.336260,-2528.115143
163564.088189,-5329.482782,-10140.821405,-2987.772442
163564.088508,-74.020594,-11251.130318,-1915.238745
163564.088828,740.205942,-8216.285956,229.828649
163564.089148,0.000000,-7179.997637,2451.505594
163564.089467,3108.864956,-6439.791695,2451.505594
163564.089787,0.000000,-3627.009116,0.000000
163564.090107,-74.020594,-8290.306550,-76.609550
163564.090426,-3034.844362,-9326.594869,-1225.752797
163564.090746,-888.247130,-10584.944971,76.609550
163564.091065,1110.308913,-11547.212695,2374.896044
163564.091385,-74.020594,-11843.295072,995.924147
163564.091705,-666.185348,-10436.903782,-689.485948
163564.092024,-370.102971,-9474.636058,-2528.115143
163564.092344,-3478.967927,-9252.574275,-1532.190996
163564.092664,-4737.318029,-8364.327145,-2451.505594
163564.092983,-2442.679609,-8142.265362,-1608.800546
163564.093303,1924.535449,-8734.430116,153.219100
163564.093623,2960.823768,-8364.327145,1149.143247
163564.093942,2442.679609,-9548.656652,2298.286494
163564.094262,3182.885551,-9474.636058,2374.896044
163564.094581,-2516.700203,-9178.553681,-1378.971896
163564.094901,-1554.432478,-11843.295072,-2528.115143
163564.095221,-4737.318029,-10732.986159,-4136.915689
163564.095540,-2072.576638,-10955.047942,-1608.800546
163564.095860,1110.308913,-9474.636058,-1302.362347
163564.096180,1036.288319,-10066.800811,689.485948
163564.096499,370.102971,-8660.409521,-689.485948
163564.096819,-2368.659014,-7179.997637,-1838.629195
163564.097139,-74.020594,-10066.800811,-76.609550
163564.097458,296.082377,-8290.306550,1762.019645
163564.097778,5255.462188,-7402.059420,1608.800546
163564.098097,4737.318029,-8364.327145,2604.724693
163564.098417,2664.741391,-9548.656652,3064.381992
163564.098737,-370.102971,-11251.130318,-76.609550
163564.099056,-3552.988522,-11843.295072,-76.609550
163564.099376,-5033.400406,-9770.718434,-3983.696590
163564.099696,-3552.988522,-10658.965565,-2451.505594
163564.100015,-444.123565,-9918.759623,612.876398
163564.100335,0.000000,-5995.668130,0.000000
163564.100655,814.226536,-8290.306550,1302.362347
163564.100974,-1258.350101,-8660.409521,0.000000
163564.101294,-1850.514855,-10658.965565,-1302.362347
163564.101613,-5921.647536,-8364.327145,-4136.915689
163564.101933,-3552.988522,-11325.150913,0.000000
163564.102253,814.226536,-11547.212695,766.095498
163564.102572,3997.112087,-8660.409521,612.876398
163564.102892,2516.700203,-10436.903782,1225.752797
163564.103212,814.226536,-9548.656652,-2451.505594
163564.103531,-74.020594,-11843.295072,-1302.362347
163564.103851,-2294.638420,-9548.656652,-766.095498
163564.104171,-1554.432478,-8956.491898,-1378.971896
163564.104490,888.247130,-8438.347739,383.047749
163564.104810,4145.153275,-6735.874072,919.314598
163564.105129,4071.132681,-8290.306550,2374.896044
163564.105449,0.000000,-8956.491898,612.876398
163564.105769,148.041188,-9326.594869,612.876398
163564.106088,-666.185348,-11251.130318,-76.609550
163564.106408,-3330.926739,-7402.059420,-3140.991542
163564.106728,-666.185348,-9474.636058,-383.047749
163564.107047,222.061783,-8142.265362,383.047749
163564.107367,1998.556043,-9104.533087,76.609550
163564.107687,0.000000,-9178.553681,383.047749
163564.108006,-148.041188,-10658.965565,1762.019645
163564.108326,-2738.761985,-8216.285956,-2374.896044
163564.108645,-3330.926739,-8882.471304,-2528.115143
163564.108965,-2368.659014,-7772.162391,-3064.381992
163564.109285,0.000000,-9548.656652,-536.266849
163564.109604,1702.473667,-9548.656652,-2528.115143
163564.109924,814.226536,-11547.212695,766.095498
163564.110244,-1998.556043,-11251.130318,-1072.533697
163564.110563,-2664.741391,-10807.006753,-2221.676944
163564.110883,-2146.597232,-10658.965565,-1302.362347
163564.111203,-74.020594,-10658.965565,1149.143247
163564.111522,2368.659014,-7476.080014,1838.629195
163564.111842,4071.132681,-9474.636058,2374.896044
163564.112161,2368.659014,-7772.162391,1149.143247
163564.112481,0.000000,-7772.162391,0.000000
163564.112801,-1258.350101,-8882.471304,-995.924147
163564.113120,-3478.967927,-9844.739029,-2068.457845
163564.113440,-2886.803174,-10140.821405,-1302.362347
163564.113760,592.164754,-9992.780217,536.266849
163564.114079,4663.297435,-10436.903782,2911.162892
163564.114399,1480.411884,-7772.162391,1455.581446
163564.114718,0.000000,-8364.327145,1378.971896
163564.115038,-3108.864956,-7994.224174,-3677.258390
163564.115358,-4737.318029,-8660.409521,-3370.820191
163564.115677,-4737.318029,-7772.162391,-3677.258390
163564.115997,-74.020594,-9474.636058,536.266849
163564.116317,1924.535449,-8808.450710,2451.505594
163564.116636,1998.556043,-9178.553681,2528.115143
163564.116956,1184.329507,-8290.306550,306.438199
163564.117276,-2368.659014,-9326.594869,-995.924147
163564.117595,-3923.091493,-9178.553681,-3140.991542
163564.117915,-3256.906145,-11251.130318,-2528.115143
163564.118234,-2220.617826,-9548.656652,-2374.896044
163564.118554,2960.823768,-9770.718434,1225.752797
163564.118874,1406.391290,-6587.832884,0.000000
163564.119193,3849.070898,-8438.347739,1149.143247
163564.119513,-148.041188,-8068.244768,-995.924147
163564.119833,-2442.679609,-9844.739029,-995.924147
163564.120152,-666.185348,-11843.295072,-2528.115143
163564.120472,-74.020594,-14211.954086,-76.609550
163564.120792,1702.473667,-9474.636058,-76.609550
163564.121111,0.000000,-8364.327145,612.876398
163564.121431,3034.844362,-9400.615463,995.924147
163564.121750,-1776.494261,-6587.832884,0.000000
163564.122070,-4219.173869,-8734.430116,-2757.943793
163564.122390,-2960.823768,-9474.636058,-919.314598
163564.122709,0.000000,-8956.491898,459.657299
163564.123029,2368.659014,-8290.306550,1378.971896
163564.123349,4663.297435,-10066.800811,3600.648841
163564.123668,296.082377,-7179.997637,2451.505594
163564.123988,-74.020594,-8586.388927,1762.019645
163564.124308,-4811.338623,-9178.553681,-2528.115143
163564.124627,-6439.791695,-7328.038826,-4366.744339
163564.124947,-3552.988522,-9548.656652,0.000000
163564.125266,1702.473667,-9178.553681,536.266849
163564.125586,1628.453072,-9696.697840,536.266849
163564.125906,-444.123565,-9400.615463,0.000000
163564.126225,-2146.597232,-7772.162391,-3753.867940
163564.126545,-2664.741391,-8956.491898,-2528.115143
163564.126865,-4145.153275,-8956.491898,-3370.820191
163564.127184,0.000000,-11251.130318,0.000000
163564.127504,5847.626942,-10658.965565,2374.896044
163564.127824,6365.771101,-7772.162391,4060.306139
163564.128143,1776.494261,-7179.997637,1838.629195
163564.128463,1702.473667,-8586.388927,612.876398
163564.128782,-2886.803174,-10066.800811,-1378.971896
163564.129102,-4367.215058,-10658.965565,-2451.505594
163564.129422,-1850.514855,-10658.965565,-2528.115143
163564.129741,-74.020594,-10955.047942,536.266849
163564.130061,2738.761985,-7994.224174,-76.609550
163564.130381,740.205942,-6587.832884,306.438199
163564.130700,592.164754,-8364.327145,919.314598
163564.131020,-2960.823768,-8364.327145,-1225.752797
163564.131340,-5329.482782,-8068.244768,-3600.648841
163564.131659,-3256.906145,-10436.903782,-2221.676944
163564.131979,-1406.391290,-9992.780217,0.000000
163564.132298,1332.370696,-9548.656652,842.705048
163564.132618,2294.638420,-9474.636058,2374.896044
163564.132938,592.164754,-8364.327145,1838.629195
163564.133257,-74.020594,-9474.636058,-689.485948
163564.133577,-3330.926739,-8882.471304,-2068.457845
163564.133897,-2738.761985,-8142.265362,-3524.039291
163564.134216,-2664.741391,-6735.874072,-4060.306139
163564.134536,1406.391290,-10214.842000,76.609550
163564.134855,2516.700203,-9918.759623,1302.362347
163564.135175,1850.514855,-9918.759623,1838.629195
163564.135495,1702.473667,-11843.295072,-76.609550
163564.135814,-2442.679609,-8660.409521,-2528.115143
163564.136134,-3627.009116,-9548.656652,-2681.334243
163564.136454,-888.247130,-8364.327145,0.000000
163564.136773,3997.112087,-11843.295072,4213.525239
163564.137093,4071.132681,-9474.636058,3294.210641
163564.137413,2590.720797,-9474.636058,1762.019645
163564.137732,-2072.576638,-8068.244768,229.828649
163564.138052,-962.267725,-7994.224174,-2374.896044
163564.138371,-3330.926739,-9992.780217,-1991.848295
163564.138691,-2368.659014,-9548.656652,0.000000
163564.139011,518.144159,-9770.718434,-1225.752797
163564.139330,2294.638420,-11843.295072,1762.019645
163564.139650,1406.391290,-10955.047942,-766.095498
163564.139970,-2960.823768,-9548.656652,-2451.505594
163564.140289,-4293.194464,-9548.656652,-2911.162892
163564.140609,-2738.761985,-10658.965565,-2834.553343
163564.140929,-3552.988522,-10140.821405,0.000000
163564.141248,3404.947333,-9474.636058,2451.505594
163564.141568,7179.997637,-6809.894666,5209.449386
163564.141887,5847.626942,-7254.018232,3600.648841
163564.142207,592.164754,-8364.327145,-1302.362347
163564.142527,-3552.988522,-9770.718434,-3064.381992
163564.142846,-4145.153275,-10955.047942,-3370.820191
163564.143166,-2738.761985,-11621.233289,-1072.533697
163564.143486,1702.473667,-13619.789333,-383.047749
163564.143805,1184.329507,-8956.491898,612.876398
163564.144125,2664.741391,-10066.800811,1762.019645
163564.144445,1110.308913,-8290.306550,-76.609550
163564.144764,-3849.070898,-7179.997637,-3677.258390
163564.145084,-3256.906145,-8364.327145,-2145.067394
163564.145403,-4737.318029,-9548.656652,-2451.505594
163564.145723,-1924.535449,-10214.842000,1685.410096
163564.146043,0.000000,-8364.327145,-76.609550
163564.146362,2294.638420,-10362.883188,1838.629195
163564.146682,0.000000,-7179.997637,0.000000
163564.147002,-74.020594,-10658.965565,-1302.362347
163564.147321,-3923.091493,-11843.295072,-1915.238745
163564.147641,-370.102971,-10066.800811,-76.609550
163564.147961,-74.020594,-11251.130318,1149.143247
163564.148280,1184.329507,-7179.997637,0.000000
163564.148600,0.000000,-9918.759623,229.828649
163564.148919,-888.247130,-8882.471304,612.876398
163564.149239,-1776.494261,-6809.894666,-76.609550
163564.149559,-2590.720797,-8364.327145,-1225.752797
163564.149878,-666.185348,-8882.471304,-689.485948
163564.150198,888.247130,-9178.553681,1225.752797
163564.150518,4367.215058,-9474.636058,2068.457845
163564.150837,74.020594,-8734.430116,0.000000
163564.151157,0.000000,-8364.327145,919.314598
163564.151477,-2072.576638,-10066.800811,-2298.286494
163564.151796,-2738.761985,-10288.862594,-2757.943793
163564.152116,-2368.659014,-10066.800811,-2451.505594
163564.152435,-592.164754,-9548.656652,0.000000
163564.152755,2294.638420,-7920.203579,-1378.971896
163564.153075,2886.803174,-7179.997637,0.000000
163564.153394,2368.659014,-8956.491898,2451.505594
163564.153714,-74.020594,-10066.800811,-76.609550
163564.154034,-1850.514855,-10658.965565,-689.485948
163564.154353,-3552.988522,-9548.656652,-1225.752797
163564.154673,-1258.350101,-9548.656652,-229.828649
163564.154993,666.185348,-9252.574275,-306.438199
163564.155312,814.226536,-9474.636058,842.705048
163564.155632,814.226536,-7105.977043,-1608.800546
163564.155951,-666.185348,-9178.553681,-1608.800546
163564.156271,-4811.338623,-10658.965565,-5592.497135
163564.156591,-6809.894666,-11991.336260,-4366.744339
163564.156910,-7105.977043,-9548.656652,-3677.258390
163564.157230,-1406.391290,-12435.459826,2987.772442
163564.157550,-2368.659014,-8660.409521,1225.752797
163564.157870,-74.020594,-8290.306550,2681.334243
163564.158189,-296.082377,-5033.400406,2451.505594
163564.158509,-1628.453072,-5551.544565,2221.676944
163564.158829,-2886.803174,-7624.121203,612.876398
163564.159149,-3256.906145,-8660.409521,1532.190996
163564.159468,-3627.009116,-8734.430116,-76.609550
163564.159788,-3627.009116,-9474.636058,-1915.238745
163564.160108,-6957.935855,-9844.739029,-2298.286494
163564.160428,-4737.318029,-13471.748144,-76.609550
163564.160748,-7698.141797,-10140.821405,-4749.792088
163564.161067,-8586.388927,-11473.192101,-2757.943793
163564.161387,-7772.162391,-11769.274478,-1608.800546
163564.161707,-6513.812290,-7179.997637,0.000000
163564.162027,-6809.894666,-4811.338623,0.000000
163564.162346,-3997.112087,-6587.832884,1225.752797
163564.162666,-1480.411884,-7624.121203,4826.401637
163564.162986,-666.185348,-6809.894666,4213.525239
163564.163306,-3627.009116,-8290.306550,1762.019645
163564.163626,-6513.812290,-9696.697840,612.876398
163564.163945,-8142.265362,-11325.150913,-4060.306139
163564.164265,-7179.997637,-13249.686362,-2834.553343
163564.164585,-8364.327145,-12805.562797,-5975.544884
163564.164905,-11695.253884,-11917.315666,-4749.792088
163564.165225,-9252.574275,-13027.624579,-4060.306139
163564.165544,-3923.091493,-9770.718434,-1302.362347
163564.165864,-4441.235652,-5699.585753,-2451.505594
163564.166184,-4737.318029,-5403.503377,2451.505594
163564.166504,2294.638420,-8290.306550,3600.648841
163564.166823,1776.494261,-6217.729913,6894.859482
163564.167143,1332.370696,-6069.688724,3600.648841
163564.167463,-2368.659014,-7698.141797,3064.381992
163564.167783,-2664.741391,-9104.533087,306.438199
163564.168103,-666.185348,-10510.924376,2374.896044
163564.168422,-74.020594,-11251.130318,-1915.238745
163564.168742,-6069.688724,-9474.636058,-2528.115143
163564.169062,-7179.997637,-11843.295072,-7431.126331
163564.169382,-7994.224174,-10288.862594,-6741.640382
163564.169701,-1258.350101,-15988.448347,-1915.238745
163564.170021,-3330.926739,-9400.615463,-919.314598
163564.170341,-1554.432478,-8882.471304,306.438199
163564.170661,1554.432478,-6291.750507,2451.505594
163564.170981,2960.823768,-6587.832884,4903.011187
163564.171300,3849.070898,-4367.215058,4290.134789
163564.171620,2516.700203,-7772.162391,2451.505594
163564.171940,-74.020594,-9326.594869,-76.609550
163564.172260,-4811.338623,-10955.047942,-4213.525239
163564.172580,-5107.421000,-13619.789333,-3753.867940
163564.172899,-5995.668130,-13693.809927,-3830.477490
163564.173219,-6883.915261,-13619.789333,-4290.134789
163564.173539,-7476.080014,-9474.636058,-5515.887586
163564.173859,-4589.276840,-8734.430116,-2987.772442
163564.174178,0.000000,-7179.997637,612.876398
163564.174498,4589.276840,-5181.441594,2374.896044
163564.174818,2960.823768,-4811.338623,5515.887586
163564.175138,2294.638420,-5329.482782,3983.696590
163564.175458,-74.020594,-9474.636058,2987.772442
163564.175777,-1776.494261,-12213.398043,3753.867940
163564.176097,-1998.556043,-11547.212695,1532.190996
163564.176417,-3923.091493,-11399.171507,306.438199
163564.176737,-4737.318029,-11251.130318,-459.657299
163564.177056,-6513.812290,-7772.162391,-4903.011187
163564.177376,-3775.050304,-9548.656652,-459.657299
163564.177696,-3404.947333,-8068.244768,-306.438199
163564.178016,-3923.091493,-6957.935855,-76.609550
163564.178336,-7994.224174,-5403.503377,-2451.505594
163564.178655,-7105.977043,-7179.997637,0.000000
163564.178975,-8290.306550,-8364.327145,-2451.505594
163564.179295,-4663.297435,-10658.965565,229.828649
163564.179615,-2960.823768,-10584.944971,842.705048
163564.179935,-3478.967927,-10140.821405,1762.019645
163564.180254,-2442.679609,-11251.130318,-76.609550
163564.180574,-5625.565159,-10288.862594,-919.314598
163564.180894,-4145.153275,-10140.821405,-1149.143247
163564.181214,-3627.009116,-10140.821405,-536.266849
163564.181533,-2812.782580,-9992.780217,2068.457845
163564.181853,-3552.988522,-7772.162391,0.000000
163564.182173,-5329.482782,-5995.668130,0.000000
163564.182493,-3552.988522,-7476.080014,-612.876398
163564.182813,-3627.009116,-9474.636058,-919.314598
163564.183132,-4811.338623,-8956.491898,-3447.429741
163564.183452,-2442.679609,-11843.295072,-76.609550
163564.183772,-3997.112087,-11325.150913,1991.848295
163564.184092,-3256.906145,-10140.821405,2834.553343
163564.184411,-4071.132681,-8364.327145,1991.848295
163564.184731,-6809.894666,-6587.832884,-1685.410096
163564.185051,-5255.462188,-7846.182985,-76.609550
163564.185371,-4811.338623,-6365.771101,-1915.238745
163564.185691,-4219.173869,-8290.306550,-76.609550
163564.186010,-3627.009116,-9178.553681,-995.924147
163564.186330,-3627.009116,-9474.636058,-2834.553343
163564.186650,-2442.679609,-10658.965565,-1608.800546
163564.186970,-4663.297435,-9178.553681,-3370.820191
163564.187290,-4959.379811,-10658.965565,-3983.696590
163564.187609,-3330.926739,-11103.089130,-2451.505594
163564.187929,-1628.453072,-11769.274478,1762.019645
163564.188249,-1702.473667,-10732.986159,2451.505594
163564.188569,-370.102971,-10658.965565,2987.772442
163564.188888,1110.308913,-7550.100608,1915.238745
163564.189208,888.247130,-5403.503377,1302.362347
163564.189528,-74.020594,-4737.318029,-2528.115143
163564.189848,-2664.741391,-8364.327145,-1762.019645
163564.190168,-3404.947333,-10732.986159,-2298.286494
163564.190487,-3552.988522,-11621.233289,-2221.676944
163564.190807,-4219.173869,-12731.542202,-995.924147
163564.191127,-4145.153275,-13397.727550,-76.609550
163564.191447,-2664.741391,-11029.068536,1225.752797
163564.191766,1702.473667,-10362.883188,3294.210641
163564.192086,74.020594,-6883.915261,4366.744339
163564.192406,-2960.823768,-3627.009116,0.000000
163564.192726,-666.185348,-6513.812290,-76.609550
163564.193046,-2220.617826,-8512.368333,612.876398
163564.193365,-2368.659014,-10214.842000,1149.143247
163564.193685,-4589.276840,-10066.800811,153.219100
163564.194005,-6513.812290,-10732.986159,-2451.505594
163564.194325,-7179.997637,-9696.697840,-5515.887586
163564.194645,-5329.482782,-11177.109724,-3064.381992
163564.194964,-2368.659014,-9548.656652,0.000000
163564.195284,-4145.153275,-6587.832884,1225.752797
163564.195604,-4219.173869,-2738.761985,-2451.505594
163564.195924,-2886.803174,-7698.141797,-1991.848295
163564.196243,-2664.741391,-9992.780217,-1149.143247
163564.196563,-2442.679609,-10732.986159,1838.629195
163564.196883,-4145.153275,-10732.986159,3294.210641
163564.197203,-4959.379811,-10362.883188,1762.019645
163564.197523,-6291.750507,-8512.368333,-2068.457845
163564.197842,-4441.235652,-7772.162391,-2451.505594
163564.198162,0.000000,-9548.656652,1838.629195
163564.198482,1480.411884,-10066.800811,4903.011187
163564.198802,-3034.844362,-5995.668130,0.000000
163564.199121,-4367.215058,-7031.956449,-995.924147
163564.199441,-5477.523971,-5773.606348,-3677.258390
163564.199761,-4885.359217,-8216.285956,-4903.011187
163564.200081,-2738.761985,-11843.295072,-1915.238745
163564.200401,-4811.338623,-13619.789333,-689.485948
163564.200720,-6513.812290,-13101.645173,766.095498
163564.201040,-5107.421000,-13027.624579,1455.581446
163564.201360,-4367.215058,-10066.800811,1685.410096
163564.201680,-4737.318029,-6291.750507,612.876398
163564.202000,-1850.514855,-4663.297435,229.828649
163564.202319,-814.226536,-5033.400406,2221.676944
163564.202639,-148.041188,-5551.544565,1455.581446
163564.202959,-1332.370696,-7624.121203,459.657299
163564.203279,-814.226536,-11843.295072,-76.609550
163564.203598,-7105.977043,-10732.986159,-4596.572988
163564.203918,-7105.977043,-11917.315666,-4596.572988
163564.204238,-6735.874072,-13249.686362,-3983.696590
163564.204558,-5033.400406,-11843.295072,-2298.286494
163564.204878,-5921.647536,-7179.997637,-3677.258390
163564.205197,222.061783,-7994.224174,-76.609550
163564.205517,444.123565,-7550.100608,1608.800546
163564.205837,962.267725,-7846.182985,2451.505594
163564.206157,-1110.308913,-8290.306550,2374.896044
163564.206476,-1776.494261,-9548.656652,3600.648841
163564.206796,-2664.741391,-9548.656652,3064.381992
163564.207116,-1776.494261,-8364.327145,2451.505594
163564.207436,-2368.659014,-8956.491898,3217.601092
163564.207756,-1776.494261,-8512.368333,1838.629195
163564.208075,-7698.141797,-4811.338623,-5822.325785
163564.208395,-7179.997637,-8216.285956,-6281.983084
163564.208715,-8808.450710,-9474.636058,-7124.688131
163564.209035,-8068.244768,-10881.027347,-6205.373534
163564.209355,-3627.009116,-11843.295072,-3140.991542
163564.209674,-1406.391290,-11695.253884,919.314598
163564.209994,814.226536,-11843.295072,4213.525239
163564.210314,740.205942,-7179.997637,3677.258390
163564.210634,1480.411884,-7772.162391,5056.230287
163564.210953,592.164754,-7179.997637,4903.011187
163564.211273,-1406.391290,-7698.141797,1225.752797
163564.211593,-4071.132681,-9770.718434,0.000000
163564.211913,-6587.832884,-9992.780217,-2451.505594
163564.212233,-8142.265362,-10362.883188,-4290.134789
163564.212552,-5995.668130,-13027.624579,-3753.867940
163564.212872,-7105.977043,-10140.821405,-3677.258390
163564.213192,-3034.844362,-11251.130318,-383.047749
163564.213512,-666.185348,-9030.512492,2987.772442
163564.213831,2294.638420,-7105.977043,3370.820191
163564.214151,222.061783,-5255.462188,3370.820191
163564.214471,1702.473667,-7179.997637,5132.839837
163564.214791,0.000000,-7624.121203,3907.087040
163564.215111,-1924.535449,-9104.533087,2068.457845
163564.215430,-814.226536,-11843.295072,2987.772442
163564.215750,-1554.432478,-11251.130318,-689.485948
163564.216070,-1258.350101,-10658.965565,-1302.362347
163564.216390,-1332.370696,-10658.965565,-689.485948
163564.216710,-1184.329507,-9548.656652,0.000000
163564.217029,1702.473667,-9178.553681,1149.143247
163564.217349,2442.679609,-10362.883188,3524.039291
163564.217669,1850.514855,-8290.306550,3064.381992
163564.217989,2442.679609,-7624.121203,4519.963438
163564.218308,2590.720797,-8216.285956,5745.716235
163564.218628,592.164754,-7179.997637,6128.763984
163564.218948,1998.556043,-9622.677246,5209.449386
163564.219268,-444.123565,-9844.739029,4366.744339
163564.219588,-2220.617826,-10362.883188,2757.943793
163564.219907,-2516.700203,-9548.656652,1608.800546
163564.220227,-74.020594,-11843.295072,1225.752797
163564.220547,-74.020594,-13027.624579,6052.154434
163564.220867,1110.308913,-10584.944971,5745.716235
163564.221187,2590.720797,-8290.306550,7890.783629
163564.221506,5181.441594,-7328.038826,9806.022374
163564.221826,1184.329507,-3034.844362,6741.640382
163564.222146,2738.761985,-4737.318029,5898.935335
163564.222466,1628.453072,-6587.832884,4979.620737
163564.222785,0.000000,-9844.739029,4366.744339
163564.223105,-1258.350101,-13767.830521,4519.963438
163564.223425,-2590.720797,-15396.283594,6052.154434
163564.223745,-2146.597232,-16580.613101,8427.050478
163564.224065,-1258.350101,-15396.283594,10955.165621
163564.224384,-1554.432478,-9326.594869,8503.660028
163564.224704,-2368.659014,-3627.009116,8273.831378
163564.225024,-1628.453072,-148.041188,4903.011187
163564.225344,222.061783,-2664.741391,4749.792088
163564.225663,592.164754,-6291.750507,4826.401637
163564.225983,-222.061783,-9548.656652,5669.106685
163564.226303,-1554.432478,-10436.903782,4213.525239
163564.226623,-4219.173869,-12879.583391,4213.525239
163564.226943,-7105.977043,-11325.150913,2451.505594
163564.227262,-2960.823768,-13175.665768,4519.963438
163564.227582,-1480.411884,-10658.965565,3907.087040
163564.227902,0.000000,-9548.656652,6128.763984
163564.228222,2220.617826,-10140.821405,6205.373534
163564.228542,2294.638420,-9252.574275,6894.859482
163564.228861,222.061783,-8216.285956,6128.763984
163564.229181,-2886.803174,-6587.832884,1455.581446
163564.229501,-2738.761985,-7105.977043,2374.896044
163564.229821,-666.185348,-6809.894666,1455.581446
163564.230140,148.041188,-7179.997637,3677.258390
163564.230460,3034.844362,-9178.553681,1225.752797
163564.230780,2220.617826,-11473.192101,3600.648841
163564.231100,-2368.659014,-10436.903782,0.000000
163564.231420,-3552.988522,-13323.706956,-995.924147
163564.231739,-4441.235652,-13101.645173,-306.438199
163564.232059,-3256.906145,-11917.315666,-383.047749
163564.232379,-74.020594,-10066.800811,229.828649
163564.232699,1998.556043,-10066.800811,2374.896044
163564.233018,2294.638420,-8882.471304,2068.457845
163564.233338,2294.638420,-5921.647536,2374.896044
163564.233658,0.000000,-3923.091493,0.000000
163564.233978,2368.659014,-9696.697840,-76.609550
163564.234298,1850.514855,-10732.986159,-536.266849
163564.234617,3552.988522,-10955.047942,2374.896044
163564.234937,2220.617826,-9474.636058,1302.362347
163564.235257,-2146.597232,-9548.656652,-4290.134789
163564.235577,-6217.729913,-10140.821405,-7354.516781
163564.235897,-5625.565159,-13101.645173,-2911.162892
163564.236216,-4737.318029,-10732.986159,0.000000
163564.236536,-296.082377,-9844.739029,2757.943793
163564.236856,2146.597232,-8290.306550,2987.772442
163564.237176,3552.988522,-5551.544565,4443.353888
163564.237495,3775.050304,-4367.215058,2757.943793
163564.237815,2590.720797,-5847.626942,1915.238745
163564.238135,1332.370696,-9104.533087,919.314598
163564.238455,0.000000,-9548.656652,-2374.896044
163564.238775,-2146.597232,-9622.677246,-229.828649
163564.239094,-3775.050304,-9770.718434,-2757.943793
163564.239414,-3552.988522,-11917.315666,0.000000
163564.239734,-666.185348,-11769.274478,0.000000
163564.240054,-74.020594,-11843.295072,2374.896044
163564.240373,-3552.988522,-8068.244768,612.876398
163564.240693,-3034.844362,-8882.471304,459.657299
163564.241013,666.185348,-8438.347739,3217.601092
163564.241333,3552.988522,-7105.977043,4596.572988
163564.241653,2886.803174,-7105.977043,4213.525239
163564.241972,2442.679609,-9474.636058,3600.648841
163564.242292,-74.020594,-10658.965565,1455.581446
163564.242612,-1702.473667,-11843.295072,-76.609550
163564.242932,-3552.988522,-11917.315666,153.219100
163564.243252,-1258.350101,-15396.283594,4213.525239
163564.243571,-2368.659014,-10362.883188,1838.629195
163564.243891,0.000000,-9696.697840,2221.676944
163564.244211,0.000000,-8438.347739,4213.525239
163564.244531,-1776.494261,-6291.750507,4903.011187
163564.244850,-1776.494261,-4811.338623,3677.258390
163564.245170,1332.370696,-6587.832884,5515.887586
163564.245490,4663.297435,-9474.636058,7277.907231
163564.245810,3256.906145,-7846.182985,5822.325785
163564.246130,1110.308913,-10658.965565,4826.401637
163564.246449,-1184.329507,-13545.768739,4826.401637
163564.246769,-3997.112087,-12805.562797,1455.581446
163564.247089,-4885.359217,-11917.315666,1762.019645
163564.247409,-5995.668130,-10881.027347,1455.581446
163564.247728,-6809.894666,-7179.997637,0.000000
163564.248048,-1702.473667,-7476.080014,3217.601092
163564.248368,0.000000,-4811.338623,4903.011187
163564.248688,1702.473667,-6365.771101,6052.154434
163564.249008,518.144159,-5921.647536,5592.497135
163564.249327,4663.297435,-9474.636058,6665.030833
163564.249647,3923.091493,-7476.080014,5592.497135
163564.249967,2442.679609,-10362.883188,6128.763984
163564.250287,1110.308913,-12657.521608,6358.592633
163564.250607,222.061783,-12731.542202,6281.983084
163564.250926,-2590.720797,-11473.192101,2374.896044
163564.251246,-1258.350101,-11251.130318,2374.896044
163564.251566,-4811.338623,-8882.471304,536.266849
163564.251886,-5329.482782,-6587.832884,0.000000
163564.252205,-1184.329507,-8290.306550,3294.210641
163564.252525,0.000000,-6291.750507,3064.381992
163564.252845,1998.556043,-7105.977043,4290.134789
163564.253165,1702.473667,-9326.594869,5745.716235
163564.253485,1406.391290,-9992.780217,6128.763984
163564.253804,1110.308913,-9548.656652,4519.963438
163564.254124,444.123565,-11029.068536,8197.221829
163564.254444,0.000000,-8956.491898,5822.325785
163564.254764,-3552.988522,-7772.162391,4903.011187
163564.255083,-2146.597232,-9178.553681,2987.772442
163564.255403,-5921.647536,-5995.668130,0.000000
163564.255723,-3701.029710,-8808.450710,-1302.362347
163564.256043,-2368.659014,-7994.224174,-1838.629195
163564.256363,-1480.411884,-11325.150913,-229.828649
163564.256682,592.164754,-11547.212695,2757.943793
163564.257002,4367.215058,-14211.954086,8503.660028
163564.257322,2368.659014,-11769.274478,6741.640382
163564.257642,1110.308913,-7254.018232,4366.744339
163564.257962,-1110.308913,-7550.100608,4060.306139
163564.258281,-1776.494261,-5995.668130,2451.505594
163564.258601,0.000000,-8068.244768,3140.991542
163564.258921,518.144159,-7254.018232,383.047749
163564.259241,-1480.411884,-9252.574275,0.000000
163564.259560,-3552.988522,-9548.656652,0.000000
163564.259880,-1850.514855,-11843.295072,-76.609550
163564.260200,-74.020594,-13323.706956,1532.190996
163564.260520,-2294.638420,-9770.718434,612.876398
163564.260840,-370.102971,-10436.903782,2757.943793
163564.261159,1332.370696,-7402.059420,3677.258390
163564.261479,1998.556043,-7550.100608,2528.115143
163564.261799,592.164754,-6883.915261,1072.533697
163564.262119,1110.308913,-10066.800811,1149.143247
163564.262438,0.000000,-9178.553681,1149.143247
163564.262758,-2368.659014,-8364.327145,0.000000
163564.263078,-814.226536,-14211.954086,2374.896044
163564.263398,-2442.679609,-12805.562797,1991.848295
163564.263718,-2368.659014,-10066.800811,0.000000
163564.264037,-444.123565,-8216.285956,689.485948
163564.264357,0.000000,-5921.647536,-1072.533697
163564.264677,0.000000,-9548.656652,1838.629195
163564.264997,1406.391290,-9474.636058,1378.971896
163564.265316,2294.638420,-11843.295072,3600.648841
163564.265636,-666.185348,-6587.832884,1149.143247
163564.265956,-2072.576638,-8660.409521,1762.019645
163564.266276,1702.473667,-7698.141797,-76.609550
163564.266595,2442.679609,-7105.977043,2451.505594
163564.266915,2516.700203,-8142.265362,2298.286494
163564.267235,1406.391290,-12805.562797,3140.991542
163564.267555,2368.659014,-12287.418637,3983.696590
163564.267875,-1776.494261,-12213.398043,3677.258390
163564.268194,-5921.647536,-9548.656652,0.000000
163564.268514,-4219.173869,-10658.965565,1149.143247
163564.268834,-666.185348,-7105.977043,1762.019645
163564.269154,370.102971,-4811.338623,1608.800546
163564.269473,5847.626942,-7105.977043,4826.401637
163564.269793,1628.453072,-7550.100608,5515.887586
163564.270113,222.061783,-9474.636058,3140.991542
163564.270433,-2368.659014,-11029.068536,2374.896044
163564.270753,-4145.153275,-11917.315666,612.876398
163564.271072,-3627.009116,-9770.718434,842.705048
163564.271392,-1184.329507,-9252.574275,1225.752797
163564.271712,148.041188,-8068.244768,0.000000
163564.272032,1924.535449,-9252.574275,2451.505594
163564.272351,-74.020594,-8290.306550,76.609550
163564.272671,-666.185348,-10066.800811,459.657299
163564.272991,-3552.988522,-10140.821405,1532.190996
163564.273311,-2590.720797,-9104.533087,306.438199
163564.273631,-1036.288319,-8660.409521,1838.629195
163564.273950,1924.535449,-9474.636058,2681.334243
163564.274270,3182.885551,-10362.883188,4519.963438
163564.274590,2146.597232,-7994.224174,1762.019645
163564.274910,0.000000,-6587.832884,2451.505594
163564.275229,-1850.514855,-7846.182985,0.000000
163564.275549,-2442.679609,-7105.977043,-2528.115143
163564.275869,148.041188,-9326.594869,-1838.629195
163564.276189,1702.473667,-11399.171507,383.047749
163564.276508,740.205942,-12583.501014,1915.238745
163564.276828,-592.164754,-10066.800811,2221.676944
163564.277148,-4145.153275,-9622.677246,-2374.896044
163564.277468,-3552.988522,-8364.327145,-4749.792088
163564.277788,-74.020594,-10658.965565,-2528.115143
163564.278107,1184.329507,-9548.656652,306.438199
163564.278427,1258.350101,-6587.832884,-2451.505594
163564.278747,2294.638420,-11251.130318,-76.609550
163564.279067,-962.267725,-9030.512492,-2298.286494
163564.279386,-2886.803174,-9696.697840,-4749.792088
163564.279706,-2516.700203,-9400.615463,-4290.134789
163564.280026,-1184.329507,-9548.656652,-3677.258390
163564.280346,-2368.659014,-6587.832884,-4903.011187
163564.280666,592.164754,-8364.327145,-4749.792088
163564.280985,2516.700203,-9326.594869,-6128.763984
163564.281305,2442.679609,-11843.295072,-1915.238745
163564.281625,-1998.556043,-7772.162391,-6128.763984
163564.281945,-888.247130,-11843.295072,-2834.553343
163564.282264,-1332.370696,-9474.636058,-2451.505594
163564.282584,2146.597232,-7179.997637,-1378.971896
163564.282904,4663.297435,-5921.647536,1149.143247
163564.283224,5255.462188,-7105.977043,2374.896044
163564.283544,4663.297435,-7105.977043,153.219100
163564.283863,0.000000,-9474.636058,-2528.115143
163564.284183,-4737.318029,-10732.986159,-3370.820191
163564.284503,-8290.306550,-11917.315666,-2451.505594
163564.284823,-5403.503377,-8734.430116,-4673.182538
163564.285142,-2220.617826,-6513.812290,-3677.258390
163564.285462,518.144159,-5033.400406,-2987.772442
163564.285782,2368.659014,-6809.894666,-1225.752797
163564.286102,3478.967927,-13027.624579,-76.609550
163564.286421,370.102971,-13989.892304,-76.609550
163564.286741,-2442.679609,-15988.448347,1762.019645
163564.287061,-4811.338623,-9474.636058,-1302.362347
163564.287381,-3552.988522,-6587.832884,-2068.457845
163564.287701,0.000000,-4811.338623,-2451.505594
163564.288020,4663.297435,-7994.224174,536.266849
163564.288340,4145.153275,-10732.986159,2528.115143
163564.288660,444.123565,-12065.356855,689.485948
163564.288980,-4589.276840,-12213.398043,-1608.800546
163564.289299,-4293.194464,-11843.295072,-1915.238745
163564.289619,-4737.318029,-7179.997637,-3677.258390
163564.289939,3108.864956,-9918.759623,689.485948
163564.290259,6439.791695,-9104.533087,6052.154434
163564.290579,7031.956449,-8882.471304,4290.134789
163564.290898,2294.638420,-9474.636058,3600.648841
163564.291218,-3552.988522,-8956.491898,995.924147
163564.291538,-4293.194464,-8216.285956,-1915.238745
163564.291858,-1776.494261,-8660.409521,-229.828649
163564.292177,3849.070898,-9252.574275,3677.258390
163564.292497,3182.885551,-10658.965565,4979.620737
163564.292817,3330.926739,-8882.471304,3294.210641
163564.293137,-2220.617826,-9474.636058,-76.609550
163564.293457,-5847.626942,-9548.656652,-3447.429741
163564.293776,-2516.700203,-11251.130318,-1302.362347
163564.294096,-2368.659014,-11473.192101,919.314598
163564.294416,2516.700203,-9030.512492,1991.848295
163564.294736,3108.864956,-8364.327145,3447.429741
163564.295055,1924.535449,-6957.935855,3064.381992
163564.295375,-2294.638420,-5107.421000,-3677.258390
163564.295695,-1258.350101,-11103.089130,-689.485948
163564.296015,-2590.720797,-9918.759623,-459.657299
163564.296335,-2738.761985,-10658.965565,306.438199
163564.296654,-370.102971,-9474.636058,-76.609550
163564.296974,4071.132681,-9474.636058,2987.772442
163564.297294,5847.626942,-9474.636058,3447.429741
163564.297614,518.144159,-5773.606348,-995.924147
163564.297933,-1184.329507,-7772.162391,-1991.848295
163564.298253,-2072.576638,-10436.903782,612.876398
163564.298573,-2960.823768,-8364.327145,0.000000
163564.298893,1702.473667,-9474.636058,1608.800546
163564.299212,2220.617826,-8808.450710,2451.505594
163564.299532,2294.638420,-7920.203579,2298.286494
163564.299852,-74.020594,-8512.368333,919.314598
163564.300172,-2146.597232,-9178.553681,-229.828649
163564.300492,-4441.235652,-10658.965565,459.657299
163564.300811,-4737.318029,-9548.656652,0.000000
163564.301131,296.082377,-9474.636058,842.705048
163564.301451,0.000000,-5995.668130,1838.629195
163564.301771,518.144159,-4885.359217,-536.266849
163564.302090,-1850.514855,-8216.285956,-1608.800546
163564.302410,-1850.514855,-11695.253884,-2145.067394
163564.302730,-3034.844362,-13989.892304,-842.705048
163564.303050,-1554.432478,-13027.624579,-229.828649
163564.303370,-2960.823768,-9548.656652,-1225.752797
163564.303689,-3552.988522,-5995.668130,0.000000
163564.304009,4367.215058,-8290.306550,1149.143247
163564.304329,3330.926739,-9104.533087,1762.019645
163564.304649,1184.329507,-9548.656652,1225.752797
163564.304968,-666.185348,-11251.130318,1302.362347
163564.305288,-1776.494261,-10140.821405,-383.047749
163564.305608,-2072.576638,-8068.244768,-2681.334243
163564.305928,1702.473667,-7105.977043,-1915.238745
163564.306248,5847.626942,-7994.224174,-76.609550
163564.306567,5847.626942,-11843.295072,2987.772442
163564.306887,1406.391290,-11251.130318,383.047749
163564.307207,-3923.091493,-11843.295072,-76.609550
163564.307527,-2960.823768,-9844.739029,-76.609550
163564.307846,-4737.318029,-6291.750507,-3370.820191
163564.308166,1702.473667,-8660.409521,-383.047749
163564.308486,4293.194464,-8142.265362,1762.019645
163564.308806,3478.967927,-9178.553681,2834.553343
163564.309125,1702.473667,-9178.553681,-76.609550
163564.309445,-3849.070898,-9548.656652,-3064.381992
163564.309765,-3627.009116,-10955.047942,-4979.620737
163564.310085,-2442.679609,-13027.624579,-2911.162892
163564.310405,-74.020594,-11843.295072,-2528.115143
163564.310724,592.164754,-11917.315666,1378.971896
163564.311044,1480.411884,-10140.821405,0.000000
163564.311364,-888.247130,-8586.388927,-1838.629195
163564.311684,-2960.823768,-7624.121203,-2528.115143
163564.312003,-3182.885551,-7179.997637,-5822.325785
163564.312323,-962.267725,-8068.244768,-4290.134789
163564.312643,1776.494261,-7846.182985,0.000000
163564.312963,1184.329507,-7179.997637,306.438199
163564.313283,2664.741391,-8364.327145,1532.190996
163564.313602,814.226536,-8882.471304,-689.485948
163564.313922,-4145.153275,-9548.656652,-3677.258390
163564.314242,-2886.803174,-10362.883188,-4060.306139
163564.314562,-1406.391290,-11843.295072,-2145.067394
163564.314881,1184.329507,-11029.068536,766.095498
163564.315201,1850.514855,-7328.038826,459.657299
163564.315521,3182.885551,-5773.606348,2374.896044
163564.315841,1702.473667,-5329.482782,-1302.362347
163564.316161,-2072.576638,-8068.244768,-1225.752797
163564.316480,-1480.411884,-9770.718434,-76.609550
163564.316800,-444.123565,-12731.542202,2068.457845
163564.317120,-1184.329507,-9548.656652,0.000000
163564.317440,74.020594,-9474.636058,1532.190996
163564.317759,888.247130,-6809.894666,0.000000
163564.318079,-1480.411884,-7698.141797,-1532.190996
163564.318399,-666.185348,-10658.965565,-3140.991542
163564.318719,-1480.411884,-13471.748144,-306.438199
163564.319039,-148.041188,-12731.542202,1149.143247
163564.319358,1110.308913,-11843.295072,2374.896044
163564.319678,-74.020594,-9474.636058,1149.143247
163564.319998,3478.967927,-9474.636058,4213.525239
163564.320318,1850.514855,-7772.162391,1915.238745
163564.320637,1924.535449,-9474.636058,2604.724693
163564.320957,-222.061783,-10955.047942,2451.505594
163564.321277,-3552.988522,-8364.327145,0.000000
163564.321597,-2960.823768,-7179.997637,-2145.067394
163564.321916,-2072.576638,-9252.574275,0.000000
163564.322236,3478.967927,-10658.965565,2374.896044
163564.322556,1702.473667,-9474.636058,1762.019645
163564.322876,1110.308913,-11251.130318,2374.896044
163564.323196,-2960.823768,-11325.150913,1838.629195
163564.323515,-3478.967927,-10066.800811,76.609550
163564.323835,-1998.556043,-8438.347739,-306.438199
163564.324155,0.000000,-8290.306550,1838.629195
163564.324475,0.000000,-3923.091493,0.000000
163564.324794,-1184.329507,-7254.018232,919.314598
163564.325114,-2368.659014,-7179.997637,0.000000
163564.325434,-370.102971,-11843.295072,-76.609550
163564.325754,-2146.597232,-9992.780217,-1302.362347
163564.326074,-3552.988522,-9548.656652,0.000000
163564.326393,-666.185348,-9474.636058,-919.314598
163564.326713,1850.514855,-8438.347739,766.095498
163564.327033,2294.638420,-8216.285956,842.705048
163564.327353,1998.556043,-7476.080014,-1762.019645
163564.327672,1110.308913,-11251.130318,-1072.533697
163564.327992,0.000000,-9548.656652,0.000000
163564.328312,-370.102971,-9474.636058,-1608.800546
163564.328632,-1184.329507,-6587.832884,-3524.039291
163564.328952,0.000000,-6291.750507,0.000000
163564.329271,2294.638420,-7254.018232,-995.924147
163564.329591,2294.638420,-7772.162391,-995.924147
163564.329911,444.123565,-10288.862594,153.219100
163564.330231,222.061783,-9474.636058,-919.314598
163564.330550,-74.020594,-11843.295072,-76.609550
163564.330870,296.082377,-9770.718434,-229.828649
163564.331190,666.185348,-8660.409521,229.828649
163564.331510,2294.638420,-7994.224174,-689.485948
163564.331829,0.000000,-7179.997637,0.000000
163564.332149,-74.020594,-9474.636058,-1608.800546
163564.332469,-3256.906145,-9696.697840,-1838.629195
163564.332789,-3997.112087,-9252.574275,-3140.991542
163564.333109,-2442.679609,-10658.965565,-2221.676944
163564.333428,-814.226536,-9474.636058,-76.609550
163564.333748,0.000000,-5995.668130,0.000000
163564.334068,1036.288319,-8068.244768,-995.924147
163564.334388,-370.102971,-8956.491898,-1991.848295
163564.334707,-370.102971,-9844.739029,-1149.143247
163564.335027,-666.185348,-10955.047942,-1915.238745
163564.335347,-370.102971,-9696.697840,-1991.848295
163564.335667,-74.020594,-11251.130318,-76.609550
163564.335987,518.144159,-7994.224174,-842.705048
163564.336306,-2368.659014,-7179.997637,-3677.258390
163564.336626,1184.329507,-10732.986159,0.000000
163564.336946,0.000000,-9548.656652,-1838.629195
163564.337266,222.061783,-10288.862594,383.047749
163564.337585,518.144159,-11103.089130,-383.047749
163564.337905,74.020594,-10510.924376,1455.581446
163564.338225,814.226536,-7772.162391,0.000000
163564.338545,518.144159,-7624.121203,766.095498
163564.338865,518.144159,-8956.491898,153.219100
163564.339184,-74.020594,-10510.924376,1149.143247
163564.339504,-1258.350101,-9474.636058,-2068.457845
163564.339824,-2368.659014,-9844.739029,0.000000
163564.340144,-2146.597232,-11103.089130,-383.047749
163564.340463,0.000000,-8512.368333,0.000000
163564.340783,-1998.556043,-8660.409521,-536.266849
163564.341103,-666.185348,-6291.750507,-2681.334243
163564.341423,-666.185348,-6661.853478,-4060.306139
163564.341743,1554.432478,-7550.100608,-1762.019645
163564.342062,2368.659014,-7772.162391,0.000000
163564.342382,1480.411884,-11991.336260,2834.553343
163564.342702,1110.308913,-11843.295072,2068.457845
163564.343022,-3552.988522,-9548.656652,0.000000
163564.343341,-74.020594,-8956.491898,-1915.238745
163564.343661,0.000000,-8808.450710,-995.924147
163564.343981,888.247130,-9992.780217,689.485948
163564.344301,1702.473667,-7698.141797,-76.609550
163564.344620,1702.473667,-11177.109724,2987.772442
163564.344940,1702.473667,-9474.636058,2068.457845
163564.345260,-1776.494261,-7698.141797,-306.438199
163564.345580,-74.020594,-8882.471304,-689.485948
163564.345900,-444.123565,-9548.656652,2374.896044
163564.346219,-1184.329507,-7476.080014,0.000000
163564.346539,-444.123565,-8956.491898,-76.609550
163564.346859,-1184.329507,-10214.842000,383.047749
163564.347179,-1628.453072,-9844.739029,0.000000
163564.347498,-2442.679609,-9104.533087,-1838.629195
163564.347818,-2220.617826,-10140.821405,-1455.581446
163564.348138,-814.226536,-10362.883188,-76.609550
163564.348458,1998.556043,-10658.965565,-76.609550
163564.348778,518.144159,-9474.636058,536.266849
163564.349097,1480.411884,-11325.150913,3677.258390
163564.349417,0.000000,-6143.709319,0.000000
163564.349737,-740.205942,-8734.430116,842.705048
163564.350057,-370.102971,-8216.285956,-842.705048
163564.350376,-2368.659014,-8364.327145,-2451.505594
163564.350696,-1110.308913,-7179.997637,-1225.752797
163564.351016,0.000000,-9252.574275,0.000000
163564.351336,592.164754,-9844.739029,1378.971896
163564.351656,1110.308913,-9474.636058,689.485948
163564.351975,1702.473667,-11843.295072,3294.210641
163564.352295,0.000000,-9548.656652,612.876398
163564.352615,-518.144159,-10140.821405,1072.533697
163564.352935,444.123565,-9548.656652,536.266849
163564.353254,0.000000,-9104.533087,612.876398
163564.353574,-222.061783,-6587.832884,-1149.143247
163564.353894,-74.020594,-11251.130318,-76.609550
163564.354214,-666.185348,-7994.224174,-1685.410096
163564.354533,-1036.288319,-9548.656652,0.000000
163564.354853,-74.020594,-13397.727550,2528.115143
163564.355173,-74.020594,-11843.295072,-76.609550
163564.355493,-3256.906145,-9844.739029,-1762.019645
163564.355813,-814.226536,-9770.718434,-1302.362347
163564.356132,-962.267725,-11103.089130,-383.047749
163564.356452,-592.164754,-10732.986159,612.876398
163564.356772,-1258.350101,-9474.636058,-1838.629195
163564.357092,-3849.070898,-8808.450710,-306.438199
163564.357411,-1702.473667,-4737.318029,-3140.991542
163564.357731,-1258.350101,-6513.812290,-4366.744339
163564.358051,1554.432478,-8882.471304,-2221.676944
163564.358371,4589.276840,-14063.912898,2834.553343
163564.358691,1406.391290,-13027.624579,3064.381992
163564.359010,-1998.556043,-10288.862594,-383.047749
163564.359330,-3182.885551,-8734.430116,-2528.115143
163564.359650,-4737.318029,-4811.338623,-4903.011187
163564.359969,0.000000,-5995.668130,-3600.648841
163564.360289,4737.318029,-7772.162391,-1915.238745
163564.360609,1184.329507,-9548.656652,1225.752797
163564.360929,888.247130,-12657.521608,1532.190996
163564.361248,-2442.679609,-11843.295072,-76.609550
163564.361568,-3997.112087,-9252.574275,-2374.896044
163564.361888,-1480.411884,-5921.647536,-2451.505594
163564.362208,1702.473667,-5181.441594,-1762.019645
163564.362527,4145.153275,-8068.244768,1072.533697
163564.362847,148.041188,-7772.162391,0.000000
163564.363167,-370.102971,-10658.965565,-689.485948
163564.363487,-6513.812290,-8660.409521,-4290.134789
163564.363806,-4441.235652,-10732.986159,-4290.134789
163564.364126,-2960.823768,-9548.656652,-2451.505594
163564.364446,0.000000,-9548.656652,0.000000
163564.364765,4071.132681,-9770.718434,1149.143247
163564.365085,2886.803174,-9474.636058,2221.676944
163564.365405,1776.494261,-9326.594869,1762.019645
163564.365725,-1850.514855,-7772.162391,-2911.162892
163564.366044,-1110.308913,-8660.409521,-3677.258390
163564.366364,-1776.494261,-10584.944971,-459.657299
163564.366684,1110.308913,-10510.924376,-76.609550
163564.367004,3478.967927,-11547.212695,-76.609550
163564.367323,0.000000,-7179.997637,612.876398
163564.367643,-370.102971,-9474.636058,0.000000
163564.367963,-2960.823768,-10288.862594,-1455.581446
163564.368282,-3478.967927,-9992.780217,-1915.238745
163564.368602,-3108.864956,-9844.739029,0.000000
163564.368922,1702.473667,-10658.965565,3600.648841
163564.369242,1184.329507,-7772.162391,2145.067394
163564.369561,2220.617826,-7994.224174,2068.457845
163564.369881,814.226536,-8882.471304,1378.971896
163564.370201,-2664.741391,-10066.800811,0.000000
163564.370521,-4737.318029,-8364.327145,-3677.258390
163564.370840,-6587.832884,-9548.656652,-2451.505594
163564.371160,-3552.988522,-8364.327145,0.000000
163564.371480,-444.123565,-9400.615463,0.000000
163564.371800,1850.514855,-8882.471304,-76.609550
163564.372119,3182.885551,-10658.965565,2987.772442
163564.372439,-1036.288319,-10362.883188,1225.752797
163564.372759,-962.267725,-10214.842000,766.095498
163564.373078,-2294.638420,-9696.697840,1225.752797
163564.373398,0.000000,-6291.750507,1149.143247
163564.373718,444.123565,-5995.668130,612.876398
163564.374038,4071.132681,-6513.812290,-689.485948
163564.374357,3256.906145,-8808.450710,229.828649
163564.374677,0.000000,-11029.068536,1225.752797
163564.374997,-666.185348,-13619.789333,-76.609550
163564.375317,-4737.318029,-11325.150913,-612.876398
163564.375636,-1998.556043,-8438.347739,-2221.676944
163564.375956,1036.288319,-7328.038826,-1302.362347
163564.376276,5255.462188,-7698.141797,1149.143247
163564.376595,4737.318029,-9548.656652,4903.011187
163564.376915,1406.391290,-10140.821405,3140.991542
163564.377235,-74.020594,-13027.624579,2374.896044
163564.377555,-5107.421000,-9474.636058,-2834.553343
163564.377874,-4071.132681,-6883.915261,-3217.601092
163564.378194,-74.020594,-9474.636058,-689.485948
163564.378514,2368.659014,-8364.327145,-1378.971896
163564.378834,592.164754,-11325.150913,766.095498
163564.379153,-666.185348,-11325.150913,383.047749
163564.379473,-5329.482782,-10436.903782,-612.876398
163564.379793,-7105.977043,-9548.656652,-2451.505594
163564.380113,-5921.647536,-4811.338623,-4903.011187
163564.380432,-1184.329507,-5995.668130,0.000000
163564.380752,5699.585753,-8142.265362,612.876398
163564.381072,4071.132681,-9770.718434,1455.581446
163564.381391,3478.967927,-11843.295072,1838.629195
163564.381711,-3775.050304,-10066.800811,-1608.800546
163564.382031,-5033.400406,-11251.130318,-3217.601092
163564.382351,-3404.947333,-8734.430116,-3524.039291
163564.382670,0.000000,-8068.244768,-1838.629195
163564.382990,4663.297435,-7698.141797,229.828649
163564.383310,2368.659014,-7772.162391,1532.190996
163564.383630,1776.494261,-7920.203579,229.828649
163564.383949,-4441.235652,-9548.656652,-1838.629195
163564.384269,-2442.679609,-10658.965565,-3753.867940
163564.384589,-3256.906145,-10288.862594,-1455.581446
163564.384908,-296.082377,-8438.347739,-383.047749
163564.385228,3330.926739,-7328.038826,383.047749
163564.385548,3849.070898,-9474.636058,2374.896044
163564.385868,3108.864956,-9696.697840,2374.896044
163564.386187,-1332.370696,-10658.965565,-1302.362347
163564.386507,-3627.009116,-13027.624579,-1915.238745
163564.386827,-5403.503377,-10214.842000,-5132.839837
163564.387147,-1702.473667,-9548.656652,-4290.134789
163564.387466,2368.659014,-7254.018232,0.000000
163564.387786,4219.173869,-9696.697840,2221.676944
163564.388106,3108.864956,-9252.574275,1149.143247
163564.388426,-1258.350101,-9918.759623,-1302.362347
163564.388745,-666.185348,-12731.542202,-383.047749
163564.389065,-2960.823768,-11029.068536,-995.924147
163564.389385,-74.020594,-11251.130318,1608.800546
163564.389704,2294.638420,-8290.306550,-995.924147
163564.390024,2368.659014,-9548.656652,612.876398
163564.390344,0.000000,-7772.162391,0.000000
163564.390664,-2442.679609,-8882.471304,-1302.362347
163564.390983,-4663.297435,-9400.615463,-2298.286494
163564.391303,-5403.503377,-9326.594869,-2987.772442
163564.391623,-962.267725,-8586.388927,-1072.533697
163564.391943,2812.782580,-8956.491898,2528.115143
163564.392262,1776.494261,-6587.832884,1532.190996
163564.392582,1184.329507,-7179.997637,2451.505594
163564.392902,-2146.597232,-8512.368333,-2451.505594
163564.393221,-3552.988522,-9548.656652,-2681.334243
163564.393541,-6365.771101,-8364.327145,-4903.011187
163564.393861,-740.205942,-10066.800811,-153.219100
163564.394181,296.082377,-8512.368333,76.609550
163564.394500,2442.679609,-8068.244768,-383.047749
163564.394820,814.226536,-9474.636058,-76.609550
163564.395140,-1776.494261,-10066.800811,-383.047749
163564.395460,-3849.070898,-10288.862594,-3447.429741
163564.395779,-5181.441594,-10140.821405,-3447.429741
163564.396099,-3552.988522,-8956.491898,0.000000
163564.396419,1184.329507,-7772.162391,1225.752797
163564.396739,4811.338623,-4811.338623,0.000000
163564.397058,4885.359217,-8216.285956,2987.772442
163564.397378,3330.926739,-9178.553681,1532.190996
163564.397698,-296.082377,-11621.233289,-459.657299
163564.398017,-1850.514855,-14211.954086,-76.609550
163564.398337,-1998.556043,-10436.903782,-1302.362347
163564.398657,-1850.514855,-10658.965565,-76.609550
163564.398977,2886.803174,-7105.977043,-1762.019645
163564.399296,2516.700203,-8068.244768,1378.971896
163564.399616,592.164754,-7179.997637,2451.505594
163564.399936,-1554.432478,-9918.759623,0.000000
163564.400256,-4219.173869,-11917.315666,306.438199
163564.400575,-3478.967927,-8438.347739,-229.828649
163564.400895,-1554.432478,-7624.121203,1302.362347
163564.401215,5255.462188,-7105.977043,2374.896044
163564.401534,2368.659014,-7772.162391,3064.381992
163564.401854,3478.967927,-10362.883188,2374.896044
163564.402174,-2738.761985,-10288.862594,-689.485948
163564.402494,-4811.338623,-13027.624579,-3064.381992
163564.402813,-7179.997637,-9474.636058,-4979.620737
163564.403133,-5329.482782,-10288.862594,-3370.820191
163564.403453,592.164754,-8512.368333,-1302.362347
163564.403773,3256.906145,-8512.368333,1915.238745
163564.404092,4959.379811,-9474.636058,5745.716235
163564.404412,-74.020594,-9474.636058,1072.533697
163564.404732,-2442.679609,-10658.965565,-995.924147
163564.405052,-4145.153275,-8364.327145,-3447.429741
163564.405371,-2368.659014,-9844.739029,0.000000
163564.405691,3478.967927,-9474.636058,-76.609550
163564.406011,2368.659014,-10584.944971,1838.629195
163564.406330,3256.906145,-9030.512492,1149.143247
163564.406650,-1184.329507,-9548.656652,-1149.143247
163564.406970,-2960.823768,-10584.944971,-1608.800546
163564.407290,-7994.224174,-7179.997637,-4903.011187
163564.407609,-1554.432478,-11251.130318,-1302.362347
163564.407929,2368.659014,-8512.368333,76.609550
163564.408249,3478.967927,-8068.244768,2834.553343
163564.408569,4441.235652,-7105.977043,4826.401637
163564.408888,2886.803174,-7698.141797,-536.266849
163564.409208,-74.020594,-11177.109724,-689.485948
163564.409528,-5181.441594,-9178.553681,-3677.258390
163564.409847,-2368.659014,-9548.656652,-3447.429741
163564.410167,592.164754,-10732.986159,1838.629195
163564.410487,0.000000,-7179.997637,0.000000
163564.410807,962.267725,-8364.327145,-229.828649
163564.411126,-1850.514855,-8142.265362,-2987.772442
163564.411446,-740.205942,-10436.903782,-4366.744339
163564.411766,-1258.350101,-12509.480420,-1302.362347
163564.412086,-1184.329507,-10140.821405,612.876398
163564.412405,-814.226536,-8438.347739,306.438199
163564.412725,2664.741391,-7772.162391,1225.752797
163564.413045,4663.297435,-7994.224174,-76.609550
163564.413365,0.000000,-8364.327145,612.876398
163564.413684,0.000000,-9918.759623,-1225.752797
163564.414004,-3701.029710,-12361.439231,-766.095498
163564.414324,-3182.885551,-10658.965565,-1225.752797
163564.414643,-2960.823768,-8512.368333,-2221.676944
163564.414963,814.226536,-7994.224174,-1608.800546
163564.415283,1924.535449,-6587.832884,153.219100
163564.415603,592.164754,-7179.997637,1225.752797
163564.415922,148.041188,-10584.944971,1149.143247
163564.416242,-3923.091493,-10214.842000,-76.609550
163564.416562,-5921.647536,-7772.162391,0.000000
163564.416882,-2442.679609,-9178.553681,-1149.143247
163564.417201,1702.473667,-8734.430116,0.000000
163564.417521,2368.659014,-8882.471304,1685.410096
163564.417841,1406.391290,-7179.997637,536.266849
163564.418160,-74.020594,-9474.636058,-76.609550
163564.418480,-3034.844362,-10658.965565,-3140.991542
163564.418800,-3923.091493,-8956.491898,-3600.648841
163564.419120,-2368.659014,-9548.656652,-4290.134789
163564.419439,3849.070898,-9400.615463,1149.143247
163564.419759,1184.329507,-7179.997637,612.876398
163564.420079,3256.906145,-8882.471304,1608.800546
163564.420399,1924.535449,-8808.450710,-76.609550
163564.420718,-296.082377,-10807.006753,306.438199
163564.421038,-74.020594,-10066.800811,-766.095498
163564.421358,-1480.411884,-10436.903782,-459.657299
163564.421678,1998.556043,-9474.636058,-536.266849
163564.421997,1184.329507,-8142.265362,-995.924147
163564.422317,1184.329507,-8364.327145,1225.752797
163564.422637,1184.329507,-10732.986159,1685.410096
163564.422956,-2146.597232,-11029.068536,-1378.971896
163564.423276,-3330.926739,-10214.842000,-1378.971896
163564.423596,-3923.091493,-9992.780217,-1991.848295
163564.423916,-962.267725,-9104.533087,-1838.629195
163564.424235,0.000000,-7772.162391,0.000000
163564.424555,2072.576638,-8808.450710,2528.115143
163564.424875,1702.473667,-10658.965565,2374.896044
163564.425195,-2442.679609,-9474.636058,-1302.362347
163564.425514,-4293.194464,-9474.636058,-1302.362347
163564.425834,-4737.318029,-9548.656652,-1225.752797
163564.426154,-444.123565,-9326.594869,-919.314598
163564.426473,0.000000,-9252.574275,1225.752797
163564.426793,1628.453072,-7476.080014,1455.581446
163564.427113,-1998.556043,-6587.832884,-3983.696590
163564.427433,-2442.679609,-8512.368333,-3140.991542
163564.427752,-1258.350101,-12879.583391,-1915.238745
163564.428072,-1554.432478,-10510.924376,-689.485948
163564.428392,740.205942,-8956.491898,0.000000
163564.428712,3478.967927,-11251.130318,6665.030833
163564.429031,3256.906145,-5995.668130,2451.505594
163564.429351,1924.535449,-7105.977043,1838.629195
163564.429671,2072.576638,-7550.100608,1072.533697
163564.429991,-1332.370696,-8586.388927,383.047749
163564.430310,-1258.350101,-9474.636058,-76.609550
163564.430630,-74.020594,-10214.842000,-459.657299
163564.430950,-666.185348,-10658.965565,-383.047749
163564.431269,1406.391290,-9474.636058,-76.609550
163564.431589,518.144159,-10362.883188,-76.609550
163564.431909,1702.473667,-13915.871710,2374.896044
163564.432229,-3034.844362,-10362.883188,0.000000
163564.432548,-1480.411884,-9918.759623,459.657299
163564.432868,-518.144159,-7846.182985,0.000000
163564.433188,296.082377,-7772.162391,0.000000
163564.433508,1184.329507,-5403.503377,0.000000
163564.433827,740.205942,-8956.491898,995.924147
163564.434147,2294.638420,-12953.603985,-76.609550
163564.434467,-2590.720797,-11843.295072,-2834.553343
163564.434786,-2442.679609,-13619.789333,-1915.238745
163564.435106,-3552.988522,-13249.686362,-1378.971896
163564.435426,-1258.350101,-10881.027347,-1608.800546
163564.435746,296.082377,-8364.327145,0.000000
163564.436065,814.226536,-7254.018232,229.828649
163564.436385,0.000000,-5995.668130,0.000000
163564.436705,-592.164754,-8438.347739,995.924147
163564.437025,-1554.432478,-6587.832884,0.000000
163564.437344,-1776.494261,-9696.697840,919.314598
163564.437664,-666.185348,-8290.306550,-76.609550
163564.437984,1998.556043,-9474.636058,-76.609550
163564.438304,888.247130,-7920.203579,306.438199
163564.438623,0.000000,-9326.594869,0.000000
163564.438943,-2368.659014,-10362.883188,-766.095498
163564.439263,-2960.823768,-9326.594869,-919.314598
163564.439582,-4515.256246,-7550.100608,-3677.258390
163564.439902,-74.020594,-9474.636058,-1302.362347
163564.440222,0.000000,-7179.997637,612.876398
163564.440542,3330.926739,-7402.059420,2068.457845
163564.440861,3478.967927,-11843.295072,2374.896044
163564.441181,-2368.659014,-8660.409521,0.000000
163564.441501,-1332.370696,-9104.533087,-1455.581446
163564.441821,-2664.741391,-11399.171507,-2298.286494
163564.442140,370.102971,-10881.027347,-2298.286494
163564.442460,-74.020594,-9622.677246,-2068.457845
163564.442780,74.020594,-8068.244768,-1225.752797
163564.443099,0.000000,-9548.656652,-2834.553343
163564.443419,0.000000,-10732.986159,-1225.752797
163564.443739,2294.638420,-10658.965565,-689.485948
163564.444059,-3552.988522,-7179.997637,0.000000
163564.444378,1406.391290,-6291.750507,-2298.286494
163564.444698,1480.411884,-10881.027347,-229.828649
163564.445018,4293.194464,-9696.697840,1455.581446
163564.445338,1702.473667,-8660.409521,689.485948
163564.445657,1702.473667,-13027.624579,3600.648841
163564.445977,-2886.803174,-7476.080014,-2757.943793
163564.446297,-3108.864956,-10288.862594,-2911.162892
163564.446617,-1776.494261,-8956.491898,-2221.676944
163564.446936,-2368.659014,-9548.656652,612.876398
163564.447256,0.000000,-8660.409521,1838.629195
163564.447576,-1850.514855,-6513.812290,-2221.676944
163564.447895,-3256.906145,-8660.409521,-1532.190996
163564.448215,-2664.741391,-7476.080014,0.000000
163564.448535,-74.020594,-8290.306550,-1302.362347
163564.448855,1628.453072,-9474.636058,1608.800546
163564.449174,1184.329507,-8734.430116,459.657299
163564.449494,518.144159,-9326.594869,1149.143247
163564.449814,-888.247130,-9548.656652,-536.266849
163564.450134,-74.020594,-9844.739029,-995.924147
163564.450453,-3182.885551,-10807.006753,-1302.362347
163564.450773,-1850.514855,-10510.924376,-1685.410096
163564.451093,-74.020594,-11843.295072,-1302.362347
163564.451412,518.144159,-9474.636058,-1302.362347
163564.451732,4663.297435,-10658.965565,2374.896044
163564.452052,666.185348,-9844.739029,1685.410096
163564.452372,888.247130,-9030.512492,0.000000
163564.452691,-962.267725,-9992.780217,766.095498
163564.453011,592.164754,-9326.594869,1762.019645
163564.453331,0.000000,-9548.656652,766.095498
163564.453651,518.144159,-11177.109724,1532.190996
163564.453970,2294.638420,-9474.636058,-76.609550
163564.454290,-2294.638420,-8364.327145,-919.314598
163564.454610,-1184.329507,-7772.162391,-3064.381992
163564.454929,-74.020594,-11843.295072,-76.609550
163564.455249,-2072.576638,-9548.656652,153.219100
163564.455569,-1702.473667,-9104.533087,0.000000
163564.455889,-444.123565,-9104.533087,1149.143247
163564.456208,0.000000,-7772.162391,1532.190996
163564.456528,0.000000,-7476.080014,995.924147
163564.456848,0.000000,-6587.832884,0.000000
163564.457168,-1480.411884,-9252.574275,919.314598
163564.457487,-74.020594,-11251.130318,1762.019645
163564.457807,-1258.350101,-8882.471304,-2528.115143
163564.458127,-74.020594,-11103.089130,-76.609550
163564.458447,-1036.288319,-9770.718434,0.000000
163564.458766,-1036.288319,-10288.862594,0.000000
163564.459086,-1036.288319,-9844.739029,-1302.362347
163564.459406,-3701.029710,-10140.821405,0.000000
163564.459725,-370.102971,-8882.471304,-76.609550
163564.460045,0.000000,-7179.997637,0.000000
163564.460365,1184.329507,-5995.668130,1838.629195
163564.460685,2294.638420,-7105.977043,1149.143247
163564.461004,3478.967927,-8290.306550,-76.609550
163564.461324,2294.638420,-10584.944971,536.266849
163564.461644,-518.144159,-13249.686362,1149.143247
163564.461964,-2294.638420,-11621.233289,919.314598
163564.462284,-2442.679609,-11399.171507,-76.609550
163564.462604,-740.205942,-11325.150913,-612.876398
163564.462924,-1480.411884,-7254.018232,-3140.991542
163564.463243,0.000000,-9548.656652,0.000000
163564.463563,1628.453072,-10288.862594,842.705048
163564.463883,-1924.535449,-8364.327145,-1838.629195
163564.464203,-1702.473667,-8956.491898,306.438199
163564.464523,-3552.988522,-5995.668130,-2451.505594
163564.464843,0.000000,-7179.997637,-2298.286494
163564.465163,592.164754,-9474.636058,-153.219100
163564.465482,5847.626942,-11547.212695,3600.648841
163564.465802,2294.638420,-10881.027347,0.000000
163564.466122,0.000000,-11325.150913,-153.219100
163564.466442,-962.267725,-11251.130318,-2221.676944
163564.466762,-1850.514855,-11843.295072,-1302.362347
163564.467082,0.000000,-7772.162391,-2451.505594
163564.467401,222.061783,-9474.636058,229.828649
163564.467721,2220.617826,-8364.327145,229.828649
163564.468041,296.082377,-8364.327145,0.000000
163564.468361,518.144159,-8364.327145,0.000000
163564.468681,148.041188,-7476.080014,0.000000
163564.469001,-2960.823768,-8364.327145,0.000000
163564.469321,74.020594,-10807.006753,153.219100
163564.469640,-74.020594,-13619.789333,-76.609550
163564.469960,-74.020594,-9474.636058,2374.896044
163564.470280,-4737.318029,-5995.668130,-2451.505594
163564.470600,-2146.597232,-9474.636058,-1532.190996
163564.470920,-3330.926739,-8364.327145,-2757.943793
163564.471240,-2072.576638,-8290.306550,-1225.752797
163564.471560,-370.102971,-9474.636058,-1302.362347
163564.471879,-74.020594,-11251.130318,-76.609550
163564.472199,-740.205942,-9548.656652,612.876398
163564.472519,-1776.494261,-8364.327145,153.219100
163564.472839,-74.020594,-7105.977043,-2528.115143
163564.473159,-1776.494261,-7476.080014,-1225.752797
163564.473479,592.164754,-8068.244768,-2298.286494
163564.473799,2960.823768,-10510.924376,229.828649
163564.474118,1554.432478,-11917.315666,2068.457845
163564.474438,888.247130,-9844.739029,842.705048
163564.474758,-74.020594,-10658.965565,-1302.362347
163564.475078,-814.226536,-8438.347739,-383.047749
163564.475398,-74.020594,-9474.636058,-1302.362347
163564.475718,666.185348,-6735.874072,0.000000
163564.476038,2368.659014,-8364.327145,0.000000
163564.476357,1998.556043,-7698.141797,0.000000
163564.476677,740.205942,-8290.306550,995.924147
163564.476997,-2220.617826,-8586.388927,0.000000
163564.477317,-1554.432478,-8956.491898,-2068.457845
163564.477637,-518.144159,-11843.295072,-76.609550
163564.477957,0.000000,-9548.656652,2068.457845
163564.478277,-962.267725,-7254.018232,0.000000
163564.478596,-1184.329507,-8364.327145,0.000000
163564.478916,-3552.988522,-7772.162391,-2451.505594
163564.479236,-74.020594,-11251.130318,-1915.238745
163564.479556,-74.020594,-11843.295072,-76.609550
163564.479876,-3330.926739,-9918.759623,153.219100
163564.480196,-1554.432478,-7846.182985,-919.314598
163564.480516,-1332.370696,-7698.141797,-2374.896044
163564.480835,0.000000,-6587.832884,0.000000
163564.481155,296.082377,-8808.450710,383.047749
163564.481475,-148.041188,-10362.883188,306.438199
163564.481795,-222.061783,-12731.542202,-76.609550
163564.482115,-4515.256246,-9548.656652,-2374.896044
163564.482435,-444.123565,-9770.718434,1072.533697
163564.482755,592.164754,-6587.832884,-919.314598
163564.483074,3849.070898,-8660.409521,536.266849
163564.483394,2368.659014,-9992.780217,1608.800546
163564.483714,148.041188,-9696.697840,0.000000
163564.484034,-1258.350101,-9474.636058,-689.485948
163564.484354,-2442.679609,-9474.636058,-383.047749
163564.484674,-1332.370696,-7328.038826,-842.705048
163564.484994,-888.247130,-7254.018232,-536.266849
163564.485313,4293.194464,-7698.141797,0.000000
163564.485633,3404.947333,-10510.924376,2374.896044
163564.485953,592.164754,-9548.656652,2451.505594
163564.486273,-1850.514855,-11843.295072,1838.629195
163564.486593,-2738.761985,-11547.212695,-76.609550
163564.486913,-3849.070898,-5995.668130,-4290.134789
163564.487233,1110.308913,-8882.471304,-76.609550
163564.487552,2516.700203,-7994.224174,306.438199
163564.487872,74.020594,-10066.800811,1838.629195
163564.488192,-518.144159,-9696.697840,229.828649
163564.488512,-2294.638420,-10658.965565,-1302.362347
163564.488832,-2664.741391,-11325.150913,-1838.629195
163564.489152,-2294.638420,-7179.997637,-4903.011187
163564.489472,0.000000,-9844.739029,0.000000
163564.489791,5107.421000,-9474.636058,1685.410096
163564.490111,1406.391290,-8364.327145,0.000000
163564.490431,3182.885551,-10732.986159,3600.648841
163564.490751,-1332.370696,-9548.656652,153.219100
163564.491071,-2960.823768,-10288.862594,-689.485948
163564.491391,-2590.720797,-9474.636058,-689.485948
163564.491711,1702.473667,-9474.636058,-76.609550
163564.492030,1184.329507,-7476.080014,1225.752797
163564.492350,2886.803174,-10658.965565,2068.457845
163564.492670,0.000000,-9252.574275,1149.143247
163564.492990,-4737.318029,-9548.656652,0.000000
163564.493310,-4811.338623,-9400.615463,-3140.991542
163564.493630,-4367.215058,-9844.739029,-842.705048
163564.493950,-888.247130,-8512.368333,383.047749
163564.494269,1924.535449,-7105.977043,1455.581446
163564.494589,3478.967927,-8290.306550,2987.772442
163564.494909,148.041188,-5403.503377,0.000000
163564.495229,-2960.823768,-8364.327145,-1838.629195
163564.495549,-2072.576638,-11843.295072,-3370.820191
163564.495869,-3034.844362,-14211.954086,-2528.115143
163564.496189,-4737.318029,-9548.656652,-2451.505594
163564.496508,518.144159,-8290.306550,-1455.581446
163564.496828,2368.659014,-9696.697840,-612.876398
163564.497148,3404.947333,-9474.636058,-383.047749
163564.497468,814.226536,-10066.800811,-383.047749
163564.497788,0.000000,-11695.253884,-76.609550
163564.498108,-3034.844362,-10140.821405,-995.924147
163564.498428,-1184.329507,-6587.832884,-3907.087040
163564.498747,0.000000,-7476.080014,-919.314598
163564.499067,4663.297435,-8882.471304,-76.609550
163564.499387,0.000000,-5995.668130,0.000000
163564.499707,1702.473667,-9474.636058,-76.609550
163564.500027,-1480.411884,-11103.089130,-1838.629195
163564.500347,-4811.338623,-11843.295072,-1685.410096
163564.500666,-1258.350101,-9474.636058,-2528.115143
163564.500986,1702.473667,-9474.636058,-383.047749
163564.501306,3478.967927,-8290.306550,-76.609550
163564.501626,1554.432478,-6143.709319,0.000000
163564.501946,592.164754,-7772.162391,1532.190996
163564.502266,0.000000,-7772.162391,306.438199
163564.502586,-4145.153275,-9548.656652,0.000000
163564.502905,-1776.494261,-8438.347739,-1685.410096
163564.503225,-2146.597232,-9622.677246,-1225.752797
163564.503545,518.144159,-10140.821405,-995.924147
163564.503865,1998.556043,-11843.295072,1762.019645
163564.504185,-2368.659014,-10140.821405,0.000000
163564.504505,-1406.391290,-10510.924376,-1455.581446
163564.504825,-5107.421000,-10066.800811,-2528.115143
163564.505144,-1850.514855,-7402.059420,-2221.676944
163564.505464,-2368.659014,-5995.668130,0.000000
163564.505784,3330.926739,-7402.059420,383.047749
163564.506104,3478.967927,-9918.759623,2604.724693
163564.506424,2368.659014,-10066.800811,2451.505594
163564.506744,-1406.391290,-8364.327145,-1762.019645
163564.507064,-3701.029710,-11177.109724,-1915.238745
163564.507383,-3849.070898,-9548.656652,-3217.601092
163564.507703,-1184.329507,-10214.842000,-2451.505594
163564.508023,3108.864956,-11029.068536,2068.457845
163564.508343,4663.297435,-11843.295072,4213.525239
163564.508663,0.000000,-8364.327145,1225.752797
163564.508983,-1554.432478,-9548.656652,-995.924147
163564.509303,-3923.091493,-11547.212695,-1608.800546
163564.509622,-2072.576638,-9844.739029,-612.876398
163564.509942,-74.020594,-9474.636058,-76.609550
163564.510262,3478.967927,-7105.977043,1455.581446
163564.510582,1406.391290,-8882.471304,1762.019645
163564.510902,2294.638420,-9326.594869,1762.019645
163564.511222,-2220.617826,-7772.162391,-766.095498
163564.511542,-4589.276840,-10140.821405,1225.752797
163564.511861,-5477.523971,-7179.997637,-2451.505594
163564.512181,-444.123565,-8956.491898,-1302.362347
163564.512501,4145.153275,-8956.491898,229.828649
163564.512821,4589.276840,-9548.656652,3830.477490
163564.513141,4663.297435,-8882.471304,3600.648841
163564.513461,-296.082377,-10436.903782,2145.067394
163564.513781,-370.102971,-12879.583391,-1302.362347
163564.514100,-1850.514855,-10066.800811,-689.485948
163564.514420,-2368.659014,-7179.997637,306.438199
163564.514740,666.185348,-5107.421000,612.876398
163564.515060,3108.864956,-7179.997637,1149.143247
163564.515380,1184.329507,-8068.244768,995.924147
163564.515700,-1776.494261,-9548.656652,-766.095498
163564.516020,-3034.844362,-11843.295072,-383.047749
163564.516339,-6143.709319,-11177.109724,-1455.581446
163564.516659,-5107.421000,-7920.203579,-2757.943793
163564.516979,-1184.329507,-7772.162391,-2451.505594
163564.517299,1776.494261,-9548.656652,1378.971896
163564.517619,3478.967927,-7402.059420,-76.609550
163564.517939,-74.020594,-10955.047942,1149.143247
163564.518259,-2146.597232,-9548.656652,-1838.629195
163564.518578,-4811.338623,-11103.089130,-2451.505594
163564.518898,-1406.391290,-9992.780217,-1991.848295
163564.519218,0.000000,-7179.997637,306.438199
163564.519538,1406.391290,-9696.697840,612.876398
163564.519858,2886.803174,-8142.265362,0.000000
163564.520178,0.000000,-9622.677246,-1225.752797
163564.520498,-740.205942,-9844.739029,-3524.039291
163564.520817,-3034.844362,-10955.047942,-2834.553343
163564.521137,-74.020594,-11843.295072,-76.609550
163564.521457,1110.308913,-8586.388927,-842.705048
163564.521777,3034.844362,-7105.977043,-76.609550
163564.522097,4663.297435,-7698.141797,2374.896044
163564.522417,1184.329507,-7772.162391,2451.505594
163564.522737,1776.494261,-9622.677246,0.000000
163564.523056,-2368.659014,-10658.965565,-612.876398
163564.523376,-3034.844362,-9696.697840,-2068.457845
163564.523696,-1998.556043,-9474.636058,-2604.724693
163564.524016,1258.350101,-8882.471304,-1608.800546
163564.524336,3923.091493,-9474.636058,1455.581446
163564.524656,1850.514855,-9548.656652,-1302.362347
163564.524976,0.000000,-8660.409521,-1685.410096
163564.525295,-3108.864956,-12879.583391,2298.286494
163564.525615,-4737.318029,-8364.327145,-2145.067394
163564.525935,-2738.761985,-7994.224174,-3217.601092
163564.526255,740.205942,-8586.388927,-1225.752797
163564.526575,1998.556043,-8364.327145,766.095498
163564.526895,1184.329507,-8216.285956,0.000000
163564.527215,-1480.411884,-11473.192101,0.000000
163564.527534,-2516.700203,-15100.201217,-76.609550
163564.527854,-4219.173869,-9474.636058,-2528.115143
163564.528174,-4515.256246,-6735.874072,-2987.772442
163564.528494,592.164754,-7772.162391,306.438199
163564.528814,3256.906145,-6365.771101,-919.314598
163564.529134,5329.482782,-9400.615463,1762.019645
163564.529454,1776.494261,-11325.150913,1149.143247
163564.529773,-4737.318029,-10732.986159,-2451.505594
163564.530093,-7476.080014,-8512.368333,-4060.306139
163564.530413,-4811.338623,-9474.636058,-2834.553343
163564.530733,296.082377,-6587.832884,-2298.286494
163564.531053,4293.194464,-6217.729913,612.876398
163564.531373,8216.285956,-9474.636058,6052.154434
163564.531693,2368.659014,-7476.080014,2451.505594
163564.532012,-2146.597232,-10066.800811,-306.438199
163564.532332,-4811.338623,-9326.594869,-1838.629195
163564.532652,-4737.318029,-9474.636058,-2911.162892
163564.532972,-1258.350101,-8882.471304,-2145.067394
163564.533292,2220.617826,-9178.553681,1685.410096
163564.533612,4663.297435,-8290.306550,1762.019645
163564.533931,1110.308913,-7105.977043,-76.609550
163564.534251,-2072.576638,-9548.656652,-2451.505594
