#time,accel_x,accel_y,accel_z
59483.809694,-74.020594,-9178.553681,1072.533697
59483.810003,-370.102971,-8882.471304,766.095498
59483.810313,-74.020594,-11843.295072,2374.896044
59483.810623,-74.020594,-9474.636058,-76.609550
59483.810932,-1628.453072,-8068.244768,0.000000
59483.811242,740.205942,-10658.965565,2987.772442
59483.811552,-3256.906145,-7179.997637,0.000000
59483.811861,0.000000,-8364.327145,0.000000
59483.812171,-370.102971,-8290.306550,536.266849
59483.812481,-518.144159,-9178.553681,612.876398
59483.812790,-518.144159,-8882.471304,536.266849
59483.813100,-222.061783,-9326.594869,1149.143247
59483.813410,888.247130,-10362.883188,2528.115143
59483.813719,-74.020594,-10658.965565,2374.896044
59483.814029,-74.020594,-9474.636058,536.266849
59483.814339,0.000000,-8364.327145,1225.752797
59483.814648,-74.020594,-9474.636058,-76.609550
59483.814958,-3552.988522,-7179.997637,0.000000
59483.815268,518.144159,-8882.471304,-76.609550
59483.815577,-518.144159,-8882.471304,612.876398
59483.815887,-370.102971,-9030.512492,842.705048
59483.816197,-518.144159,-8882.471304,842.705048
59483.816506,0.000000,-9548.656652,1838.629195
59483.816816,814.226536,-10362.883188,2068.457845
59483.817126,-74.020594,-9474.636058,1149.143247
59483.817435,-2368.659014,-7179.997637,0.000000
59483.817745,-74.020594,-9474.636058,1762.019645
59483.818055,-1776.494261,-7179.997637,-1608.800546
59483.818364,-74.020594,-10658.965565,2221.676944
59483.818674,0.000000,-9400.615463,1608.800546
59483.818984,-74.020594,-9474.636058,1149.143247
59483.819293,-666.185348,-8882.471304,459.657299
59483.819603,-2368.659014,-7476.080014,612.876398
59483.819913,0.000000,-9548.656652,1225.752797
59483.820222,740.205942,-9918.759623,2374.896044
59483.820532,-2960.823768,-6587.832884,0.000000
59483.820842,1110.308913,-10955.047942,2681.334243
59483.821151,-74.020594,-8290.306550,-76.609550
59483.821461,962.267725,-10288.862594,2068.457845
59483.821771,-222.061783,-9178.553681,842.705048
59483.822080,-370.102971,-9030.512492,459.657299
59483.822390,-444.123565,-9104.533087,995.924147
59483.822700,-2368.659014,-7179.997637,0.000000
59483.823009,-1776.494261,-8364.327145,306.438199
59483.823319,0.000000,-9696.697840,3064.381992
59483.823629,-666.185348,-7402.059420,-1302.362347
59483.823938,0.000000,-8364.327145,1225.752797
59483.824248,2294.638420,-11843.295072,3600.648841
59483.824558,0.000000,-9104.533087,1532.190996
59483.824867,-370.102971,-9326.594869,612.876398
59483.825177,-444.123565,-9104.533087,689.485948
59483.825487,-370.102971,-9326.594869,919.314598
59483.825796,-1258.350101,-7624.121203,-1455.581446
59483.826106,-2368.659014,-7179.997637,0.000000
59483.826416,-888.247130,-8956.491898,1225.752797
59483.826725,-74.020594,-8882.471304,-76.609550
59483.827035,0.000000,-8956.491898,1225.752797
59483.827345,2294.638420,-11843.295072,3600.648841
59483.827654,-1184.329507,-8660.409521,919.314598
59483.827964,-74.020594,-9178.553681,919.314598
59483.828274,-74.020594,-9252.574275,842.705048
59483.828583,-444.123565,-9252.574275,919.314598
59483.828893,-74.020594,-9178.553681,842.705048
59483.829203,-962.267725,-8142.265362,-383.047749
59483.829513,-1406.391290,-7920.203579,0.000000
59483.829822,2294.638420,-11843.295072,3600.648841
59483.830132,-1332.370696,-7550.100608,0.000000
59483.830442,592.164754,-9548.656652,3677.258390
59483.830751,-1776.494261,-7846.182985,153.219100
59483.831061,-592.164754,-9104.533087,919.314598
59483.831371,-666.185348,-9104.533087,306.438199
59483.831680,-592.164754,-8882.471304,536.266849
59483.831990,1702.473667,-10658.965565,1762.019645
59483.832300,-74.020594,-8882.471304,-76.609550
59483.832609,-1776.494261,-7179.997637,0.000000
59483.832919,1776.494261,-11251.130318,3370.820191
59483.833229,-1258.350101,-7476.080014,0.000000
59483.833538,0.000000,-7772.162391,2451.505594
59483.833848,-592.164754,-7994.224174,459.657299
59483.834158,-444.123565,-8512.368333,689.485948
59483.834467,0.000000,-8660.409521,689.485948
59483.834777,962.267725,-8586.388927,1455.581446
59483.835087,2590.720797,-10658.965565,3600.648841
59483.835396,2294.638420,-9474.636058,1762.019645
59483.835706,1998.556043,-8290.306550,-76.609550
59483.836016,0.000000,-8364.327145,1225.752797
59483.836325,2294.638420,-9474.636058,1149.143247
59483.836635,0.000000,-5995.668130,0.000000
59483.836945,2886.803174,-9474.636058,536.266849
59483.837254,3108.864956,-9178.553681,1072.533697
59483.837564,3404.947333,-9400.615463,766.095498
59483.837874,2812.782580,-9326.594869,459.657299
59483.838183,3256.906145,-10881.027347,2451.505594
59483.838493,4367.215058,-10658.965565,1455.581446
59483.838803,4663.297435,-9474.636058,-76.609550
59483.839112,2368.659014,-7772.162391,1225.752797
59483.839422,6439.791695,-8882.471304,1762.019645
59483.839732,3997.112087,-6587.832884,0.000000
59483.840041,6439.791695,-9178.553681,1762.019645
59483.840351,5625.565159,-8438.347739,1149.143247
59483.840661,5551.544565,-8660.409521,689.485948
59483.840970,5625.565159,-9104.533087,536.266849
59483.841280,5033.400406,-8364.327145,306.438199
59483.841590,6661.853478,-10362.883188,766.095498
59483.841899,7031.956449,-11843.295072,-76.609550
59483.842209,2368.659014,-8364.327145,-2451.505594
59483.842519,5847.626942,-13619.789333,1149.143247
59483.842828,4071.132681,-11251.130318,-689.485948
59483.843138,3182.885551,-13323.706956,1149.143247
59483.843448,1998.556043,-10362.883188,459.657299
59483.843757,2886.803174,-9178.553681,536.266849
59483.844067,3478.967927,-6883.915261,1685.410096
59483.844377,3552.988522,-3034.844362,1225.752797
59483.844686,5477.523971,-3627.009116,2451.505594
59483.844996,9400.615463,-6217.729913,5439.278036
59483.845306,9400.615463,-3997.112087,1915.238745
59483.845615,7698.141797,-7328.038826,2451.505594
59483.845925,8216.285956,-11843.295072,-76.609550
59483.846235,444.123565,-16876.695478,-919.314598
59483.846544,-1998.556043,-17172.777854,-3140.991542
59483.846854,-3923.091493,-15766.386565,-3524.039291
59483.847164,-4071.132681,-10807.006753,-3447.429741
59483.847473,-5329.482782,-7179.997637,-2451.505594
59483.847783,-2072.576638,-4811.338623,0.000000
59483.848093,2664.741391,-6587.832884,5515.887586
59483.848402,7031.956449,-5921.647536,5439.278036
59483.848712,2368.659014,-2442.679609,4903.011187
59483.849022,5847.626942,-7105.977043,7277.907231
59483.849331,2368.659014,-3034.844362,3064.381992
59483.849641,3627.009116,-3923.091493,2757.943793
59483.849951,3775.050304,-4663.297435,689.485948
59483.850260,1258.350101,-9030.512492,-612.876398
59483.850570,-1850.514855,-13027.624579,-4060.306139
59483.850880,-5329.482782,-17987.004391,-3983.696590
59483.851190,-9474.636058,-19023.292709,-4903.011187
59483.851499,-3034.844362,-16580.613101,-2528.115143
59483.851809,-4071.132681,-7846.182985,-3677.258390
59483.852119,0.000000,-4811.338623,0.000000
59483.852428,4071.132681,-4145.153275,2987.772442
59483.852738,4293.194464,-4515.256246,4826.401637
59483.853048,5181.441594,-4663.297435,5362.668486
59483.853357,7031.956449,-3923.091493,5745.716235
59483.853667,9474.636058,-4589.276840,8503.660028
59483.853977,8216.285956,-4737.318029,5209.449386
59483.854286,4663.297435,-8290.306550,1149.143247
59483.854596,-2368.659014,-11917.315666,-2451.505594
59483.854906,-666.185348,-18579.169144,-1915.238745
59483.855215,-962.267725,-17764.942608,-3753.867940
59483.855525,-3849.070898,-14878.139434,-4443.353888
59483.855835,-5329.482782,-13767.830521,-4443.353888
59483.856144,-3849.070898,-10955.047942,-3064.381992
59483.856454,2812.782580,-7328.038826,229.828649
59483.856764,7476.080014,-1406.391290,3983.696590
59483.857073,12879.583391,2294.638420,5132.839837
59483.857383,13027.624579,-2442.679609,9806.022374
59483.857693,11769.274478,-5921.647536,6665.030833
59483.858002,7402.059420,-4811.338623,2451.505594
59483.858312,2368.659014,-7772.162391,612.876398
59483.858622,-74.020594,-9474.636058,-3753.867940
59483.858931,-4293.194464,-14878.139434,-4826.401637
59483.859241,-2146.597232,-14285.974681,-4366.744339
59483.859551,2368.659014,-12509.480420,-3217.601092
59483.859860,5921.647536,-10658.965565,153.219100
59483.860170,4293.194464,-8660.409521,1225.752797
59483.860480,3478.967927,-9474.636058,-76.609550
59483.860789,5033.400406,-4811.338623,2451.505594
59483.861099,9104.533087,-4145.153275,4826.401637
59483.861409,6735.874072,-4145.153275,1455.581446
59483.861718,4367.215058,-4663.297435,766.095498
59483.862028,5847.626942,-7402.059420,1302.362347
59483.862338,7698.141797,-8808.450710,2757.943793
59483.862647,3923.091493,-10584.944971,3294.210641
59483.862957,-3256.906145,-11177.109724,-2757.943793
59483.863267,-1850.514855,-10658.965565,-5898.935335
59483.863576,-3256.906145,-10732.986159,-3064.381992
59483.863886,-74.020594,-11103.089130,-76.609550
59483.864196,0.000000,-5403.503377,0.000000
59483.864505,6513.812290,-5995.668130,4290.134789
59483.864815,8512.368333,-4737.318029,3294.210641
59483.865125,5181.441594,-5699.585753,3370.820191
59483.865434,2738.761985,-6513.812290,1838.629195
59483.865744,2590.720797,-5107.421000,-689.485948
59483.866054,3182.885551,-9030.512492,0.000000
59483.866363,3478.967927,-11843.295072,1762.019645
59483.866673,-74.020594,-10066.800811,-842.705048
59483.866983,0.000000,-10140.821405,-3677.258390
59483.867292,-74.020594,-15396.283594,-1532.190996
59483.867602,-2738.761985,-13619.789333,-2374.896044
59483.867912,-888.247130,-10214.842000,612.876398
59483.868221,3404.947333,-7846.182985,2451.505594
59483.868531,5773.606348,-5995.668130,3907.087040
59483.868841,7031.956449,-6957.935855,6281.983084
59483.869150,4811.338623,-3997.112087,3600.648841
59483.869460,1406.391290,-4811.338623,306.438199
59483.869770,666.185348,-9104.533087,766.095498
59483.870079,1702.473667,-8586.388927,-1915.238745
59483.870389,0.000000,-11621.233289,612.876398
59483.870699,592.164754,-12435.459826,1455.581446
59483.871008,-962.267725,-11695.253884,-766.095498
59483.871318,-370.102971,-9992.780217,-1838.629195
59483.871628,740.205942,-10807.006753,153.219100
59483.871937,2812.782580,-5773.606348,0.000000
59483.872247,6513.812290,-7179.997637,3677.258390
59483.872557,8808.450710,-9474.636058,5439.278036
59483.872866,4811.338623,-6291.750507,1762.019645
59483.873176,5403.503377,-10140.821405,5056.230287
59483.873486,2294.638420,-7698.141797,0.000000
59483.873796,1406.391290,-8512.368333,0.000000
59483.874105,1332.370696,-10955.047942,0.000000
59483.874415,-1036.288319,-11621.233289,-459.657299
59483.874725,-3404.947333,-11547.212695,-2298.286494
59483.875034,-74.020594,-12879.583391,-76.609550
59483.875344,3478.967927,-6217.729913,-76.609550
59483.875654,2664.741391,-4811.338623,1225.752797
59483.875963,6365.771101,-7328.038826,3600.648841
59483.876273,2368.659014,-3627.009116,0.000000
59483.876583,6883.915261,-11251.130318,2374.896044
59483.876892,6661.853478,-10066.800811,2374.896044
59483.877202,3034.844362,-9918.759623,-76.609550
59483.877512,-148.041188,-12361.439231,-995.924147
59483.877821,-2368.659014,-12361.439231,-2145.067394
59483.878131,-4071.132681,-11325.150913,-3064.381992
59483.878440,-296.082377,-11473.192101,612.876398
59483.878750,-74.020594,-10658.965565,1762.019645
59483.879059,-2220.617826,-7179.997637,0.000000
59483.879369,-74.020594,-9030.512492,3907.087040
59483.879678,0.000000,-4811.338623,1838.629195
59483.879988,2072.576638,-3627.009116,3677.258390
59483.880298,3182.885551,-3923.091493,4290.134789
59483.880607,518.144159,-7031.956449,1685.410096
59483.880917,-4737.318029,-7476.080014,-1762.019645
59483.881226,-4071.132681,-11843.295072,-689.485948
59483.881536,-3627.009116,-15100.201217,-689.485948
59483.881845,-4811.338623,-11251.130318,-3140.991542
59483.882155,-4737.318029,-13101.645173,-2145.067394
59483.882464,-2442.679609,-13619.789333,-76.609550
59483.882774,-4811.338623,-9474.636058,-1302.362347
59483.883083,-74.020594,-11251.130318,3907.087040
59483.883393,3108.864956,-3404.947333,4213.525239
59483.883703,1258.350101,-6735.874072,5745.716235
59483.884012,74.020594,-3849.070898,3370.820191
59483.884322,-4737.318029,-5995.668130,3064.381992
59483.884631,-222.061783,-7105.977043,2068.457845
59483.884941,-2146.597232,-6217.729913,-383.047749
59483.885250,-5921.647536,-7179.997637,0.000000
59483.885560,-2442.679609,-13027.624579,-689.485948
59483.885869,-3034.844362,-14211.954086,-76.609550
59483.886179,-3552.988522,-12657.521608,-1532.190996
59483.886489,-2738.761985,-12139.377449,229.828649
59483.886798,-2812.782580,-10214.842000,229.828649
59483.887108,-1702.473667,-11251.130318,842.705048
59483.887417,-666.185348,-7698.141797,536.266849
59483.887727,0.000000,-8660.409521,3140.991542
59483.888036,3034.844362,-5403.503377,4366.744339
59483.888346,3552.988522,-3256.906145,3294.210641
59483.888655,2590.720797,-6513.812290,2834.553343
59483.888965,2368.659014,-7920.203579,3064.381992
59483.889274,1702.473667,-11103.089130,2068.457845
59483.889584,0.000000,-7772.162391,0.000000
59483.889894,-74.020594,-13619.789333,-76.609550
59483.890203,-5329.482782,-12583.501014,-3677.258390
59483.890513,-4811.338623,-12435.459826,-3447.429741
59483.890822,-4441.235652,-12065.356855,-1838.629195
59483.891132,1332.370696,-10436.903782,459.657299
59483.891441,2664.741391,-6587.832884,2604.724693
59483.891751,3256.906145,-6809.894666,2834.553343
59483.892060,2960.823768,-5995.668130,4903.011187
59483.892370,4811.338623,-5699.585753,3983.696590
59483.892680,7031.956449,-5921.647536,2374.896044
59483.892989,2960.823768,-5995.668130,2451.505594
59483.893299,2294.638420,-12287.418637,-76.609550
59483.893608,-74.020594,-13027.624579,-2528.115143
59483.893918,-4293.194464,-13101.645173,-3447.429741
59483.894227,-1850.514855,-13323.706956,-2374.896044
59483.894537,-814.226536,-10658.965565,-842.705048
59483.894846,444.123565,-10140.821405,383.047749
59483.895156,1924.535449,-8956.491898,3064.381992
59483.895465,3404.947333,-7328.038826,5439.278036
59483.895775,7031.956449,-8290.306550,3600.648841
59483.896085,2960.823768,-3034.844362,2451.505594
59483.896394,3552.988522,-7105.977043,3140.991542
59483.896704,1702.473667,-9474.636058,-76.609550
59483.897013,-4145.153275,-8364.327145,-2145.067394
59483.897323,-2886.803174,-12287.418637,-1915.238745
59483.897632,-1924.535449,-11325.150913,-1685.410096
59483.897942,-1554.432478,-11547.212695,-1685.410096
59483.898251,-1184.329507,-11325.150913,0.000000
59483.898561,296.082377,-10288.862594,3064.381992
59483.898871,4071.132681,-11251.130318,2374.896044
59483.899180,592.164754,-5995.668130,1838.629195
59483.899490,1480.411884,-7772.162391,3677.258390
59483.899799,2146.597232,-9474.636058,3447.429741
59483.900109,-3552.988522,-5995.668130,0.000000
59483.900418,-3404.947333,-7920.203579,-153.219100
59483.900728,-1554.432478,-7254.018232,536.266849
59483.901037,-888.247130,-8068.244768,1149.143247
59483.901347,-2368.659014,-7179.997637,1225.752797
59483.901656,-2368.659014,-9400.615463,1838.629195
59483.901966,-74.020594,-11843.295072,-76.609550
59483.902276,-2368.659014,-9548.656652,0.000000
59483.902585,-1184.329507,-9844.739029,1838.629195
59483.902895,-74.020594,-11843.295072,2374.896044
59483.903204,-2664.741391,-8808.450710,536.266849
59483.903514,-1924.535449,-9104.533087,919.314598
59483.903823,-1110.308913,-8660.409521,1455.581446
59483.904133,-1332.370696,-6661.853478,1685.410096
59483.904442,-2960.823768,-5403.503377,0.000000
59483.904752,-2664.741391,-7476.080014,2451.505594
59483.905062,-74.020594,-8882.471304,-76.609550
59483.905371,0.000000,-8364.327145,1225.752797
59483.905681,1110.308913,-9474.636058,2681.334243
59483.905990,-1036.288319,-10955.047942,2757.943793
59483.906300,-3552.988522,-10658.965565,-383.047749
59483.906609,-4071.132681,-10510.924376,-1072.533697
59483.906919,-3330.926739,-11399.171507,-383.047749
59483.907228,-1110.308913,-8216.285956,0.000000
59483.907538,-1628.453072,-7772.162391,0.000000
59483.907847,740.205942,-7179.997637,1838.629195
59483.908157,3478.967927,-9474.636058,2374.896044
59483.908467,592.164754,-5403.503377,612.876398
59483.908776,3552.988522,-6809.894666,3064.381992
59483.909086,2664.741391,-10436.903782,3217.601092
59483.909395,-222.061783,-9104.533087,-459.657299
59483.909705,-4071.132681,-11843.295072,-1532.190996
59483.910014,-2368.659014,-11621.233289,-2298.286494
59483.910324,-1258.350101,-10436.903782,-1225.752797
59483.910633,-1258.350101,-7179.997637,-2451.505594
59483.910943,444.123565,-8956.491898,0.000000
59483.911253,4663.297435,-9474.636058,3600.648841
59483.911562,2960.823768,-6883.915261,1302.362347
59483.911872,5329.482782,-6291.750507,3753.867940
59483.912181,3552.988522,-7624.121203,2451.505594
59483.912491,1406.391290,-9474.636058,229.828649
59483.912800,-2738.761985,-9400.615463,-2145.067394
59483.913110,-3108.864956,-11843.295072,-2451.505594
59483.913419,-1850.514855,-11177.109724,-1915.238745
59483.913729,-666.185348,-9992.780217,-2451.505594
59483.914038,0.000000,-10436.903782,0.000000
59483.914348,3478.967927,-11843.295072,3600.648841
59483.914658,2886.803174,-7698.141797,2068.457845
59483.914967,4737.318029,-6587.832884,3983.696590
59483.915277,4737.318029,-4811.338623,3217.601092
59483.915586,2442.679609,-9400.615463,2374.896044
59483.915896,-1924.535449,-8586.388927,-995.924147
59483.916205,-3330.926739,-10732.986159,-1991.848295
59483.916515,-3034.844362,-10732.986159,-1991.848295
59483.916824,-2442.679609,-9326.594869,-1915.238745
59483.917134,-2516.700203,-9548.656652,-2221.676944
59483.917444,-888.247130,-10732.986159,2451.505594
59483.917753,-74.020594,-10066.800811,1762.019645
59483.918063,1480.411884,-8364.327145,2757.943793
59483.918372,592.164754,-4219.173869,2451.505594
59483.918682,-74.020594,-9474.636058,2987.772442
59483.918991,-592.164754,-6143.709319,919.314598
59483.919301,-3627.009116,-9400.615463,612.876398
59483.919610,-1998.556043,-7328.038826,-383.047749
59483.919920,-1850.514855,-8290.306550,-76.609550
59483.920229,-2442.679609,-7179.997637,-2528.115143
59483.920539,-1776.494261,-11399.171507,1532.190996
59483.920849,-3034.844362,-10658.965565,-76.609550
59483.921158,-1628.453072,-8660.409521,0.000000
59483.921468,0.000000,-7179.997637,2451.505594
59483.921777,3701.029710,-9474.636058,3217.601092
59483.922087,148.041188,-9474.636058,2068.457845
59483.922396,-3627.009116,-8882.471304,-536.266849
59483.922706,-2886.803174,-11473.192101,-383.047749
59483.923015,-74.020594,-10066.800811,-76.609550
59483.923325,-2664.741391,-8290.306550,-689.485948
59483.923635,-2368.659014,-9548.656652,1532.190996
59483.923944,-1258.350101,-7105.977043,-76.609550
59483.924254,1184.329507,-7772.162391,2451.505594
59483.924563,3330.926739,-5773.606348,2451.505594
59483.924873,2368.659014,-8068.244768,2911.162892
59483.925182,444.123565,-9178.553681,536.266849
59483.925492,-2960.823768,-10732.986159,-612.876398
59483.925801,-3404.947333,-12213.398043,-1302.362347
59483.926111,-1258.350101,-11843.295072,-76.609550
59483.926420,-1924.535449,-9474.636058,-1302.362347
59483.926730,-888.247130,-10732.986159,1225.752797
59483.927040,-1258.350101,-7698.141797,-76.609550
59483.927349,0.000000,-7179.997637,1225.752797
59483.927659,5255.462188,-5921.647536,1685.410096
59483.927968,4737.318029,-6069.688724,3907.087040
59483.928278,3849.070898,-8586.388927,2681.334243
59483.928587,-740.205942,-9326.594869,-383.047749
59483.928897,-2812.782580,-11621.233289,-1302.362347
59483.929206,-592.164754,-13471.748144,-536.266849
59483.929516,-74.020594,-13027.624579,-76.609550
59483.929826,-2960.823768,-9548.656652,-2451.505594
59483.930135,-74.020594,-11251.130318,1608.800546
59483.930445,1110.308913,-9178.553681,1455.581446
59483.930754,5847.626942,-8882.471304,2068.457845
59483.931064,4737.318029,-5995.668130,3677.258390
59483.931373,3478.967927,-7994.224174,2451.505594
59483.931683,518.144159,-8512.368333,919.314598
59483.931992,-1332.370696,-9030.512492,995.924147
59483.932302,-1184.329507,-10732.986159,0.000000
59483.932611,-666.185348,-11843.295072,-76.609550
59483.932921,-4737.318029,-9548.656652,-3677.258390
59483.933231,-1258.350101,-12361.439231,-76.609550
59483.933540,-666.185348,-10658.965565,-76.609550
59483.933850,3478.967927,-9918.759623,2374.896044
59483.934159,3997.112087,-6291.750507,4290.134789
59483.934469,4367.215058,-6957.935855,4596.572988
59483.934778,1924.535449,-7179.997637,2451.505594
59483.935088,-1998.556043,-8068.244768,1225.752797
59483.935397,-4145.153275,-9548.656652,0.000000
59483.935707,-2960.823768,-9548.656652,612.876398
59483.936017,-2442.679609,-9474.636058,-1608.800546
59483.936326,-4145.153275,-9548.656652,0.000000
59483.936636,-1850.514855,-9474.636058,-76.609550
59483.936945,1110.308913,-9474.636058,2374.896044
59483.937255,2294.638420,-7846.182985,2987.772442
59483.937564,2516.700203,-8364.327145,3370.820191
59483.937874,518.144159,-10140.821405,1838.629195
59483.938183,-3108.864956,-9252.574275,0.000000
59483.938493,-4737.318029,-9548.656652,0.000000
59483.938802,-4145.153275,-9548.656652,0.000000
59483.939112,-1258.350101,-10658.965565,-76.609550
59483.939422,-4737.318029,-7920.203579,0.000000
59483.939731,-2294.638420,-8734.430116,1455.581446
59483.940041,592.164754,-9474.636058,4213.525239
59483.940350,3552.988522,-6957.935855,3907.087040
59483.940660,3923.091493,-6513.812290,4213.525239
59483.940969,1998.556043,-8438.347739,2681.334243
59483.941279,-2146.597232,-8438.347739,0.000000
59483.941588,-5329.482782,-8364.327145,-2451.505594
59483.941898,-4737.318029,-10732.986159,0.000000
59483.942208,-2442.679609,-11843.295072,-1302.362347
59483.942517,-5329.482782,-10140.821405,-2145.067394
59483.942827,-3034.844362,-10362.883188,-76.609550
59483.943136,0.000000,-8956.491898,2604.724693
59483.943446,4515.256246,-7031.956449,3370.820191
59483.943755,4737.318029,-4589.276840,4826.401637
59483.944065,3330.926739,-6957.935855,3600.648841
59483.944374,1332.370696,-7179.997637,0.000000
59483.944684,-666.185348,-7698.141797,-76.609550
59483.944993,-2960.823768,-8364.327145,-2451.505594
59483.945303,-74.020594,-10955.047942,-76.609550
59483.945613,-3034.844362,-10658.965565,-2987.772442
59483.945922,-3256.906145,-11325.150913,-1915.238745
59483.946232,-2960.823768,-12213.398043,0.000000
59483.946541,1702.473667,-10362.883188,1608.800546
59483.946851,4441.235652,-7698.141797,3217.601092
59483.947160,5107.421000,-7994.224174,3677.258390
59483.947470,3849.070898,-6513.812290,2374.896044
59483.947779,1110.308913,-7698.141797,536.266849
59483.948089,-962.267725,-7476.080014,-1302.362347
59483.948399,0.000000,-9548.656652,766.095498
59483.948708,-1258.350101,-9474.636058,-1302.362347
59483.949018,-3552.988522,-10288.862594,-76.609550
59483.949327,-2368.659014,-8660.409521,0.000000
59483.949637,1554.432478,-10066.800811,1302.362347
59483.949946,4145.153275,-7920.203579,2987.772442
59483.950256,3552.988522,-7476.080014,2757.943793
59483.950565,2590.720797,-9474.636058,2987.772442
59483.950875,2294.638420,-8882.471304,2374.896044
59483.951184,-74.020594,-10658.965565,-383.047749
59483.951494,-3552.988522,-8364.327145,0.000000
59483.951804,-666.185348,-10066.800811,-76.609550
59483.952113,-3627.009116,-9770.718434,-1532.190996
59483.952423,-4737.318029,-7179.997637,0.000000
59483.952732,-1406.391290,-9474.636058,1225.752797
59483.953042,2812.782580,-8216.285956,3600.648841
59483.953351,3256.906145,-7031.956449,4213.525239
59483.953661,3478.967927,-9178.553681,4826.401637
59483.953970,1998.556043,-8882.471304,2451.505594
59483.954280,-74.020594,-9474.636058,-76.609550
59483.954590,-4737.318029,-8364.327145,0.000000
59483.954899,-3627.009116,-11547.212695,-229.828649
59483.955209,-6957.935855,-10140.821405,-3677.258390
59483.955518,-7105.977043,-8956.491898,-3064.381992
59483.955828,-2664.741391,-9548.656652,842.705048
59483.956137,1628.453072,-8290.306550,2681.334243
59483.956447,3034.844362,-6217.729913,4443.353888
59483.956756,3478.967927,-8142.265362,4826.401637
59483.957066,1480.411884,-8290.306550,2451.505594
59483.957375,-74.020594,-11547.212695,2374.896044
59483.957685,-3256.906145,-9548.656652,-1225.752797
59483.957995,-2368.659014,-10584.944971,-76.609550
59483.958304,-4219.173869,-10658.965565,-3524.039291
59483.958614,-5403.503377,-9622.677246,-2834.553343
59483.958923,-4145.153275,-9252.574275,-919.314598
59483.959233,740.205942,-9548.656652,2451.505594
59483.959542,3034.844362,-6809.894666,3677.258390
59483.959852,5403.503377,-8142.265362,5592.497135
59483.960161,2664.741391,-7624.121203,3370.820191
59483.960471,1184.329507,-8364.327145,3217.601092
59483.960781,-74.020594,-11251.130318,-76.609550
59483.961090,-3849.070898,-7179.997637,-4290.134789
59483.961400,-5847.626942,-11917.315666,-3677.258390
59483.961709,-4811.338623,-13027.624579,-2528.115143
59483.962019,-2294.638420,-9622.677246,-459.657299
59483.962328,1702.473667,-10510.924376,2451.505594
59483.962638,3552.988522,-6883.915261,2911.162892
59483.962947,2960.823768,-7179.997637,4903.011187
59483.963257,3552.988522,-5995.668130,2451.505594
59483.963566,2664.741391,-10584.944971,4366.744339
59483.963876,-74.020594,-9474.636058,-76.609550
59483.964186,-1776.494261,-9548.656652,0.000000
59483.964495,-518.144159,-8364.327145,-2298.286494
59483.964805,-666.185348,-11843.295072,-1302.362347
59483.965114,-2738.761985,-9030.512492,-1225.752797
59483.965424,0.000000,-10140.821405,229.828649
59483.965733,3182.885551,-9178.553681,2451.505594
59483.966043,2368.659014,-6587.832884,2451.505594
59483.966352,1184.329507,-7179.997637,1225.752797
59483.966662,3108.864956,-9400.615463,3753.867940
59483.966972,1702.473667,-9474.636058,1149.143247
59483.967281,0.000000,-7772.162391,0.000000
59483.967591,-1258.350101,-9326.594869,-383.047749
59483.967900,-1554.432478,-11695.253884,-1302.362347
59483.968210,-4367.215058,-10066.800811,-1608.800546
59483.968519,-2738.761985,-10362.883188,0.000000
59483.968829,1110.308913,-8882.471304,2068.457845
59483.969138,1184.329507,-5403.503377,2451.505594
59483.969448,2368.659014,-4811.338623,2451.505594
59483.969757,592.164754,-6587.832884,2451.505594
59483.970067,2294.638420,-10658.965565,2374.896044
59483.970377,-1184.329507,-9548.656652,0.000000
59483.970686,-1258.350101,-10658.965565,-76.609550
59483.970996,-2146.597232,-12657.521608,-766.095498
59483.971305,-5995.668130,-11251.130318,-2604.724693
59483.971615,-4959.379811,-10140.821405,-1378.971896
59483.971924,-444.123565,-9770.718434,1302.362347
59483.972234,0.000000,-6143.709319,2374.896044
59483.972543,1480.411884,-7105.977043,3600.648841
59483.972853,0.000000,-6365.771101,1762.019645
59483.973163,-1184.329507,-8364.327145,2451.505594
59483.973472,1702.473667,-10658.965565,2374.896044
59483.973782,-888.247130,-9474.636058,842.705048
59483.974091,-1776.494261,-9548.656652,612.876398
59483.974401,-3775.050304,-10362.883188,-689.485948
59483.974710,-4145.153275,-10362.883188,-766.095498
59483.975020,-2072.576638,-10140.821405,919.314598
59483.975329,-518.144159,-7105.977043,2374.896044
59483.975639,666.185348,-7105.977043,2374.896044
59483.975948,0.000000,-5995.668130,919.314598
59483.976258,0.000000,-8068.244768,2451.505594
59483.976568,1702.473667,-11843.295072,2374.896044
59483.976877,518.144159,-9474.636058,1762.019645
59483.977187,-2368.659014,-8956.491898,0.000000
59483.977496,-3404.947333,-10658.965565,-1378.971896
59483.977806,-4441.235652,-10807.006753,-995.924147
59483.978115,-1998.556043,-9844.739029,153.219100
59483.978425,518.144159,-8882.471304,2374.896044
59483.978734,2294.638420,-7254.018232,3140.991542
59483.979044,1998.556043,-6513.812290,1149.143247
59483.979354,1184.329507,-7772.162391,2757.943793
59483.979663,2294.638420,-11251.130318,3294.210641
59483.979973,1406.391290,-10807.006753,1685.410096
59483.980282,0.000000,-7476.080014,0.000000
59483.980592,-1628.453072,-11251.130318,-536.266849
59483.980901,-3034.844362,-10436.903782,-1302.362347
59483.981211,-3034.844362,-10807.006753,-842.705048
59483.981520,2886.803174,-11251.130318,2681.334243
59483.981830,4663.297435,-9178.553681,4826.401637
59483.982139,814.226536,-4811.338623,1225.752797
59483.982449,2368.659014,-8364.327145,3677.258390
59483.982759,1702.473667,-8882.471304,1149.143247
59483.983068,0.000000,-7179.997637,1225.752797
59483.983378,1110.308913,-8364.327145,1225.752797
59483.983687,-2442.679609,-8882.471304,-1915.238745
59483.983997,-4737.318029,-10436.903782,-2757.943793
59483.984306,-3775.050304,-10807.006753,-1838.629195
59483.984616,148.041188,-11251.130318,2221.676944
59483.984925,4663.297435,-9474.636058,2987.772442
59483.985235,3478.967927,-6809.894666,2068.457845
59483.985544,0.000000,-7179.997637,1225.752797
59483.985854,1184.329507,-9400.615463,3600.648841
59483.986164,518.144159,-10066.800811,1532.190996
59483.986473,0.000000,-7179.997637,0.000000
59483.986783,-1406.391290,-8882.471304,-383.047749
59483.987092,-3404.947333,-10066.800811,-1378.971896
59483.987402,-4811.338623,-9400.615463,-1915.238745
59483.987711,-2442.679609,-11843.295072,-76.609550
59483.988021,2294.638420,-9474.636058,2987.772442
59483.988330,1110.308913,-7105.977043,-76.609550
59483.988640,0.000000,-8364.327145,2451.505594
59483.988949,1110.308913,-9474.636058,2987.772442
59483.989259,74.020594,-8438.347739,1225.752797
59483.989569,148.041188,-7179.997637,0.000000
59483.989878,-444.123565,-7920.203579,612.876398
59483.990188,-2886.803174,-10658.965565,-842.705048
59483.990497,-4663.297435,-10658.965565,-766.095498
59483.990807,-2442.679609,-11843.295072,-76.609550
59483.991116,666.185348,-11251.130318,4290.134789
59483.991426,2294.638420,-7105.977043,2068.457845
59483.991735,0.000000,-7179.997637,1838.629195
59483.992045,1702.473667,-9030.512492,3600.648841
59483.992354,0.000000,-7179.997637,0.000000
59483.992664,518.144159,-9030.512492,76.609550
59483.992974,0.000000,-8660.409521,383.047749
59483.993283,-1850.514855,-11029.068536,-842.705048
59483.993593,-3775.050304,-9696.697840,-1225.752797
59483.993902,-2442.679609,-11621.233289,-76.609550
59483.994212,0.000000,-11843.295072,2451.505594
59483.994521,3478.967927,-9474.636058,2987.772442
59483.994831,592.164754,-7179.997637,2451.505594
59483.995140,2442.679609,-8808.450710,4826.401637
59483.995450,666.185348,-6587.832884,0.000000
59483.995759,1702.473667,-8586.388927,842.705048
59483.996069,444.123565,-7476.080014,842.705048
59483.996378,-1258.350101,-9030.512492,-459.657299
59483.996688,-3552.988522,-10732.986159,-1149.143247
59483.996998,-3552.988522,-10732.986159,0.000000
59483.997307,-1184.329507,-11325.150913,0.000000
59483.997617,3478.967927,-9474.636058,2374.896044
59483.997926,0.000000,-7179.997637,1532.190996
59483.998236,1998.556043,-9474.636058,2987.772442
59483.998545,-1184.329507,-6291.750507,76.609550
59483.998855,2294.638420,-9474.636058,1149.143247
59483.999164,1258.350101,-7254.018232,1225.752797
59483.999474,74.020594,-7698.141797,306.438199
59483.999783,-2146.597232,-9696.697840,-919.314598
59484.000093,-4145.153275,-8364.327145,0.000000
59484.000403,-3552.988522,-10732.986159,-76.609550
59484.000712,1776.494261,-11177.109724,2451.505594
59484.001022,518.144159,-8438.347739,842.705048
59484.001331,-2960.823768,-9548.656652,0.000000
59484.001641,-74.020594,-10362.883188,1149.143247
59484.001950,4071.132681,-9474.636058,2374.896044
59484.002260,2516.700203,-8512.368333,2681.334243
59484.002569,1036.288319,-5995.668130,919.314598
59484.002879,-2146.597232,-10436.903782,0.000000
59484.003188,-4737.318029,-5995.668130,-2451.505594
59484.003498,-5625.565159,-11251.130318,-76.609550
59484.003808,-3552.988522,-8364.327145,0.000000
59484.004117,-74.020594,-9474.636058,1455.581446
59484.004427,-1776.494261,-8364.327145,0.000000
59484.004736,-74.020594,-9474.636058,2374.896044
59484.005046,1258.350101,-10066.800811,2834.553343
59484.005355,2886.803174,-9326.594869,2298.286494
59484.005665,2368.659014,-7698.141797,2298.286494
59484.005974,962.267725,-9030.512492,1302.362347
59484.006284,-3478.967927,-8364.327145,-842.705048
59484.006593,-3627.009116,-10066.800811,306.438199
59484.006903,-2368.659014,-9548.656652,0.000000
59484.007213,1406.391290,-9474.636058,2987.772442
59484.007522,1110.308913,-5995.668130,-689.485948
59484.007832,0.000000,-8882.471304,2987.772442
59484.008141,-888.247130,-8660.409521,1991.848295
59484.008451,1110.308913,-10140.821405,1149.143247
59484.008760,1110.308913,-8512.368333,1915.238745
59484.009070,0.000000,-8364.327145,0.000000
59484.009379,-2368.659014,-8438.347739,-536.266849
59484.009689,-3627.009116,-9474.636058,-76.609550
59484.009998,-3552.988522,-9548.656652,0.000000
59484.010308,1998.556043,-10658.965565,2681.334243
59484.010618,0.000000,-7179.997637,-1608.800546
59484.010927,518.144159,-10436.903782,2987.772442
59484.011237,-1184.329507,-7179.997637,1532.190996
59484.011546,1110.308913,-8660.409521,1685.410096
59484.011856,2072.576638,-7698.141797,2528.115143
59484.012165,2590.720797,-7772.162391,1838.629195
59484.012475,1554.432478,-8882.471304,1455.581446
59484.012784,-2442.679609,-11843.295072,-76.609550
59484.013094,-4145.153275,-9548.656652,-2451.505594
59484.013403,296.082377,-10140.821405,1838.629195
59484.013713,814.226536,-7772.162391,-1302.362347
59484.014023,-148.041188,-9252.574275,1225.752797
59484.014332,-4441.235652,-7179.997637,0.000000
59484.014642,-74.020594,-9104.533087,-76.609550
59484.014951,962.267725,-9104.533087,1378.971896
59484.015261,296.082377,-8438.347739,1225.752797
59484.015570,-74.020594,-11843.295072,-76.609550
59484.015880,-74.020594,-11251.130318,2374.896044
59484.016189,-74.020594,-10362.883188,-76.609550
59484.016499,0.000000,-7772.162391,1838.629195
59484.016808,1998.556043,-9178.553681,2374.896044
59484.017118,0.000000,-7772.162391,1225.752797
59484.017428,-2072.576638,-7179.997637,0.000000
59484.017737,-1554.432478,-10732.986159,612.876398
59484.018047,222.061783,-9474.636058,842.705048
59484.018356,0.000000,-8142.265362,536.266849
59484.018666,814.226536,-11029.068536,919.314598
59484.018975,-3108.864956,-8438.347739,-1532.190996
59484.019285,-2442.679609,-11251.130318,-689.485948
59484.019594,-2960.823768,-9844.739029,0.000000
59484.019904,-222.061783,-7476.080014,-1455.581446
59484.020213,-2368.659014,-9548.656652,0.000000
59484.020523,-2146.597232,-7031.956449,536.266849
59484.020832,-1480.411884,-7920.203579,995.924147
59484.021142,1184.329507,-8660.409521,2145.067394
59484.021452,1258.350101,-6809.894666,2374.896044
59484.021761,2886.803174,-8808.450710,2911.162892
59484.022071,0.000000,-8956.491898,1838.629195
59484.022380,-666.185348,-9474.636058,-76.609550
59484.022690,-2368.659014,-10732.986159,0.000000
59484.022999,814.226536,-9474.636058,-76.609550
59484.023309,-2960.823768,-7179.997637,0.000000
59484.023618,-1406.391290,-9178.553681,-76.609550
59484.023928,-2294.638420,-8364.327145,0.000000
59484.024237,518.144159,-9992.780217,689.485948
59484.024547,2442.679609,-8216.285956,2451.505594
59484.024857,2960.823768,-7179.997637,1838.629195
59484.025166,0.000000,-7772.162391,612.876398
59484.025476,-222.061783,-9474.636058,1532.190996
59484.025785,-1554.432478,-9178.553681,-689.485948
59484.026095,0.000000,-11325.150913,3677.258390
59484.026404,222.061783,-7994.224174,0.000000
59484.026714,1702.473667,-10658.965565,1608.800546
59484.027023,-1184.329507,-8068.244768,612.876398
59484.027333,-296.082377,-9548.656652,766.095498
59484.027642,2072.576638,-8364.327145,2145.067394
59484.027952,592.164754,-7179.997637,1225.752797
59484.028262,666.185348,-9178.553681,536.266849
59484.028571,-888.247130,-9548.656652,1532.190996
59484.028881,-74.020594,-9474.636058,-383.047749
59484.029190,1998.556043,-12065.356855,3294.210641
59484.029500,1110.308913,-8290.306550,-76.609550
59484.029809,-74.020594,-10658.965565,-76.609550
59484.030119,-3034.844362,-9178.553681,-536.266849
59484.030428,-2220.617826,-9474.636058,-766.095498
59484.030738,-74.020594,-10140.821405,842.705048
59484.031047,0.000000,-7328.038826,612.876398
59484.031357,1998.556043,-9326.594869,1378.971896
59484.031667,148.041188,-8364.327145,1838.629195
59484.031976,-74.020594,-8586.388927,-76.609550
59484.032286,1702.473667,-11029.068536,3753.867940
59484.032595,2294.638420,-9474.636058,2374.896044
59484.032905,-74.020594,-11473.192101,2068.457845
59484.033214,-2368.659014,-9474.636058,-76.609550
59484.033524,-2442.679609,-9696.697840,153.219100
59484.033833,-444.123565,-9770.718434,1072.533697
59484.034143,0.000000,-5995.668130,842.705048
59484.034452,-74.020594,-8734.430116,766.095498
59484.034762,-3552.988522,-7476.080014,0.000000
59484.035072,-666.185348,-9474.636058,1149.143247
59484.035381,-3552.988522,-8364.327145,-1838.629195
59484.035691,-74.020594,-9474.636058,1762.019645
59484.036000,-1332.370696,-10362.883188,612.876398
59484.036310,-2146.597232,-10140.821405,-76.609550
59484.036619,-3330.926739,-9844.739029,-612.876398
59484.036929,-740.205942,-11029.068536,1149.143247
59484.037238,1110.308913,-7105.977043,2374.896044
59484.037548,2072.576638,-7698.141797,2757.943793
59484.037857,0.000000,-6587.832884,1685.410096
59484.038167,444.123565,-7550.100608,3140.991542
59484.038477,-3552.988522,-7179.997637,0.000000
59484.038786,2294.638420,-11251.130318,4213.525239
59484.039096,0.000000,-8364.327145,1225.752797
59484.039405,-1480.411884,-10214.842000,536.266849
59484.039715,-3775.050304,-9252.574275,-1149.143247
59484.040024,-2886.803174,-11251.130318,-1149.143247
59484.040334,-74.020594,-10658.965565,-76.609550
59484.040643,222.061783,-8512.368333,459.657299
59484.040953,-1258.350101,-8882.471304,-383.047749
59484.041262,-1776.494261,-7179.997637,0.000000
59484.041572,4071.132681,-11843.295072,4213.525239
59484.041881,4663.297435,-10436.903782,5439.278036
59484.042191,1776.494261,-5995.668130,3370.820191
59484.042501,1628.453072,-8512.368333,2145.067394
59484.042810,-296.082377,-8586.388927,1072.533697
59484.043120,-1406.391290,-10140.821405,76.609550
59484.043429,-74.020594,-11843.295072,842.705048
59484.043739,2294.638420,-9474.636058,1762.019645
59484.044048,-1258.350101,-7994.224174,-995.924147
59484.044358,-1480.411884,-8956.491898,0.000000
59484.044667,-74.020594,-13027.624579,-76.609550
59484.044977,592.164754,-9548.656652,2451.505594
59484.045286,0.000000,-7179.997637,612.876398
59484.045596,-1036.288319,-10066.800811,0.000000
59484.045906,-2368.659014,-9326.594869,-612.876398
59484.046215,-2368.659014,-9474.636058,-229.828649
59484.046525,1998.556043,-11251.130318,1915.238745
59484.046834,2738.761985,-8734.430116,3217.601092
59484.047144,2294.638420,-7994.224174,1455.581446
59484.047453,0.000000,-7772.162391,1225.752797
59484.047763,3478.967927,-9474.636058,3600.648841
59484.048072,296.082377,-8364.327145,1532.190996
59484.048382,0.000000,-7328.038826,995.924147
59484.048691,-1184.329507,-9770.718434,-383.047749
59484.049001,-2738.761985,-10807.006753,-1149.143247
59484.049311,-3923.091493,-10436.903782,-1072.533697
59484.049620,-1628.453072,-11029.068536,0.000000
59484.049930,-592.164754,-9696.697840,1225.752797
59484.050239,-666.185348,-8290.306550,-229.828649
59484.050549,-1776.494261,-8660.409521,2451.505594
59484.050858,-74.020594,-8290.306550,-76.609550
59484.051168,0.000000,-5403.503377,1225.752797
59484.051477,2886.803174,-6661.853478,2298.286494
59484.051787,814.226536,-8142.265362,1838.629195
59484.052096,-1036.288319,-9992.780217,842.705048
59484.052406,-3404.947333,-9474.636058,0.000000
59484.052716,-2368.659014,-10807.006753,-612.876398
59484.053025,-2368.659014,-11325.150913,153.219100
59484.053335,-370.102971,-8290.306550,1072.533697
59484.053644,-3849.070898,-9548.656652,-689.485948
59484.053954,0.000000,-4811.338623,612.876398
59484.054263,0.000000,-5995.668130,612.876398
59484.054573,2294.638420,-8290.306550,3600.648841
59484.054882,-296.082377,-6661.853478,1608.800546
59484.055192,-1110.308913,-9474.636058,766.095498
59484.055501,-2072.576638,-7772.162391,-766.095498
59484.055811,-5625.565159,-10066.800811,-995.924147
59484.056121,-3552.988522,-8364.327145,0.000000
59484.056430,1628.453072,-10362.883188,1608.800546
59484.056740,814.226536,-7179.997637,-2528.115143
59484.057049,0.000000,-9844.739029,2451.505594
59484.057359,518.144159,-7402.059420,0.000000
59484.057668,4071.132681,-11251.130318,2987.772442
59484.057978,2812.782580,-8364.327145,2911.162892
59484.058287,296.082377,-9770.718434,1225.752797
59484.058597,-1332.370696,-9696.697840,1149.143247
59484.058906,-3256.906145,-9030.512492,0.000000
59484.059216,-2368.659014,-9548.656652,0.000000
59484.059526,444.123565,-7476.080014,2451.505594
59484.059835,-74.020594,-7105.977043,-383.047749
59484.060145,0.000000,-7179.997637,1225.752797
59484.060454,1702.473667,-7105.977043,1149.143247
59484.060764,3330.926739,-10510.924376,2757.943793
59484.061073,1110.308913,-8216.285956,1302.362347
59484.061383,-592.164754,-9326.594869,-612.876398
59484.061692,-2368.659014,-11695.253884,-1378.971896
59484.062002,-3849.070898,-9918.759623,-689.485948
59484.062311,-740.205942,-12065.356855,-76.609550
59484.062621,0.000000,-8364.327145,766.095498
59484.062931,-74.020594,-8290.306550,-76.609550
59484.063240,0.000000,-7772.162391,1838.629195
59484.063550,3478.967927,-8290.306550,3600.648841
59484.063859,4589.276840,-8512.368333,4519.963438
59484.064169,3478.967927,-6439.791695,2987.772442
59484.064478,666.185348,-7550.100608,1532.190996
59484.064788,-1110.308913,-9400.615463,-153.219100
59484.065097,-3330.926739,-10066.800811,-536.266849
59484.065407,-4811.338623,-11843.295072,-2528.115143
59484.065716,-4737.318029,-9548.656652,-3370.820191
59484.066026,-1406.391290,-12657.521608,1532.190996
59484.066335,-666.185348,-11843.295072,-76.609550
59484.066645,-74.020594,-9474.636058,2374.896044
59484.066955,888.247130,-9548.656652,3064.381992
59484.067264,4219.173869,-7105.977043,3677.258390
59484.067574,3775.050304,-6365.771101,3983.696590
59484.067883,2294.638420,-8068.244768,3447.429741
59484.068193,-222.061783,-8438.347739,2681.334243
59484.068502,-2960.823768,-9252.574275,0.000000
59484.068812,-3478.967927,-9548.656652,-1378.971896
59484.069121,-1850.514855,-11843.295072,-76.609550
59484.069431,-3775.050304,-9326.594869,-2528.115143
59484.069740,-1554.432478,-11103.089130,2298.286494
59484.070050,-1184.329507,-8956.491898,1225.752797
59484.070360,2294.638420,-9918.759623,2145.067394
59484.070669,1776.494261,-7846.182985,2604.724693
59484.070979,222.061783,-9326.594869,1072.533697
59484.071288,-1554.432478,-8882.471304,1072.533697
59484.071598,-2442.679609,-10658.965565,-76.609550
59484.071907,-3552.988522,-9548.656652,-1225.752797
59484.072217,-74.020594,-11251.130318,3600.648841
59484.072526,-666.185348,-5995.668130,-689.485948
59484.072836,666.185348,-10436.903782,3217.601092
59484.073145,0.000000,-6735.874072,1532.190996
59484.073455,3034.844362,-9104.533087,2911.162892
59484.073765,3182.885551,-8290.306550,3140.991542
59484.074074,1998.556043,-8734.430116,1762.019645
59484.074384,-222.061783,-9992.780217,153.219100
59484.074693,-666.185348,-10658.965565,-76.609550
59484.075003,-3034.844362,-10658.965565,-2068.457845
59484.075312,-1776.494261,-9548.656652,1532.190996
59484.075622,-74.020594,-9474.636058,-76.609550
59484.075931,0.000000,-10732.986159,2451.505594
59484.076241,-1480.411884,-7624.121203,383.047749
59484.076550,1924.535449,-8660.409521,2221.676944
59484.076860,3923.091493,-7179.997637,2681.334243
59484.077170,3256.906145,-7846.182985,2681.334243
59484.077479,518.144159,-8956.491898,0.000000
59484.077789,-1628.453072,-10881.027347,459.657299
59484.078098,-1258.350101,-11843.295072,-1302.362347
59484.078408,-2368.659014,-9548.656652,0.000000
59484.078717,-74.020594,-11251.130318,-76.609550
59484.079027,-1776.494261,-9548.656652,1225.752797
59484.079337,-1184.329507,-7772.162391,536.266849
59484.079647,1258.350101,-8956.491898,2528.115143
59484.079956,3997.112087,-6883.915261,3524.039291
59484.080266,3552.988522,-5699.585753,3064.381992
59484.080576,1628.453072,-7772.162391,1225.752797
59484.080885,-2960.823768,-8956.491898,0.000000
59484.081195,-4219.173869,-11843.295072,-1302.362347
59484.081505,-7105.977043,-9548.656652,-4903.011187
59484.081815,-1258.350101,-11843.295072,-383.047749
59484.082124,-4737.318029,-9548.656652,-2451.505594
59484.082434,-7105.977043,-7179.997637,0.000000
59484.082744,814.226536,-9326.594869,1762.019645
59484.083054,3849.070898,-8068.244768,3907.087040
59484.083363,4959.379811,-5921.647536,4826.401637
59484.083673,5699.585753,-8290.306550,4596.572988
59484.083983,296.082377,-7624.121203,1838.629195
59484.084293,-1258.350101,-9474.636058,-76.609550
59484.084602,-4145.153275,-9548.656652,-2451.505594
59484.084912,-74.020594,-11843.295072,-76.609550
59484.085222,-4737.318029,-9548.656652,-2145.067394
59484.085532,-4663.297435,-8808.450710,-1685.410096
59484.085841,-2368.659014,-9252.574275,0.000000
59484.086151,962.267725,-9474.636058,2528.115143
59484.086461,3478.967927,-7254.018232,3064.381992
59484.086771,4219.173869,-8364.327145,3370.820191
59484.087080,592.164754,-9548.656652,2604.724693
59484.087390,-2442.679609,-8882.471304,-383.047749
59484.087700,-4441.235652,-10140.821405,0.000000
59484.088010,-74.020594,-11251.130318,-689.485948
59484.088319,-4737.318029,-7179.997637,0.000000
59484.088629,-1332.370696,-9178.553681,76.609550
59484.088939,0.000000,-7476.080014,1991.848295
59484.089249,2146.597232,-7920.203579,2451.505594
59484.089558,3997.112087,-7402.059420,3907.087040
59484.089868,3256.906145,-6587.832884,2834.553343
59484.090178,0.000000,-8364.327145,1532.190996
59484.090488,-666.185348,-11251.130318,1149.143247
59484.090797,-4219.173869,-9844.739029,-4903.011187
59484.091107,-2072.576638,-12065.356855,612.876398
59484.091417,-3849.070898,-7179.997637,-3064.381992
59484.091727,-1850.514855,-10658.965565,-689.485948
59484.092036,-2368.659014,-7920.203579,76.609550
59484.092346,74.020594,-7994.224174,2068.457845
59484.092656,4071.132681,-7624.121203,3447.429741
59484.092966,3552.988522,-5551.544565,3907.087040
59484.093275,2368.659014,-7179.997637,1838.629195
59484.093585,1258.350101,-10584.944971,1762.019645
59484.093895,-3775.050304,-8364.327145,-4213.525239
59484.094205,-4737.318029,-12509.480420,-919.314598
59484.094514,-2146.597232,-8882.471304,-3140.991542
59484.094824,-74.020594,-10955.047942,-76.609550
59484.095134,-2220.617826,-9770.718434,689.485948
59484.095444,-1480.411884,-7476.080014,153.219100
59484.095753,1480.411884,-9474.636058,2604.724693
59484.096063,3256.906145,-5477.523971,3677.258390
59484.096373,0.000000,-7179.997637,1532.190996
59484.096683,592.164754,-7772.162391,1225.752797
59484.096992,-666.185348,-11251.130318,-76.609550
59484.097302,-4737.318029,-9548.656652,-3064.381992
59484.097612,-2442.679609,-9474.636058,-2528.115143
59484.097921,-2442.679609,-11029.068536,-459.657299
59484.098231,-2590.720797,-9770.718434,-1149.143247
59484.098541,-1628.453072,-9178.553681,919.314598
59484.098851,2220.617826,-9030.512492,2528.115143
59484.099160,3404.947333,-6957.935855,4673.182538
59484.099470,4663.297435,-6735.874072,3907.087040
59484.099780,296.082377,-7179.997637,1225.752797
59484.100090,-74.020594,-9474.636058,2374.896044
59484.100399,-4737.318029,-9548.656652,-2145.067394
59484.100709,-74.020594,-9474.636058,-76.609550
59484.101019,-2146.597232,-10881.027347,-612.876398
59484.101329,-2738.761985,-10658.965565,-689.485948
59484.101638,-2590.720797,-8882.471304,-689.485948
59484.101948,740.205942,-9104.533087,2145.067394
59484.102258,3627.009116,-7846.182985,3600.648841
59484.102568,3182.885551,-6069.688724,2757.943793
59484.102877,2368.659014,-8956.491898,2757.943793
59484.103187,-74.020594,-9474.636058,-76.609550
59484.103497,-6513.812290,-9548.656652,0.000000
59484.103807,-666.185348,-10362.883188,-383.047749
59484.104116,-962.267725,-10066.800811,-76.609550
59484.104426,-2590.720797,-10584.944971,-766.095498
59484.104736,-1776.494261,-8956.491898,0.000000
59484.105046,888.247130,-9326.594869,2221.676944
59484.105355,3182.885551,-7994.224174,3294.210641
59484.105665,2072.576638,-5107.421000,1991.848295
59484.105975,296.082377,-8364.327145,1991.848295
59484.106285,-74.020594,-11843.295072,-76.609550
59484.106594,-3182.885551,-8438.347739,-2528.115143
59484.106904,-1850.514855,-10066.800811,-1915.238745
59484.107214,-814.226536,-9474.636058,-76.609550
59484.107524,-1258.350101,-10584.944971,-306.438199
59484.107833,-2146.597232,-8660.409521,0.000000
59484.108143,-2516.700203,-8438.347739,229.828649
59484.108453,296.082377,-8364.327145,1838.629195
59484.108763,2368.659014,-7328.038826,3140.991542
59484.109072,5847.626942,-9474.636058,4213.525239
59484.109382,1702.473667,-7105.977043,-76.609550
59484.109692,-2368.659014,-8364.327145,1225.752797
59484.110002,-1480.411884,-9992.780217,-459.657299
59484.110311,-2960.823768,-8660.409521,-1762.019645
59484.110621,-3552.988522,-10881.027347,-842.705048
59484.110931,-4367.215058,-10807.006753,-1225.752797
59484.111241,-2590.720797,-9770.718434,76.609550
59484.111550,2590.720797,-9992.780217,3064.381992
59484.111860,2812.782580,-6735.874072,3677.258390
59484.112170,5551.544565,-7105.977043,4519.963438
59484.112480,2590.720797,-5551.544565,0.000000
59484.112789,888.247130,-9104.533087,2451.505594
59484.113099,-2960.823768,-10140.821405,0.000000
59484.113409,-2738.761985,-9104.533087,-2298.286494
59484.113719,-4367.215058,-10288.862594,-2451.505594
59484.114028,-4071.132681,-11399.171507,-2681.334243
59484.114338,-4515.256246,-10436.903782,-1608.800546
59484.114648,-592.164754,-9548.656652,1532.190996
59484.114957,2368.659014,-7772.162391,3677.258390
59484.115267,5773.606348,-8290.306550,5439.278036
59484.115577,4071.132681,-6217.729913,1762.019645
59484.115887,0.000000,-5995.668130,2451.505594
59484.116196,0.000000,-7179.997637,0.000000
59484.116506,518.144159,-9474.636058,-76.609550
59484.116816,-2072.576638,-8660.409521,-1149.143247
59484.117126,-3552.988522,-10881.027347,-1991.848295
59484.117435,-3775.050304,-10140.821405,-1378.971896
59484.117745,-2368.659014,-10732.986159,0.000000
59484.118055,1184.329507,-9548.656652,1302.362347
59484.118365,3849.070898,-7920.203579,3907.087040
59484.118674,3182.885551,-9474.636058,4826.401637
59484.118984,370.102971,-6069.688724,459.657299
59484.119294,0.000000,-6587.832884,0.000000
59484.119604,814.226536,-10658.965565,842.705048
59484.119913,-1776.494261,-8512.368333,-766.095498
59484.120223,-3552.988522,-10732.986159,-1838.629195
59484.120533,-2516.700203,-10214.842000,-612.876398
59484.120843,-2960.823768,-9548.656652,76.609550
59484.121152,0.000000,-7772.162391,612.876398
59484.121462,4071.132681,-9104.533087,4826.401637
59484.121772,3330.926739,-7105.977043,1762.019645
59484.122082,0.000000,-7179.997637,2451.505594
59484.122391,-74.020594,-7698.141797,-383.047749
59484.122701,1110.308913,-10955.047942,1149.143247
59484.123011,-592.164754,-8660.409521,0.000000
59484.123321,-2738.761985,-9992.780217,-1455.581446
59484.123630,-4293.194464,-10732.986159,-1072.533697
59484.123940,-4737.318029,-9104.533087,-383.047749
59484.124250,-2368.659014,-8364.327145,0.000000
59484.124560,2368.659014,-7624.121203,3370.820191
59484.124869,3478.967927,-9474.636058,4826.401637
59484.125179,814.226536,-5995.668130,689.485948
59484.125489,-74.020594,-8882.471304,-76.609550
59484.125799,1110.308913,-11251.130318,1762.019645
59484.126108,-962.267725,-9400.615463,-459.657299
59484.126418,-3034.844362,-9844.739029,-1072.533697
59484.126728,-3552.988522,-10510.924376,-1532.190996
59484.127038,-3627.009116,-9326.594869,-76.609550
59484.127347,-370.102971,-10658.965565,2221.676944
59484.127657,1332.370696,-7179.997637,2451.505594
59484.127967,3552.988522,-7179.997637,5515.887586
59484.128277,3478.967927,-8290.306550,3600.648841
59484.128586,2294.638420,-8290.306550,2374.896044
59484.128896,-74.020594,-11103.089130,1378.971896
59484.129206,-444.123565,-9400.615463,-76.609550
59484.129516,-4293.194464,-9548.656652,-2298.286494
59484.129825,-5995.668130,-11769.274478,-2911.162892
59484.130135,-4811.338623,-10658.965565,-2221.676944
59484.130445,-3552.988522,-11843.295072,-153.219100
59484.130754,-814.226536,-7254.018232,536.266849
59484.131064,0.000000,-5995.668130,3064.381992
59484.131374,7031.956449,-9474.636058,4826.401637
59484.131684,6439.791695,-8290.306550,4826.401637
59484.131993,592.164754,-8660.409521,2757.943793
59484.132303,1036.288319,-8290.306550,842.705048
59484.132613,-962.267725,-8438.347739,-229.828649
59484.132923,-2442.679609,-9326.594869,-1838.629195
59484.133232,-4811.338623,-11251.130318,-306.438199
59484.133542,-2442.679609,-11251.130318,-689.485948
59484.133852,0.000000,-9548.656652,229.828649
59484.134162,4663.297435,-9474.636058,4826.401637
59484.134471,1406.391290,-7105.977043,536.266849
59484.134781,2368.659014,-9326.594869,2987.772442
59484.135091,0.000000,-8364.327145,153.219100
59484.135401,962.267725,-11029.068536,995.924147
59484.135710,-370.102971,-9252.574275,229.828649
59484.136020,-1924.535449,-10955.047942,-919.314598
59484.136330,-1258.350101,-9992.780217,-1225.752797
59484.136640,-2812.782580,-9918.759623,306.438199
59484.136949,222.061783,-8734.430116,1149.143247
59484.137259,2368.659014,-7772.162391,5515.887586
59484.137569,5847.626942,-7105.977043,4213.525239
59484.137879,2368.659014,-8956.491898,3830.477490
59484.138188,0.000000,-7179.997637,1225.752797
59484.138498,1258.350101,-10510.924376,919.314598
59484.138808,814.226536,-9030.512492,383.047749
59484.139118,-2220.617826,-9474.636058,-1455.581446
59484.139427,-3627.009116,-10732.986159,-2451.505594
59484.139737,-4293.194464,-9844.739029,-1072.533697
59484.140047,-1850.514855,-10881.027347,-229.828649
59484.140357,0.000000,-7179.997637,2451.505594
59484.140666,3182.885551,-9474.636058,3600.648841
59484.140976,1184.329507,-7772.162391,2757.943793
59484.141286,0.000000,-7179.997637,1225.752797
59484.141596,0.000000,-8512.368333,1302.362347
59484.141905,1258.350101,-8142.265362,1915.238745
59484.142215,1406.391290,-6883.915261,1149.143247
59484.142525,-814.226536,-9548.656652,612.876398
59484.142835,-3478.967927,-9400.615463,-383.047749
59484.143144,-3034.844362,-11843.295072,-383.047749
59484.143454,-2368.659014,-9548.656652,0.000000
59484.143764,1702.473667,-10658.965565,2374.896044
59484.144074,0.000000,-7179.997637,612.876398
59484.144383,-1480.411884,-8216.285956,842.705048
59484.144693,-1110.308913,-9178.553681,766.095498
59484.145003,1258.350101,-9474.636058,1455.581446
59484.145313,0.000000,-7772.162391,1072.533697
59484.145622,-2738.761985,-8068.244768,-1455.581446
59484.145932,-4071.132681,-9178.553681,-1532.190996
59484.146242,-2738.761985,-11769.274478,-76.609550
59484.146552,-4145.153275,-9548.656652,0.000000
59484.146861,3701.029710,-9474.636058,4290.134789
59484.147171,592.164754,-5995.668130,1225.752797
59484.147481,2294.638420,-7698.141797,2374.896044
59484.147790,0.000000,-8660.409521,1378.971896
59484.148100,0.000000,-9844.739029,1225.752797
59484.148410,-296.082377,-8364.327145,766.095498
59484.148720,-2368.659014,-8882.471304,-689.485948
59484.149029,-5921.647536,-8364.327145,-3064.381992
59484.149339,-4071.132681,-11177.109724,-689.485948
59484.149649,-3552.988522,-9548.656652,0.000000
59484.149959,2960.823768,-9104.533087,3217.601092
59484.150268,814.226536,-5995.668130,153.219100
59484.150578,1998.556043,-8290.306550,1762.019645
59484.150888,222.061783,-7920.203579,1149.143247
59484.151198,1776.494261,-10066.800811,1378.971896
59484.151507,1702.473667,-8438.347739,1302.362347
59484.151817,0.000000,-9178.553681,1149.143247
59484.152127,-2146.597232,-9030.512492,-1072.533697
59484.152437,-1184.329507,-10881.027347,536.266849
59484.152746,-3256.906145,-9548.656652,0.000000
59484.153056,2368.659014,-10066.800811,3064.381992
59484.153366,2294.638420,-7698.141797,842.705048
59484.153676,3108.864956,-9548.656652,3370.820191
59484.153985,740.205942,-8290.306550,1915.238745
59484.154295,-444.123565,-8956.491898,383.047749
59484.154605,962.267725,-9252.574275,1225.752797
59484.154915,2294.638420,-8586.388927,2374.896044
59484.155224,296.082377,-10066.800811,153.219100
59484.155534,-3552.988522,-9548.656652,-2451.505594
59484.155844,-74.020594,-13619.789333,-76.609550
59484.156154,-1998.556043,-9548.656652,0.000000
59484.156463,2294.638420,-8882.471304,2374.896044
59484.156773,1480.411884,-8956.491898,2604.724693
59484.157083,-666.185348,-8142.265362,1608.800546
59484.157393,-888.247130,-8586.388927,842.705048
59484.157702,1924.535449,-9178.553681,2145.067394
59484.158012,2146.597232,-7698.141797,3217.601092
59484.158322,-444.123565,-9178.553681,842.705048
59484.158632,-2960.823768,-7772.162391,0.000000
59484.158941,-74.020594,-11843.295072,-76.609550
59484.159251,-2368.659014,-8364.327145,0.000000
59484.159561,-74.020594,-9474.636058,2374.896044
59484.159871,-1628.453072,-8956.491898,229.828649
59484.160180,-1776.494261,-9696.697840,0.000000
59484.160490,-2294.638420,-9770.718434,-76.609550
59484.160800,74.020594,-9992.780217,1149.143247
59484.161110,2072.576638,-8068.244768,2451.505594
59484.161419,1110.308913,-8882.471304,-76.609550
59484.161729,-2960.823768,-8364.327145,0.000000
59484.162039,-74.020594,-11843.295072,-76.609550
59484.162349,-2738.761985,-9548.656652,0.000000
59484.162658,2886.803174,-9474.636058,3600.648841
59484.162968,740.205942,-8364.327145,1838.629195
59484.163278,0.000000,-8660.409521,1838.629195
59484.163588,-1332.370696,-8364.327145,919.314598
59484.163897,-74.020594,-9770.718434,536.266849
59484.164207,1184.329507,-7179.997637,1532.190996
59484.164517,-592.164754,-7772.162391,0.000000
59484.164826,-3108.864956,-9548.656652,-4290.134789
59484.165136,-2368.659014,-11325.150913,612.876398
59484.165446,-2442.679609,-11843.295072,-1302.362347
59484.165756,0.000000,-11177.109724,2757.943793
59484.166065,296.082377,-7920.203579,995.924147
59484.166375,962.267725,-9548.656652,2068.457845
59484.166685,814.226536,-7105.977043,2221.676944
59484.166995,1480.411884,-8142.265362,2451.505594
59484.167304,2368.659014,-5995.668130,2451.505594
59484.167614,3627.009116,-7550.100608,2987.772442
59484.167924,-370.102971,-8364.327145,0.000000
59484.168234,-1850.514855,-11695.253884,-76.609550
59484.168543,-4737.318029,-10436.903782,-2451.505594
59484.168853,0.000000,-10436.903782,2451.505594
59484.169163,-666.185348,-10362.883188,1149.143247
59484.169473,-814.226536,-8734.430116,-76.609550
59484.169782,-2072.576638,-9918.759623,766.095498
59484.170092,148.041188,-7846.182985,76.609550
59484.170402,0.000000,-8956.491898,612.876398
59484.170712,2664.741391,-6735.874072,2604.724693
59484.171021,2886.803174,-11843.295072,3600.648841
59484.171331,0.000000,-6587.832884,0.000000
59484.171641,-74.020594,-11177.109724,1685.410096
59484.171951,-1480.411884,-9622.677246,1838.629195
59484.172260,1036.288319,-8438.347739,1149.143247
59484.172570,370.102971,-10436.903782,1149.143247
59484.172880,-814.226536,-9252.574275,383.047749
59484.173190,-3256.906145,-10436.903782,0.000000
59484.173499,-1406.391290,-8364.327145,-1762.019645
59484.173809,1184.329507,-8364.327145,1838.629195
59484.174119,4071.132681,-10658.965565,4826.401637
59484.174429,-666.185348,-6883.915261,-689.485948
59484.174738,-2368.659014,-8364.327145,612.876398
59484.175048,-2368.659014,-8364.327145,306.438199
59484.175358,370.102971,-8882.471304,1455.581446
59484.175668,-1184.329507,-8734.430116,536.266849
59484.175977,-2220.617826,-9400.615463,0.000000
59484.176287,-2442.679609,-8808.450710,-459.657299
59484.176597,-370.102971,-9474.636058,-689.485948
59484.176907,0.000000,-7328.038826,1225.752797
59484.177216,2294.638420,-11251.130318,3600.648841
59484.177526,-1850.514855,-7476.080014,-1302.362347
59484.177836,-4145.153275,-8364.327145,0.000000
59484.178146,-2368.659014,-10140.821405,459.657299
59484.178455,370.102971,-9474.636058,1685.410096
59484.178765,-74.020594,-8808.450710,1608.800546
59484.179075,-1184.329507,-9178.553681,842.705048
59484.179385,-2072.576638,-7772.162391,612.876398
59484.179694,-74.020594,-9474.636058,-76.609550
59484.180004,0.000000,-7772.162391,1225.752797
59484.180314,3478.967927,-10362.883188,4443.353888
59484.180624,-2294.638420,-8364.327145,-1225.752797
59484.180933,-2368.659014,-9548.656652,0.000000
59484.181243,-3034.844362,-9178.553681,-1838.629195
59484.181553,-444.123565,-10881.027347,459.657299
59484.181862,-222.061783,-8956.491898,459.657299
59484.182172,-1184.329507,-10214.842000,536.266849
59484.182482,-1480.411884,-8512.368333,689.485948
59484.182792,-74.020594,-9474.636058,2068.457845
59484.183101,1702.473667,-8586.388927,1838.629195
59484.183411,2294.638420,-5329.482782,229.828649
59484.183721,2664.741391,-9252.574275,3677.258390
59484.184031,814.226536,-8290.306550,1149.143247
59484.184340,-2664.741391,-6291.750507,0.000000
59484.184650,2294.638420,-10658.965565,-76.609550
59484.184960,518.144159,-7994.224174,919.314598
59484.185269,-370.102971,-9770.718434,459.657299
59484.185579,-2294.638420,-9844.739029,-536.266849
59484.185889,-3923.091493,-9622.677246,-1685.410096
59484.186199,-1258.350101,-11547.212695,-76.609550
59484.186508,2220.617826,-9178.553681,2911.162892
59484.186818,0.000000,-5403.503377,0.000000
59484.187128,1480.411884,-9252.574275,2681.334243
59484.187438,-1628.453072,-5403.503377,0.000000
59484.187747,1110.308913,-10658.965565,1762.019645
59484.188057,1258.350101,-8512.368333,1915.238745
59484.188367,74.020594,-8808.450710,1378.971896
59484.188676,-962.267725,-9770.718434,459.657299
59484.188986,-1776.494261,-9474.636058,-76.609550
59484.189296,-74.020594,-10955.047942,1149.143247
59484.189606,1628.453072,-9030.512492,2987.772442
59484.189915,1110.308913,-5921.647536,-689.485948
59484.190225,0.000000,-8364.327145,1225.752797
59484.190535,-1554.432478,-7105.977043,-1149.143247
59484.190845,-888.247130,-10510.924376,1532.190996
59484.191154,-444.123565,-9104.533087,536.266849
59484.191464,-1776.494261,-8734.430116,0.000000
59484.191774,-2886.803174,-9992.780217,-383.047749
59484.192083,-3034.844362,-9474.636058,-383.047749
59484.192393,-1850.514855,-10066.800811,153.219100
59484.192703,592.164754,-8364.327145,1225.752797
59484.193013,4663.297435,-8290.306550,2374.896044
59484.193322,0.000000,-7179.997637,612.876398
59484.193632,-74.020594,-7105.977043,-383.047749
59484.193942,-1480.411884,-10288.862594,459.657299
59484.194252,1110.308913,-10658.965565,1455.581446
59484.194561,0.000000,-8364.327145,1225.752797
59484.194871,-1702.473667,-10658.965565,383.047749
59484.195181,-2442.679609,-10658.965565,-76.609550
59484.195490,-2738.761985,-10955.047942,-689.485948
59484.195800,-1184.329507,-8364.327145,0.000000
59484.196110,2886.803174,-9474.636058,3600.648841
59484.196420,-74.020594,-7698.141797,842.705048
59484.196729,-74.020594,-8882.471304,1149.143247
59484.197039,444.123565,-8660.409521,1378.971896
59484.197349,1258.350101,-9474.636058,1225.752797
59484.197658,592.164754,-8142.265362,842.705048
59484.197968,-666.185348,-10436.903782,0.000000
59484.198278,-1258.350101,-10807.006753,689.485948
59484.198588,-2442.679609,-11103.089130,-995.924147
59484.198897,-2294.638420,-10362.883188,0.000000
59484.199207,3478.967927,-10658.965565,2987.772442
59484.199517,814.226536,-7402.059420,536.266849
59484.199827,4219.173869,-8882.471304,3600.648841
59484.200136,0.000000,-6587.832884,1838.629195
59484.200446,1184.329507,-9918.759623,2604.724693
59484.200756,1924.535449,-8068.244768,2374.896044
59484.201065,296.082377,-9104.533087,1149.143247
59484.201375,-444.123565,-9548.656652,612.876398
59484.201685,-2664.741391,-8734.430116,-1225.752797
59484.201995,-2294.638420,-9770.718434,-3677.258390
59484.202304,2294.638420,-11843.295072,2068.457845
59484.202614,-74.020594,-8882.471304,-76.609550
59484.202924,1258.350101,-10658.965565,2221.676944
59484.203234,0.000000,-8660.409521,1225.752797
59484.203543,2368.659014,-9474.636058,2068.457845
59484.203853,2664.741391,-8142.265362,3217.601092
59484.204163,1036.288319,-7846.182985,1838.629195
59484.204472,-1776.494261,-8660.409521,0.000000
59484.204782,-1332.370696,-10066.800811,-76.609550
59484.205092,-2812.782580,-9548.656652,-3064.381992
59484.205402,2294.638420,-11843.295072,2374.896044
59484.205711,148.041188,-5699.585753,76.609550
59484.206021,592.164754,-10140.821405,3064.381992
59484.206331,74.020594,-7105.977043,1149.143247
59484.206641,-888.247130,-9992.780217,1149.143247
59484.206950,740.205942,-9400.615463,1072.533697
59484.207260,-222.061783,-9548.656652,689.485948
59484.207570,-3552.988522,-8364.327145,0.000000
59484.207879,-3552.988522,-9548.656652,-1225.752797
59484.208189,-2738.761985,-10362.883188,-1915.238745
59484.208499,-2368.659014,-9548.656652,612.876398
59484.208809,-74.020594,-8882.471304,1149.143247
59484.209118,0.000000,-8364.327145,1838.629195
59484.209428,444.123565,-8290.306550,2068.457845
59484.209738,1110.308913,-7698.141797,1685.410096
59484.210048,2664.741391,-8512.368333,2528.115143
59484.210357,2072.576638,-6513.812290,1915.238745
59484.210667,-2072.576638,-7476.080014,0.000000
59484.210977,-3404.947333,-10140.821405,-1149.143247
59484.211286,-3034.844362,-14211.954086,-76.609550
59484.211596,-4737.318029,-10140.821405,-3064.381992
59484.211906,-592.164754,-10362.883188,1225.752797
59484.212216,-1184.329507,-7179.997637,612.876398
59484.212525,814.226536,-8290.306550,1762.019645
59484.212835,0.000000,-7254.018232,1225.752797
59484.213145,1850.514855,-9474.636058,2221.676944
59484.213455,2294.638420,-8216.285956,2374.896044
59484.213764,-370.102971,-7402.059420,229.828649
59484.214074,-2368.659014,-8956.491898,0.000000
59484.214384,-1554.432478,-11843.295072,-76.609550
59484.214693,-4145.153275,-8364.327145,0.000000
59484.215003,1776.494261,-8660.409521,2451.505594
59484.215313,1850.514855,-5699.585753,689.485948
59484.215623,2146.597232,-9474.636058,2374.896044
59484.215932,222.061783,-8290.306550,1302.362347
59484.216242,888.247130,-10288.862594,1838.629195
59484.216552,2072.576638,-8956.491898,1838.629195
59484.216862,-74.020594,-7698.141797,-76.609550
59484.217171,-2220.617826,-10510.924376,-383.047749
59484.217481,-3478.967927,-11843.295072,-76.609550
59484.217791,-6513.812290,-9548.656652,-2451.505594
59484.218100,-74.020594,-11251.130318,2145.067394
59484.218410,-1036.288319,-4885.359217,0.000000
59484.218720,2220.617826,-8882.471304,3524.039291
59484.219030,1702.473667,-7105.977043,3140.991542
59484.219339,1332.370696,-7698.141797,2451.505594
59484.219649,2664.741391,-9252.574275,3294.210641
59484.219959,3478.967927,-8882.471304,2987.772442
59484.220269,0.000000,-9770.718434,459.657299
59484.220578,-2368.659014,-9548.656652,612.876398
59484.220888,-3627.009116,-10658.965565,-1915.238745
59484.221198,-3552.988522,-10732.986159,0.000000
59484.221507,-444.123565,-8290.306550,-1838.629195
59484.221817,-518.144159,-9844.739029,1838.629195
59484.222127,-148.041188,-8068.244768,1762.019645
59484.222437,0.000000,-7328.038826,2145.067394
59484.222746,3108.864956,-8512.368333,3447.429741
59484.223056,4663.297435,-8290.306550,4826.401637
59484.223366,518.144159,-7105.977043,689.485948
59484.223676,-2368.659014,-9548.656652,1838.629195
59484.223985,-4811.338623,-9326.594869,-3140.991542
59484.224295,-4737.318029,-11917.315666,-1532.190996
59484.224605,-1850.514855,-10658.965565,-2528.115143
59484.224914,-3182.885551,-10140.821405,-1072.533697
59484.225224,-740.205942,-9326.594869,383.047749
59484.225534,370.102971,-7476.080014,1991.848295
59484.225844,3256.906145,-8808.450710,4826.401637
59484.226153,6439.791695,-8586.388927,5898.935335
59484.226463,4219.173869,-8290.306550,3600.648841
59484.226773,-3256.906145,-5995.668130,0.000000
59484.227083,-1998.556043,-11843.295072,-76.609550
59484.227392,-5403.503377,-11695.253884,-2987.772442
59484.227702,-1850.514855,-10955.047942,-1915.238745
59484.228012,-2664.741391,-8660.409521,-612.876398
59484.228321,-1628.453072,-9474.636058,0.000000
59484.228631,-1036.288319,-8068.244768,1072.533697
59484.228941,1110.308913,-9622.677246,2757.943793
59484.229251,2960.823768,-8660.409521,4290.134789
59484.229560,2294.638420,-8586.388927,4826.401637
59484.229870,2294.638420,-7105.977043,-76.609550
59484.230180,-1776.494261,-8660.409521,1225.752797
59484.230490,-1554.432478,-11843.295072,-76.609550
59484.230799,-962.267725,-10510.924376,-76.609550
59484.231109,-1554.432478,-8364.327145,0.000000
59484.231419,222.061783,-9474.636058,1149.143247
59484.231728,222.061783,-8216.285956,1991.848295
59484.232038,1850.514855,-7920.203579,2451.505594
59484.232348,2368.659014,-8364.327145,4290.134789
59484.232658,3923.091493,-7994.224174,4443.353888
59484.232967,-74.020594,-8882.471304,-689.485948
59484.233277,-4737.318029,-9548.656652,0.000000
59484.233587,-2738.761985,-11843.295072,-1302.362347
59484.233897,-888.247130,-11547.212695,-76.609550
59484.234206,0.000000,-8364.327145,306.438199
59484.234516,370.102971,-9178.553681,995.924147
59484.234826,74.020594,-8216.285956,1455.581446
59484.235135,-74.020594,-8734.430116,612.876398
59484.235445,0.000000,-7179.997637,2451.505594
59484.235755,3701.029710,-7476.080014,4290.134789
59484.236065,3478.967927,-7698.141797,1762.019645
59484.236374,0.000000,-9548.656652,1838.629195
59484.236684,-1258.350101,-11251.130318,-76.609550
59484.236994,-2812.782580,-12435.459826,1149.143247
59484.237304,-1554.432478,-8956.491898,-536.266849
59484.237613,-1554.432478,-10288.862594,-76.609550
59484.237923,-1110.308913,-9178.553681,612.876398
59484.238233,-1258.350101,-8364.327145,0.000000
59484.238542,0.000000,-8364.327145,612.876398
59484.238852,2960.823768,-6587.832884,4903.011187
59484.239162,4663.297435,-7105.977043,2374.896044
59484.239472,0.000000,-7179.997637,1225.752797
59484.239781,-2738.761985,-9474.636058,-383.047749
59484.240091,-6809.894666,-11621.233289,-1225.752797
59484.240401,-3627.009116,-11547.212695,-1455.581446
59484.240711,-1776.494261,-7846.182985,-995.924147
59484.241020,-2442.679609,-10362.883188,306.438199
59484.241330,-2146.597232,-5403.503377,-1762.019645
59484.241640,-1702.473667,-9548.656652,0.000000
59484.241949,3552.988522,-4811.338623,842.705048
59484.242259,4145.153275,-8956.491898,5515.887586
59484.242569,1702.473667,-7994.224174,1149.143247
59484.242879,-2368.659014,-8364.327145,76.609550
59484.243188,-3182.885551,-11029.068536,0.000000
59484.243498,-1628.453072,-10955.047942,-995.924147
59484.243808,-3627.009116,-9992.780217,-766.095498
59484.244118,-2590.720797,-9770.718434,-1378.971896
59484.244427,-1850.514855,-9178.553681,-76.609550
59484.244737,-74.020594,-7698.141797,-76.609550
59484.245047,1776.494261,-6365.771101,1302.362347
59484.245356,2368.659014,-5995.668130,4903.011187
59484.245666,4071.132681,-9474.636058,2374.896044
59484.245976,-1332.370696,-6883.915261,919.314598
59484.246286,-4145.153275,-9548.656652,0.000000
59484.246595,-2072.576638,-10955.047942,-536.266849
59484.246905,-962.267725,-9696.697840,-536.266849
59484.247215,-1332.370696,-10881.027347,229.828649
59484.247524,-1554.432478,-9474.636058,-76.609550
59484.247834,-74.020594,-8882.471304,-76.609550
59484.248144,1776.494261,-8290.306550,2068.457845
59484.248454,1184.329507,-4811.338623,2451.505594
59484.248763,5403.503377,-9178.553681,4826.401637
59484.249073,1998.556043,-7105.977043,1225.752797
59484.249383,-2960.823768,-7772.162391,0.000000
59484.249693,-2368.659014,-12213.398043,-1072.533697
59484.250002,-1924.535449,-10732.986159,-459.657299
59484.250312,-2072.576638,-10140.821405,-383.047749
59484.250622,-296.082377,-11251.130318,-76.609550
59484.250931,-74.020594,-9474.636058,2374.896044
59484.251241,1110.308913,-9474.636058,2374.896044
59484.251551,1184.329507,-4811.338623,2451.505594
59484.251861,5181.441594,-8586.388927,5669.106685
59484.252170,2886.803174,-7920.203579,1838.629195
59484.252480,-2738.761985,-6291.750507,-1225.752797
59484.252790,-3256.906145,-10584.944971,-1225.752797
59484.253100,-2442.679609,-10140.821405,-1149.143247
59484.253409,-3108.864956,-9696.697840,-1225.752797
59484.253719,-2442.679609,-12435.459826,-76.609550
59484.254029,-666.185348,-11843.295072,-76.609550
59484.254338,-74.020594,-11843.295072,2374.896044
59484.254648,2146.597232,-5403.503377,1608.800546
59484.254958,4145.153275,-7179.997637,4903.011187
59484.255268,3182.885551,-7105.977043,919.314598
59484.255577,-1258.350101,-7550.100608,-76.609550
59484.255887,-2960.823768,-10807.006753,-1149.143247
59484.256197,-1998.556043,-11547.212695,-995.924147
59484.256507,-2886.803174,-9622.677246,-1608.800546
59484.256816,-1924.535449,-12065.356855,919.314598
59484.257126,-1850.514855,-11399.171507,2374.896044
59484.257436,1110.308913,-11843.295072,3600.648841
59484.257745,1998.556043,-5995.668130,2068.457845
59484.258055,3552.988522,-6661.853478,4290.134789
59484.258365,1702.473667,-7920.203579,536.266849
59484.258675,-1258.350101,-8290.306550,-76.609550
59484.258984,-4737.318029,-10140.821405,-1991.848295
59484.259294,-3923.091493,-11029.068536,-1762.019645
59484.259604,-3627.009116,-8808.450710,-1991.848295
59484.259914,-3552.988522,-9844.739029,0.000000
59484.260223,-3552.988522,-10140.821405,612.876398
59484.260533,-74.020594,-11843.295072,4213.525239
59484.260843,4071.132681,-8882.471304,2374.896044
59484.261152,2960.823768,-5107.421000,2757.943793
59484.261462,3552.988522,-6587.832884,3294.210641
59484.261772,2886.803174,-8882.471304,2374.896044
59484.262082,-1924.535449,-9992.780217,-229.828649
59484.262391,-2072.576638,-11547.212695,-689.485948
59484.262701,-2146.597232,-10214.842000,-766.095498
59484.263011,-3552.988522,-9548.656652,0.000000
59484.263321,-2368.659014,-9548.656652,0.000000
59484.263630,-1184.329507,-8660.409521,2451.505594
59484.263940,3478.967927,-10658.965565,3294.210641
59484.264250,1776.494261,-5403.503377,2451.505594
59484.264559,4145.153275,-6513.812290,4213.525239
59484.264869,4367.215058,-9474.636058,3600.648841
59484.265179,-666.185348,-8068.244768,153.219100
59484.265489,-2220.617826,-12361.439231,-766.095498
59484.265798,-1850.514855,-9844.739029,-1685.410096
59484.266108,-4737.318029,-9548.656652,-3677.258390
59484.266418,-3552.988522,-9548.656652,0.000000
59484.266728,-2368.659014,-7772.162391,1225.752797
59484.267037,3478.967927,-11843.295072,4213.525239
59484.267347,4071.132681,-6587.832884,2757.943793
59484.267657,6217.729913,-8290.306550,6665.030833
59484.267966,5329.482782,-7105.977043,4903.011187
59484.268276,370.102971,-7698.141797,1149.143247
59484.268586,-1998.556043,-10510.924376,-842.705048
59484.268896,-962.267725,-10584.944971,-842.705048
59484.269205,-3775.050304,-8660.409521,-3217.601092
59484.269515,-7105.977043,-7772.162391,-4903.011187
59484.269825,-6513.812290,-9548.656652,0.000000
59484.270135,-370.102971,-13619.789333,1149.143247
59484.270444,814.226536,-7328.038826,1455.581446
59484.270754,4663.297435,-8290.306550,5439.278036
59484.271064,2368.659014,-7328.038826,4290.134789
59484.271373,2664.741391,-7031.956449,2374.896044
59484.271683,0.000000,-9326.594869,459.657299
59484.271993,-296.082377,-10288.862594,76.609550
59484.272303,-2442.679609,-8586.388927,-2528.115143
59484.272612,-4219.173869,-9548.656652,-3447.429741
59484.272922,-4737.318029,-9548.656652,0.000000
59484.273232,-1850.514855,-13027.624579,-76.609550
59484.273542,-962.267725,-9326.594869,536.266849
59484.273851,3256.906145,-8068.244768,4903.011187
59484.274161,2368.659014,-6587.832884,3064.381992
59484.274471,1850.514855,-6957.935855,2221.676944
59484.274780,-1628.453072,-7476.080014,459.657299
59484.275090,-1628.453072,-10881.027347,383.047749
59484.275400,-666.185348,-9474.636058,-383.047749
59484.275710,-2442.679609,-9474.636058,-1302.362347
59484.276019,-6957.935855,-7179.997637,-3370.820191
59484.276329,-2442.679609,-10658.965565,-76.609550
59484.276639,-2368.659014,-9104.533087,76.609550
59484.276949,1776.494261,-8364.327145,4903.011187
59484.277258,592.164754,-5995.668130,2451.505594
59484.277568,2146.597232,-7846.182985,3294.210641
59484.277878,370.102971,-7254.018232,1455.581446
59484.278187,-370.102971,-10066.800811,306.438199
59484.278497,1702.473667,-9474.636058,-76.609550
59484.278807,-74.020594,-9474.636058,-76.609550
59484.279117,-2442.679609,-10066.800811,-1915.238745
59484.279426,-4737.318029,-9548.656652,0.000000
59484.279736,-74.020594,-11843.295072,2068.457845
59484.280046,1184.329507,-7328.038826,2451.505594
59484.280355,1924.535449,-6291.750507,2451.505594
59484.280665,3478.967927,-8216.285956,2834.553343
59484.280975,1850.514855,-7328.038826,1762.019645
59484.281284,148.041188,-9844.739029,919.314598
59484.281594,-74.020594,-12435.459826,2374.896044
59484.281904,-74.020594,-11251.130318,-383.047749
59484.282213,-1258.350101,-11843.295072,-1302.362347
59484.282523,-5921.647536,-8364.327145,-2451.505594
59484.282833,-222.061783,-11769.274478,2374.896044
59484.283142,0.000000,-7772.162391,612.876398
59484.283452,3182.885551,-5403.503377,2987.772442
59484.283762,3404.947333,-7031.956449,3830.477490
59484.284071,3478.967927,-6513.812290,2987.772442
59484.284381,592.164754,-8142.265362,1149.143247
59484.284691,1554.432478,-10140.821405,2911.162892
59484.285000,-74.020594,-11251.130318,0.000000
59484.285310,-1258.350101,-13027.624579,-689.485948
59484.285620,-7105.977043,-9548.656652,-4290.134789
59484.285929,-4441.235652,-11843.295072,-76.609550
59484.286239,-1850.514855,-8512.368333,0.000000
59484.286549,4071.132681,-5921.647536,2374.896044
59484.286859,3552.988522,-7179.997637,4060.306139
59484.287168,3330.926739,-7031.956449,3064.381992
59484.287478,222.061783,-8438.347739,1149.143247
59484.287788,-888.247130,-10436.903782,1225.752797
59484.288097,-296.082377,-9548.656652,0.000000
59484.288407,-2664.741391,-12139.377449,-229.828649
59484.288717,-4811.338623,-10066.800811,-3447.429741
59484.289026,-5329.482782,-10140.821405,0.000000
59484.289336,-666.185348,-10955.047942,229.828649
59484.289646,2886.803174,-9474.636058,3600.648841
59484.289955,2072.576638,-6069.688724,3524.039291
59484.290265,2516.700203,-7105.977043,3677.258390
59484.290575,1332.370696,-6587.832884,2757.943793
59484.290884,0.000000,-8364.327145,1225.752797
59484.291194,-1776.494261,-7179.997637,0.000000
59484.291504,-2664.741391,-10436.903782,-536.266849
59484.291813,-4811.338623,-10658.965565,-3447.429741
59484.292123,-5921.647536,-9548.656652,-1225.752797
59484.292433,-1258.350101,-11843.295072,-383.047749
59484.292742,2812.782580,-10510.924376,2987.772442
59484.293052,1998.556043,-7254.018232,2681.334243
59484.293362,2590.720797,-7550.100608,3370.820191
59484.293671,2146.597232,-6883.915261,2757.943793
59484.293981,0.000000,-7179.997637,0.000000
59484.294291,0.000000,-5995.668130,0.000000
59484.294600,0.000000,-9548.656652,1838.629195
59484.294910,-1850.514855,-10362.883188,-1608.800546
59484.295220,-4737.318029,-9548.656652,-306.438199
59484.295529,-1258.350101,-11843.295072,-76.609550
59484.295839,1406.391290,-11399.171507,2068.457845
59484.296149,2146.597232,-7994.224174,2374.896044
59484.296458,2294.638420,-8290.306550,2068.457845
59484.296768,2220.617826,-7402.059420,2221.676944
59484.297078,0.000000,-6217.729913,0.000000
59484.297387,0.000000,-7846.182985,229.828649
59484.297697,0.000000,-6291.750507,0.000000
59484.298007,-592.164754,-11251.130318,-153.219100
59484.298316,-2442.679609,-9622.677246,-1838.629195
59484.298626,-74.020594,-13027.624579,-76.609550
59484.298936,0.000000,-10214.842000,1838.629195
59484.299245,1924.535449,-7402.059420,2221.676944
59484.299555,2368.659014,-8364.327145,2451.505594
59484.299865,2738.761985,-7624.121203,2451.505594
59484.300174,518.144159,-8290.306550,1149.143247
59484.300484,0.000000,-8882.471304,-76.609550
59484.300794,-2368.659014,-5995.668130,0.000000
59484.301103,-74.020594,-10658.965565,-76.609550
59484.301413,-3923.091493,-8882.471304,-2451.505594
59484.301723,-2442.679609,-11843.295072,-76.609550
59484.302032,-2368.659014,-11029.068536,0.000000
59484.302342,1924.535449,-8512.368333,2145.067394
59484.302652,1554.432478,-7550.100608,1762.019645
59484.302961,370.102971,-8586.388927,1762.019645
59484.303271,-74.020594,-8290.306550,1149.143247
59484.303581,1110.308913,-11843.295072,-76.609550
59484.303890,0.000000,-5995.668130,0.000000
59484.304200,-74.020594,-10584.944971,1532.190996
59484.304510,-3552.988522,-9548.656652,-2298.286494
59484.304819,-2442.679609,-10732.986159,995.924147
59484.305129,-2590.720797,-11769.274478,612.876398
59484.305439,-74.020594,-9474.636058,1762.019645
59484.305748,814.226536,-7402.059420,2451.505594
59484.306058,2220.617826,-8290.306550,2911.162892
59484.306368,-74.020594,-6513.812290,1149.143247
59484.306677,-1850.514855,-9474.636058,-76.609550
59484.306987,-2368.659014,-7772.162391,0.000000
59484.307297,-592.164754,-9622.677246,689.485948
59484.307606,-2590.720797,-9548.656652,-3753.867940
59484.307916,-4441.235652,-10288.862594,689.485948
59484.308226,-4737.318029,-10140.821405,0.000000
59484.308535,370.102971,-10658.965565,1455.581446
59484.308845,2146.597232,-6957.935855,3064.381992
59484.309155,1480.411884,-8216.285956,3217.601092
59484.309464,2294.638420,-8882.471304,2987.772442
59484.309774,2294.638420,-10658.965565,2987.772442
59484.310084,518.144159,-8142.265362,536.266849
59484.310393,592.164754,-7476.080014,1838.629195
59484.310703,-814.226536,-8882.471304,-689.485948
59484.311013,-5921.647536,-9548.656652,-1225.752797
59484.311322,-8882.471304,-11029.068536,-2451.505594
59484.311632,-5699.585753,-13545.768739,-459.657299
59484.311942,-3182.885551,-10214.842000,1149.143247
59484.312251,-1850.514855,-8142.265362,2298.286494
59484.312561,-74.020594,-9474.636058,4519.963438
59484.312871,-74.020594,-9474.636058,4826.401637
59484.313180,-1554.432478,-6735.874072,1762.019645
59484.313490,0.000000,-7179.997637,3370.820191
59484.313800,-666.185348,-5329.482782,-76.609550
59484.314109,-7105.977043,-7179.997637,0.000000
59484.314419,-7846.182985,-8068.244768,-2374.896044
59484.314729,-8882.471304,-11917.315666,-2298.286494
59484.315038,-7254.018232,-12509.480420,-1685.410096
59484.315348,-4737.318029,-10140.821405,-459.657299
59484.315658,-1258.350101,-11843.295072,2911.162892
59484.315967,-1480.411884,-9844.739029,3677.258390
59484.316277,-1850.514855,-10658.965565,3600.648841
59484.316587,-4367.215058,-6809.894666,689.485948
59484.316896,-3034.844362,-11103.089130,4213.525239
59484.317206,-4737.318029,-4219.173869,0.000000
59484.317516,-3923.091493,-8290.306550,842.705048
59484.317825,-6809.894666,-8364.327145,459.657299
59484.318135,-8068.244768,-10362.883188,-689.485948
59484.318445,-8660.409521,-11177.109724,229.828649
59484.318754,-7328.038826,-10732.986159,612.876398
59484.319064,-5921.647536,-7179.997637,1225.752797
59484.319374,-1258.350101,-8882.471304,3600.648841
59484.319683,-2442.679609,-8290.306550,2374.896044
59484.319993,-6513.812290,-7179.997637,0.000000
59484.320303,-6513.812290,-7476.080014,0.000000
59484.320612,-4811.338623,-8290.306550,-229.828649
59484.320922,-5033.400406,-7920.203579,-919.314598
59484.321232,-1924.535449,-8660.409521,995.924147
59484.321541,-1406.391290,-8660.409521,1149.143247
59484.321851,-4145.153275,-9548.656652,0.000000
59484.322161,-8882.471304,-10140.821405,-2451.505594
59484.322470,-4959.379811,-14211.954086,-76.609550
59484.322780,-5403.503377,-11843.295072,-76.609550
59484.323090,-7105.977043,-7179.997637,0.000000
59484.323399,-962.267725,-6513.812290,1838.629195
59484.323709,4663.297435,-5625.565159,5439.278036
59484.324019,3478.967927,-4737.318029,4366.744339
59484.324328,-296.082377,-6883.915261,2528.115143
59484.324638,-3034.844362,-9770.718434,689.485948
59484.324948,-4737.318029,-8364.327145,-2451.505594
59484.325257,-7105.977043,-7179.997637,-4903.011187
59484.325567,-5773.606348,-11621.233289,-1532.190996
59484.325877,-3034.844362,-11843.295072,-1915.238745
59484.326186,0.000000,-8364.327145,0.000000
59484.326496,-74.020594,-11843.295072,-76.609550
59484.326806,-3034.844362,-13915.871710,842.705048
59484.327115,-3256.906145,-11769.274478,1378.971896
59484.327425,1702.473667,-8956.491898,2604.724693
59484.327735,1628.453072,-6883.915261,3370.820191
59484.328044,-4441.235652,-4811.338623,1225.752797
59484.328354,-4737.318029,-3775.050304,0.000000
59484.328664,1184.329507,-5403.503377,2451.505594
59484.328973,4663.297435,-6809.894666,3600.648841
59484.329283,-4737.318029,-4811.338623,0.000000
59484.329593,-3627.009116,-11843.295072,-76.609550
59484.329902,-5847.626942,-13027.624579,-2451.505594
59484.330212,-5847.626942,-13323.706956,-2834.553343
59484.330522,-6809.894666,-12805.562797,-1685.410096
59484.330831,-7031.956449,-10955.047942,-1455.581446
59484.331141,-7254.018232,-9622.677246,-1608.800546
59484.331451,-1258.350101,-7698.141797,842.705048
59484.331760,1776.494261,-4219.173869,4903.011187
59484.332070,5921.647536,-3997.112087,9116.536426
59484.332380,518.144159,-1628.453072,2374.896044
59484.332689,-3627.009116,-9474.636058,2068.457845
59484.332999,-7105.977043,-11917.315666,-612.876398
59484.333309,-7105.977043,-11843.295072,-1762.019645
59484.333618,-7846.182985,-10362.883188,-3217.601092
59484.333928,-10436.903782,-11177.109724,-3753.867940
59484.334238,-10140.821405,-12435.459826,-2528.115143
59484.334547,-4811.338623,-13027.624579,-76.609550
59484.334857,-5477.523971,-6735.874072,1225.752797
59484.335167,-2960.823768,-4811.338623,4903.011187
59484.335476,4071.132681,-4737.318029,7277.907231
59484.335786,6439.791695,-4737.318029,8503.660028
59484.336096,1776.494261,-5995.668130,3983.696590
59484.336405,-3627.009116,-10436.903782,2681.334243
59484.336715,-9104.533087,-13249.686362,-2757.943793
59484.337025,-8586.388927,-13323.706956,-4903.011187
59484.337334,-7179.997637,-13027.624579,-3753.867940
59484.337644,-6587.832884,-11547.212695,-3140.991542
59484.337954,-9474.636058,-9844.739029,-3907.087040
59484.338263,-6513.812290,-11325.150913,0.000000
59484.338573,-1258.350101,-15396.283594,2987.772442
59484.338883,-3256.906145,-10140.821405,4903.011187
59484.339192,-1480.411884,-4811.338623,5209.449386
59484.339502,3701.029710,-2368.659014,8044.002729
59484.339812,4367.215058,0.000000,7660.954980
59484.340121,4959.379811,-740.205942,5209.449386
59484.340431,4071.132681,-7105.977043,4213.525239
59484.340741,-74.020594,-12731.542202,-689.485948
59484.341050,-8364.327145,-16580.613101,-6205.373534
59484.341360,-15988.448347,-20207.622217,-9193.145976
59484.341670,-13101.645173,-22502.260637,-5286.058936
59484.341979,-13027.624579,-16654.633695,-5515.887586
59484.342289,-7624.121203,-11325.150913,-3217.601092
59484.342599,-1924.535449,-7179.997637,1915.238745
59484.342908,3330.926739,-4071.132681,5975.544884
59484.343218,7328.038826,-1110.308913,9116.536426
59484.343528,10214.842000,-2072.576638,11184.994271
59484.343837,7994.224174,-3330.926739,11031.775171
59484.344147,4367.215058,-4441.235652,6052.154434
59484.344457,-2368.659014,-5995.668130,1225.752797
59484.344766,-3627.009116,-14211.954086,-383.047749
59484.345076,-12879.583391,-15470.304188,-6741.640382
59484.345386,-14137.933492,-17764.942608,-7660.954980
59484.345695,-13767.830521,-17320.819043,-7354.516781
59484.346005,-11769.274478,-15322.262999,-5132.839837
59484.346315,-5847.626942,-10881.027347,-1302.362347
59484.346624,1184.329507,-6883.915261,3677.258390
59484.346934,4737.318029,-3627.009116,7967.393179
59484.347244,8216.285956,-1776.494261,8503.660028
59484.347553,6291.750507,2146.597232,5286.058936
59484.347863,4737.318029,-2442.679609,7354.516781
59484.348173,1776.494261,-2590.720797,3370.820191
59484.348482,-666.185348,-7698.141797,-76.609550
59484.348792,-6883.915261,-11473.192101,-3294.210641
59484.349102,-10732.986159,-15914.427753,-6588.421283
59484.349411,-12657.521608,-20207.622217,-7048.078582
59484.349721,-13027.624579,-19023.292709,-7354.516781
59484.350031,-10658.965565,-19023.292709,-3677.258390
59484.350340,-3627.009116,-15988.448347,1149.143247
59484.350650,-370.102971,-5995.668130,1225.752797
59484.350960,2960.823768,-4811.338623,9193.145976
59484.351269,3552.988522,2294.638420,7967.393179
59484.351579,5847.626942,1480.411884,9729.412825
59484.351889,2590.720797,1258.350101,6894.859482
59484.352198,0.000000,-3330.926739,5209.449386
59484.352508,-2960.823768,-7179.997637,2298.286494
59484.352818,-7698.141797,-9844.739029,-2068.457845
59484.353127,-10658.965565,-14285.974681,-4903.011187
59484.353437,-10066.800811,-18801.230927,-4290.134789
59484.353747,-8364.327145,-18949.272115,-3753.867940
59484.354056,-9474.636058,-15470.304188,-2451.505594
59484.354366,-1850.514855,-13027.624579,689.485948
59484.354676,3627.009116,-8290.306550,5745.716235
59484.354985,8512.368333,-4959.379811,8810.098227
59484.355295,9918.759623,-1036.288319,11721.261119
59484.355605,9474.636058,296.082377,11568.042020
59484.355915,7105.977043,592.164754,10648.727422
59484.356224,3701.029710,-3034.844362,9806.022374
59484.356534,1480.411884,-9548.656652,5209.449386
59484.356844,-3627.009116,-8512.368333,-1915.238745
59484.357153,-7105.977043,-14434.015869,0.000000
59484.357463,-4811.338623,-17764.942608,-3140.991542
59484.357773,-4737.318029,-18135.045579,0.000000
59484.358082,-2738.761985,-17024.736666,1378.971896
59484.358392,-2368.659014,-14804.118840,4903.011187
59484.358702,2590.720797,-8882.471304,6818.249932
59484.359011,5847.626942,-5921.647536,9729.412825
59484.359321,5625.565159,-1628.453072,9806.022374
59484.359631,7105.977043,-1258.350101,12257.527968
59484.359940,7031.956449,-1184.329507,11568.042020
59484.360250,2368.659014,-666.185348,8580.269578
59484.360560,4663.297435,-7698.141797,7277.907231
59484.360869,-444.123565,-10140.821405,6741.640382
59484.361179,-1850.514855,-12879.583391,3753.867940
59484.361489,-4145.153275,-16950.716072,3064.381992
59484.361798,-7179.997637,-22058.137072,3294.210641
59484.362108,-8364.327145,-18949.272115,4213.525239
59484.362418,-7179.997637,-15248.242405,3600.648841
59484.362727,0.000000,-3627.009116,5056.230287
59484.363037,7624.121203,-4737.318029,14632.424012
59484.363347,7031.956449,3552.988522,12487.356617
59484.363656,8216.285956,0.000000,15551.738609
59484.363966,3849.070898,-1850.514855,11797.870669
59484.364276,1924.535449,-6069.688724,11874.480219
59484.364585,-2738.761985,-7920.203579,5898.935335
59484.364895,-6513.812290,-8734.430116,3294.210641
59484.365205,-3034.844362,-11843.295072,3600.648841
59484.365514,-666.185348,-12435.459826,2374.896044
59484.365824,-4293.194464,-14804.118840,1455.581446
59484.366134,-8290.306550,-16654.633695,1225.752797
59484.366443,-5403.503377,-18949.272115,4366.744339
59484.366753,-2664.741391,-13619.789333,6665.030833
59484.367063,296.082377,-6365.771101,6128.763984
59484.367372,2886.803174,-2368.659014,8963.317327
59484.367682,3330.926739,0.000000,8503.660028
59484.367992,3775.050304,222.061783,7890.783629
59484.368301,4367.215058,-2294.638420,7048.078582
59484.368611,3182.885551,-6809.894666,5745.716235
59484.368921,-74.020594,-10955.047942,3600.648841
59484.369230,-5773.606348,-11917.315666,0.000000
59484.369540,-7994.224174,-17838.963202,-1225.752797
59484.369850,-9474.636058,-20429.683999,-306.438199
59484.370159,-9400.615463,-18949.272115,-3140.991542
59484.370469,-4071.132681,-12953.603985,-1608.800546
59484.370779,-592.164754,-8808.450710,1608.800546
59484.371088,3034.844362,-3849.070898,2834.553343
59484.371398,6513.812290,-1258.350101,4903.011187
59484.371708,10584.944971,-2960.823768,7277.907231
59484.372017,5477.523971,-1258.350101,3830.477490
59484.372327,4663.297435,-9992.780217,7277.907231
59484.372637,-74.020594,-10658.965565,1762.019645
59484.372946,-2368.659014,-9844.739029,612.876398
59484.373256,-1554.432478,-10955.047942,-1302.362347
59484.373566,-3478.967927,-10140.821405,-2834.553343
59484.373875,-4663.297435,-12139.377449,-2451.505594
59484.374185,-2368.659014,-12953.603985,-2911.162892
59484.374495,-1776.494261,-13101.645173,-3370.820191
59484.374804,0.000000,-13841.851115,919.314598
59484.375114,-74.020594,-14211.954086,2374.896044
59484.375424,0.000000,-5995.668130,0.000000
59484.375733,5033.400406,-5107.421000,4903.011187
59484.376043,4145.153275,-74.020594,4903.011187
59484.376353,4663.297435,0.000000,4519.963438
59484.376662,2368.659014,-2442.679609,3447.429741
59484.376972,1924.535449,-6365.771101,1455.581446
59484.377282,-296.082377,-11029.068536,383.047749
59484.377591,-5921.647536,-16654.633695,0.000000
59484.377901,-7105.977043,-17246.798449,0.000000
59484.378211,-2738.761985,-15396.283594,-76.609550
59484.378520,-2442.679609,-9178.553681,-2221.676944
59484.378830,0.000000,-5995.668130,1532.190996
59484.379140,3108.864956,-4811.338623,4519.963438
59484.379449,4663.297435,-5921.647536,4826.401637
59484.379759,518.144159,-8882.471304,4979.620737
59484.380069,-1258.350101,-11547.212695,5286.058936
59484.380378,-740.205942,-10066.800811,5745.716235
59484.380688,-962.267725,-5995.668130,4060.306139
59484.380998,-3256.906145,-4811.338623,3677.258390
59484.381307,1702.473667,-5921.647536,6052.154434
59484.381617,0.000000,-4811.338623,2757.943793
59484.381927,2294.638420,-11547.212695,6665.030833
59484.382236,-3034.844362,-11251.130318,2451.505594
59484.382546,-4293.194464,-14656.077652,3294.210641
59484.382856,-1110.308913,-11769.274478,4749.792088
59484.383165,1480.411884,-7920.203579,5822.325785
59484.383475,296.082377,-6957.935855,6128.763984
59484.383785,-370.102971,-6809.894666,6052.154434
59484.384094,0.000000,-7179.997637,5515.887586
59484.384404,74.020594,-7476.080014,4903.011187
59484.384714,-296.082377,-10732.986159,9193.145976
59484.385023,-962.267725,-10658.965565,7277.907231
59484.385333,-1776.494261,-7179.997637,5822.325785
59484.385643,-74.020594,-11399.171507,8197.221829
59484.385952,-1850.514855,-7105.977043,4826.401637
59484.386262,-2220.617826,-5403.503377,4136.915689
59484.386572,0.000000,-6661.853478,5439.278036
59484.386882,1184.329507,-3923.091493,5439.278036
59484.387191,0.000000,-7179.997637,4903.011187
59484.387501,-888.247130,-12361.439231,6665.030833
59484.387811,-3923.091493,-9548.656652,2451.505594
59484.388120,-148.041188,-13027.624579,6358.592633
59484.388430,-2294.638420,-9844.739029,5056.230287
59484.388740,-74.020594,-8882.471304,6205.373534
59484.389049,-74.020594,-7846.182985,5592.497135
59484.389359,148.041188,-7624.121203,4903.011187
59484.389669,-888.247130,-7772.162391,4826.401637
59484.389978,0.000000,-7550.100608,4826.401637
59484.390288,0.000000,-4811.338623,2451.505594
59484.390598,-592.164754,-8364.327145,6435.202183
59484.390907,-74.020594,-6513.812290,1762.019645
59484.391217,-2368.659014,-5995.668130,2451.505594
59484.391527,518.144159,-8882.471304,2757.943793
59484.391836,740.205942,-8438.347739,4366.744339
59484.392146,-222.061783,-9030.512492,3983.696590
59484.392456,-1036.288319,-10436.903782,3524.039291
59484.392765,-962.267725,-9178.553681,3294.210641
59484.393075,-74.020594,-8882.471304,3600.648841
59484.393385,-2220.617826,-4811.338623,612.876398
59484.393694,0.000000,-7179.997637,2451.505594
59484.394004,-74.020594,-7105.977043,-383.047749
59484.394314,0.000000,-8660.409521,0.000000
59484.394624,-74.020594,-10658.965565,-995.924147
59484.394933,-666.185348,-9844.739029,0.000000
59484.395243,-1554.432478,-9548.656652,-536.266849
59484.395553,-1036.288319,-9844.739029,-766.095498
59484.395862,-740.205942,-8808.450710,-76.609550
59484.396172,1406.391290,-9474.636058,-76.609550
59484.396482,1702.473667,-7994.224174,-689.485948
59484.396791,592.164754,-7179.997637,0.000000
59484.397101,3478.967927,-9474.636058,-76.609550
59484.397411,0.000000,-7772.162391,-2451.505594
59484.397720,-74.020594,-11251.130318,-1302.362347
59484.398030,0.000000,-11103.089130,-2987.772442
59484.398340,-2072.576638,-11621.233289,-4060.306139
59484.398649,-2442.679609,-12583.501014,-4519.963438
59484.398959,-2368.659014,-10584.944971,-4290.134789
59484.399269,-74.020594,-12435.459826,-2528.115143
59484.399578,2294.638420,-9474.636058,-2681.334243
59484.399888,0.000000,-5995.668130,-5286.058936
59484.400198,1184.329507,-10140.821405,-612.876398
59484.400507,1110.308913,-9474.636058,-3140.991542
59484.400817,1036.288319,-10362.883188,-1302.362347
59484.401127,-592.164754,-10732.986159,-2911.162892
59484.401436,-1184.329507,-9844.739029,-3064.381992
59484.401746,-1184.329507,-9548.656652,-3294.210641
59484.402056,-592.164754,-8734.430116,-4290.134789
59484.402366,-74.020594,-9474.636058,-1302.362347
59484.402675,-74.020594,-8882.471304,-3753.867940
59484.402985,-1628.453072,-5995.668130,-6052.154434
59484.403295,-2368.659014,-10140.821405,-2451.505594
59484.403604,1702.473667,-13027.624579,-1608.800546
59484.403914,1702.473667,-11251.130318,-1915.238745
59484.404224,814.226536,-9992.780217,-1991.848295
59484.404533,222.061783,-9474.636058,-536.266849
59484.404843,-1110.308913,-9030.512492,-1378.971896
59484.405153,-1258.350101,-9622.677246,-1225.752797
59484.405462,-74.020594,-9474.636058,-76.609550
59484.405772,-666.185348,-7698.141797,-1302.362347
59484.406082,0.000000,-6587.832884,0.000000
59484.406391,2294.638420,-9474.636058,2374.896044
59484.406701,-666.185348,-8068.244768,459.657299
59484.407011,2294.638420,-9030.512492,1762.019645
59484.407320,0.000000,-9178.553681,2145.067394
59484.407630,0.000000,-8142.265362,2528.115143
59484.407940,-1406.391290,-8734.430116,1838.629195
59484.408249,-1776.494261,-10214.842000,2757.943793
59484.408559,-1628.453072,-9548.656652,1225.752797
59484.408869,-2960.823768,-7772.162391,1225.752797
59484.409178,0.000000,-9178.553681,3677.258390
59484.409488,-74.020594,-9474.636058,3600.648841
59484.409798,0.000000,-7179.997637,2604.724693
59484.410108,1184.329507,-8364.327145,6128.763984
59484.410417,666.185348,-7402.059420,4979.620737
59484.410727,1406.391290,-8216.285956,5515.887586
59484.411037,-296.082377,-8734.430116,5132.839837
59484.411346,-1702.473667,-9622.677246,4136.915689
59484.411656,-1184.329507,-10140.821405,3064.381992
59484.411966,-518.144159,-10510.924376,5439.278036
59484.412275,-1554.432478,-8290.306550,2987.772442
59484.412585,-1776.494261,-7179.997637,4903.011187
59484.412895,-74.020594,-9474.636058,4213.525239
59484.413204,-2368.659014,-7179.997637,4903.011187
59484.413514,444.123565,-7994.224174,4826.401637
59484.413824,518.144159,-8660.409521,4979.620737
59484.414133,296.082377,-8734.430116,4979.620737
59484.414443,-1332.370696,-9992.780217,4136.915689
59484.414753,-2368.659014,-8512.368333,2451.505594
59484.415062,-1776.494261,-9548.656652,3983.696590
59484.415372,-74.020594,-7698.141797,2987.772442
59484.415682,0.000000,-4811.338623,2451.505594
59484.415991,-74.020594,-7698.141797,1762.019645
59484.416301,-2220.617826,-9548.656652,1915.238745
59484.416611,370.102971,-9992.780217,3600.648841
59484.416920,0.000000,-11547.212695,2451.505594
59484.417230,0.000000,-8660.409521,1685.410096
59484.417540,0.000000,-7698.141797,1302.362347
59484.417850,-4145.153275,-7476.080014,689.485948
59484.418159,0.000000,-7179.997637,1378.971896
59484.418469,1110.308913,-7994.224174,-1302.362347
59484.418779,0.000000,-7179.997637,0.000000
59484.419088,-74.020594,-11251.130318,-76.609550
59484.419398,-1480.411884,-7179.997637,0.000000
59484.419708,962.267725,-7846.182985,1302.362347
59484.420017,962.267725,-8068.244768,-76.609550
59484.420327,1998.556043,-8068.244768,229.828649
59484.420637,296.082377,-10584.944971,536.266849
59484.420946,-1258.350101,-10510.924376,-842.705048
59484.421256,-2368.659014,-10732.986159,0.000000
59484.421566,-74.020594,-10066.800811,-76.609550
59484.421875,-1702.473667,-4811.338623,-3753.867940
59484.422185,-1184.329507,-7179.997637,-1225.752797
59484.422495,-74.020594,-7920.203579,-2451.505594
59484.422804,518.144159,-9918.759623,-612.876398
59484.423114,370.102971,-10510.924376,-459.657299
59484.423424,444.123565,-10288.862594,-1302.362347
59484.423733,-296.082377,-9918.759623,-459.657299
59484.424043,-962.267725,-10362.883188,-1915.238745
59484.424353,-1998.556043,-8512.368333,-3753.867940
59484.424662,-2368.659014,-9548.656652,-2451.505594
59484.424972,-74.020594,-11843.295072,-2528.115143
59484.425282,-3256.906145,-7179.997637,-4290.134789
59484.425592,-74.020594,-9326.594869,-3600.648841
59484.425901,592.164754,-8660.409521,-459.657299
59484.426211,1184.329507,-7772.162391,0.000000
59484.426521,1776.494261,-8142.265362,0.000000
59484.426830,962.267725,-7920.203579,-76.609550
59484.427140,-74.020594,-10955.047942,-689.485948
59484.427450,-1258.350101,-10066.800811,-3140.991542
59484.427759,-4145.153275,-9548.656652,-4903.011187
59484.428069,-74.020594,-12731.542202,-1302.362347
59484.428379,-666.185348,-9474.636058,-3140.991542
59484.428688,-74.020594,-9474.636058,-3140.991542
59484.428998,592.164754,-9844.739029,0.000000
59484.429308,1554.432478,-9326.594869,1072.533697
59484.429617,2072.576638,-9030.512492,1762.019645
59484.429927,2442.679609,-7772.162391,3600.648841
59484.430237,2886.803174,-9474.636058,3294.210641
59484.430546,2294.638420,-8882.471304,1149.143247
59484.430856,-1776.494261,-7772.162391,0.000000
59484.431166,-74.020594,-9474.636058,-689.485948
59484.431475,-2960.823768,-7772.162391,-1838.629195
59484.431785,-74.020594,-10881.027347,-76.609550
59484.432095,-1184.329507,-11325.150913,1608.800546
59484.432404,-518.144159,-9992.780217,2451.505594
59484.432714,222.061783,-10066.800811,3064.381992
59484.433024,2072.576638,-8290.306550,4903.011187
59484.433334,2664.741391,-7031.956449,5822.325785
59484.433643,1702.473667,-8290.306550,3600.648841
59484.433953,-2368.659014,-5995.668130,0.000000
59484.434263,-1258.350101,-8290.306550,-76.609550
59484.434572,-4737.318029,-7476.080014,0.000000
59484.434882,-1332.370696,-9474.636058,2374.896044
59484.435192,-2516.700203,-9992.780217,1225.752797
59484.435501,-1332.370696,-10214.842000,2987.772442
59484.435811,0.000000,-9400.615463,3600.648841
59484.436121,1924.535449,-8364.327145,3677.258390
59484.436430,2960.823768,-6291.750507,6435.202183
59484.436740,3478.967927,-8290.306550,4826.401637
59484.437050,-74.020594,-6365.771101,842.705048
59484.437359,-2368.659014,-9548.656652,3064.381992
59484.437669,-2442.679609,-11251.130318,-76.609550
59484.437979,-3552.988522,-13619.789333,2987.772442
59484.438288,-3627.009116,-11251.130318,1455.581446
59484.438598,-1850.514855,-9326.594869,1915.238745
59484.438908,0.000000,-6217.729913,3294.210641
59484.439217,2442.679609,-4515.256246,2604.724693
59484.439527,2368.659014,-3923.091493,4903.011187
59484.439837,2664.741391,-9474.636058,5592.497135
59484.440146,1702.473667,-11843.295072,2374.896044
59484.440456,-4145.153275,-13101.645173,1838.629195
59484.440766,-1258.350101,-12731.542202,-76.609550
59484.441076,-3256.906145,-9844.739029,1838.629195
59484.441385,-1702.473667,-6809.894666,1149.143247
59484.441695,74.020594,-5551.544565,842.705048
59484.442005,444.123565,-6883.915261,2068.457845
59484.442314,1110.308913,-7772.162391,1455.581446
59484.442624,0.000000,-9548.656652,612.876398
59484.442934,0.000000,-10732.986159,3677.258390
59484.443243,1110.308913,-14211.954086,4826.401637
59484.443553,-3552.988522,-4811.338623,0.000000
59484.443863,-74.020594,-7476.080014,1762.019645
59484.444172,-2368.659014,-6587.832884,766.095498
59484.444482,-148.041188,-7476.080014,536.266849
59484.444792,74.020594,-10066.800811,76.609550
59484.445101,-1480.411884,-10732.986159,459.657299
59484.445411,-962.267725,-10510.924376,-76.609550
59484.445721,518.144159,-8216.285956,-1455.581446
59484.446030,592.164754,-7328.038826,1225.752797
59484.446340,2294.638420,-11843.295072,3600.648841
59484.446650,-2368.659014,-6587.832884,-2298.286494
59484.446959,-666.185348,-11769.274478,-76.609550
59484.447269,-2072.576638,-9548.656652,-1838.629195
59484.447579,-1924.535449,-10807.006753,-766.095498
59484.447888,-1702.473667,-10066.800811,-995.924147
59484.448198,-444.123565,-8882.471304,-383.047749
59484.448508,1554.432478,-8290.306550,-76.609550
59484.448818,3478.967927,-7994.224174,-76.609550
59484.449127,222.061783,-6587.832884,0.000000
59484.449437,3478.967927,-12435.459826,2374.896044
59484.449747,-666.185348,-8882.471304,-2834.553343
59484.450056,-3256.906145,-10140.821405,-2451.505594
59484.450366,-4367.215058,-9548.656652,-4290.134789
59484.450676,-2960.823768,-10436.903782,-3064.381992
59484.450985,-2368.659014,-10214.842000,-2528.115143
59484.451295,-1258.350101,-9622.677246,-1532.190996
59484.451605,-74.020594,-9178.553681,-76.609550
59484.451914,3775.050304,-9474.636058,-76.609550
59484.452224,2294.638420,-7698.141797,1149.143247
59484.452534,0.000000,-6291.750507,0.000000
59484.452843,1924.535449,-11177.109724,842.705048
59484.453153,-1850.514855,-9548.656652,-3677.258390
59484.453463,-3701.029710,-8660.409521,-4903.011187
59484.453772,-2812.782580,-9548.656652,-2911.162892
59484.454082,-2738.761985,-10066.800811,-2374.896044
59484.454392,-740.205942,-9474.636058,-1302.362347
59484.454701,1110.308913,-10510.924376,1608.800546
59484.455011,4071.132681,-11843.295072,4213.525239
59484.455321,2886.803174,-7105.977043,2068.457845
59484.455631,0.000000,-5995.668130,1532.190996
59484.455940,3478.967927,-10658.965565,3294.210641
59484.456250,-1776.494261,-7179.997637,0.000000
59484.456560,-666.185348,-9474.636058,-383.047749
59484.456869,-1776.494261,-8586.388927,-612.876398
59484.457179,-2368.659014,-8438.347739,-842.705048
59484.457489,-1998.556043,-9030.512492,-689.485948
59484.457798,-148.041188,-7920.203579,2451.505594
59484.458108,1406.391290,-11177.109724,4213.525239
59484.458418,3330.926739,-10066.800811,4826.401637
59484.458727,1702.473667,-8882.471304,2374.896044
59484.459037,0.000000,-9548.656652,3677.258390
59484.459347,1110.308913,-8660.409521,1149.143247
59484.459656,-74.020594,-8290.306550,1608.800546
59484.459966,-1776.494261,-7179.997637,612.876398
59484.460276,-1628.453072,-6883.915261,995.924147
59484.460585,-1924.535449,-8956.491898,766.095498
59484.460895,-2368.659014,-9548.656652,1532.190996
59484.461205,-888.247130,-11917.315666,4903.011187
59484.461514,2738.761985,-11251.130318,6052.154434
59484.461824,3478.967927,-9178.553681,3600.648841
59484.462134,0.000000,-7179.997637,3064.381992
59484.462443,2886.803174,-10066.800811,4519.963438
59484.462753,1702.473667,-9474.636058,3294.210641
59484.463063,-518.144159,-9252.574275,1532.190996
59484.463373,-1406.391290,-7105.977043,1149.143247
59484.463682,-2220.617826,-8216.285956,612.876398
59484.463992,-2960.823768,-8364.327145,0.000000
59484.464302,-2368.659014,-9548.656652,3064.381992
59484.464611,1480.411884,-12361.439231,6435.202183
59484.464921,1702.473667,-8882.471304,3294.210641
59484.465231,592.164754,-9548.656652,5515.887586
59484.465540,1702.473667,-8882.471304,3600.648841
59484.465850,-666.185348,-7994.224174,2221.676944
59484.466160,-2368.659014,-7105.977043,153.219100
59484.466469,-2368.659014,-8586.388927,0.000000
59484.466779,-3849.070898,-10807.006753,-383.047749
59484.467089,-5921.647536,-10732.986159,-2451.505594
59484.467398,-4737.318029,-7772.162391,0.000000
59484.467708,0.000000,-8364.327145,3064.381992
59484.468018,4663.297435,-5921.647536,3600.648841
59484.468327,0.000000,-3627.009116,2451.505594
59484.468637,3478.967927,-9474.636058,4826.401637
59484.468947,1258.350101,-9252.574275,1532.190996
59484.469256,-1850.514855,-11251.130318,-76.609550
59484.469566,-2146.597232,-11325.150913,-1532.190996
59484.469876,-2886.803174,-10288.862594,-1072.533697
59484.470185,-2886.803174,-8586.388927,-2528.115143
59484.470495,-3256.906145,-5995.668130,-3064.381992
59484.470805,592.164754,-8956.491898,2987.772442
59484.471115,3478.967927,-7105.977043,536.266849
59484.471424,2960.823768,-8660.409521,3677.258390
59484.471734,4071.132681,-10658.965565,4213.525239
59484.472044,296.082377,-8068.244768,612.876398
59484.472353,370.102971,-9030.512492,-459.657299
59484.472663,-148.041188,-9548.656652,-1225.752797
59484.472973,-2516.700203,-9622.677246,-2145.067394
59484.473282,-1554.432478,-11251.130318,-2834.553343
59484.473592,-2442.679609,-9622.677246,-2528.115143
59484.473902,0.000000,-9548.656652,-2451.505594
59484.474211,1184.329507,-9548.656652,2451.505594
59484.474521,4663.297435,-9326.594869,2374.896044
59484.474831,1776.494261,-7179.997637,1225.752797
59484.475140,0.000000,-8068.244768,0.000000
59484.475450,592.164754,-9622.677246,0.000000
59484.475760,-888.247130,-11843.295072,-995.924147
59484.476069,-3034.844362,-10584.944971,-2604.724693
59484.476379,-2442.679609,-12435.459826,-2528.115143
59484.476689,-2442.679609,-9474.636058,-3140.991542
59484.476998,-3552.988522,-6587.832884,-4290.134789
59484.477308,1184.329507,-10140.821405,2451.505594
59484.477618,3182.885551,-8290.306550,2068.457845
59484.477927,1184.329507,-7179.997637,3677.258390
59484.478237,0.000000,-7179.997637,1455.581446
59484.478547,296.082377,-7328.038826,919.314598
59484.478857,-592.164754,-7698.141797,-689.485948
59484.479166,-1406.391290,-8438.347739,-1608.800546
59484.479476,-2442.679609,-11251.130318,-1302.362347
59484.479786,-2442.679609,-13027.624579,-2528.115143
59484.480095,-3034.844362,-10658.965565,-2528.115143
59484.480405,0.000000,-9548.656652,612.876398
59484.480715,3478.967927,-9474.636058,3294.210641
59484.481024,0.000000,-4811.338623,0.000000
59484.481334,2072.576638,-5921.647536,2528.115143
59484.481644,1924.535449,-6143.709319,2451.505594
59484.481953,1184.329507,-7402.059420,1225.752797
59484.482263,-888.247130,-8586.388927,0.000000
59484.482573,-2442.679609,-10362.883188,-76.609550
59484.482883,-1850.514855,-14211.954086,-76.609550
59484.483193,-2442.679609,-10658.965565,-76.609550
59484.483502,-3552.988522,-7179.997637,0.000000
59484.483812,3478.967927,-9474.636058,4136.915689
59484.484122,1184.329507,-5995.668130,612.876398
59484.484432,3478.967927,-8882.471304,2987.772442
59484.484741,1924.535449,-8956.491898,2757.943793
59484.485051,0.000000,-8068.244768,919.314598
59484.485361,0.000000,-9918.759623,766.095498
59484.485671,-1184.329507,-8956.491898,1225.752797
59484.485980,-962.267725,-12731.542202,1532.190996
59484.486290,-1258.350101,-13027.624579,-76.609550
59484.486600,-2960.823768,-9548.656652,1225.752797
59484.486910,2294.638420,-11547.212695,3600.648841
59484.487219,0.000000,-4959.379811,1838.629195
59484.487529,2886.803174,-8882.471304,4213.525239
59484.487839,1776.494261,-7254.018232,3294.210641
59484.488149,518.144159,-8438.347739,2374.896044
59484.488458,-370.102971,-9474.636058,1455.581446
59484.488768,-3552.988522,-8364.327145,612.876398
59484.489078,-4145.153275,-10140.821405,1225.752797
59484.489388,-1850.514855,-11843.295072,-76.609550
59484.489697,-5625.565159,-7179.997637,0.000000
59484.490007,-148.041188,-10288.862594,2604.724693
59484.490317,2294.638420,-7105.977043,1149.143247
59484.490627,1998.556043,-9474.636058,3524.039291
59484.490937,814.226536,-8290.306550,1991.848295
59484.491246,296.082377,-8216.285956,1762.019645
59484.491556,592.164754,-8734.430116,1149.143247
59484.491866,-2960.823768,-5107.421000,0.000000
59484.492176,-4737.318029,-7772.162391,0.000000
59484.492485,-2442.679609,-13027.624579,-76.609550
59484.492795,-4071.132681,-7846.182985,-1685.410096
59484.493105,0.000000,-9548.656652,1991.848295
59484.493415,2886.803174,-8290.306550,2374.896044
59484.493724,2294.638420,-7920.203579,3447.429741
59484.494034,2886.803174,-8216.285956,2604.724693
59484.494344,2294.638420,-8068.244768,2145.067394
59484.494654,1110.308913,-8882.471304,1608.800546
59484.494963,-1184.329507,-7476.080014,-1838.629195
59484.495273,-4737.318029,-7179.997637,-2298.286494
59484.495583,-592.164754,-13397.727550,1532.190996
59484.495893,-2738.761985,-8734.430116,-2374.896044
59484.496202,-148.041188,-10510.924376,766.095498
59484.496512,3478.967927,-11843.295072,3294.210641
59484.496822,1332.370696,-8660.409521,1991.848295
59484.497132,2220.617826,-9474.636058,1991.848295
59484.497441,1702.473667,-9030.512492,1302.362347
59484.497751,1406.391290,-9178.553681,919.314598
59484.498061,1110.308913,-9474.636058,-2068.457845
59484.498371,-3552.988522,-8068.244768,-2451.505594
59484.498681,-4737.318029,-9548.656652,-2451.505594
59484.498990,-1258.350101,-13027.624579,-689.485948
59484.499300,-3775.050304,-9548.656652,-2068.457845
59484.499610,592.164754,-9548.656652,1991.848295
59484.499920,0.000000,-7179.997637,1225.752797
59484.500229,1776.494261,-8142.265362,1455.581446
59484.500539,1406.391290,-8068.244768,842.705048
59484.500849,0.000000,-8364.327145,76.609550
59484.501159,-74.020594,-9474.636058,-1302.362347
59484.501468,-1850.514855,-7920.203579,-2528.115143
59484.501778,-6809.894666,-7179.997637,-4903.011187
59484.502088,-2590.720797,-12435.459826,-1378.971896
59484.502398,-3849.070898,-9992.780217,-2681.334243
59484.502707,0.000000,-11325.150913,1225.752797
59484.503017,0.000000,-8364.327145,612.876398
59484.503327,1110.308913,-8956.491898,2068.457845
59484.503637,2664.741391,-7402.059420,2374.896044
59484.503946,2516.700203,-6291.750507,2374.896044
59484.504256,4663.297435,-8290.306550,2374.896044
59484.504566,2294.638420,-7698.141797,-76.609550
59484.504876,-4367.215058,-6587.832884,-3064.381992
59484.505185,-1258.350101,-13471.748144,-76.609550
59484.505495,-4367.215058,-9696.697840,-2145.067394
59484.505805,-4145.153275,-9548.656652,306.438199
59484.506115,-666.185348,-6883.915261,536.266849
59484.506425,1480.411884,-6883.915261,2451.505594
59484.506734,2960.823768,-8142.265362,3370.820191
59484.507044,2442.679609,-8068.244768,3064.381992
59484.507354,4071.132681,-11251.130318,4213.525239
59484.507664,3478.967927,-10658.965565,3600.648841
59484.507973,-666.185348,-7105.977043,-1302.362347
59484.508283,-888.247130,-10140.821405,612.876398
59484.508593,-2146.597232,-9178.553681,-995.924147
59484.508903,-4145.153275,-7179.997637,0.000000
59484.509212,222.061783,-10288.862594,842.705048
59484.509522,-444.123565,-9696.697840,1838.629195
59484.509832,740.205942,-10584.944971,2374.896044
59484.510142,1480.411884,-8660.409521,2451.505594
59484.510451,2516.700203,-9918.759623,4749.792088
59484.510761,3330.926739,-9474.636058,3677.258390
59484.511071,-74.020594,-8290.306550,-76.609550
59484.511381,-2960.823768,-9548.656652,0.000000
59484.511690,-740.205942,-11843.295072,2374.896044
59484.512000,-4589.276840,-8438.347739,-2451.505594
59484.512310,-666.185348,-10658.965565,1149.143247
59484.512620,-666.185348,-7920.203579,1608.800546
59484.512929,222.061783,-7994.224174,2451.505594
59484.513239,592.164754,-6883.915261,2374.896044
59484.513549,0.000000,-7179.997637,3064.381992
59484.513859,1776.494261,-9844.739029,2451.505594
59484.514169,2294.638420,-11843.295072,2374.896044
59484.514478,-4737.318029,-9548.656652,0.000000
59484.514788,-2146.597232,-11547.212695,-76.609550
59484.515098,-3627.009116,-7328.038826,-2528.115143
59484.515408,-370.102971,-8882.471304,1378.971896
59484.515717,0.000000,-6587.832884,1838.629195
59484.516027,148.041188,-7179.997637,2374.896044
59484.516337,592.164754,-8512.368333,2068.457845
59484.516647,0.000000,-7179.997637,2451.505594
59484.516956,0.000000,-9548.656652,0.000000
59484.517266,2590.720797,-9474.636058,2757.943793
59484.517576,-2072.576638,-5403.503377,-1685.410096
59484.517886,-888.247130,-9104.533087,-76.609550
59484.518195,-1258.350101,-9326.594869,-1915.238745
59484.518505,-2368.659014,-10732.986159,0.000000
59484.518815,-74.020594,-11843.295072,842.705048
59484.519125,74.020594,-11177.109724,1608.800546
59484.519434,1702.473667,-10584.944971,2298.286494
59484.519744,296.082377,-5403.503377,612.876398
59484.520054,1184.329507,-4811.338623,0.000000
59484.520364,4663.297435,-8290.306550,2374.896044
59484.520673,0.000000,-5995.668130,0.000000
59484.520983,-74.020594,-13027.624579,-76.609550
59484.521293,-666.185348,-13619.789333,-1302.362347
59484.521603,-2960.823768,-13767.830521,-1072.533697
59484.521913,-1258.350101,-11843.295072,-76.609550
59484.522222,0.000000,-8586.388927,536.266849
59484.522532,1628.453072,-7772.162391,1991.848295
59484.522842,444.123565,-4219.173869,0.000000
59484.523152,0.000000,-5107.421000,0.000000
59484.523461,592.164754,-8364.327145,1225.752797
59484.523771,2294.638420,-11251.130318,2068.457845
59484.524081,-2220.617826,-9548.656652,0.000000
59484.524391,-74.020594,-13027.624579,-76.609550
59484.524700,-3256.906145,-9696.697840,-1072.533697
59484.525010,-1332.370696,-10066.800811,-306.438199
59484.525320,-1110.308913,-9252.574275,229.828649
59484.525630,-370.102971,-9918.759623,842.705048
59484.525939,814.226536,-7698.141797,-76.609550
59484.526249,-666.185348,-7105.977043,-76.609550
59484.526559,0.000000,-5995.668130,612.876398
59484.526869,1998.556043,-8290.306550,1762.019645
59484.527178,-1776.494261,-7772.162391,1225.752797
59484.527488,-814.226536,-11843.295072,1608.800546
59484.527798,-4737.318029,-9548.656652,-919.314598
59484.528108,-2368.659014,-9992.780217,229.828649
59484.528417,-814.226536,-8290.306550,1455.581446
59484.528727,74.020594,-8216.285956,2298.286494
59484.529037,2294.638420,-8290.306550,2374.896044
59484.529347,1110.308913,-9474.636058,2374.896044
59484.529657,0.000000,-5995.668130,0.000000
59484.529966,1776.494261,-7179.997637,1838.629195
59484.530276,1110.308913,-8290.306550,-76.609550
59484.530586,-2368.659014,-9844.739029,1225.752797
59484.530896,-2960.823768,-10732.986159,-1225.752797
59484.531205,-1998.556043,-12435.459826,383.047749
59484.531515,-592.164754,-9918.759623,1302.362347
59484.531825,0.000000,-8142.265362,1685.410096
59484.532135,3478.967927,-9474.636058,2987.772442
59484.532444,3478.967927,-9474.636058,3600.648841
59484.532754,518.144159,-8290.306550,-76.609550
59484.533064,592.164754,-9548.656652,1225.752797
59484.533374,-74.020594,-9104.533087,-2374.896044
59484.533683,-2368.659014,-9548.656652,612.876398
59484.533993,-2442.679609,-10066.800811,-995.924147
59484.534303,-2368.659014,-10436.903782,-536.266849
59484.534613,-444.123565,-10140.821405,459.657299
59484.534922,-296.082377,-9622.677246,1302.362347
59484.535232,2146.597232,-11547.212695,3294.210641
59484.535542,2886.803174,-9992.780217,3830.477490
59484.535852,2294.638420,-9474.636058,1762.019645
59484.536161,0.000000,-6587.832884,0.000000
59484.536471,2294.638420,-11843.295072,3600.648841
59484.536781,-2368.659014,-7179.997637,0.000000
59484.537091,-1258.350101,-10066.800811,-76.609550
59484.537401,-2368.659014,-10140.821405,-153.219100
59484.537710,-1480.411884,-10288.862594,766.095498
59484.538020,-1258.350101,-8438.347739,1149.143247
59484.538330,296.082377,-9548.656652,2451.505594
59484.538640,1184.329507,-7772.162391,3064.381992
59484.538949,2294.638420,-8290.306550,2068.457845
59484.539259,0.000000,-6587.832884,612.876398
59484.539569,1702.473667,-9474.636058,4060.306139
59484.539879,-1702.473667,-6883.915261,-1225.752797
59484.540188,-370.102971,-9474.636058,-76.609550
59484.540498,-2072.576638,-8512.368333,0.000000
59484.540808,-1110.308913,-9252.574275,766.095498
59484.541118,-740.205942,-8364.327145,766.095498
59484.541427,-1776.494261,-9548.656652,1225.752797
59484.541737,0.000000,-9548.656652,1225.752797
59484.542047,1628.453072,-11251.130318,2374.896044
59484.542357,-666.185348,-7772.162391,0.000000
59484.542666,1702.473667,-9474.636058,3447.429741
59484.542976,1110.308913,-7105.977043,-536.266849
59484.543286,1702.473667,-10066.800811,1991.848295
59484.543596,-518.144159,-9474.636058,689.485948
59484.543905,-1258.350101,-10881.027347,459.657299
59484.544215,-296.082377,-10436.903782,766.095498
59484.544525,-2368.659014,-7772.162391,0.000000
59484.544835,-3552.988522,-7179.997637,0.000000
59484.545145,1406.391290,-10658.965565,2068.457845
59484.545454,-962.267725,-8068.244768,0.000000
59484.545764,3478.967927,-11473.192101,2987.772442
59484.546074,-74.020594,-8290.306550,-689.485948
59484.546384,-1628.453072,-9548.656652,306.438199
59484.546693,-1406.391290,-10584.944971,153.219100
59484.547003,-1036.288319,-11695.253884,612.876398
59484.547313,-222.061783,-10881.027347,766.095498
59484.547623,-3256.906145,-8142.265362,-1072.533697
59484.547932,-3034.844362,-6883.915261,-1838.629195
59484.548242,0.000000,-7179.997637,612.876398
59484.548552,-74.020594,-8290.306550,1149.143247
59484.548862,0.000000,-5995.668130,0.000000
59484.549171,2294.638420,-9474.636058,-76.609550
59484.549481,0.000000,-10288.862594,612.876398
59484.549791,-814.226536,-9844.739029,229.828649
59484.550101,-1628.453072,-9104.533087,0.000000
59484.550410,-962.267725,-8364.327145,459.657299
59484.550720,-666.185348,-7698.141797,-995.924147
59484.551030,-666.185348,-8882.471304,-1302.362347
59484.551340,-2368.659014,-8364.327145,0.000000
59484.551649,-74.020594,-10584.944971,2374.896044
59484.551959,0.000000,-5995.668130,0.000000
59484.552269,3478.967927,-8290.306550,2987.772442
59484.552579,-666.185348,-6735.874072,306.438199
59484.552889,-148.041188,-7772.162391,383.047749
59484.553198,-74.020594,-8808.450710,766.095498
