#time,accel_x,accel_y,accel_z
163336.715651,-1776.494261,-8438.347739,-919.314598
163336.715970,148.041188,-12287.418637,-76.609550
163336.716289,-1036.288319,-9474.636058,-766.095498
163336.716608,-148.041188,-9696.697840,-995.924147
163336.716927,0.000000,-9548.656652,-995.924147
163336.717247,0.000000,-8364.327145,0.000000
163336.717566,0.000000,-7476.080014,0.000000
163336.717885,-2368.659014,-7476.080014,0.000000
163336.718204,1110.308913,-10510.924376,995.924147
163336.718523,-74.020594,-9326.594869,-76.609550
163336.718842,0.000000,-8734.430116,-76.609550
163336.719162,2294.638420,-10658.965565,1149.143247
163336.719481,148.041188,-8142.265362,153.219100
163336.719800,0.000000,-9252.574275,0.000000
163336.720119,0.000000,-9548.656652,0.000000
163336.720438,-2368.659014,-7772.162391,0.000000
163336.720757,-74.020594,-8734.430116,-76.609550
163336.721076,-1776.494261,-7772.162391,0.000000
163336.721396,-888.247130,-9474.636058,612.876398
163336.721715,-74.020594,-9474.636058,-76.609550
163336.722034,-666.185348,-7846.182985,-2451.505594
163336.722353,-74.020594,-10362.883188,-383.047749
163336.722672,-814.226536,-9844.739029,-153.219100
163336.722991,-814.226536,-9326.594869,-766.095498
163336.723311,-962.267725,-8882.471304,-689.485948
163336.723630,-962.267725,-10658.965565,-76.609550
163336.723949,-74.020594,-10362.883188,-1072.533697
163336.724268,-1332.370696,-8956.491898,-2451.505594
163336.724587,1998.556043,-11547.212695,-76.609550
163336.724906,-666.185348,-8882.471304,-1225.752797
163336.725226,-2146.597232,-7179.997637,-2451.505594
163336.725545,518.144159,-9474.636058,-383.047749
163336.725864,-148.041188,-9400.615463,-383.047749
163336.726183,0.000000,-9696.697840,0.000000
163336.726502,1702.473667,-9474.636058,-76.609550
163336.726821,2294.638420,-9474.636058,-76.609550
163336.727141,1998.556043,-10955.047942,2374.896044
163336.727460,-74.020594,-9474.636058,-76.609550
163336.727779,-1184.329507,-8364.327145,0.000000
163336.728098,0.000000,-9548.656652,1225.752797
163336.728417,-2368.659014,-7179.997637,0.000000
163336.728736,-370.102971,-9178.553681,153.219100
163336.729056,-74.020594,-9474.636058,0.000000
163336.729375,-740.205942,-8808.450710,0.000000
163336.729694,-74.020594,-8290.306550,-76.609550
163336.730013,-148.041188,-9548.656652,612.876398
163336.730332,-74.020594,-10658.965565,-76.609550
163336.730651,-2072.576638,-8660.409521,-1225.752797
163336.730971,0.000000,-8364.327145,0.000000
163336.731290,444.123565,-11547.212695,1762.019645
163336.731609,-1258.350101,-9252.574275,-919.314598
163336.731928,-444.123565,-9326.594869,-766.095498
163336.732247,-370.102971,-9178.553681,-536.266849
163336.732566,0.000000,-10214.842000,0.000000
163336.732885,444.123565,-10066.800811,-1225.752797
163336.733205,0.000000,-10140.821405,306.438199
163336.733524,-444.123565,-8586.388927,-1302.362347
163336.733843,-2368.659014,-7179.997637,-1838.629195
163336.734162,740.205942,-9400.615463,-76.609550
163336.734481,2294.638420,-11843.295072,2068.457845
163336.734800,0.000000,-8956.491898,0.000000
163336.735120,0.000000,-9252.574275,0.000000
163336.735439,222.061783,-9474.636058,76.609550
163336.735758,0.000000,-8364.327145,1225.752797
163336.736077,-1776.494261,-8364.327145,0.000000
163336.736396,-592.164754,-8956.491898,0.000000
163336.736715,1998.556043,-11251.130318,1685.410096
163336.737035,-666.185348,-8586.388927,-689.485948
163336.737354,-1258.350101,-7179.997637,-2528.115143
163336.737673,-74.020594,-10362.883188,-76.609550
163336.737992,-296.082377,-9252.574275,-689.485948
163336.738311,-592.164754,-9326.594869,-306.438199
163336.738630,-740.205942,-8808.450710,-995.924147
163336.738950,0.000000,-9252.574275,612.876398
163336.739269,740.205942,-9548.656652,-2451.505594
163336.739588,4367.215058,-11547.212695,-76.609550
163336.739907,814.226536,-8068.244768,-1455.581446
163336.740226,1776.494261,-9548.656652,-2757.943793
163336.740545,4663.297435,-11547.212695,-76.609550
163336.740865,2368.659014,-9918.759623,-306.438199
163336.741184,2738.761985,-9992.780217,-383.047749
163336.741503,3849.070898,-9844.739029,76.609550
163336.741822,6291.750507,-10807.006753,2068.457845
163336.742141,4737.318029,-9178.553681,1378.971896
163336.742460,8216.285956,-9474.636058,1149.143247
163336.742780,5625.565159,-8068.244768,612.876398
163336.743099,4737.318029,-7179.997637,0.000000
163336.743418,6883.915261,-11251.130318,1762.019645
163336.743737,5329.482782,-9696.697840,153.219100
163336.744056,5181.441594,-9400.615463,-995.924147
163336.744375,5625.565159,-9030.512492,-995.924147
163336.744695,6735.874072,-8956.491898,-459.657299
163336.745014,4737.318029,-7179.997637,0.000000
163336.745333,7105.977043,-9252.574275,0.000000
163336.745652,5921.647536,-9844.739029,0.000000
163336.745971,5921.647536,-12879.583391,919.314598
163336.746290,2886.803174,-11843.295072,-1608.800546
163336.746609,3108.864956,-13471.748144,1378.971896
163336.746929,1480.411884,-10881.027347,0.000000
163336.747248,2368.659014,-9770.718434,459.657299
163336.747567,3034.844362,-7105.977043,0.000000
163336.747886,4145.153275,-5625.565159,0.000000
163336.748205,3034.844362,-3627.009116,-3524.039291
163336.748524,4737.318029,-5921.647536,-1225.752797
163336.748844,4515.256246,-7476.080014,-2528.115143
163336.749163,4959.379811,-10288.862594,-1838.629195
163336.749482,4959.379811,-14211.954086,-1915.238745
163336.749801,2886.803174,-16136.489536,-842.705048
163336.750120,3701.029710,-16728.654289,2374.896044
163336.750439,2664.741391,-12435.459826,2068.457845
163336.750759,1776.494261,-7772.162391,919.314598
163336.751078,2368.659014,-5107.421000,1838.629195
163336.751397,592.164754,-3034.844362,-2068.457845
163336.751716,2294.638420,-5403.503377,0.000000
163336.752035,2442.679609,-6883.915261,0.000000
163336.752354,1184.329507,-8142.265362,612.876398
163336.752674,-1702.473667,-8364.327145,-689.485948
163336.752993,-3034.844362,-8808.450710,0.000000
163336.753312,-2146.597232,-9104.533087,0.000000
163336.753631,0.000000,-8956.491898,612.876398
163336.753950,518.144159,-10066.800811,766.095498
163336.754269,-1776.494261,-11621.233289,1915.238745
163336.754589,-2664.741391,-11473.192101,0.000000
163336.754908,-3108.864956,-10510.924376,-919.314598
163336.755227,-5107.421000,-8142.265362,-3907.087040
163336.755546,-6217.729913,-6587.832884,-6741.640382
163336.755865,-5847.626942,-7179.997637,-7354.516781
163336.756184,-1036.288319,-9770.718434,-2528.115143
163336.756504,0.000000,-11917.315666,3677.258390
163336.756823,-74.020594,-11843.295072,4213.525239
163336.757142,-3034.844362,-9178.553681,2374.896044
163336.757461,-1924.535449,-9474.636058,2145.067394
163336.757780,-3330.926739,-6957.935855,-1225.752797
163336.758099,-2368.659014,-8142.265362,0.000000
163336.758418,-1332.370696,-10066.800811,1838.629195
163336.758738,-2368.659014,-9548.656652,1532.190996
163336.759057,-2960.823768,-9918.759623,1225.752797
163336.759376,-3627.009116,-7105.977043,-2834.553343
163336.759695,-5847.626942,-6069.688724,-4519.963438
163336.760014,-5921.647536,-7179.997637,-5822.325785
163336.760333,-74.020594,-11547.212695,-3140.991542
163336.760653,1036.288319,-13767.830521,1762.019645
163336.760972,-962.267725,-12435.459826,3064.381992
163336.761291,-962.267725,-10732.986159,2911.162892
163336.761610,-814.226536,-6809.894666,2451.505594
163336.761929,-1628.453072,-4219.173869,1455.581446
163336.762248,1702.473667,-6513.812290,1762.019645
163336.762568,740.205942,-7254.018232,2604.724693
163336.762887,0.000000,-6587.832884,1225.752797
163336.763206,0.000000,-7476.080014,153.219100
163336.763525,-2738.761985,-6957.935855,-6358.592633
163336.763844,-4663.297435,-8882.471304,-7124.688131
163336.764163,-3775.050304,-10214.842000,-7660.954980
163336.764483,-740.205942,-11769.274478,-4903.011187
163336.764802,2294.638420,-14211.954086,-1302.362347
163336.765121,4367.215058,-15396.283594,3294.210641
163336.765440,3923.091493,-11843.295072,4826.401637
163336.765759,4663.297435,-10362.883188,4519.963438
163336.766078,3182.885551,-6809.894666,1991.848295
163336.766398,2960.823768,-5403.503377,3064.381992
163336.766717,4293.194464,-6143.709319,4290.134789
163336.767036,7624.121203,-8438.347739,6358.592633
163336.767355,5477.523971,-7402.059420,3600.648841
163336.767674,962.267725,-7105.977043,-1685.410096
163336.767993,-1406.391290,-8882.471304,-6205.373534
163336.768313,-3182.885551,-10214.842000,-8580.269578
163336.768632,-2368.659014,-13545.768739,-6818.249932
163336.768951,-666.185348,-15396.283594,-4366.744339
163336.769270,-1554.432478,-16580.613101,-689.485948
163336.769589,0.000000,-14285.974681,3064.381992
163336.769908,-1776.494261,-9548.656652,306.438199
163336.770227,370.102971,-7179.997637,1608.800546
163336.770547,1702.473667,-4737.318029,2834.553343
163336.770866,5107.421000,-4589.276840,6052.154434
163336.771185,9400.615463,-5921.647536,8197.221829
163336.771504,5625.565159,-4219.173869,4903.011187
163336.771823,1628.453072,-6365.771101,153.219100
163336.772142,-3627.009116,-8882.471304,-4060.306139
163336.772462,-6291.750507,-10362.883188,-9882.631924
163336.772781,-5773.606348,-15396.283594,-7431.126331
163336.773100,-4811.338623,-15470.304188,-7201.297681
163336.773419,-4515.256246,-16728.654289,-2451.505594
163336.773738,-3701.029710,-15396.283594,0.000000
163336.774057,-3552.988522,-10140.821405,0.000000
163336.774377,-2368.659014,-5107.421000,919.314598
163336.774696,0.000000,-3923.091493,4903.011187
163336.775015,4885.359217,-4515.256246,10112.460574
163336.775334,9400.615463,-3552.988522,9729.412825
163336.775653,8808.450710,-2368.659014,6971.469032
163336.775972,3478.967927,-4737.318029,2987.772442
163336.776292,-5107.421000,-7105.977043,-5286.058936
163336.776611,-8660.409521,-11917.315666,-9806.022374
163336.776930,-9178.553681,-15618.345376,-11568.042020
163336.777249,-9474.636058,-17838.963202,-9806.022374
163336.777568,-9474.636058,-19023.292709,-6971.469032
163336.777887,-8290.306550,-15470.304188,-4290.134789
163336.778207,-2368.659014,-13841.851115,1991.848295
163336.778526,-518.144159,-6957.935855,3907.087040
163336.778845,1702.473667,-888.247130,3600.648841
163336.779164,6217.729913,-1554.432478,9652.803275
163336.779483,10510.924376,518.144159,11414.822920
163336.779802,10584.944971,0.000000,9499.584175
163336.780122,5255.462188,-2590.720797,3294.210641
163336.780441,-2072.576638,-7179.997637,-4290.134789
163336.780760,-5403.503377,-11843.295072,-10189.070123
163336.781079,-9178.553681,-16654.633695,-12104.308868
163336.781398,-7402.059420,-19689.478057,-10572.117872
163336.781717,-6513.812290,-19319.375086,-8273.831378
163336.782037,-1258.350101,-18949.272115,-1915.238745
163336.782356,0.000000,-13471.748144,1378.971896
163336.782675,1628.453072,-8364.327145,4060.306139
163336.782994,3404.947333,-4219.173869,6971.469032
163336.783313,7698.141797,-1258.350101,11031.775171
163336.783632,12213.398043,370.102971,13636.499864
163336.783951,14137.933492,1184.329507,11568.042020
163336.784270,7179.997637,-2368.659014,4826.401637
163336.784589,-2812.782580,-4811.338623,-4903.011187
163336.784908,-4811.338623,-13619.789333,-9269.755526
163336.785228,-8882.471304,-17542.880825,-12104.308868
163336.785547,-9252.574275,-20281.642811,-12947.013916
163336.785866,-9770.718434,-21317.931130,-10801.946522
163336.786185,-7772.162391,-20725.766376,-6358.592633
163336.786504,-4441.235652,-14878.139434,-3370.820191
163336.786823,1110.308913,-10807.006753,2987.772442
163336.787142,5255.462188,-7105.977043,8503.660028
163336.787461,8808.450710,-1036.288319,10495.508323
163336.787780,12139.377449,3478.967927,13023.623466
163336.788099,16506.592507,1776.494261,13406.671215
163336.788418,11251.130318,0.000000,7660.954980
163336.788738,1480.411884,-4885.359217,-1378.971896
163336.789057,-5699.585753,-11399.171507,-8886.707777
163336.789376,-8956.491898,-18283.086767,-12180.918418
163336.789695,-11251.130318,-20207.622217,-12257.527968
163336.790014,-11843.295072,-22206.178260,-11338.213370
163336.790333,-10066.800811,-20947.828159,-6894.859482
163336.790652,-6217.729913,-15470.304188,-2221.676944
163336.790971,-3849.070898,-5995.668130,1378.971896
163336.791290,2294.638420,-3256.906145,8350.440928
163336.791609,8216.285956,0.000000,12793.794817
163336.791928,11991.336260,3478.967927,14632.424012
163336.792248,15914.427753,4737.318029,12793.794817
163336.792567,10584.944971,0.000000,7277.907231
163336.792886,0.000000,-4811.338623,-1532.190996
163336.793205,-6587.832884,-12287.418637,-8963.317327
163336.793524,-9696.697840,-18949.272115,-12947.013916
163336.793843,-10732.986159,-23686.590144,-12947.013916
163336.794162,-14285.974681,-22724.322419,-12870.404366
163336.794481,-11473.192101,-23390.507767,-8656.879127
163336.794800,-6291.750507,-18209.066173,-2528.115143
163336.795119,-74.020594,-10658.965565,1149.143247
163336.795438,2294.638420,-2960.823768,7277.907231
163336.795758,9400.615463,296.082377,12180.918418
163336.796077,14656.077652,3997.112087,17160.539155
163336.796396,16728.654289,5107.421000,15015.471761
163336.796715,10214.842000,3108.864956,7660.954980
163336.797034,1258.350101,-3701.029710,-229.828649
163336.797353,-5329.482782,-13249.686362,-7354.516781
163336.797672,-8808.450710,-20059.581028,-10342.289223
163336.797991,-10140.821405,-23094.425390,-14785.643111
163336.798310,-14211.954086,-21984.116477,-14096.157163
163336.798629,-11251.130318,-22280.198854,-8580.269578
163336.798948,-4811.338623,-15988.448347,-4979.620737
163336.799268,-1480.411884,-10436.903782,2451.505594
163336.799587,2738.761985,-1036.288319,6665.030833
163336.799906,8660.409521,814.226536,11951.089769
163336.800225,14137.933492,2368.659014,18309.682402
163336.800544,18801.230927,2738.761985,13483.280765
163336.800863,12139.377449,1554.432478,9193.145976
163336.801182,2294.638420,-3552.988522,-995.924147
163336.801501,-4737.318029,-11843.295072,-8044.002729
163336.801820,-11251.130318,-17838.963202,-13176.842566
163336.802139,-11621.233289,-20651.745782,-15092.081311
163336.802458,-12731.542202,-23686.590144,-14096.157163
163336.802778,-11473.192101,-23908.651927,-9652.803275
163336.803097,-5181.441594,-18431.127956,-4519.963438
163336.803416,-666.185348,-11769.274478,2068.457845
163336.803735,1184.329507,-2442.679609,6818.249932
163336.804054,11177.109724,2812.782580,12104.308868
163336.804373,17690.922014,592.164754,18922.558801
163336.804692,18283.086767,5329.482782,15858.176809
163336.805011,11251.130318,3478.967927,9806.022374
163336.805330,2590.720797,-3404.947333,383.047749
163336.805649,-3775.050304,-10584.944971,-7124.688131
163336.805968,-7476.080014,-18357.107362,-11644.651570
163336.806288,-10140.821405,-21317.931130,-13483.280765
163336.806607,-13027.624579,-21317.931130,-14555.814462
163336.806926,-12731.542202,-22280.198854,-8733.488677
163336.807245,-8660.409521,-15470.304188,-7048.078582
163336.807564,-4145.153275,-9548.656652,0.000000
163336.807883,74.020594,-5921.647536,7277.907231
163336.808202,5921.647536,1110.308913,11797.870669
163336.808521,13027.624579,3330.926739,13406.671215
163336.808840,16136.489536,3330.926739,14172.766713
163336.809159,10362.883188,1850.514855,8810.098227
163336.809478,0.000000,-2442.679609,0.000000
163336.809798,-6513.812290,-10140.821405,-8044.002729
163336.810117,-8956.491898,-16062.468941,-13483.280765
163336.810436,-11843.295072,-21984.116477,-13176.842566
163336.810755,-11917.315666,-22724.322419,-14709.033562
163336.811074,-10732.986159,-23686.590144,-8656.879127
163336.811393,-5699.585753,-19467.416275,-3294.210641
163336.811712,-2442.679609,-11177.109724,1225.752797
163336.812031,444.123565,-3404.947333,6281.983084
163336.812350,6883.915261,296.082377,10112.460574
163336.812669,9474.636058,3478.967927,12870.404366
163336.812988,16506.592507,3552.988522,13406.671215
163336.813308,12065.356855,3108.864956,9729.412825
163336.813627,1850.514855,-1850.514855,0.000000
163336.813946,-4737.318029,-10140.821405,-5515.887586
163336.814265,-6587.832884,-16580.613101,-12947.013916
163336.814584,-10066.800811,-20059.581028,-12104.308868
163336.814903,-12139.377449,-22206.178260,-11338.213370
163336.815222,-11843.295072,-21984.116477,-8503.660028
163336.815541,-6513.812290,-18949.272115,-2528.115143
163336.815860,-3478.967927,-11547.212695,-76.609550
163336.816179,-370.102971,-4145.153275,3294.210641
163336.816498,1776.494261,1110.308913,4903.011187
163336.816818,10066.800811,2294.638420,12563.966167
163336.817137,14211.954086,2294.638420,14709.033562
163336.817456,9992.780217,3478.967927,7354.516781
163336.817775,4293.194464,-3108.864956,1915.238745
163336.818094,-1702.473667,-9918.759623,-5669.106685
163336.818413,-5255.462188,-15988.448347,-10265.679673
163336.818732,-5995.668130,-21317.931130,-11108.384721
163336.819051,-10732.986159,-21317.931130,-11721.261119
163336.819370,-9548.656652,-23686.590144,-8044.002729
163336.819689,-4811.338623,-19393.395680,-4366.744339
163336.820008,-1776.494261,-11103.089130,306.438199
163336.820328,0.000000,-6587.832884,5515.887586
163336.820647,3997.112087,666.185348,6435.202183
163336.820966,10362.883188,0.000000,11568.042020
163336.821285,14804.118840,1406.391290,13100.233016
163336.821604,12583.501014,1702.473667,10035.851024
163336.821923,4663.297435,0.000000,2987.772442
163336.822242,-370.102971,-10140.821405,-2221.676944
163336.822561,-3627.009116,-14804.118840,-8656.879127
163336.822880,-8882.471304,-17838.963202,-11644.651570
163336.823199,-12139.377449,-20355.663405,-9959.241474
163336.823518,-13619.789333,-19023.292709,-9193.145976
163336.823838,-7105.977043,-18949.272115,-4060.306139
163336.824157,-3849.070898,-11917.315666,-2068.457845
163336.824476,-1776.494261,-4811.338623,995.924147
163336.824795,1702.473667,-888.247130,4826.401637
163336.825114,6513.812290,-74.020594,8733.488677
163336.825433,12139.377449,-74.020594,11108.384721
163336.825752,12657.521608,962.267725,9806.022374
163336.826071,7846.182985,-2368.659014,5439.278036
163336.826390,0.000000,-6587.832884,-3677.258390
163336.826709,-3627.009116,-13027.624579,-8810.098227
163336.827028,-5847.626942,-18579.169144,-10648.727422
163336.827347,-9326.594869,-20651.745782,-9806.022374
163336.827667,-9548.656652,-21762.054695,-7354.516781
163336.827986,-4811.338623,-21317.931130,-2528.115143
163336.828305,-3552.988522,-13323.706956,-1072.533697
163336.828624,-1850.514855,-6661.853478,1608.800546
163336.828943,1850.514855,-1776.494261,5362.668486
163336.829262,7476.080014,-2072.576638,11414.822920
163336.829581,9770.718434,1110.308913,12257.527968
163336.829900,9474.636058,3478.967927,8580.269578
163336.830219,6069.688724,-1998.556043,5439.278036
163336.830538,-444.123565,-5625.565159,-76.609550
163336.830857,-4219.173869,-11917.315666,-8580.269578
163336.831177,-4811.338623,-18357.107362,-8656.879127
163336.831496,-10658.965565,-19615.457463,-9193.145976
163336.831815,-10955.047942,-22132.157666,-6971.469032
163336.832134,-8882.471304,-17912.983796,-5745.716235
163336.832453,-5329.482782,-14137.933492,-2451.505594
163336.832772,-5403.503377,-7105.977043,-842.705048
163336.833091,-2368.659014,-3034.844362,1225.752797
163336.833410,4737.318029,-3627.009116,5515.887586
163336.833729,11917.315666,-2368.659014,11721.261119
163336.834048,9474.636058,2886.803174,7354.516781
163336.834367,8216.285956,592.164754,5132.839837
163336.834687,3478.967927,-3849.070898,459.657299
163336.835006,2220.617826,-10140.821405,-3524.039291
163336.835325,-1998.556043,-14656.077652,-6665.030833
163336.835644,-5181.441594,-18949.272115,-6511.811733
163336.835963,-7772.162391,-21762.054695,-5592.497135
163336.836282,-7105.977043,-19023.292709,-6128.763984
163336.836601,-6513.812290,-14878.139434,-3370.820191
163336.836920,-4367.215058,-10362.883188,-842.705048
163336.837239,-4737.318029,-3034.844362,1532.190996
163336.837558,5107.421000,-1776.494261,5898.935335
163336.837877,10955.047942,-1184.329507,10572.117872
163336.838197,11029.068536,2664.741391,10418.898773
163336.838516,7550.100608,2294.638420,3370.820191
163336.838835,1850.514855,-1258.350101,-2911.162892
163336.839154,0.000000,-8734.430116,-4979.620737
163336.839473,-4737.318029,-13693.809927,-7354.516781
163336.839792,-7698.141797,-19023.292709,-7048.078582
163336.840111,-8956.491898,-23094.425390,-4979.620737
163336.840430,-9474.636058,-19319.375086,-4290.134789
163336.840749,-6439.791695,-14211.954086,-4826.401637
163336.841068,-5403.503377,-9178.553681,-3907.087040
163336.841387,-3701.029710,-5995.668130,0.000000
163336.841707,1258.350101,-2442.679609,3064.381992
163336.842026,9992.780217,-1776.494261,9116.536426
163336.842345,12953.603985,592.164754,9729.412825
163336.842664,9474.636058,1702.473667,6741.640382
163336.842983,2368.659014,-1258.350101,1225.752797
163336.843302,4663.297435,-9474.636058,-1302.362347
163336.843621,-888.247130,-13989.892304,-4290.134789
163336.843940,-4885.359217,-18505.148550,-6435.202183
163336.844259,-7624.121203,-21095.869347,-5745.716235
163336.844578,-7698.141797,-20281.642811,-4366.744339
163336.844897,-6883.915261,-15692.365970,-3983.696590
163336.845217,-5403.503377,-10658.965565,-2528.115143
163336.845536,-3775.050304,-4071.132681,842.705048
163336.845855,74.020594,-1258.350101,3983.696590
163336.846174,9474.636058,-666.185348,9806.022374
163336.846493,12361.439231,2368.659014,9116.536426
163336.846812,5921.647536,1998.556043,4673.182538
163336.847131,1036.288319,-3108.864956,-842.705048
163336.847450,-1850.514855,-9252.574275,-4903.011187
163336.847769,-3627.009116,-17468.860231,-5592.497135
163336.848088,-6439.791695,-21317.931130,-5592.497135
163336.848407,-8956.491898,-20725.766376,-5975.544884
163336.848727,-5995.668130,-20725.766376,-3753.867940
163336.849046,-5107.421000,-14508.036463,-4060.306139
163336.849365,-5921.647536,-7476.080014,-3677.258390
163336.849684,-1258.350101,-4441.235652,995.924147
163336.850003,3849.070898,-3256.906145,6435.202183
163336.850322,12065.356855,0.000000,10648.727422
163336.850641,12879.583391,814.226536,9882.631924
163336.850960,9992.780217,-2368.659014,7277.907231
163336.851279,2738.761985,-4737.318029,0.000000
163336.851598,-444.123565,-11843.295072,-3753.867940
163336.851917,-2590.720797,-16580.613101,-7124.688131
163336.852237,-6143.709319,-20725.766376,-6511.811733
163336.852556,-9474.636058,-19615.457463,-4903.011187
163336.852875,-7328.038826,-18209.066173,-4826.401637
163336.853194,-4293.194464,-14878.139434,-2374.896044
163336.853513,-3849.070898,-9104.533087,-383.047749
163336.853832,-1554.432478,-4071.132681,2374.896044
163336.854151,5551.544565,-4737.318029,7354.516781
163336.854470,8290.306550,-74.020594,10418.898773
163336.854789,11695.253884,666.185348,8810.098227
163336.855108,6735.874072,0.000000,4826.401637
163336.855427,-370.102971,-4737.318029,-2604.724693
163336.855747,-3552.988522,-12805.562797,-4519.963438
163336.856066,-5403.503377,-16728.654289,-8656.879127
163336.856385,-7105.977043,-19245.354492,-8656.879127
163336.856704,-8956.491898,-20059.581028,-7277.907231
163336.857023,-8290.306550,-17838.963202,-6128.763984
163336.857342,-3849.070898,-11917.315666,-3294.210641
163336.857661,-2072.576638,-8364.327145,612.876398
163336.857980,0.000000,-3627.009116,3677.258390
163336.858299,6735.874072,-4737.318029,7890.783629
163336.858618,9400.615463,-1184.329507,9729.412825
163336.858937,13841.851115,-2146.597232,10418.898773
163336.859257,7624.121203,-888.247130,4749.792088
163336.859576,518.144159,-4515.256246,-1762.019645
163336.859895,-1554.432478,-10584.944971,-5592.497135
163336.860214,-4737.318029,-14285.974681,-7354.516781
163336.860533,-6513.812290,-17838.963202,-7814.174080
163336.860852,-9474.636058,-19023.292709,-6741.640382
163336.861171,-5995.668130,-19319.375086,-3064.381992
163336.861490,-3775.050304,-14952.160028,-1302.362347
163336.861809,-1850.514855,-7994.224174,-1608.800546
163336.862128,-1702.473667,-6661.853478,3753.867940
163336.862447,1998.556043,-2738.761985,6281.983084
163336.862767,9178.553681,-1554.432478,9116.536426
163336.863086,11029.068536,222.061783,8810.098227
163336.863405,4737.318029,-74.020594,3677.258390
163336.863724,-2368.659014,-2442.679609,-3677.258390
163336.864043,-4737.318029,-10140.821405,-6128.763984
163336.864362,-3330.926739,-15396.283594,-6435.202183
163336.864681,-4219.173869,-19023.292709,-8350.440928
163336.865000,-5995.668130,-21317.931130,-7431.126331
163336.865319,-7254.018232,-17838.963202,-4596.572988
163336.865638,-4145.153275,-13915.871710,-1991.848295
163336.865957,-2146.597232,-9178.553681,383.047749
163336.866277,0.000000,-5107.421000,4903.011187
163336.866596,4293.194464,-4515.256246,7277.907231
163336.866915,8808.450710,-2368.659014,9729.412825
163336.867234,11843.295072,1702.473667,7201.297681
163336.867553,7105.977043,-962.267725,6128.763984
163336.867872,2294.638420,-4737.318029,-76.609550
163336.868191,-3552.988522,-9918.759623,-5439.278036
163336.868510,-4515.256246,-15174.221811,-7277.907231
163336.868829,-6291.750507,-17098.757260,-7967.393179
163336.869148,-7698.141797,-19837.519246,-6894.859482
163336.869467,-8882.471304,-17838.963202,-4903.011187
163336.869787,-3627.009116,-15766.386565,-1302.362347
163336.870106,-3330.926739,-10732.986159,306.438199
163336.870425,-2146.597232,-6291.750507,2834.553343
163336.870744,2146.597232,-1258.350101,5286.058936
163336.871063,9400.615463,-888.247130,9729.412825
163336.871382,12657.521608,0.000000,8503.660028
163336.871701,5329.482782,1702.473667,3983.696590
163336.872020,2146.597232,-4145.153275,-76.609550
163336.872339,-2442.679609,-11843.295072,-4979.620737
163336.872658,-4737.318029,-15174.221811,-7354.516781
163336.872977,-6291.750507,-18875.251521,-8733.488677
163336.873297,-8734.430116,-19689.478057,-7277.907231
163336.873616,-7031.956449,-18505.148550,-4749.792088
163336.873935,-3997.112087,-14730.098246,-2757.943793
163336.874254,-2368.659014,-9104.533087,919.314598
163336.874573,-74.020594,-6217.729913,2987.772442
163336.874892,4071.132681,-4737.318029,8503.660028
163336.875211,9104.533087,-2664.741391,9729.412825
163336.875530,15322.262999,-2368.659014,12180.918418
163336.875849,7994.224174,-814.226536,7354.516781
163336.876168,1110.308913,-2960.823768,-1302.362347
163336.876487,-3330.926739,-8734.430116,-5669.106685
163336.876807,-4737.318029,-14285.974681,-7967.393179
163336.877126,-7105.977043,-16654.633695,-7660.954980
163336.877445,-6661.853478,-21614.013506,-5592.497135
163336.877764,-8364.327145,-18949.272115,-3907.087040
163336.878083,-2442.679609,-17764.942608,-3064.381992
163336.878402,-3627.009116,-11695.253884,-1685.410096
163336.878721,-1776.494261,-6069.688724,1225.752797
163336.879040,2294.638420,-3256.906145,6205.373534
163336.879359,8068.244768,-1776.494261,8273.831378
163336.879678,11991.336260,740.205942,8273.831378
163336.879997,8882.471304,1184.329507,6281.983084
163336.880317,2220.617826,-2738.761985,0.000000
163336.880636,-2738.761985,-11177.109724,-6741.640382
163336.880955,-4737.318029,-15470.304188,-6741.640382
163336.881274,-3923.091493,-18949.272115,-8197.221829
163336.881593,-7772.162391,-18801.230927,-7584.345430
163336.881912,-8290.306550,-17838.963202,-3064.381992
163336.882231,-4145.153275,-14952.160028,-1838.629195
163336.882550,-1924.535449,-9696.697840,76.609550
163336.882869,-1184.329507,-5773.606348,3677.258390
163336.883188,2368.659014,-1036.288319,6128.763984
163336.883507,7698.141797,1702.473667,9806.022374
163336.883827,11399.171507,518.144159,9806.022374
163336.884146,8882.471304,-1036.288319,6052.154434
163336.884465,592.164754,-3034.844362,-766.095498
163336.884784,-4441.235652,-8364.327145,-7354.516781
163336.885103,-5329.482782,-13619.789333,-8656.879127
163336.885422,-7105.977043,-18431.127956,-9806.022374
163336.885741,-8438.347739,-18949.272115,-7967.393179
163336.886059,-7698.141797,-18949.272115,-5515.887586
163336.886378,-4367.215058,-15396.283594,-2834.553343
163336.886697,-2664.741391,-11103.089130,-306.438199
163336.887016,-4145.153275,-5181.441594,1149.143247
163336.887335,0.000000,-2442.679609,4903.011187
163336.887654,9178.553681,-1628.453072,10265.679673
163336.887973,12953.603985,0.000000,11568.042020
163336.888292,9992.780217,0.000000,7277.907231
163336.888611,1258.350101,-2442.679609,0.000000
163336.888930,-2812.782580,-9844.739029,-4903.011187
163336.889249,-4663.297435,-14211.954086,-8350.440928
163336.889568,-5995.668130,-19615.457463,-7048.078582
163336.889887,-8882.471304,-19615.457463,-6741.640382
163336.890205,-8290.306550,-17838.963202,-4290.134789
163336.890524,-2738.761985,-16580.613101,-689.485948
163336.890843,-1702.473667,-8956.491898,1149.143247
163336.891162,-3552.988522,-2738.761985,1532.190996
163336.891481,2886.803174,0.000000,6052.154434
163336.891800,9474.636058,-962.267725,10035.851024
163336.892119,11473.192101,0.000000,10725.336972
163336.892438,8512.368333,-592.164754,6128.763984
163336.892757,2368.659014,-4959.379811,612.876398
163336.893076,-7105.977043,-9548.656652,-7354.516781
163336.893395,-4219.173869,-15840.407159,-7584.345430
163336.893714,-5995.668130,-18061.024985,-8963.317327
163336.894033,-7179.997637,-18061.024985,-8350.440928
163336.894351,-9474.636058,-16654.633695,-7354.516781
163336.894670,-3923.091493,-15988.448347,-2528.115143
163336.894989,-1776.494261,-10807.006753,-383.047749
163336.895308,-2368.659014,-7772.162391,2911.162892
163336.895627,740.205942,-3627.009116,4979.620737
163336.895946,7254.018232,-814.226536,7890.783629
163336.896265,10955.047942,-74.020594,9193.145976
163336.896584,10362.883188,370.102971,5515.887586
163336.896903,5847.626942,-5773.606348,2374.896044
163336.897222,-1850.514855,-9178.553681,-4673.182538
163336.897541,-4737.318029,-12509.480420,-7354.516781
163336.897860,-5255.462188,-17912.983796,-8350.440928
163336.898179,-7105.977043,-19319.375086,-7967.393179
163336.898497,-7550.100608,-19245.354492,-4673.182538
163336.898816,-5921.647536,-13323.706956,-2987.772442
163336.899135,-2442.679609,-9030.512492,306.438199
163336.899454,-666.185348,-4737.318029,3600.648841
163336.899773,0.000000,-1998.556043,4903.011187
163336.900092,5921.647536,-1554.432478,8427.050478
163336.900411,11769.274478,-3552.988522,10955.165621
163336.900730,7105.977043,-74.020594,5209.449386
163336.901049,666.185348,-3627.009116,-995.924147
163336.901368,-3552.988522,-9326.594869,-5439.278036
163336.901687,-5477.523971,-13323.706956,-8810.098227
163336.902006,-7105.977043,-15618.345376,-10725.336972
163336.902325,-7476.080014,-18949.272115,-8656.879127
163336.902643,-5995.668130,-18505.148550,-5592.497135
163336.902962,-4145.153275,-16654.633695,-2451.505594
163336.903281,-1776.494261,-11917.315666,1225.752797
163336.903600,2294.638420,-8882.471304,3600.648841
163336.903919,1776.494261,-4811.338623,5439.278036
163336.904238,6883.915261,-1628.453072,8427.050478
163336.904557,11843.295072,-962.267725,9269.755526
163336.904876,10955.047942,-222.061783,8503.660028
163336.905195,3775.050304,-1702.473667,1685.410096
163336.905514,-74.020594,-8290.306550,-4060.306139
163336.905833,-4293.194464,-12435.459826,-7737.564530
163336.906152,-6587.832884,-14878.139434,-10648.727422
163336.906471,-7105.977043,-18431.127956,-8580.269578
163336.906789,-7179.997637,-18357.107362,-6205.373534
163336.907108,-4959.379811,-15544.324782,-1685.410096
163336.907427,-2368.659014,-11473.192101,919.314598
163336.907746,-1480.411884,-5847.626942,2911.162892
163336.908065,2294.638420,-5329.482782,6665.030833
163336.908384,6143.709319,-2886.803174,8733.488677
163336.908703,9400.615463,-1702.473667,9729.412825
163336.909022,9400.615463,0.000000,5898.935335
163336.909341,1184.329507,-2442.679609,919.314598
163336.909660,-4737.318029,-5995.668130,-4903.011187
163336.909979,-4811.338623,-12879.583391,-8350.440928
163336.910298,-4663.297435,-16358.551318,-8733.488677
163336.910617,-5181.441594,-18135.045579,-7124.688131
163336.910935,-6217.729913,-18431.127956,-5362.668486
163336.911254,-2738.761985,-18949.272115,-1608.800546
163336.911573,-2590.720797,-13767.830521,919.314598
163336.911892,-74.020594,-9474.636058,1762.019645
163336.912211,-2220.617826,-5847.626942,3064.381992
163336.912530,3701.029710,-2442.679609,4903.011187
163336.912849,9992.780217,-74.020594,7354.516781
163336.913168,11177.109724,-592.164754,8350.440928
163336.913487,4367.215058,-1850.514855,2528.115143
163336.913806,-1332.370696,-6661.853478,-3447.429741
163336.914125,-4219.173869,-11843.295072,-6818.249932
163336.914444,-5921.647536,-14878.139434,-8350.440928
163336.914763,-9178.553681,-19023.292709,-7354.516781
163336.915081,-6809.894666,-19837.519246,-4366.744339
163336.915400,-4219.173869,-19615.457463,1455.581446
163336.915719,-4367.215058,-11103.089130,-1302.362347
163336.916038,-2442.679609,-7698.141797,1149.143247
163336.916357,-1998.556043,-4219.173869,3294.210641
163336.916676,2886.803174,-3182.885551,6205.373534
163336.916995,8290.306550,-1998.556043,7890.783629
163336.917314,9844.739029,-2664.741391,8503.660028
163336.917633,4441.235652,-2664.741391,1532.190996
163336.917952,-962.267725,-6661.853478,-2528.115143
163336.918271,-2442.679609,-11251.130318,-7431.126331
163336.918590,-3997.112087,-13693.809927,-8273.831378
163336.918909,-2442.679609,-18357.107362,-7737.564530
163336.919227,-5921.647536,-19541.436869,-4903.011187
163336.919546,-5625.565159,-17838.963202,-3217.601092
163336.919865,-2368.659014,-14137.933492,-459.657299
163336.920184,-1554.432478,-9622.677246,1455.581446
163336.920503,0.000000,-5403.503377,4903.011187
163336.920822,4367.215058,-3849.070898,6128.763984
163336.921141,9770.718434,-2664.741391,9193.145976
163336.921460,11251.130318,888.247130,8427.050478
163336.921779,5551.544565,1702.473667,3600.648841
163336.922098,1110.308913,-3627.009116,-1762.019645
163336.922417,-74.020594,-10658.965565,-4979.620737
163336.922736,-3478.967927,-13767.830521,-6741.640382
163336.923055,-7105.977043,-16062.468941,-7354.516781
163336.923373,-6587.832884,-20725.766376,-4366.744339
163336.923692,-8290.306550,-18135.045579,-2451.505594
163336.924011,-5403.503377,-13915.871710,-2298.286494
163336.924330,-4515.256246,-8438.347739,-536.266849
163336.924649,-2960.823768,-4811.338623,2145.067394
163336.924968,2220.617826,-3034.844362,4979.620737
163336.925287,7994.224174,-1554.432478,7584.345430
163336.925606,9400.615463,-592.164754,7277.907231
163336.925925,4663.297435,-74.020594,1762.019645
163336.926244,0.000000,-4219.173869,-2451.505594
163336.926563,-74.020594,-11251.130318,-4979.620737
163336.926882,-2368.659014,-14878.139434,-6511.811733
163336.927201,-3552.988522,-17838.963202,-6205.373534
163336.927519,-5699.585753,-18653.189738,-5439.278036
163336.927838,-5181.441594,-18505.148550,-3140.991542
163336.928157,-3701.029710,-16136.489536,-383.047749
163336.928476,-2738.761985,-10510.924376,0.000000
163336.928795,-2146.597232,-8808.450710,3140.991542
163336.929114,1702.473667,-3552.988522,4673.182538
163336.929433,9400.615463,-666.185348,7354.516781
163336.929752,11769.274478,1184.329507,8503.660028
163336.930071,8290.306550,148.041188,5362.668486
163336.930390,2516.700203,-3182.885551,229.828649
163336.930709,-2072.576638,-8956.491898,-4673.182538
163336.931028,-1850.514855,-15988.448347,-4060.306139
163336.931347,-4811.338623,-19541.436869,-7354.516781
163336.931665,-8586.388927,-20281.642811,-4979.620737
163336.931984,-8364.327145,-20133.601622,-4366.744339
163336.932303,-6587.832884,-16580.613101,-1915.238745
163336.932622,-7994.224174,-7179.997637,0.000000
163336.932941,-4515.256246,-5033.400406,459.657299
163336.933260,1702.473667,-3552.988522,4290.134789
163336.933579,7846.182985,-1924.535449,7967.393179
163336.933898,10658.965565,-222.061783,7814.174080
163336.934217,7624.121203,-2146.597232,4213.525239
163336.934536,592.164754,-4367.215058,0.000000
163336.934855,-74.020594,-10658.965565,-3753.867940
163336.935174,-2442.679609,-17468.860231,-3753.867940
163336.935493,-3923.091493,-16950.716072,-7431.126331
163336.935811,-6513.812290,-18135.045579,-4290.134789
163336.936130,-5107.421000,-18357.107362,-3447.429741
163336.936449,-3997.112087,-15988.448347,-2145.067394
163336.936768,-2886.803174,-11621.233289,76.609550
163336.937087,-2368.659014,-7328.038826,0.000000
163336.937406,1258.350101,-2590.720797,3064.381992
163336.937725,6513.812290,-1850.514855,7967.393179
163336.938044,10658.965565,-74.020594,10418.898773
163336.938363,10288.862594,0.000000,7048.078582
163336.938682,2886.803174,-2368.659014,-76.609550
163336.939001,-888.247130,-8364.327145,-1991.848295
163336.939320,-1776.494261,-12805.562797,-5745.716235
163336.939639,-5403.503377,-16802.674883,-6665.030833
163336.939957,-8068.244768,-19467.416275,-6281.983084
163336.940276,-9474.636058,-16950.716072,-6128.763984
163336.940595,-8290.306550,-14359.995275,-3677.258390
163336.940914,-4219.173869,-10066.800811,-3140.991542
163336.941233,-4663.297435,-4885.359217,0.000000
163336.941552,-74.020594,-4145.153275,3677.258390
163336.941871,8808.450710,-2368.659014,6971.469032
163336.942190,11177.109724,0.000000,8273.831378
163336.942509,7698.141797,148.041188,4596.572988
163336.942828,2960.823768,-2960.823768,766.095498
163336.943147,740.205942,-8364.327145,-2834.553343
163336.943466,0.000000,-11917.315666,-6128.763984
163336.943785,-1258.350101,-16580.613101,-5745.716235
163336.944103,-5403.503377,-17394.839637,-6205.373534
163336.944422,-6365.771101,-17838.963202,-6741.640382
163336.944741,-4441.235652,-17246.798449,-1915.238745
163336.945060,-3034.844362,-11843.295072,-3753.867940
163336.945379,-2294.638420,-8586.388927,766.095498
163336.945698,-1554.432478,-6587.832884,3753.867940
163336.946017,5625.565159,-518.144159,6741.640382
163336.946336,11695.253884,0.000000,9729.412825
163336.946655,9474.636058,1480.411884,6665.030833
163336.946974,2960.823768,-962.267725,2145.067394
163336.947293,0.000000,-8068.244768,-1838.629195
163336.947612,-666.185348,-14211.954086,-3753.867940
163336.947931,-4959.379811,-16432.571912,-6205.373534
163336.948249,-10066.800811,-19023.292709,-5822.325785
163336.948568,-10214.842000,-19689.478057,-5592.497135
163336.948887,-8364.327145,-17616.901420,-3753.867940
163336.949206,-5699.585753,-11769.274478,-2911.162892
163336.949525,-5625.565159,-7179.997637,-2451.505594
163336.949844,-2368.659014,-4811.338623,1532.190996
163336.950163,4737.318029,-2442.679609,5822.325785
163336.950482,9474.636058,-74.020594,8580.269578
163336.950801,10584.944971,0.000000,6052.154434
163336.951120,6439.791695,-4737.318029,3600.648841
163336.951439,1776.494261,-8364.327145,153.219100
163336.951758,592.164754,-11695.253884,-3370.820191
163336.952077,-1258.350101,-16062.468941,-4366.744339
163336.952395,-4145.153275,-17542.880825,-4673.182538
163336.952714,-8882.471304,-17246.798449,-4903.011187
163336.953033,-5625.565159,-16654.633695,-3524.039291
163336.953352,-6513.812290,-11325.150913,-3677.258390
163336.953671,-5329.482782,-9844.739029,-459.657299
163336.953990,-2442.679609,-6513.812290,1762.019645
163336.954309,3478.967927,-4145.153275,4519.963438
163336.954628,8068.244768,-1332.370696,6358.592633
163336.954947,9104.533087,814.226536,6971.469032
163336.955266,5477.523971,0.000000,2987.772442
163336.955585,1776.494261,-4737.318029,842.705048
163336.955904,0.000000,-8364.327145,-3677.258390
163336.956223,-2442.679609,-14211.954086,-6511.811733
163336.956541,-8290.306550,-18135.045579,-6741.640382
163336.956860,-8734.430116,-20207.622217,-7354.516781
163336.957179,-7698.141797,-18283.086767,-4366.744339
163336.957498,-4811.338623,-16580.613101,-3140.991542
163336.957817,-5181.441594,-9696.697840,-2528.115143
163336.958136,-2294.638420,-5033.400406,919.314598
163336.958455,4959.379811,-2220.617826,4366.744339
163336.958774,9474.636058,-74.020594,8580.269578
163336.959093,11251.130318,666.185348,7277.907231
163336.959412,8216.285956,-2368.659014,4826.401637
163336.959731,2368.659014,-3627.009116,-1838.629195
163336.960050,0.000000,-9548.656652,-2451.505594
163336.960369,962.267725,-17764.942608,-1915.238745
163336.960687,-4737.318029,-17246.798449,-4903.011187
163336.961006,-6735.874072,-19245.354492,-4136.915689
163336.961325,-6069.688724,-18209.066173,-3217.601092
163336.961644,-4441.235652,-13693.809927,-3140.991542
163336.961963,-6513.812290,-7772.162391,-3677.258390
163336.962282,-3775.050304,-7698.141797,-229.828649
163336.962601,2220.617826,-3552.988522,4290.134789
163336.962920,7772.162391,-1110.308913,7354.516781
163336.963239,9474.636058,1480.411884,6358.592633
163336.963558,8216.285956,0.000000,4826.401637
163336.963877,4663.297435,-6513.812290,2374.896044
163336.964196,222.061783,-8512.368333,-2757.943793
163336.964515,-2368.659014,-14582.057057,-6741.640382
163336.964833,-5403.503377,-19837.519246,-3753.867940
163336.965152,-11843.295072,-19023.292709,-7048.078582
163336.965471,-9252.574275,-19467.416275,-4979.620737
163336.965790,-6513.812290,-14063.912898,-3983.696590
163336.966109,-5551.544565,-9992.780217,-2528.115143
163336.966428,-2146.597232,-6439.791695,229.828649
163336.966747,3775.050304,-1924.535449,4290.134789
163336.967066,10436.903782,-2368.659014,9116.536426
163336.967385,10288.862594,0.000000,7277.907231
163336.967704,4737.318029,-74.020594,3064.381992
163336.968023,5403.503377,-8142.265362,2834.553343
163336.968342,1480.411884,-8956.491898,-1838.629195
163336.968661,740.205942,-14508.036463,-3064.381992
163336.968979,-3997.112087,-17246.798449,-4826.401637
163336.969298,-6957.935855,-19763.498651,-4673.182538
163336.969617,-7994.224174,-17246.798449,-4290.134789
163336.969936,-5033.400406,-14211.954086,-3370.820191
163336.970255,-4293.194464,-11029.068536,-1225.752797
163336.970574,-3034.844362,-9474.636058,-76.609550
163336.970893,1110.308913,-3404.947333,3524.039291
163336.971212,9400.615463,-3552.988522,7277.907231
163336.971531,8882.471304,814.226536,5439.278036
163336.971850,6217.729913,-814.226536,3907.087040
163336.972169,2886.803174,-4589.276840,995.924147
163336.972488,3256.906145,-9992.780217,306.438199
163336.972807,-1480.411884,-13693.809927,-2451.505594
163336.973125,-7105.977043,-16654.633695,-5515.887586
163336.973444,-8734.430116,-20503.704593,-4596.572988
163336.973763,-7476.080014,-19837.519246,-3064.381992
163336.974082,-7994.224174,-13101.645173,-6052.154434
163336.974401,-4811.338623,-10510.924376,-1762.019645
163336.974720,-3034.844362,-5847.626942,0.000000
163336.975039,2664.741391,-3552.988522,3830.477490
163336.975358,8290.306550,-1480.411884,7814.174080
163336.975677,10066.800811,-74.020594,7354.516781
163336.975996,4737.318029,-74.020594,3524.039291
163336.976315,2960.823768,-4811.338623,1378.971896
163336.976634,1998.556043,-9474.636058,-306.438199
163336.976953,2294.638420,-15396.283594,-1455.581446
163336.977271,-6513.812290,-13101.645173,-4903.011187
163336.977590,-7476.080014,-18801.230927,-4596.572988
163336.977909,-6809.894666,-18135.045579,-3907.087040
163336.978228,-5181.441594,-15322.262999,-3753.867940
163336.978547,-5477.523971,-11621.233289,-2528.115143
163336.978866,-5329.482782,-8068.244768,-1302.362347
163336.979185,-1924.535449,-3182.885551,1838.629195
163336.979504,6513.812290,-1850.514855,3064.381992
163336.979823,10955.047942,-1036.288319,7431.126331
163336.980142,7920.203579,-1480.411884,4826.401637
163336.980461,2960.823768,-2442.679609,2451.505594
163336.980780,3775.050304,-9178.553681,-76.609550
163336.981099,444.123565,-13397.727550,-3217.601092
163336.981417,-4663.297435,-17320.819043,-4903.011187
163336.981736,-10140.821405,-17024.736666,-6741.640382
163336.982055,-8068.244768,-18727.210333,-4673.182538
163336.982374,-6735.874072,-15396.283594,-3753.867940
163336.982693,-7179.997637,-9548.656652,-4136.915689
163336.983012,-5033.400406,-5995.668130,0.000000
163336.983331,2294.638420,-6513.812290,5745.716235
163336.983650,5921.647536,-666.185348,7967.393179
163336.983969,10584.944971,962.267725,6588.421283
163336.984288,7254.018232,-814.226536,5362.668486
163336.984607,4145.153275,-4515.256246,2681.334243
163336.984926,1258.350101,-7179.997637,-1838.629195
163336.985245,222.061783,-15396.283594,-1302.362347
163336.985564,-3034.844362,-15396.283594,-5286.058936
163336.985883,-8142.265362,-18431.127956,-5515.887586
163336.986202,-9474.636058,-17246.798449,-4903.011187
163336.986521,-3627.009116,-16580.613101,-3140.991542
163336.986840,-6513.812290,-11695.253884,-3140.991542
163336.987159,-4811.338623,-7105.977043,-3140.991542
163336.987478,-2146.597232,-3701.029710,0.000000
163336.987797,5847.626942,-2738.761985,6052.154434
163336.988116,8512.368333,-74.020594,6052.154434
163336.988435,9400.615463,-1776.494261,6052.154434
163336.988754,3627.009116,-2738.761985,2374.896044
163336.989073,1184.329507,-5995.668130,0.000000
163336.989392,296.082377,-12213.398043,-3677.258390
163336.989711,-3034.844362,-15988.448347,-6205.373534
163336.990030,-7920.203579,-19023.292709,-5439.278036
163336.990349,-8216.285956,-20133.601622,-3830.477490
163336.990668,-5625.565159,-16136.489536,-3907.087040
163336.990987,-4219.173869,-13619.789333,-689.485948
163336.991306,-3256.906145,-8142.265362,536.266849
163336.991625,-370.102971,-3997.112087,2987.772442
163336.991945,6735.874072,2368.659014,4213.525239
163336.992264,10066.800811,1110.308913,7354.516781
163336.992583,5921.647536,1110.308913,6128.763984
163336.992902,3478.967927,-3404.947333,2221.676944
163336.993221,2368.659014,-7476.080014,0.000000
163336.993540,-74.020594,-11843.295072,-3140.991542
163336.993859,-666.185348,-16950.716072,-3447.429741
163336.994178,-4811.338623,-20725.766376,-3140.991542
163336.994497,-7179.997637,-18875.251521,-1915.238745
163336.994816,-3627.009116,-17764.942608,-3140.991542
163336.995135,-6069.688724,-11547.212695,-4979.620737
163336.995454,-5921.647536,-5995.668130,-4826.401637
163336.995773,-4515.256246,-5551.544565,-2451.505594
163336.996092,4071.132681,-4145.153275,3600.648841
163336.996411,8586.388927,-444.123565,5439.278036
163336.996730,7846.182985,-148.041188,5362.668486
163336.997049,6143.709319,-3552.988522,4826.401637
163336.997368,4293.194464,-6587.832884,1608.800546
163336.997687,592.164754,-9548.656652,-1838.629195
163336.998006,-2220.617826,-15470.304188,-3524.039291
163336.998325,-5921.647536,-19023.292709,-3370.820191
163336.998644,-8364.327145,-19171.333898,-4673.182538
163336.998963,-5403.503377,-17764.942608,-3140.991542
163336.999282,-6587.832884,-12213.398043,-3064.381992
163336.999601,-5699.585753,-8364.327145,-2221.676944
163336.999920,-1776.494261,-4441.235652,459.657299
163337.000239,5625.565159,-4663.297435,6052.154434
163337.000558,8216.285956,-1702.473667,5898.935335
163337.000877,7031.956449,0.000000,6052.154434
163337.001196,4071.132681,-740.205942,2068.457845
163337.001515,2368.659014,-5107.421000,612.876398
163337.001834,3478.967927,-9474.636058,-1302.362347
163337.002153,-888.247130,-12805.562797,-2451.505594
163337.002472,-5403.503377,-16950.716072,-3524.039291
163337.002791,-7031.956449,-19023.292709,-3753.867940
163337.003110,-6587.832884,-16876.695478,-3753.867940
163337.003429,-8290.306550,-11917.315666,-4903.011187
163337.003748,-7179.997637,-10362.883188,-5515.887586
163337.004067,-4737.318029,-8734.430116,-2068.457845
163337.004386,1258.350101,-6217.729913,1532.190996
163337.004705,6883.915261,-592.164754,4060.306139
163337.005024,9400.615463,-1776.494261,6665.030833
163337.005343,8808.450710,-1776.494261,4826.401637
163337.005663,5329.482782,-3923.091493,3064.381992
163337.005982,4737.318029,-7179.997637,1225.752797
163337.006301,2294.638420,-14211.954086,-76.609550
163337.006620,-5329.482782,-17838.963202,-1838.629195
163337.006939,-7550.100608,-19171.333898,-3753.867940
163337.007258,-8956.491898,-18283.086767,-3677.258390
163337.007577,-8956.491898,-14211.954086,-4749.792088
163337.007896,-7624.121203,-9252.574275,-4290.134789
163337.008215,-3997.112087,-7031.956449,-1225.752797
163337.008534,2590.720797,-3997.112087,2987.772442
163337.008853,6883.915261,-74.020594,2604.724693
163337.009172,7105.977043,-74.020594,4903.011187
163337.009491,8808.450710,-2368.659014,4826.401637
163337.009810,4737.318029,-5107.421000,2757.943793
163337.010129,2590.720797,-9400.615463,153.219100
163337.010448,-1036.288319,-13027.624579,-2221.676944
163337.010767,-4663.297435,-16876.695478,-2834.553343
163337.011086,-7031.956449,-18431.127956,-2604.724693
163337.011405,-6365.771101,-18949.272115,-3677.258390
163337.011724,-5995.668130,-16284.530724,-4979.620737
163337.012043,-7772.162391,-10658.965565,-5745.716235
163337.012362,-5033.400406,-7179.997637,-3677.258390
163337.012681,3478.967927,-4441.235652,1149.143247
163337.013000,8660.409521,-2590.720797,6052.154434
163337.013319,9992.780217,-814.226536,6511.811733
163337.013638,8586.388927,-1850.514855,5745.716235
163337.013957,8216.285956,-6513.812290,6052.154434
163337.014276,5773.606348,-9400.615463,0.000000
163337.014595,2072.576638,-14211.954086,-459.657299
163337.014914,-5403.503377,-17098.757260,-4366.744339
163337.015233,-8808.450710,-19837.519246,-4366.744339
163337.015552,-9474.636058,-16654.633695,-4903.011187
163337.015871,-8364.327145,-14211.954086,-4826.401637
163337.016190,-7550.100608,-9400.615463,-3677.258390
163337.016509,-3775.050304,-6217.729913,-766.095498
163337.016828,3552.988522,-3775.050304,3907.087040
163337.017147,9400.615463,-1258.350101,7584.345430
163337.017466,7254.018232,1406.391290,5822.325785
163337.017785,4737.318029,-1850.514855,4136.915689
163337.018104,3849.070898,-5403.503377,2451.505594
163337.018423,2886.803174,-10658.965565,-842.705048
163337.018742,-2960.823768,-14285.974681,-2451.505594
163337.019061,-5699.585753,-16580.613101,-5898.935335
163337.019381,-7179.997637,-19245.354492,-4903.011187
163337.019700,-6439.791695,-18357.107362,-4903.011187
163337.020019,-6365.771101,-14285.974681,-6741.640382
163337.020338,-6587.832884,-9548.656652,-4903.011187
163337.020657,-3256.906145,-5995.668130,0.000000
163337.020976,4737.318029,-3034.844362,4903.011187
163337.021295,11769.274478,-4441.235652,9116.536426
163337.021614,11473.192101,0.000000,9116.536426
163337.021933,8586.388927,-2442.679609,7354.516781
163337.022252,4663.297435,-5403.503377,2068.457845
163337.022571,1702.473667,-8956.491898,-1225.752797
163337.022890,-1998.556043,-14656.077652,-4749.792088
163337.023209,-9474.636058,-15766.386565,-7354.516781
163337.023528,-10658.965565,-19023.292709,-5592.497135
163337.023847,-10955.047942,-16654.633695,-4903.011187
163337.024166,-7105.977043,-13101.645173,-3524.039291
163337.024485,-5995.668130,-9474.636058,-1302.362347
163337.024804,-1258.350101,-6513.812290,-76.609550
163337.025123,2812.782580,-3478.967927,4519.963438
163337.025442,8216.285956,-814.226536,5669.106685
163337.025761,8586.388927,-740.205942,5745.716235
163337.026080,4515.256246,-2812.782580,4213.525239
163337.026399,0.000000,-4811.338623,0.000000
163337.026718,-74.020594,-9474.636058,-4060.306139
163337.027037,-3997.112087,-13249.686362,-5822.325785
163337.027356,-5625.565159,-16654.633695,-7354.516781
163337.027675,-6513.812290,-20355.663405,-2834.553343
163337.027994,-4811.338623,-16876.695478,-5592.497135
163337.028313,-4071.132681,-13767.830521,-2451.505594
163337.028632,-4589.276840,-8956.491898,-2298.286494
163337.028951,-1998.556043,-4885.359217,0.000000
163337.029270,3478.967927,-6513.812290,6052.154434
163337.029589,10140.821405,-1776.494261,8503.660028
163337.029908,11473.192101,-1184.329507,7431.126331
163337.030227,5255.462188,-296.082377,4213.525239
163337.030546,2960.823768,-5403.503377,1225.752797
163337.030865,1184.329507,-9548.656652,-1838.629195
163337.031184,-3404.947333,-12065.356855,-5898.935335
163337.031503,-5403.503377,-17024.736666,-5669.106685
163337.031822,-8068.244768,-20355.663405,-4213.525239
163337.032141,-7105.977043,-17542.880825,-2681.334243
163337.032460,-4811.338623,-14211.954086,-2528.115143
163337.032779,-4367.215058,-9178.553681,-689.485948
163337.033099,-1850.514855,-4737.318029,-76.609550
163337.033418,1406.391290,-1850.514855,3064.381992
163337.033737,7994.224174,-1850.514855,6741.640382
163337.034056,9474.636058,-1258.350101,7660.954980
163337.034375,2960.823768,-2146.597232,1838.629195
163337.034694,444.123565,-6587.832884,-1685.410096
163337.035013,-1036.288319,-11029.068536,-3907.087040
163337.035332,-2368.659014,-14804.118840,-5362.668486
163337.035651,-3627.009116,-17172.777854,-5286.058936
163337.035970,-5329.482782,-21243.910535,-1685.410096
163337.036289,-2442.679609,-18357.107362,-1608.800546
163337.036608,-3552.988522,-11917.315666,-2068.457845
163337.036927,-4737.318029,-5995.668130,0.000000
163337.037246,-3552.988522,-3034.844362,0.000000
163337.037565,4589.276840,-4663.297435,4673.182538
163337.037884,8882.471304,-3775.050304,7507.735880
163337.038203,10732.986159,-1554.432478,7201.297681
163337.038522,5847.626942,-1776.494261,2987.772442
163337.038841,0.000000,-4663.297435,-1915.238745
163337.039160,-2960.823768,-8956.491898,-4903.011187
163337.039479,-2442.679609,-15470.304188,-5515.887586
163337.039798,-4811.338623,-18357.107362,-4979.620737
163337.040117,-9474.636058,-17838.963202,-4290.134789
163337.040436,-7328.038826,-17024.736666,-3753.867940
163337.040755,-4737.318029,-13397.727550,-1915.238745
163337.041074,-4663.297435,-8364.327145,-1532.190996
163337.041393,-2516.700203,-4737.318029,536.266849
163337.041712,4663.297435,-4737.318029,4826.401637
163337.042031,7698.141797,-1850.514855,7354.516781
163337.042350,8882.471304,-1258.350101,5822.325785
163337.042669,3552.988522,-3256.906145,2451.505594
163337.042988,0.000000,-7105.977043,-229.828649
163337.043307,-2220.617826,-10732.986159,-3677.258390
163337.043626,-4663.297435,-12213.398043,-7354.516781
163337.043945,-3849.070898,-17764.942608,-4596.572988
163337.044264,-5107.421000,-18949.272115,-2528.115143
163337.044583,-3552.988522,-16062.468941,-3677.258390
163337.044902,-74.020594,-12435.459826,-76.609550
163337.045221,-2368.659014,-7846.182985,-612.876398
163337.045540,-2664.741391,-6291.750507,842.705048
163337.045859,2368.659014,-2590.720797,3524.039291
163337.046178,10066.800811,-2590.720797,8580.269578
163337.046498,7698.141797,-74.020594,6894.859482
163337.046817,4737.318029,-2738.761985,3370.820191
163337.047136,1702.473667,-6809.894666,-76.609550
163337.047455,-666.185348,-9474.636058,-4979.620737
163337.047774,-4737.318029,-11917.315666,-7354.516781
163337.048093,-5107.421000,-17172.777854,-5898.935335
163337.048412,-7772.162391,-18283.086767,-3677.258390
163337.048731,-6513.812290,-17320.819043,-2298.286494
163337.049050,-4885.359217,-13175.665768,-1532.190996
163337.049369,-3627.009116,-8290.306550,-689.485948
163337.049688,-3849.070898,-5107.421000,1225.752797
163337.050007,1776.494261,-2442.679609,1225.752797
163337.050326,7105.977043,-2442.679609,6741.640382
163337.050645,9400.615463,-2220.617826,6052.154434
163337.050964,2368.659014,-2442.679609,1838.629195
163337.051283,518.144159,-6217.729913,-2068.457845
163337.051602,-592.164754,-10510.924376,-3753.867940
163337.051921,-740.205942,-13323.706956,-4826.401637
163337.052240,-2960.823768,-15470.304188,-6128.763984
163337.052559,-4515.256246,-16950.716072,-5515.887586
163337.052878,-3256.906145,-16580.613101,-1915.238745
163337.053197,-4145.153275,-11325.150913,-2145.067394
163337.053516,-3552.988522,-8660.409521,-766.095498
163337.053835,-1776.494261,-8290.306550,2374.896044
163337.054154,1184.329507,-5403.503377,5515.887586
163337.054473,8512.368333,-3627.009116,7048.078582
163337.054792,9696.697840,-2590.720797,7354.516781
163337.055111,5329.482782,-2146.597232,3447.429741
163337.055430,-1776.494261,-2442.679609,-2451.505594
163337.055749,-2442.679609,-9474.636058,-3447.429741
163337.056068,-2442.679609,-12287.418637,-6665.030833
163337.056387,-6217.729913,-15766.386565,-6588.421283
163337.056706,-9474.636058,-16654.633695,-6128.763984
163337.057025,-4811.338623,-18949.272115,-2528.115143
163337.057344,-4959.379811,-15470.304188,-766.095498
163337.057663,-4441.235652,-8808.450710,-1302.362347
163337.057982,-3182.885551,-6069.688724,383.047749
163337.058301,1776.494261,-4811.338623,3600.648841
163337.058620,7624.121203,-2442.679609,7660.954980
163337.058939,10584.944971,-2072.576638,6971.469032
163337.059258,5107.421000,-2146.597232,2681.334243
163337.059577,0.000000,-3627.009116,-2451.505594
163337.059896,-2072.576638,-10140.821405,-3370.820191
163337.060216,-74.020594,-13619.789333,-7431.126331
163337.060535,-2812.782580,-15692.365970,-5056.230287
163337.060854,-4885.359217,-17987.004391,-2911.162892
163337.061173,-3923.091493,-17616.901420,-1608.800546
163337.061492,-2442.679609,-15100.201217,-76.609550
163337.061811,-2368.659014,-11843.295072,-76.609550
163337.062130,-2886.803174,-5329.482782,1762.019645
163337.062449,3478.967927,-4737.318029,3600.648841
163337.062768,5921.647536,-2516.700203,6741.640382
163337.063087,9474.636058,-1258.350101,7354.516781
163337.063406,4959.379811,-1554.432478,2834.553343
163337.063725,0.000000,-4811.338623,-1378.971896
163337.064044,-2664.741391,-8364.327145,-4749.792088
163337.064363,-3034.844362,-12657.521608,-5898.935335
163337.064682,-2738.761985,-16580.613101,-4979.620737
163337.065001,-5403.503377,-18653.189738,-4903.011187
163337.065320,-4811.338623,-20133.601622,-1302.362347
163337.065639,-3627.009116,-14952.160028,-1915.238745
163337.065958,-5329.482782,-10658.965565,-689.485948
163337.066277,-4737.318029,-5403.503377,1225.752797
163337.066596,962.267725,-3034.844362,3217.601092
163337.066915,8882.471304,-2516.700203,7354.516781
163337.067234,11029.068536,-1702.473667,7584.345430
163337.067553,6735.874072,-2738.761985,4213.525239
163337.067872,2294.638420,-6809.894666,-76.609550
163337.068191,-1776.494261,-9548.656652,-3983.696590
163337.068510,-1702.473667,-14211.954086,-5592.497135
163337.068829,-2442.679609,-18949.272115,-4979.620737
163337.069148,-4811.338623,-18653.189738,-3753.867940
163337.069467,-3997.112087,-18135.045579,919.314598
163337.069786,-2738.761985,-13915.871710,612.876398
163337.070105,-1924.535449,-8438.347739,0.000000
163337.070424,-2664.741391,-5625.565159,766.095498
163337.070743,-1776.494261,-3627.009116,1225.752797
163337.071062,4737.318029,-2442.679609,4903.011187
163337.071381,10732.986159,-2960.823768,7890.783629
163337.071700,7698.141797,-3775.050304,7048.078582
163337.072019,2294.638420,-5921.647536,-76.609550
163337.072338,-2442.679609,-7994.224174,-6205.373534
163337.072657,-2220.617826,-13619.789333,-6205.373534
163337.072976,-4885.359217,-16580.613101,-7967.393179
163337.073295,-7105.977043,-18727.210333,-6205.373534
163337.073614,-6809.894666,-19023.292709,-3140.991542
163337.073934,-6513.812290,-14285.974681,0.000000
163337.074253,-4441.235652,-9548.656652,-919.314598
163337.074572,-3552.988522,-4811.338623,2451.505594
163337.074891,3478.967927,-4737.318029,4826.401637
163337.075210,8734.430116,-1332.370696,7277.907231
163337.075529,11177.109724,592.164754,6052.154434
163337.075848,7105.977043,-2368.659014,5515.887586
163337.076167,888.247130,-4811.338623,-1149.143247
163337.076486,-2960.823768,-9844.739029,-5362.668486
163337.076805,-3923.091493,-14211.954086,-6511.811733
163337.077124,-4737.318029,-15766.386565,-7048.078582
163337.077443,-8882.471304,-16654.633695,-6128.763984
163337.077762,-4737.318029,-17246.798449,-1532.190996
163337.078081,-2146.597232,-14804.118840,2374.896044
163337.078400,-666.185348,-7994.224174,-689.485948
163337.078719,-74.020594,-5921.647536,-76.609550
163337.079038,0.000000,-3404.947333,3600.648841
163337.079357,6513.812290,-2442.679609,6741.640382
163337.079676,10288.862594,-2294.638420,8044.002729
163337.079995,7698.141797,-2442.679609,7048.078582
163337.080314,666.185348,-5699.585753,-1302.362347
163337.080633,-3034.844362,-9918.759623,-5898.935335
163337.080952,-4811.338623,-13027.624579,-8963.317327
163337.081271,-7105.977043,-15026.180623,-9806.022374
163337.081590,-6291.750507,-19837.519246,-6205.373534
163337.081909,-6291.750507,-19763.498651,-2757.943793
163337.082228,-3701.029710,-15174.221811,-383.047749
163337.082547,-1998.556043,-9844.739029,1302.362347
163337.082866,0.000000,-5477.523971,3294.210641
163337.083185,1184.329507,-1850.514855,6128.763984
163337.083504,10436.903782,-1480.411884,9116.536426
163337.083823,12953.603985,-1480.411884,9806.022374
163337.084142,7920.203579,-1406.391290,5362.668486
163337.084461,-370.102971,-3034.844362,-3140.991542
163337.084780,-3627.009116,-9474.636058,-6205.373534
163337.085099,-3923.091493,-16580.613101,-7737.564530
163337.085418,-5403.503377,-17912.983796,-7737.564530
163337.085737,-6883.915261,-17764.942608,-5286.058936
163337.086056,-4515.256246,-18949.272115,-76.609550
163337.086375,-3552.988522,-13693.809927,306.438199
163337.086695,-1258.350101,-8808.450710,1302.362347
163337.087014,-2294.638420,-4663.297435,2145.067394
163337.087333,222.061783,-2886.803174,3753.867940
163337.087652,6883.915261,-1702.473667,6281.983084
163337.087971,10214.842000,-1258.350101,7354.516781
163337.088290,7550.100608,-2442.679609,5056.230287
163337.088609,0.000000,-3627.009116,-2145.067394
163337.088928,-2442.679609,-11251.130318,-5669.106685
163337.089247,-2442.679609,-14211.954086,-8656.879127
163337.089566,-3034.844362,-17764.942608,-9882.631924
163337.089885,-7105.977043,-17912.983796,-7660.954980
163337.090204,-6587.832884,-19097.313304,-3677.258390
163337.090523,-3182.885551,-15026.180623,-306.438199
163337.090842,-1406.391290,-11547.212695,1762.019645
163337.091161,-518.144159,-5625.565159,3753.867940
163337.091480,1184.329507,-2590.720797,3907.087040
163337.091799,7105.977043,-1850.514855,9806.022374
163337.092119,13915.871710,-1850.514855,10035.851024
163337.092438,7179.997637,-74.020594,3677.258390
163337.092757,1628.453072,-5625.565159,-229.828649
163337.093076,-3775.050304,-9770.718434,-6052.154434
163337.093395,-6365.771101,-13841.851115,-9193.145976
163337.093714,-6439.791695,-17468.860231,-8963.317327
163337.094033,-5403.503377,-18801.230927,-7431.126331
163337.094352,-6217.729913,-17764.942608,-2834.553343
163337.094671,-4145.153275,-13693.809927,0.000000
163337.094990,-1184.329507,-8142.265362,1302.362347
163337.095309,-1258.350101,-6217.729913,4060.306139
163337.095628,-2368.659014,-2442.679609,2451.505594
163337.095947,4959.379811,-3182.885551,5439.278036
163337.096266,9844.739029,-3034.844362,7814.174080
163337.096585,8142.265362,-2886.803174,5975.544884
163337.096904,518.144159,-2664.741391,-1608.800546
163337.097223,-2442.679609,-9474.636058,-4366.744339
163337.097542,-3627.009116,-12435.459826,-8044.002729
163337.097862,-5107.421000,-14508.036463,-8427.050478
163337.098181,-8290.306550,-15470.304188,-7354.516781
163337.098500,-4811.338623,-21317.931130,-1302.362347
163337.098819,-4737.318029,-16062.468941,0.000000
163337.099138,-2368.659014,-12213.398043,995.924147
163337.099457,-1554.432478,-6883.915261,2068.457845
163337.099776,-444.123565,-4737.318029,3830.477490
163337.100095,6883.915261,-1332.370696,8273.831378
163337.100414,14137.933492,-2368.659014,9729.412825
163337.100733,10214.842000,-888.247130,7431.126331
163337.101052,2590.720797,-2442.679609,0.000000
163337.101371,-4737.318029,-7772.162391,-4903.011187
163337.101690,-3627.009116,-13027.624579,-7431.126331
163337.102009,-5921.647536,-15248.242405,-6894.859482
163337.102328,-7105.977043,-17764.942608,-5822.325785
163337.102647,-7105.977043,-18135.045579,-4136.915689
163337.102966,-3034.844362,-17987.004391,-76.609550
163337.103285,-2960.823768,-12509.480420,766.095498
163337.103605,-3034.844362,-7698.141797,612.876398
163337.103924,-222.061783,-5921.647536,3294.210641
163337.104243,4663.297435,-3849.070898,4060.306139
163337.104562,8290.306550,-2442.679609,5515.887586
163337.104881,11769.274478,-2368.659014,6358.592633
163337.105200,4885.359217,-3923.091493,2451.505594
163337.105519,-518.144159,-7254.018232,-2911.162892
163337.105838,-2886.803174,-11547.212695,-6435.202183
163337.106157,-1406.391290,-16580.613101,-5592.497135
163337.106476,-3997.112087,-17468.860231,-7354.516781
163337.106795,-6217.729913,-19023.292709,-2911.162892
163337.107114,-4219.173869,-18283.086767,-383.047749
163337.107433,-2442.679609,-14211.954086,-76.609550
163337.107752,-4737.318029,-5403.503377,0.000000
163337.108071,-888.247130,-4737.318029,2374.896044
163337.108390,5551.544565,-3256.906145,5898.935335
163337.108709,11621.233289,-1924.535449,9806.022374
163337.109028,10881.027347,-962.267725,7048.078582
163337.109348,5847.626942,-4737.318029,2681.334243
163337.109667,-4737.318029,-5995.668130,-4290.134789
163337.109986,-4885.359217,-12657.521608,-6894.859482
163337.110305,-5625.565159,-16654.633695,-7201.297681
163337.110624,-6661.853478,-18653.189738,-6588.421283
163337.110943,-9178.553681,-19023.292709,-2145.067394
163337.111262,-5107.421000,-16580.613101,-1378.971896
163337.111581,-2590.720797,-11103.089130,0.000000
163337.111900,-2442.679609,-5921.647536,1072.533697
163337.112219,-2368.659014,-1850.514855,0.000000
163337.112538,3330.926739,-2294.638420,3753.867940
163337.112857,8882.471304,-3034.844362,8044.002729
163337.113176,8290.306550,-2442.679609,6741.640382
163337.113495,4663.297435,-5329.482782,2834.553343
163337.113814,-1258.350101,-9474.636058,-2528.115143
163337.114133,-3775.050304,-12213.398043,-5975.544884
163337.114452,-3701.029710,-14434.015869,-7507.735880
163337.114771,-4293.194464,-16654.633695,-5745.716235
163337.115091,-5107.421000,-17912.983796,-3600.648841
163337.115410,-7105.977043,-14878.139434,0.000000
163337.115729,-3404.947333,-11917.315666,306.438199
163337.116048,-5921.647536,-4811.338623,612.876398
163337.116367,1258.350101,-3775.050304,4749.792088
163337.116686,5255.462188,-3552.988522,6818.249932
163337.117005,9400.615463,-1184.329507,8197.221829
163337.117324,9622.677246,-1850.514855,7354.516781
163337.117643,3701.029710,-3034.844362,1302.362347
163337.117962,-3478.967927,-6735.874072,-4290.134789
163337.118281,-5403.503377,-11621.233289,-7584.345430
163337.118600,-6809.894666,-14285.974681,-8580.269578
163337.118919,-4811.338623,-15988.448347,-8044.002729
163337.119238,-7105.977043,-17394.839637,-4290.134789
163337.119557,-4663.297435,-17394.839637,-153.219100
163337.119876,-666.185348,-12435.459826,-689.485948
163337.120195,-370.102971,-9474.636058,1762.019645
163337.120514,-1924.535449,-4219.173869,1072.533697
163337.120834,3627.009116,-3552.988522,4903.011187
163337.121153,9696.697840,-2886.803174,8273.831378
163337.121472,10658.965565,-2442.679609,8580.269578
163337.121791,6217.729913,-3182.885551,3294.210641
163337.122110,-74.020594,-6809.894666,-2528.115143
163337.122429,-3034.844362,-11843.295072,-5592.497135
163337.122748,-4071.132681,-12731.542202,-8656.879127
163337.123067,-3182.885551,-18357.107362,-4979.620737
163337.123386,-5773.606348,-17838.963202,-3217.601092
163337.123705,-4737.318029,-17320.819043,-1302.362347
163337.124024,-3108.864956,-13323.706956,536.266849
163337.124343,-2368.659014,-7179.997637,229.828649
163337.124662,-4145.153275,-3034.844362,0.000000
163337.124981,2294.638420,-3256.906145,4749.792088
163337.125300,9104.533087,-2886.803174,8273.831378
163337.125619,10955.047942,-962.267725,7354.516781
163337.125938,5107.421000,-1628.453072,2068.457845
163337.126258,-74.020594,-6217.729913,-4290.134789
163337.126577,-2442.679609,-12731.542202,-6205.373534
163337.126896,-5551.544565,-13471.748144,-8733.488677
163337.127215,-6957.935855,-16506.592507,-8044.002729
163337.127534,-4885.359217,-20133.601622,-2681.334243
163337.127853,-6513.812290,-16654.633695,-3064.381992
163337.128172,-2590.720797,-13915.871710,-153.219100
163337.128491,-2664.741391,-8068.244768,0.000000
163337.128810,-2294.638420,-4811.338623,1608.800546
163337.129129,3627.009116,-3552.988522,3447.429741
163337.129448,9178.553681,-2146.597232,7967.393179
163337.129767,12657.521608,-2368.659014,9116.536426
163337.130086,6439.791695,-2368.659014,4213.525239
163337.130405,0.000000,-4663.297435,-2528.115143
163337.130724,-666.185348,-12435.459826,-3447.429741
163337.131043,-4145.153275,-13693.809927,-6588.421283
163337.131362,-4589.276840,-16506.592507,-7124.688131
163337.131681,-6513.812290,-18431.127956,-4213.525239
163337.132001,-6365.771101,-17468.860231,-2451.505594
163337.132320,-4737.318029,-13693.809927,0.000000
163337.132639,-4737.318029,-8956.491898,-612.876398
163337.132958,-2442.679609,-7920.203579,3217.601092
163337.133277,-74.020594,-4441.235652,3600.648841
163337.133596,5921.647536,-1554.432478,6128.763984
163337.133915,12953.603985,-2368.659014,8503.660028
163337.134234,6513.812290,-1406.391290,4290.134789
163337.134553,222.061783,-5033.400406,-1378.971896
163337.134872,-2442.679609,-10288.862594,-5592.497135
163337.135191,-2664.741391,-14211.954086,-5822.325785
163337.135510,-5847.626942,-16950.716072,-5822.325785
163337.135829,-9474.636058,-16802.674883,-7354.516781
163337.136148,-6513.812290,-19319.375086,-2145.067394
163337.136467,-3034.844362,-15174.221811,-76.609550
163337.136786,-4145.153275,-7772.162391,-2451.505594
163337.137105,-1258.350101,-6809.894666,536.266849
163337.137424,2960.823768,-1850.514855,3370.820191
163337.137744,9474.636058,-2812.782580,8503.660028
163337.138063,11769.274478,-666.185348,9422.974625
163337.138382,10066.800811,-3182.885551,6741.640382
163337.138701,740.205942,-3627.009116,0.000000
163337.139020,-3552.988522,-8364.327145,-4290.134789
163337.139339,-1924.535449,-13619.789333,-5822.325785
163337.139658,-2738.761985,-17468.860231,-4979.620737
163337.139977,-8882.471304,-14434.015869,-6128.763984
163337.140296,-5403.503377,-17468.860231,-2757.943793
163337.140615,-4441.235652,-15174.221811,-2068.457845
163337.140934,-3404.947333,-10288.862594,-689.485948
163337.141253,-4959.379811,-7031.956449,76.609550
163337.141572,-444.123565,-4737.318029,2374.896044
163337.141891,5921.647536,-1702.473667,5515.887586
163337.142210,10658.965565,-666.185348,5209.449386
163337.142529,7698.141797,-1258.350101,5515.887586
163337.142848,3478.967927,-4737.318029,1149.143247
163337.143167,-2368.659014,-8364.327145,-3677.258390
163337.143487,-2220.617826,-13249.686362,-6818.249932
163337.143806,-4737.318029,-16580.613101,-7584.345430
163337.144125,-7179.997637,-18727.210333,-6435.202183
163337.144444,-8660.409521,-18135.045579,-4596.572988
163337.144763,-4811.338623,-14804.118840,-3600.648841
163337.145082,-3552.988522,-10658.965565,-689.485948
163337.145401,-4219.173869,-5033.400406,-536.266849
163337.145720,0.000000,-5107.421000,2604.724693
163337.146039,8216.285956,-7105.977043,8503.660028
163337.146358,11843.295072,-1554.432478,9806.022374
163337.146677,9474.636058,-1554.432478,6818.249932
163337.146996,2590.720797,-2960.823768,1532.190996
163337.147315,-666.185348,-7254.018232,-3370.820191
163337.147634,-4737.318029,-10732.986159,-6128.763984
163337.147953,-5551.544565,-14211.954086,-6818.249932
163337.148272,-8290.306550,-16654.633695,-6435.202183
163337.148591,-8290.306550,-18135.045579,-4290.134789
163337.148910,-8882.471304,-15470.304188,-3370.820191
163337.149230,-3034.844362,-11843.295072,-1302.362347
163337.149549,-5773.606348,-6735.874072,0.000000
163337.149868,-2146.597232,-4959.379811,2145.067394
163337.150187,5329.482782,-3256.906145,5209.449386
163337.150506,10140.821405,-1924.535449,8503.660028
163337.150825,7402.059420,74.020594,6588.421283
163337.151144,4663.297435,-2960.823768,1762.019645
163337.151463,0.000000,-6587.832884,-2757.943793
163337.151782,-3552.988522,-9548.656652,-6128.763984
163337.152101,-3256.906145,-16062.468941,-6128.763984
163337.152420,-5403.503377,-17764.942608,-6818.249932
163337.152739,-6957.935855,-19541.436869,-3983.696590
163337.153058,-5995.668130,-17616.901420,-2528.115143
163337.153377,-4441.235652,-12805.562797,-1915.238745
163337.153696,-2442.679609,-9474.636058,2374.896044
163337.154015,-296.082377,-5625.565159,3447.429741
163337.154334,7624.121203,0.000000,6971.469032
163337.154653,12361.439231,0.000000,8350.440928
163337.154973,9474.636058,1110.308913,8273.831378
163337.155292,4737.318029,-1258.350101,3677.258390
163337.155611,-74.020594,-5329.482782,-1915.238745
163337.155930,-1554.432478,-10362.883188,-4290.134789
163337.156249,-3034.844362,-14285.974681,-5898.935335
163337.156568,-6513.812290,-17987.004391,-5822.325785
163337.156887,-5403.503377,-18949.272115,-2528.115143
163337.157206,-6661.853478,-17172.777854,-1915.238745
163337.157525,-3627.009116,-14211.954086,-2528.115143
163337.157844,-6513.812290,-7179.997637,-3064.381992
163337.158163,-2368.659014,-5773.606348,0.000000
163337.158482,2664.741391,-1554.432478,1225.752797
163337.158801,11029.068536,-888.247130,7201.297681
163337.159120,11103.089130,0.000000,6894.859482
163337.159439,7105.977043,-1998.556043,3447.429741
163337.159758,2960.823768,-5625.565159,-76.609550
163337.160077,592.164754,-10732.986159,-3753.867940
163337.160397,-4441.235652,-13693.809927,-6435.202183
163337.160716,-6217.729913,-18431.127956,-6052.154434
163337.161035,-6883.915261,-21243.910535,-2757.943793
163337.161354,-6735.874072,-17987.004391,-4903.011187
163337.161673,-4811.338623,-14804.118840,-2528.115143
163337.161992,-4959.379811,-8068.244768,-1685.410096
163337.162311,-2960.823768,-5699.585753,995.924147
163337.162630,4811.338623,-592.164754,4290.134789
163337.162949,13545.768739,-3256.906145,10955.165621
163337.163268,10732.986159,592.164754,8503.660028
163337.163587,6439.791695,-1776.494261,3907.087040
163337.163906,3478.967927,-5921.647536,-76.609550
163337.164225,-2294.638420,-9548.656652,-4290.134789
163337.164544,-1258.350101,-14211.954086,-5286.058936
163337.164863,-5773.606348,-17246.798449,-5056.230287
163337.165182,-7550.100608,-18135.045579,-3524.039291
163337.165501,-7550.100608,-17764.942608,-3677.258390
163337.165820,-7105.977043,-13841.851115,-3753.867940
163337.166140,-9474.636058,-8956.491898,-1838.629195
163337.166459,-5033.400406,-6069.688724,-842.705048
163337.166778,1184.329507,-4515.256246,2604.724693
163337.167097,7994.224174,-1258.350101,6052.154434
163337.167416,8586.388927,-74.020594,5209.449386
163337.167735,7031.956449,-1776.494261,4213.525239
163337.168054,4663.297435,-4589.276840,842.705048
163337.168373,1480.411884,-8956.491898,-2145.067394
163337.168692,-2368.659014,-12213.398043,-4903.011187
163337.169011,-3627.009116,-17764.942608,-2528.115143
163337.169330,-7105.977043,-19911.539840,-2911.162892
163337.169649,-6809.894666,-19097.313304,-3294.210641
163337.169968,-6809.894666,-14434.015869,-3753.867940
163337.170287,-6957.935855,-9400.615463,-2528.115143
163337.170606,-3701.029710,-4811.338623,-766.095498
163337.170925,1776.494261,-5255.462188,3217.601092
163337.171244,9104.533087,-1036.288319,7277.907231
163337.171563,11769.274478,0.000000,6052.154434
163337.171883,5921.647536,-666.185348,3983.696590
163337.172202,4071.132681,-4737.318029,-76.609550
163337.172521,1036.288319,-10140.821405,-2068.457845
163337.172840,-2294.638420,-13323.706956,-4290.134789
163337.173159,-6291.750507,-16136.489536,-5439.278036
163337.173478,-8438.347739,-19319.375086,-4366.744339
163337.173797,-6291.750507,-18949.272115,-2604.724693
163337.174116,-5625.565159,-15544.324782,-2604.724693
163337.174435,-4811.338623,-11843.295072,-3753.867940
163337.174754,-5995.668130,-6661.853478,-2911.162892
163337.175073,296.082377,-3627.009116,2451.505594
163337.175392,6513.812290,-1554.432478,3753.867940
163337.175711,10288.862594,-74.020594,7201.297681
163337.176030,9252.574275,-1036.288319,5132.839837
163337.176349,6365.771101,-4219.173869,3140.991542
163337.176668,5847.626942,-7105.977043,-76.609550
163337.176987,3478.967927,-11843.295072,-1532.190996
163337.177306,-1850.514855,-17764.942608,-2681.334243
163337.177626,-5995.668130,-18949.272115,-3447.429741
163337.177945,-5403.503377,-20429.683999,-1302.362347
163337.178264,-5699.585753,-15766.386565,-1608.800546
163337.178583,-8290.306550,-8512.368333,-3983.696590
163337.178902,-6661.853478,-7624.121203,-1608.800546
163337.179221,1184.329507,-2738.761985,842.705048
163337.179540,8290.306550,-2294.638420,5592.497135
163337.179859,9400.615463,296.082377,6665.030833
163337.180178,6809.894666,-1554.432478,4903.011187
163337.180497,5699.585753,-5625.565159,2987.772442
163337.180816,2294.638420,-9474.636058,-76.609550
163337.181135,518.144159,-12139.377449,-3294.210641
163337.181454,-2442.679609,-17764.942608,-1915.238745
163337.181773,-7105.977043,-17246.798449,-3524.039291
163337.182092,-6513.812290,-18061.024985,-3370.820191
163337.182411,-6513.812290,-15914.427753,-3600.648841
163337.182730,-6809.894666,-10732.986159,-4290.134789
163337.183049,-6957.935855,-8364.327145,-2145.067394
163337.183369,-74.020594,-6439.791695,1149.143247
163337.183688,8142.265362,-5699.585753,6665.030833
163337.184007,9400.615463,-1036.288319,6052.154434
163337.184326,8216.285956,-74.020594,4136.915689
163337.184645,8216.285956,-4737.318029,3600.648841
163337.184964,3923.091493,-6661.853478,1455.581446
163337.185283,2368.659014,-10436.903782,-1378.971896
163337.185602,-3330.926739,-14730.098246,-3294.210641
163337.185921,-6513.812290,-19023.292709,-1378.971896
163337.186240,-7698.141797,-19023.292709,-2451.505594
163337.186559,-7698.141797,-14878.139434,-3064.381992
163337.186878,-5995.668130,-11843.295072,-4060.306139
163337.187197,-5995.668130,-8882.471304,-1608.800546
163337.187517,-3108.864956,-2738.761985,0.000000
163337.187836,7031.956449,-3552.988522,4519.963438
163337.188155,9770.718434,-1184.329507,7277.907231
163337.188474,7031.956449,-1554.432478,4749.792088
163337.188793,4441.235652,-3849.070898,3370.820191
163337.189112,4145.153275,-8364.327145,2145.067394
163337.189431,-1776.494261,-9548.656652,-3064.381992
163337.189750,-4145.153275,-14285.974681,-4290.134789
163337.190069,-6587.832884,-17838.963202,-4903.011187
163337.190388,-6069.688724,-20873.807564,-2528.115143
163337.190707,-9474.636058,-14285.974681,-6128.763984
163337.191026,-6883.915261,-12435.459826,-4979.620737
163337.191346,-6143.709319,-9104.533087,-3983.696590
163337.191665,-444.123565,-7179.997637,153.219100
163337.191984,5477.523971,-1998.556043,3600.648841
163337.192303,11843.295072,-592.164754,6971.469032
163337.192622,9474.636058,-962.267725,7354.516781
163337.192941,7920.203579,-2664.741391,6435.202183
163337.193260,8216.285956,-7105.977043,2374.896044
163337.193579,2886.803174,-9474.636058,-383.047749
163337.193898,-3404.947333,-14285.974681,-1838.629195
163337.194217,-6291.750507,-18061.024985,-4213.525239
163337.194536,-7698.141797,-20207.622217,-3370.820191
163337.194856,-8216.285956,-16580.613101,-3677.258390
163337.195175,-8956.491898,-10732.986159,-7660.954980
163337.195494,-8438.347739,-8512.368333,-5592.497135
163337.195813,-4071.132681,-3627.009116,-3064.381992
163337.196132,3552.988522,-3034.844362,4903.011187
163337.196451,9992.780217,-1776.494261,6665.030833
163337.196770,10584.944971,-2368.659014,7277.907231
163337.197089,5033.400406,-2442.679609,4903.011187
163337.197408,3923.091493,-6439.791695,1762.019645
163337.197727,2072.576638,-9622.677246,-1685.410096
163337.198046,-2590.720797,-14656.077652,-4290.134789
163337.198365,-8586.388927,-16062.468941,-6435.202183
163337.198685,-8438.347739,-19837.519246,-4979.620737
163337.199004,-9474.636058,-15766.386565,-5515.887586
163337.199323,-7994.224174,-13397.727550,-4596.572988
163337.199642,-5625.565159,-9548.656652,-2145.067394
163337.199961,-1184.329507,-7772.162391,2145.067394
163337.200280,5181.441594,-3552.988522,5515.887586
163337.200599,10658.965565,1332.370696,7431.126331
163337.200918,11769.274478,0.000000,7890.783629
163337.201237,5477.523971,-74.020594,3677.258390
163337.201556,5625.565159,-5995.668130,2757.943793
163337.201875,2664.741391,-10584.944971,-612.876398
163337.202195,-2812.782580,-15396.283594,-4136.915689
163337.202514,-4811.338623,-20133.601622,-4979.620737
163337.202833,-7179.997637,-22354.219448,-3140.991542
163337.203152,-9474.636058,-16654.633695,-4903.011187
163337.203471,-7328.038826,-12879.583391,-4749.792088
163337.203790,-6735.874072,-8364.327145,-3600.648841
163337.204109,-1406.391290,-5107.421000,-383.047749
163337.204428,4663.297435,-1776.494261,2451.505594
163337.204747,10510.924376,-1110.308913,7124.688131
163337.205066,9622.677246,74.020594,5898.935335
163337.205385,5847.626942,-3108.864956,4060.306139
163337.205704,3627.009116,-6883.915261,1455.581446
163337.206024,2590.720797,-11843.295072,-76.609550
163337.206343,-370.102971,-15988.448347,-2528.115143
163337.206662,-4811.338623,-18061.024985,-5592.497135
163337.206981,-7920.203579,-19023.292709,-4903.011187
163337.207300,-6439.791695,-17838.963202,-4290.134789
163337.207619,-8216.285956,-10732.986159,-6128.763984
163337.207938,-5995.668130,-9326.594869,-3677.258390
163337.208257,-1628.453072,-6365.771101,-76.609550
163337.208576,4737.318029,-4441.235652,4826.401637
163337.208895,12361.439231,592.164754,6665.030833
163337.209214,11177.109724,-518.144159,6971.469032
163337.209534,7402.059420,-1998.556043,7584.345430
163337.209853,5551.544565,-5477.523971,2834.553343
163337.210172,4663.297435,-11547.212695,-689.485948
163337.210491,-3552.988522,-13693.809927,-3217.601092
163337.210810,-8290.306550,-17246.798449,-6588.421283
163337.211129,-8660.409521,-21169.889941,-3753.867940
163337.211448,-8882.471304,-17172.777854,-4366.744339
163337.211767,-8290.306550,-13693.809927,-4979.620737
163337.212086,-8660.409521,-8364.327145,-5822.325785
163337.212405,-3627.009116,-5551.544565,-1072.533697
163337.212724,2664.741391,-3997.112087,2451.505594
163337.213043,10584.944971,-2960.823768,7277.907231
163337.213363,9400.615463,148.041188,5745.716235
163337.213682,7624.121203,-3997.112087,7277.907231
163337.214001,4145.153275,-5403.503377,2145.067394
163337.214320,2886.803174,-10436.903782,-842.705048
163337.214639,-1554.432478,-13915.871710,-2987.772442
163337.214958,-5995.668130,-16802.674883,-4596.572988
163337.215277,-8882.471304,-19023.292709,-3677.258390
163337.215596,-6513.812290,-16062.468941,-5515.887586
163337.215915,-7105.977043,-13693.809927,-3677.258390
163337.216234,-5995.668130,-10066.800811,-3140.991542
163337.216553,-3182.885551,-5773.606348,-1915.238745
163337.216872,7031.956449,-7105.977043,4826.401637
163337.217192,7179.997637,-3701.029710,6358.592633
163337.217511,8364.327145,148.041188,7354.516781
163337.217830,7105.977043,-2368.659014,5209.449386
163337.218149,4737.318029,-4811.338623,3677.258390
163337.218468,592.164754,-8364.327145,-995.924147
163337.218787,-4145.153275,-13101.645173,-3677.258390
163337.219106,-6365.771101,-17764.942608,-4519.963438
163337.219425,-6587.832884,-21614.013506,-2528.115143
163337.219744,-9548.656652,-17246.798449,-6435.202183
163337.220063,-7772.162391,-14211.954086,-5592.497135
163337.220382,-8216.285956,-9844.739029,-4366.744339
163337.220702,-3627.009116,-6291.750507,-1762.019645
163337.221021,3923.091493,-4737.318029,3983.696590
163337.221340,9474.636058,-1184.329507,5822.325785
163337.221659,8586.388927,-74.020594,6205.373534
163337.221978,7105.977043,-2294.638420,4903.011187
163337.222297,5847.626942,-8882.471304,4213.525239
163337.222616,3478.967927,-9918.759623,-995.924147
163337.222935,-2960.823768,-11917.315666,-4903.011187
163337.223254,-4811.338623,-17024.736666,-3753.867940
163337.223573,-6883.915261,-18727.210333,-3064.381992
163337.223892,-5477.523971,-17024.736666,-2834.553343
163337.224211,-5847.626942,-11843.295072,-4060.306139
163337.224531,-5551.544565,-7402.059420,-3753.867940
163337.224850,-4219.173869,-6291.750507,-1685.410096
163337.225169,2590.720797,-3849.070898,1225.752797
163337.225488,7105.977043,-4811.338623,7354.516781
163337.225807,10584.944971,-4663.297435,7660.954980
163337.226126,4737.318029,-1850.514855,3677.258390
163337.226445,3775.050304,-4737.318029,1762.019645
163337.226764,1998.556043,-8068.244768,-1149.143247
163337.227083,-888.247130,-12657.521608,-3370.820191
163337.227402,-5995.668130,-15396.283594,-5592.497135
163337.227721,-7179.997637,-19985.560434,-3140.991542
163337.228041,-5995.668130,-18653.189738,-4979.620737
163337.228360,-7179.997637,-13989.892304,-4903.011187
163337.228679,-7994.224174,-8364.327145,-5592.497135
163337.228998,-2442.679609,-8882.471304,-76.609550
163337.229317,2368.659014,-4219.173869,1838.629195
163337.229636,8512.368333,-2368.659014,6435.202183
163337.229955,9474.636058,-814.226536,6281.983084
163337.230274,6587.832884,-1628.453072,4596.572988
163337.230593,4441.235652,-3923.091493,2374.896044
163337.230912,5255.462188,-9474.636058,-76.609550
163337.231231,-74.020594,-11843.295072,-2528.115143
163337.231550,-4737.318029,-14804.118840,-4060.306139
163337.231870,-7994.224174,-16654.633695,-3217.601092
163337.232189,-3034.844362,-18357.107362,-76.609550
163337.232508,-6217.729913,-12139.377449,-3064.381992
163337.232827,-7550.100608,-9474.636058,-4060.306139
163337.233146,-6217.729913,-7550.100608,-2834.553343
163337.233465,740.205942,-5699.585753,2911.162892
163337.233784,7031.956449,-3627.009116,6741.640382
163337.234103,8216.285956,-2368.659014,6971.469032
163337.234422,6735.874072,-4737.318029,6052.154434
163337.234741,3182.885551,-2738.761985,383.047749
163337.235060,1184.329507,-5995.668130,-3064.381992
163337.235380,1702.473667,-11843.295072,-3140.991542
163337.235699,-4885.359217,-16136.489536,-4213.525239
163337.236018,-7476.080014,-18579.169144,-3294.210641
163337.236337,-7772.162391,-18801.230927,-3907.087040
163337.236656,-6365.771101,-16580.613101,-1608.800546
163337.236975,-7550.100608,-11029.068536,-5362.668486
163337.237294,-5181.441594,-9548.656652,-612.876398
163337.237613,3478.967927,-5921.647536,1762.019645
163337.237932,8882.471304,-2738.761985,5209.449386
163337.238251,7105.977043,-74.020594,6128.763984
163337.238570,7624.121203,-2368.659014,5132.839837
163337.238889,4737.318029,-4367.215058,2528.115143
163337.239209,3182.885551,-7179.997637,0.000000
163337.239528,1258.350101,-10955.047942,-1455.581446
163337.239847,-1258.350101,-16580.613101,-1302.362347
163337.240166,-6513.812290,-16654.633695,0.000000
163337.240485,-4811.338623,-17468.860231,-229.828649
163337.240804,-5699.585753,-13027.624579,-1685.410096
163337.241123,-5995.668130,-10658.965565,-3677.258390
163337.241442,-7179.997637,-5033.400406,-5286.058936
163337.241761,-222.061783,-7105.977043,1225.752797
163337.242080,5551.544565,-4441.235652,4903.011187
163337.242399,8068.244768,-2590.720797,5822.325785
163337.242718,7031.956449,-4737.318029,4826.401637
163337.243038,3775.050304,-3701.029710,1455.581446
163337.243357,1332.370696,-6735.874072,-1838.629195
163337.243676,-518.144159,-11029.068536,-4290.134789
163337.243995,-1406.391290,-16580.613101,-2221.676944
163337.244314,-4811.338623,-18505.148550,-5592.497135
163337.244633,-4811.338623,-20133.601622,-1608.800546
163337.244952,-5699.585753,-14508.036463,-3370.820191
163337.245271,-6661.853478,-10066.800811,-3370.820191
163337.245590,-3478.967927,-7105.977043,-2068.457845
163337.245909,3552.988522,-7920.203579,4826.401637
163337.246228,9030.512492,-2146.597232,6511.811733
163337.246548,11177.109724,-2146.597232,7584.345430
163337.246867,7031.956449,-2442.679609,4903.011187
163337.247186,2072.576638,-4811.338623,0.000000
163337.247505,0.000000,-6291.750507,-3677.258390
163337.247824,-3627.009116,-10732.986159,-5592.497135
163337.248143,-7105.977043,-14878.139434,-4903.011187
163337.248462,-7105.977043,-19023.292709,-4749.792088
163337.248781,-5847.626942,-17320.819043,-1302.362347
163337.249100,-3034.844362,-14211.954086,-76.609550
163337.249419,-5921.647536,-8068.244768,-2528.115143
163337.249738,-4663.297435,-5921.647536,-1991.848295
163337.250057,1554.432478,-4959.379811,2068.457845
163337.250377,7105.977043,-3775.050304,5515.887586
163337.250696,9030.512492,-3478.967927,6511.811733
163337.251015,3404.947333,-3034.844362,2528.115143
163337.251334,296.082377,-5995.668130,0.000000
163337.251653,592.164754,-9992.780217,-2374.896044
163337.251972,-1850.514855,-11251.130318,-7124.688131
163337.252291,-3627.009116,-17320.819043,-6205.373534
163337.252610,-7031.956449,-19097.313304,-4213.525239
163337.252929,-6143.709319,-18135.045579,-2221.676944
163337.253248,-3997.112087,-13767.830521,-2298.286494
163337.253567,-3923.091493,-9474.636058,-76.609550
163337.253887,-1998.556043,-5477.523971,-306.438199
163337.254206,1776.494261,-4737.318029,2987.772442
163337.254525,7698.141797,-666.185348,7967.393179
163337.254844,11991.336260,-2442.679609,9193.145976
163337.255163,3923.091493,-518.144159,1225.752797
163337.255482,814.226536,-6439.791695,76.609550
163337.255801,-1776.494261,-9548.656652,-4366.744339
163337.256120,-3923.091493,-12731.542202,-5362.668486
163337.256439,-5107.421000,-16284.530724,-4979.620737
163337.256758,-5107.421000,-18949.272115,-1302.362347
163337.257077,-4737.318029,-17838.963202,612.876398
163337.257396,-2738.761985,-13619.789333,-383.047749
163337.257716,-4811.338623,-7105.977043,-1915.238745
163337.258035,-3404.947333,-5699.585753,612.876398
163337.258354,0.000000,-3627.009116,2451.505594
163337.258673,7624.121203,-4515.256246,6741.640382
163337.258992,8956.491898,-3034.844362,6511.811733
163337.259311,4737.318029,-3552.988522,3370.820191
163337.259630,1110.308913,-6513.812290,-1302.362347
163337.259949,-74.020594,-8956.491898,-4290.134789
163337.260268,-666.185348,-13915.871710,-5669.106685
163337.260587,-4219.173869,-15618.345376,-6358.592633
163337.260906,-7105.977043,-17246.798449,-4903.011187
163337.261226,-2442.679609,-20651.745782,-76.609550
163337.261545,-4145.153275,-13841.851115,0.000000
163337.261864,-3404.947333,-9844.739029,-1149.143247
163337.262183,-2368.659014,-5773.606348,612.876398
163337.262502,3182.885551,-4589.276840,4826.401637
163337.262821,9992.780217,-3108.864956,8656.879127
163337.263140,11695.253884,-1184.329507,9346.365076
163337.263459,6439.791695,-2220.617826,5439.278036
163337.263778,-74.020594,-5921.647536,-1915.238745
163337.264097,-4515.256246,-8512.368333,-6128.763984
163337.264416,-3034.844362,-15396.283594,-4979.620737
163337.264735,-6513.812290,-16358.551318,-6358.592633
163337.265055,-7476.080014,-18061.024985,-4903.011187
163337.265374,-5773.606348,-17912.983796,-1608.800546
163337.265693,-3552.988522,-12213.398043,612.876398
163337.266012,-2960.823768,-5995.668130,0.000000
163337.266331,-2146.597232,-4515.256246,0.000000
163337.266650,4071.132681,-5921.647536,4826.401637
163337.266969,7624.121203,-3552.988522,6205.373534
163337.267288,8438.347739,-814.226536,4903.011187
163337.267607,7031.956449,-4737.318029,3600.648841
163337.267926,518.144159,-5995.668130,-1608.800546
163337.268245,-1702.473667,-9770.718434,-5209.449386
163337.268565,-2516.700203,-13101.645173,-6281.983084
163337.268884,-4441.235652,-16358.551318,-5515.887586
163337.269203,-6513.812290,-17838.963202,-5975.544884
163337.269522,-6513.812290,-17246.798449,-2298.286494
163337.269841,-2442.679609,-14211.954086,612.876398
163337.270160,-2590.720797,-11251.130318,-76.609550
163337.270479,-4145.153275,-1258.350101,0.000000
163337.270798,3775.050304,-3849.070898,5592.497135
163337.271117,9178.553681,-1998.556043,8656.879127
163337.271436,11103.089130,-2072.576638,8120.612279
163337.271755,6661.853478,-2812.782580,4213.525239
163337.272074,0.000000,-5995.668130,-1072.533697
163337.272394,-6365.771101,-8512.368333,-7048.078582
163337.272713,-5921.647536,-14582.057057,-7354.516781
163337.273032,-8882.471304,-15470.304188,-7354.516781
163337.273351,-7254.018232,-19097.313304,-3140.991542
163337.273670,-7105.977043,-14878.139434,0.000000
163337.273989,-2738.761985,-11547.212695,306.438199
163337.274308,-2294.638420,-6735.874072,995.924147
163337.274627,-1924.535449,-4145.153275,919.314598
163337.274946,1110.308913,-2442.679609,2528.115143
163337.275265,7031.956449,-3552.988522,6665.030833
163337.275584,7698.141797,-2590.720797,6128.763984
163337.275903,3552.988522,-3627.009116,3677.258390
163337.276223,1702.473667,-9178.553681,-1302.362347
163337.276542,-370.102971,-13027.624579,-3753.867940
163337.276861,-3256.906145,-13397.727550,-7048.078582
163337.277180,-3849.070898,-15692.365970,-6818.249932
163337.277499,-5403.503377,-18209.066173,-4673.182538
163337.277818,-3552.988522,-18135.045579,-1608.800546
163337.278137,-3552.988522,-11917.315666,0.000000
163337.278456,-2294.638420,-8808.450710,2374.896044
163337.278775,-2442.679609,-814.226536,0.000000
163337.279094,2960.823768,-3775.050304,5745.716235
163337.279413,8808.450710,-3552.988522,10878.556072
163337.279733,11473.192101,-2368.659014,7277.907231
163337.280052,5625.565159,-3108.864956,4136.915689
163337.280371,-1776.494261,-6883.915261,-2681.334243
163337.280690,-4737.318029,-10288.862594,-6818.249932
163337.281009,-5625.565159,-13841.851115,-8044.002729
163337.281328,-7105.977043,-14285.974681,-7967.393179
163337.281647,-6587.832884,-16876.695478,-7431.126331
163337.281966,-7105.977043,-16062.468941,-2451.505594
163337.282285,-1480.411884,-13101.645173,1302.362347
163337.282604,-74.020594,-7328.038826,2374.896044
163337.282923,2294.638420,-4737.318029,2374.896044
163337.283242,2146.597232,-3034.844362,3907.087040
163337.283562,7772.162391,-3552.988522,7048.078582
163337.283881,11769.274478,-3997.112087,7737.564530
163337.284200,7698.141797,-5255.462188,6741.640382
163337.284519,1850.514855,-7550.100608,-1302.362347
163337.284838,-2738.761985,-9844.739029,-6358.592633
163337.285157,-3627.009116,-12731.542202,-7431.126331
163337.285476,-5921.647536,-14285.974681,-8273.831378
163337.285795,-3923.091493,-18801.230927,-4979.620737
163337.286114,-3849.070898,-18357.107362,-689.485948
163337.286433,-2294.638420,-14582.057057,1302.362347
163337.286752,-2072.576638,-8364.327145,1378.971896
163337.287071,-1924.535449,-4367.215058,2145.067394
163337.287391,0.000000,-2442.679609,4903.011187
163337.287710,8216.285956,-3256.906145,7737.564530
163337.288029,11177.109724,-2368.659014,9193.145976
163337.288348,6069.688724,-2516.700203,4596.572988
163337.288667,-1258.350101,-4811.338623,-3907.087040
163337.288986,-5995.668130,-9474.636058,-9193.145976
163337.289305,-6809.894666,-13989.892304,-8273.831378
163337.289624,-5995.668130,-16284.530724,-9576.193725
163337.289943,-8734.430116,-17838.963202,-6665.030833
163337.290262,-8068.244768,-15692.365970,-4366.744339
163337.290581,-2442.679609,-15100.201217,-76.609550
163337.290900,-814.226536,-8882.471304,2451.505594
163337.291219,-444.123565,-4441.235652,3907.087040
163337.291538,2072.576638,-2590.720797,4213.525239
163337.291857,7105.977043,-3627.009116,7354.516781
163337.292176,11843.295072,-3775.050304,8350.440928
163337.292495,6217.729913,-2738.761985,4903.011187
163337.292815,1628.453072,-6883.915261,0.000000
163337.293134,-2146.597232,-10362.883188,-4979.620737
163337.293453,-5921.647536,-11325.150913,-10725.336972
163337.293772,-3034.844362,-16580.613101,-8044.002729
163337.294091,-6957.935855,-17542.880825,-7124.688131
163337.294410,-5477.523971,-18283.086767,-2604.724693
163337.294729,-2960.823768,-14804.118840,612.876398
163337.295048,-1184.329507,-9178.553681,3600.648841
163337.295367,-74.020594,-5625.565159,3907.087040
163337.295686,296.082377,-2072.576638,3294.210641
163337.296005,5921.647536,-1850.514855,7354.516781
163337.296324,12879.583391,-2368.659014,9729.412825
163337.296643,5921.647536,-74.020594,3677.258390
163337.296962,518.144159,-5329.482782,-1608.800546
163337.297281,-5255.462188,-10732.986159,-7048.078582
163337.297600,-6661.853478,-13915.871710,-9806.022374
163337.297919,-7476.080014,-15840.407159,-10648.727422
163337.298239,-7179.997637,-18949.272115,-8656.879127
163337.298558,-7105.977043,-18949.272115,-3753.867940
163337.298877,-4737.318029,-13397.727550,0.000000
163337.299196,-1184.329507,-8068.244768,2757.943793
163337.299515,1702.473667,-4145.153275,5898.935335
163337.299834,2368.659014,-666.185348,6128.763984
163337.300153,9696.697840,-1702.473667,9576.193725
163337.300472,13027.624579,-2516.700203,10112.460574
163337.300791,9030.512492,-3552.988522,6128.763984
163337.301110,74.020594,-5995.668130,-2528.115143
163337.301429,-3034.844362,-11843.295072,-6818.249932
163337.301748,-5995.668130,-13471.748144,-10495.508323
163337.302067,-7105.977043,-15470.304188,-9806.022374
163337.302386,-9474.636058,-15470.304188,-9193.145976
163337.302705,-3923.091493,-21317.931130,-1302.362347
163337.303024,-2368.659014,-13693.809927,766.095498
163337.303343,-1332.370696,-9400.615463,2681.334243
163337.303663,-1776.494261,-4071.132681,3600.648841
163337.303982,888.247130,-2220.617826,5132.839837
163337.304301,7031.956449,-962.267725,8580.269578
163337.304620,12953.603985,-2960.823768,9729.412825
163337.304939,7772.162391,-2442.679609,5898.935335
163337.305258,-2960.823768,-3627.009116,-3677.258390
163337.305577,-7105.977043,-10732.986159,-7967.393179
163337.305896,-6587.832884,-15396.283594,-10495.508323
163337.306215,-9104.533087,-17838.963202,-11491.432470
163337.306534,-8808.450710,-19097.313304,-9193.145976
163337.306853,-7476.080014,-18431.127956,-4673.182538
163337.307172,-1332.370696,-15174.221811,2451.505594
163337.307491,1480.411884,-7920.203579,5362.668486
163337.307810,2294.638420,-2960.823768,6281.983084
163337.308129,5847.626942,0.000000,7277.907231
163337.308448,8216.285956,-1258.350101,8044.002729
163337.308767,9474.636058,-370.102971,7967.393179
163337.309087,9400.615463,-4145.153275,5439.278036
163337.309406,1480.411884,-6513.812290,-612.876398
163337.309725,-5921.647536,-10881.027347,-7124.688131
163337.310044,-6809.894666,-13397.727550,-9882.631924
163337.310363,-5255.462188,-18135.045579,-8656.879127
163337.310682,-6365.771101,-16950.716072,-9806.022374
163337.311001,-4293.194464,-19541.436869,-2528.115143
163337.311320,-1554.432478,-15396.283594,1455.581446
163337.311639,0.000000,-7550.100608,2374.896044
163337.311958,-3552.988522,-3034.844362,4903.011187
163337.312277,1406.391290,-2072.576638,4826.401637
163337.312596,6957.935855,-1998.556043,7890.783629
163337.312915,11843.295072,-2886.803174,9422.974625
163337.313234,9474.636058,-3108.864956,6435.202183
163337.313553,3182.885551,-7624.121203,229.828649
163337.313872,-5921.647536,-10732.986159,-7201.297681
163337.314191,-6587.832884,-15100.201217,-10648.727422
163337.314511,-6291.750507,-18949.272115,-9882.631924
163337.314830,-6735.874072,-18357.107362,-8656.879127
163337.315149,-7698.141797,-17838.963202,-3677.258390
163337.315468,-1850.514855,-15544.324782,536.266849
163337.315787,1258.350101,-9548.656652,4213.525239
163337.316106,1998.556043,-3627.009116,5745.716235
163337.316425,1406.391290,-74.020594,4903.011187
163337.316744,5921.647536,-666.185348,8273.831378
163337.317063,11251.130318,-1850.514855,9806.022374
163337.317382,9474.636058,-2442.679609,7354.516781
163337.317701,3478.967927,-6513.812290,-76.609550
163337.318020,-3034.844362,-11843.295072,-6205.373534
163337.318339,-7105.977043,-13101.645173,-9806.022374
163337.318658,-7031.956449,-16210.510130,-10112.460574
163337.318977,-6513.812290,-16876.695478,-8886.707777
163337.319296,-5403.503377,-18653.189738,-4290.134789
163337.319615,-4737.318029,-14285.974681,0.000000
163337.319935,-1184.329507,-9622.677246,1532.190996
163337.320254,-3256.906145,-3627.009116,2451.505594
163337.320573,296.082377,-4515.256246,5669.106685
163337.320892,5847.626942,-2368.659014,8503.660028
163337.321211,11769.274478,-2368.659014,9729.412825
163337.321530,10214.842000,-1776.494261,7507.735880
163337.321849,4293.194464,-3997.112087,842.705048
163337.322168,-2960.823768,-8660.409521,-6052.154434
163337.322487,-7105.977043,-12953.603985,-9269.755526
163337.322806,-9474.636058,-14582.057057,-12257.527968
163337.323125,-8364.327145,-16802.674883,-11721.261119
163337.323444,-8290.306550,-19023.292709,-5822.325785
163337.323763,-4219.173869,-18061.024985,-76.609550
163337.324082,-74.020594,-11843.295072,3600.648841
163337.324401,-74.020594,-7994.224174,6052.154434
163337.324720,1998.556043,518.144159,5209.449386
163337.325039,6883.915261,-2072.576638,8580.269578
163337.325358,10362.883188,-1036.288319,11261.603821
163337.325678,9770.718434,-1258.350101,7967.393179
163337.325997,4959.379811,-3701.029710,2298.286494
163337.326316,-2442.679609,-8290.306550,-4673.182538
163337.326635,-6587.832884,-11251.130318,-9882.631924
163337.326954,-8882.471304,-14434.015869,-10725.336972
163337.327273,-5403.503377,-18949.272115,-7431.126331
163337.327592,-7105.977043,-18283.086767,-6588.421283
163337.327911,-5107.421000,-17468.860231,-1838.629195
163337.328230,-2368.659014,-12435.459826,306.438199
163337.328549,-3034.844362,-7402.059420,2451.505594
163337.328868,-3404.947333,-1850.514855,0.000000
163337.329187,4737.318029,-2812.782580,6971.469032
163337.329506,11843.295072,-1850.514855,10648.727422
163337.329825,13915.871710,-370.102971,9729.412825
163337.330144,7476.080014,-1628.453072,4213.525239
163337.330463,-74.020594,-7105.977043,-1302.362347
163337.330782,-3478.967927,-13323.706956,-6818.249932
163337.331102,-6587.832884,-15766.386565,-10495.508323
163337.331421,-7846.182985,-17246.798449,-11951.089769
163337.331740,-7328.038826,-21614.013506,-6205.373534
163337.332059,-8290.306550,-17838.963202,-3677.258390
163337.332378,-2368.659014,-12657.521608,1149.143247
163337.332697,-2368.659014,-6883.915261,2528.115143
163337.333016,666.185348,-1258.350101,4060.306139
163337.333335,4663.297435,-2960.823768,6894.859482
163337.333654,9770.718434,-74.020594,10418.898773
163337.333973,13841.851115,0.000000,9729.412825
163337.334292,7179.997637,-2368.659014,4826.401637
163337.334611,-666.185348,-6069.688724,-3600.648841
163337.334930,-2812.782580,-14211.954086,-4979.620737
163337.335249,-7105.977043,-14582.057057,-9193.145976
163337.335568,-6143.709319,-17987.004391,-9882.631924
163337.335887,-7550.100608,-19615.457463,-7814.174080
163337.336206,-6143.709319,-19097.313304,-3600.648841
163337.336526,-4441.235652,-12509.480420,0.000000
163337.336845,-3552.988522,-8290.306550,306.438199
163337.337164,-1184.329507,-5107.421000,3677.258390
163337.337483,4663.297435,-3552.988522,6971.469032
163337.337802,10584.944971,-666.185348,9116.536426
163337.338121,15914.427753,0.000000,10955.165621
163337.338440,8290.306550,-592.164754,4903.011187
163337.338759,1110.308913,-5329.482782,-1915.238745
163337.339078,-3701.029710,-11547.212695,-6741.640382
163337.339397,-5477.523971,-16062.468941,-7354.516781
163337.339716,-7994.224174,-19023.292709,-9499.584175
163337.340035,-10658.965565,-20207.622217,-7967.393179
163337.340354,-6513.812290,-20059.581028,-2987.772442
163337.340673,-2738.761985,-13471.748144,2374.896044
163337.340992,-1184.329507,-4811.338623,1225.752797
163337.341311,1998.556043,-3552.988522,4826.401637
163337.341630,5921.647536,296.082377,7660.954980
163337.341950,10881.027347,-1258.350101,10725.336972
163337.342269,11917.315666,-222.061783,9576.193725
163337.342588,7105.977043,-3627.009116,4903.011187
163337.342907,-3108.864956,-7179.997637,-4903.011187
163337.343226,-7105.977043,-12213.398043,-8427.050478
163337.343545,-7254.018232,-16506.592507,-9806.022374
163337.343864,-7476.080014,-18949.272115,-8810.098227
163337.344183,-11251.130318,-17246.798449,-9806.022374
163337.344502,-5403.503377,-18949.272115,-3140.991542
163337.344821,-2072.576638,-13249.686362,-536.266849
163337.345140,-1110.308913,-8364.327145,2374.896044
163337.345459,-814.226536,-3627.009116,3830.477490
163337.345778,5107.421000,-3182.885551,6511.811733
163337.346097,8586.388927,-1850.514855,8580.269578
163337.346416,11695.253884,-1406.391290,7354.516781
163337.346735,9326.594869,-4737.318029,6511.811733
163337.347054,1702.473667,-7105.977043,-1302.362347
163337.347374,-4145.153275,-9548.656652,-6128.763984
163337.347693,-4811.338623,-15248.242405,-7890.783629
163337.348012,-6217.729913,-17024.736666,-8580.269578
163337.348331,-8512.368333,-19171.333898,-6741.640382
163337.348650,-8808.450710,-17172.777854,-4519.963438
163337.348969,-4811.338623,-13027.624579,-842.705048
163337.349288,-2738.761985,-6809.894666,1149.143247
163337.349607,-4145.153275,-3627.009116,2451.505594
163337.349926,1554.432478,-2442.679609,6128.763984
163337.350245,9400.615463,-4441.235652,9729.412825
163337.350564,9474.636058,-666.185348,8580.269578
163337.350883,6143.709319,-2368.659014,4060.306139
163337.351202,296.082377,-6513.812290,-2374.896044
163337.351521,-3404.947333,-11843.295072,-5822.325785
163337.351840,-5921.647536,-12509.480420,-9193.145976
163337.352159,-5699.585753,-17764.942608,-8044.002729
163337.352478,-7402.059420,-16062.468941,-8580.269578
163337.352798,-5921.647536,-19023.292709,-3677.258390
163337.353117,-4737.318029,-14285.974681,0.000000
163337.353436,-74.020594,-11843.295072,2374.896044
163337.353755,-888.247130,-5107.421000,2757.943793
163337.354074,3034.844362,-4441.235652,4596.572988
163337.354393,8068.244768,-2294.638420,7814.174080
163337.354712,11843.295072,-1258.350101,9729.412825
163337.355031,8216.285956,-370.102971,6052.154434
163337.355350,4663.297435,-6513.812290,-76.609550
163337.355669,-962.267725,-9252.574275,-4213.525239
163337.355988,-4515.256246,-10807.006753,-7354.516781
163337.356307,-5329.482782,-15470.304188,-7354.516781
163337.356626,-6587.832884,-17764.942608,-7431.126331
163337.356945,-7994.224174,-18727.210333,-4366.744339
163337.357264,-5107.421000,-15026.180623,-1378.971896
163337.357583,-3256.906145,-9400.615463,76.609550
163337.357902,-74.020594,-6809.894666,3294.210641
163337.358222,2072.576638,-4589.276840,4826.401637
163337.358541,7328.038826,-2220.617826,8810.098227
163337.358860,11769.274478,-1184.329507,6971.469032
163337.359179,5921.647536,-962.267725,3677.258390
163337.359498,0.000000,-3627.009116,0.000000
163337.359817,-2146.597232,-9326.594869,-4673.182538
163337.360136,-3182.885551,-12879.583391,-6128.763984
163337.360455,-4441.235652,-15470.304188,-7507.735880
163337.360774,-6439.791695,-18135.045579,-7584.345430
163337.361093,-4811.338623,-18949.272115,-4366.744339
163337.361412,-4441.235652,-15988.448347,-1838.629195
163337.361731,-74.020594,-12435.459826,1149.143247
163337.362050,-2146.597232,-5625.565159,536.266849
163337.362369,740.205942,-2738.761985,1762.019645
163337.362688,5847.626942,-2590.720797,3983.696590
163337.363007,10881.027347,-1850.514855,9116.536426
163337.363326,8808.450710,-814.226536,6818.249932
163337.363645,3552.988522,-3552.988522,1455.581446
163337.363965,-962.267725,-7994.224174,-3140.991542
163337.364284,-2368.659014,-11325.150913,-4979.620737
163337.364603,-7105.977043,-13101.645173,-7967.393179
163337.364922,-9178.553681,-17987.004391,-6741.640382
163337.365241,-9474.636058,-17838.963202,-4596.572988
163337.365560,-8290.306550,-15766.386565,-2451.505594
163337.365879,-3923.091493,-11251.130318,-76.609550
163337.366198,-4589.276840,-5255.462188,612.876398
163337.366517,-1258.350101,-3330.926739,2987.772442
163337.366836,5403.503377,-2294.638420,5822.325785
163337.367155,11547.212695,-3256.906145,9729.412825
163337.367474,8068.244768,-1480.411884,5745.716235
163337.367793,3182.885551,-4367.215058,1762.019645
163337.368112,-74.020594,-8882.471304,-3447.429741
163337.368431,-2368.659014,-11917.315666,-5515.887586
163337.368750,-1258.350101,-16284.530724,-7431.126331
163337.369069,-6069.688724,-17542.880825,-6435.202183
163337.369389,-5625.565159,-18431.127956,-5209.449386
163337.369708,-3627.009116,-17542.880825,-2834.553343
163337.370027,-1702.473667,-12509.480420,-536.266849
163337.370346,-2368.659014,-7179.997637,1838.629195
163337.370665,1332.370696,-5255.462188,3140.991542
163337.370984,5551.544565,-4737.318029,6971.469032
163337.371303,11325.150913,74.020594,9269.755526
163337.371622,10807.006753,1110.308913,7507.735880
163337.371941,6883.915261,-2442.679609,3830.477490
163337.372260,2886.803174,-8290.306550,-689.485948
163337.372579,-1406.391290,-11473.192101,-5592.497135
163337.372898,-6587.832884,-13249.686362,-8886.707777
163337.373217,-7179.997637,-18949.272115,-7431.126331
163337.373536,-10658.965565,-20503.704593,-5515.887586
163337.373855,-8956.491898,-18135.045579,-4673.182538
163337.374174,-5773.606348,-12657.521608,-1072.533697
163337.374493,-3627.009116,-6735.874072,0.000000
163337.374813,-592.164754,-3923.091493,3064.381992
163337.375132,4737.318029,-1332.370696,5515.887586
163337.375451,11177.109724,-1628.453072,9729.412825
163337.375770,9400.615463,0.000000,5439.278036
163337.376089,3330.926739,-2442.679609,1532.190996
163337.376408,3478.967927,-9474.636058,-1302.362347
163337.376727,148.041188,-12139.377449,-3524.039291
163337.377046,-3256.906145,-14508.036463,-7048.078582
163337.377365,-6809.894666,-17542.880825,-7737.564530
163337.377684,-7698.141797,-19023.292709,-6971.469032
163337.378003,-5921.647536,-19023.292709,-2298.286494
163337.378322,-3627.009116,-14211.954086,-153.219100
163337.378641,-2442.679609,-9474.636058,1762.019645
163337.378960,-814.226536,-3997.112087,1915.238745
163337.379279,5477.523971,-3775.050304,6128.763984
163337.379598,9400.615463,0.000000,9116.536426
163337.379917,11029.068536,0.000000,8350.440928
163337.380237,5995.668130,-2072.576638,4903.011187
163337.380556,666.185348,-5847.626942,-766.095498
163337.380875,-666.185348,-13027.624579,-2528.115143
163337.381194,-4515.256246,-17542.880825,-7967.393179
163337.381513,-9474.636058,-17987.004391,-7354.516781
163337.381832,-10436.903782,-21317.931130,-6511.811733
163337.382151,-9696.697840,-18949.272115,-4979.620737
163337.382470,-9474.636058,-11917.315666,0.000000
163337.382789,-5403.503377,-6069.688724,-995.924147
163337.383108,-1776.494261,-4145.153275,2451.505594
163337.383427,4293.194464,-1480.411884,5515.887586
163337.383746,9918.759623,-518.144159,7814.174080
163337.384065,11177.109724,-1924.535449,7584.345430
163337.384384,5329.482782,-2886.803174,2757.943793
163337.384703,2960.823768,-8364.327145,0.000000
163337.385022,2294.638420,-14063.912898,-1608.800546
163337.385341,-1850.514855,-14804.118840,-6511.811733
163337.385661,-6513.812290,-17246.798449,-6128.763984
163337.385975,-6957.935855,-18431.127956,-6358.592633
163337.386294,-5107.421000,-18431.127956,-3753.867940
163337.386613,-3404.947333,-13989.892304,-2221.676944
163337.386932,-2812.782580,-8512.368333,0.000000
163337.387251,-2072.576638,-4811.338623,1225.752797
163337.387570,4663.297435,-3552.988522,4826.401637
163337.387889,9474.636058,-74.020594,7967.393179
163337.388208,11547.212695,-1036.288319,9499.584175
163337.388527,7698.141797,-2294.638420,7967.393179
163337.388846,2294.638420,-5107.421000,-1608.800546
163337.389165,-1036.288319,-9992.780217,-4060.306139
163337.389484,-2442.679609,-14211.954086,-6741.640382
163337.389803,-7105.977043,-16876.695478,-7660.954980
163337.390122,-8364.327145,-20133.601622,-7737.564530
163337.390441,-9104.533087,-19541.436869,-3753.867940
163337.390760,-6587.832884,-15248.242405,-3677.258390
163337.391079,-3034.844362,-10658.965565,-689.485948
163337.391398,-962.267725,-3997.112087,76.609550
163337.391717,5033.400406,-2738.761985,6741.640382
163337.392036,10510.924376,-1998.556043,8197.221829
163337.392355,10288.862594,666.185348,7737.564530
163337.392673,7698.141797,-2442.679609,4749.792088
163337.392992,4145.153275,-6143.709319,1455.581446
163337.393311,0.000000,-8364.327145,-4903.011187
163337.393630,-3108.864956,-12213.398043,-5745.716235
163337.393949,-6217.729913,-14285.974681,-8580.269578
163337.394268,-8142.265362,-17542.880825,-6741.640382
163337.394587,-6513.812290,-19023.292709,-5822.325785
163337.394906,-3034.844362,-16580.613101,-1915.238745
163337.395225,-4737.318029,-10140.821405,-383.047749
163337.395544,-3552.988522,-6365.771101,0.000000
163337.395863,2368.659014,-4515.256246,4443.353888
163337.396182,7105.977043,-3627.009116,7737.564530
163337.396501,9474.636058,-74.020594,7660.954980
163337.396820,9400.615463,-2368.659014,6052.154434
163337.397139,2368.659014,-2738.761985,766.095498
163337.397458,0.000000,-7920.203579,-3677.258390
163337.397777,-2960.823768,-13101.645173,-4903.011187
163337.398096,-5995.668130,-15100.201217,-8656.879127
163337.398415,-10955.047942,-20429.683999,-7737.564530
163337.398734,-11473.192101,-20059.581028,-6588.421283
163337.399053,-8956.491898,-16580.613101,-4903.011187
163337.399372,-5995.668130,-13027.624579,-1302.362347
163337.399691,-3923.091493,-5329.482782,-76.609550
163337.400010,2294.638420,-2516.700203,3600.648841
163337.400329,7550.100608,-74.020594,4903.011187
163337.400648,11251.130318,-74.020594,9806.022374
163337.400967,8882.471304,-666.185348,5515.887586
163337.401285,5255.462188,-3849.070898,1915.238745
163337.401604,2294.638420,-9030.512492,-383.047749
163337.401923,-1554.432478,-12805.562797,-3983.696590
163337.402242,-4663.297435,-16284.530724,-6128.763984
163337.402561,-5403.503377,-18949.272115,-4979.620737
163337.402880,-6883.915261,-20133.601622,-4366.744339
163337.403199,-4811.338623,-18653.189738,-2528.115143
163337.403518,-4811.338623,-10066.800811,-2834.553343
163337.403837,-4737.318029,-7179.997637,0.000000
163337.404156,592.164754,-3627.009116,4903.011187
163337.404475,5847.626942,-1924.535449,6128.763984
163337.404794,10584.944971,-518.144159,9116.536426
163337.405113,9622.677246,0.000000,7660.954980
163337.405432,5847.626942,-3552.988522,2834.553343
163337.405751,4071.132681,-9474.636058,-76.609550
163337.406070,-1480.411884,-12213.398043,-3064.381992
163337.406389,-4811.338623,-15988.448347,-6818.249932
163337.406708,-9474.636058,-18727.210333,-8656.879127
163337.407027,-13027.624579,-19023.292709,-8273.831378
163337.407346,-11251.130318,-16062.468941,-7354.516781
163337.407665,-4737.318029,-11843.295072,-2987.772442
163337.407984,-2294.638420,-6809.894666,0.000000
163337.408303,1480.411884,-2516.700203,3524.039291
163337.408622,9992.780217,0.000000,6971.469032
163337.408941,12805.562797,962.267725,9499.584175
163337.409260,10658.965565,-74.020594,7967.393179
163337.409579,7624.121203,-5329.482782,5515.887586
163337.409897,4663.297435,-9474.636058,-76.609550
163337.410216,-3552.988522,-9548.656652,-6128.763984
163337.410535,-3627.009116,-15396.283594,-6818.249932
163337.410854,-7550.100608,-17394.839637,-7354.516781
163337.411173,-8512.368333,-20059.581028,-5592.497135
163337.411492,-6809.894666,-17172.777854,-4136.915689
163337.411811,-3034.844362,-14211.954086,-1302.362347
163337.412130,-4441.235652,-7179.997637,-1685.410096
163337.412449,-1184.329507,-6809.894666,1838.629195
163337.412768,4145.153275,-2738.761985,5898.935335
163337.413087,10955.047942,-666.185348,8886.707777
163337.413406,9474.636058,-74.020594,9806.022374
163337.413725,3256.906145,-1258.350101,2451.505594
163337.414044,2516.700203,-8068.244768,1302.362347
163337.414363,-370.102971,-10658.965565,-3140.991542
163337.414682,-5329.482782,-13101.645173,-9422.974625
163337.415001,-7179.997637,-20133.601622,-8044.002729
163337.415320,-12287.418637,-20947.828159,-7354.516781
163337.415639,-10288.862594,-19245.354492,-5056.230287
163337.415958,-7772.162391,-12879.583391,-3983.696590
163337.416277,-4737.318029,-7772.162391,-2145.067394
163337.416596,-74.020594,-4441.235652,2681.334243
163337.416915,4737.318029,-666.185348,5822.325785
163337.417234,12213.398043,-1998.556043,11031.775171
163337.417553,11769.274478,0.000000,9729.412825
163337.417872,5255.462188,-666.185348,2451.505594
163337.418190,4663.297435,-6809.894666,1762.019645
163337.418509,592.164754,-10066.800811,-2145.067394
163337.418828,-3108.864956,-14137.933492,-5209.449386
163337.419147,-7698.141797,-17987.004391,-6435.202183
163337.419466,-8660.409521,-20133.601622,-4979.620737
163337.419785,-8364.327145,-18505.148550,-4979.620737
163337.420104,-7698.141797,-12953.603985,-5286.058936
163337.420423,-8290.306550,-7179.997637,-4749.792088
163337.420742,-4441.235652,-7476.080014,919.314598
163337.421061,2368.659014,-74.020594,4903.011187
163337.421380,12361.439231,-1036.288319,8810.098227
163337.421699,11769.274478,-222.061783,9193.145976
163337.422018,8068.244768,-1036.288319,5898.935335
163337.422337,4959.379811,-4293.194464,536.266849
163337.422656,2294.638420,-10658.965565,-3140.991542
163337.422975,-4219.173869,-14804.118840,-6818.249932
163337.423294,-10658.965565,-17246.798449,-9193.145976
163337.423613,-11843.295072,-21243.910535,-7967.393179
163337.423932,-8364.327145,-21910.095883,-4979.620737
163337.424251,-8882.471304,-13101.645173,-4903.011187
163337.424570,-4515.256246,-8882.471304,-1302.362347
163337.424889,-444.123565,-5255.462188,2145.067394
163337.425208,6809.894666,-518.144159,6281.983084
163337.425527,12953.603985,2294.638420,8963.317327
163337.425846,14137.933492,0.000000,10955.165621
163337.426165,10584.944971,-2960.823768,6665.030833
163337.426484,4737.318029,-5403.503377,1915.238745
163337.426802,0.000000,-9548.656652,-3370.820191
163337.427121,-1850.514855,-16580.613101,-3753.867940
163337.427440,-8586.388927,-17246.798449,-8580.269578
163337.427759,-10066.800811,-20429.683999,-6894.859482
163337.428078,-8882.471304,-19837.519246,-6511.811733
163337.428397,-7179.997637,-13693.809927,-4673.182538
163337.428716,-6587.832884,-7772.162391,-2911.162892
163337.429035,-1258.350101,-4737.318029,1149.143247
163337.429354,5255.462188,-2664.741391,6052.154434
163337.429673,11177.109724,1184.329507,8810.098227
163337.429992,10362.883188,1110.308913,7814.174080
163337.430311,9400.615463,-2368.659014,6052.154434
163337.430630,2812.782580,-6143.709319,919.314598
163337.430949,-370.102971,-11695.253884,-3600.648841
163337.431268,-3627.009116,-15322.262999,-7124.688131
163337.431587,-7179.997637,-19911.539840,-8044.002729
163337.431906,-11103.089130,-22280.198854,-5975.544884
163337.432225,-9326.594869,-20651.745782,-5822.325785
163337.432544,-4811.338623,-14804.118840,-1915.238745
163337.432863,-2738.761985,-8290.306550,-76.609550
163337.433182,0.000000,-2442.679609,1532.190996
163337.433501,9400.615463,-1184.329507,8503.660028
163337.433820,11325.150913,74.020594,11797.870669
163337.434139,10362.883188,962.267725,8886.707777
163337.434458,5107.421000,-2368.659014,4596.572988
163337.434777,888.247130,-9178.553681,-76.609550
163337.435096,-3256.906145,-11621.233289,-7354.516781
163337.435414,-6513.812290,-15470.304188,-7048.078582
163337.435733,-9548.656652,-18653.189738,-9576.193725
163337.436052,-9622.677246,-22132.157666,-5669.106685
163337.436371,-11251.130318,-16062.468941,-6741.640382
163337.436690,-5995.668130,-13027.624579,-2834.553343
163337.437009,-3701.029710,-7254.018232,-612.876398
163337.437328,-370.102971,-5921.647536,3064.381992
163337.437647,6217.729913,-2146.597232,7584.345430
163337.437966,15248.242405,-2442.679609,11338.213370
163337.438285,11843.295072,-74.020594,9806.022374
163337.438604,7105.977043,-3552.988522,5515.887586
163337.438923,4071.132681,-9474.636058,-76.609550
163337.439242,-666.185348,-11843.295072,-4979.620737
163337.439561,-4737.318029,-14285.974681,-7354.516781
163337.439880,-8438.347739,-18949.272115,-9116.536426
163337.440199,-10584.944971,-20725.766376,-8580.269578
163337.440518,-8512.368333,-19763.498651,-4903.011187
163337.440837,-7624.121203,-11917.315666,-3677.258390
163337.441156,-4219.173869,-6883.915261,459.657299
163337.441475,0.000000,-3627.009116,3677.258390
163337.441794,7698.141797,-666.185348,9806.022374
163337.442113,15322.262999,0.000000,11568.042020
163337.442432,12953.603985,0.000000,10648.727422
163337.442751,5921.647536,-3330.926739,5209.449386
163337.443070,518.144159,-7772.162391,-1838.629195
163337.443389,-3182.885551,-12361.439231,-5132.839837
163337.443708,-5255.462188,-15618.345376,-8503.660028
163337.444026,-9474.636058,-17838.963202,-9806.022374
163337.444345,-9252.574275,-20207.622217,-7814.174080
163337.444664,-9474.636058,-17246.798449,-6741.640382
163337.444983,-5921.647536,-13101.645173,-2451.505594
163337.445302,-4219.173869,-8142.265362,-76.609550
163337.445621,-74.020594,-3552.988522,2374.896044
163337.445940,5329.482782,-3256.906145,6588.421283
163337.446259,11547.212695,-814.226536,10189.070123
163337.446578,12435.459826,-370.102971,9729.412825
163337.446897,7550.100608,-2664.741391,5439.278036
163337.447216,0.000000,-4811.338623,-2145.067394
163337.447535,-666.185348,-9474.636058,-6818.249932
163337.447854,-4737.318029,-13693.809927,-8580.269578
163337.448173,-6735.874072,-17542.880825,-9806.022374
163337.448492,-8882.471304,-20725.766376,-6665.030833
163337.448811,-5995.668130,-21317.931130,-2528.115143
163337.449130,-5699.585753,-13619.789333,-1685.410096
163337.449449,-3701.029710,-7772.162391,383.047749
163337.449768,-1184.329507,-4293.194464,3830.477490
163337.450087,4737.318029,1702.473667,9806.022374
163337.450406,12731.542202,148.041188,11108.384721
163337.450725,11769.274478,0.000000,10342.289223
