#time,accel_x,accel_y,accel_z
59358.025666,-518.144159,-8956.491898,383.047749
59358.025976,-370.102971,-9252.574275,842.705048
59358.026285,1110.308913,-11251.130318,3294.210641
59358.026595,1702.473667,-10362.883188,2068.457845
59358.026904,-74.020594,-7994.224174,-689.485948
59358.027214,888.247130,-10288.862594,2145.067394
59358.027524,-666.185348,-8068.244768,0.000000
59358.027833,-2368.659014,-6587.832884,0.000000
59358.028143,-74.020594,-9474.636058,1149.143247
59358.028452,-740.205942,-8734.430116,766.095498
59358.028762,-444.123565,-9252.574275,1072.533697
59358.029071,-518.144159,-8882.471304,536.266849
59358.029381,0.000000,-9548.656652,2451.505594
59358.029691,666.185348,-9770.718434,1915.238745
59358.030000,-74.020594,-11843.295072,2374.896044
59358.030310,-2368.659014,-7179.997637,-1762.019645
59358.030619,296.082377,-9844.739029,1838.629195
59358.030929,-74.020594,-8290.306550,-689.485948
59358.031238,814.226536,-9474.636058,1455.581446
59358.031548,-666.185348,-8808.450710,459.657299
59358.031858,-592.164754,-9104.533087,919.314598
59358.032167,-296.082377,-9104.533087,1149.143247
59358.032477,0.000000,-7772.162391,1225.752797
59358.032786,0.000000,-9104.533087,1532.190996
59358.033096,1702.473667,-11843.295072,3600.648841
59358.033405,-1406.391290,-7550.100608,-689.485948
59358.033715,148.041188,-10140.821405,1991.848295
59358.034025,-74.020594,-9474.636058,-76.609550
59358.034334,518.144159,-10066.800811,1532.190996
59358.034644,-74.020594,-9400.615463,1149.143247
59358.034953,-370.102971,-9178.553681,612.876398
59358.035263,-444.123565,-9178.553681,919.314598
59358.035572,-2072.576638,-7179.997637,0.000000
59358.035882,-1184.329507,-8364.327145,612.876398
59358.036192,1628.453072,-11621.233289,4060.306139
59358.036501,-1258.350101,-7402.059420,-689.485948
59358.036811,0.000000,-9548.656652,1838.629195
59358.037120,2294.638420,-10658.965565,2374.896044
59358.037430,0.000000,-9252.574275,1225.752797
59358.037739,-222.061783,-9030.512492,689.485948
59358.038049,-370.102971,-9252.574275,612.876398
59358.038359,-370.102971,-8956.491898,995.924147
59358.038668,-1406.391290,-7772.162391,0.000000
59358.038978,-1628.453072,-7772.162391,0.000000
59358.039287,0.000000,-9548.656652,3064.381992
59358.039597,-74.020594,-8882.471304,-76.609550
59358.039906,-1776.494261,-8364.327145,0.000000
59358.040216,2294.638420,-11843.295072,3600.648841
59358.040526,-1184.329507,-8364.327145,612.876398
59358.040835,-74.020594,-9252.574275,1149.143247
59358.041145,-518.144159,-9178.553681,842.705048
59358.041454,-296.082377,-8956.491898,689.485948
59358.041764,-74.020594,-8586.388927,-689.485948
59358.042073,-962.267725,-8512.368333,842.705048
59358.042383,-4145.153275,-5995.668130,0.000000
59358.042693,1110.308913,-10658.965565,2374.896044
59358.043002,-1332.370696,-8068.244768,0.000000
59358.043312,0.000000,-9844.739029,3064.381992
59358.043621,-1036.288319,-8364.327145,383.047749
59358.043931,-296.082377,-9400.615463,995.924147
59358.044240,-296.082377,-9252.574275,1149.143247
59358.044550,-148.041188,-8956.491898,1149.143247
59358.044860,2294.638420,-10658.965565,-76.609550
59358.045169,-74.020594,-8882.471304,1149.143247
59358.045479,-2812.782580,-6291.750507,0.000000
59358.045788,0.000000,-9844.739029,2451.505594
59358.046098,-74.020594,-8882.471304,-76.609550
59358.046407,-74.020594,-8364.327145,0.000000
59358.046717,0.000000,-9326.594869,842.705048
59358.047027,-370.102971,-9326.594869,689.485948
59358.047336,-518.144159,-9252.574275,612.876398
59358.047646,-444.123565,-8956.491898,919.314598
59358.047955,-1776.494261,-8364.327145,766.095498
59358.048265,0.000000,-8512.368333,0.000000
59358.048574,2294.638420,-11251.130318,2374.896044
59358.048884,-2368.659014,-7179.997637,0.000000
59358.049194,1702.473667,-10214.842000,2374.896044
59358.049503,296.082377,-9326.594869,1762.019645
59358.049813,740.205942,-8438.347739,842.705048
59358.050122,888.247130,-8512.368333,995.924147
59358.050432,1184.329507,-9178.553681,842.705048
59358.050741,1702.473667,-8882.471304,536.266849
59358.051051,2294.638420,-8882.471304,1149.143247
59358.051361,2886.803174,-11251.130318,2374.896044
59358.051670,0.000000,-7179.997637,0.000000
59358.051980,4663.297435,-10658.965565,2374.896044
59358.052289,1924.535449,-8808.450710,0.000000
59358.052599,2590.720797,-8660.409521,0.000000
59358.052908,3108.864956,-9548.656652,612.876398
59358.053218,3775.050304,-9252.574275,842.705048
59358.053528,4145.153275,-9178.553681,995.924147
59358.053837,4737.318029,-9030.512492,1532.190996
59358.054147,4737.318029,-8364.327145,1225.752797
59358.054456,2960.823768,-6587.832884,0.000000
59358.054766,7920.203579,-10658.965565,2987.772442
59358.055075,4145.153275,-7179.997637,0.000000
59358.055385,6217.729913,-9178.553681,-76.609550
59358.055695,5921.647536,-9326.594869,2374.896044
59358.056004,5699.585753,-8734.430116,0.000000
59358.056314,5921.647536,-9178.553681,0.000000
59358.056623,5773.606348,-9992.780217,0.000000
59358.056933,5181.441594,-10955.047942,0.000000
59358.057242,5551.544565,-13323.706956,-76.609550
59358.057552,4663.297435,-14211.954086,-76.609550
59358.057862,0.000000,-10140.821405,0.000000
59358.058171,3330.926739,-11843.295072,1149.143247
59358.058481,1776.494261,-7179.997637,2451.505594
59358.058790,2960.823768,-3923.091493,612.876398
59358.059100,5773.606348,-4367.215058,2604.724693
59358.059409,7698.141797,-3552.988522,2757.943793
59358.059719,9400.615463,-4293.194464,3370.820191
59358.060029,9696.697840,-7105.977043,3600.648841
59358.060338,7402.059420,-7179.997637,0.000000
59358.060648,0.000000,-11325.150913,-2145.067394
59358.060957,-74.020594,-17172.777854,-1608.800546
59358.061267,-4071.132681,-16654.633695,-6741.640382
59358.061576,-2368.659014,-14508.036463,-2221.676944
59358.061886,-1554.432478,-13027.624579,-1915.238745
59358.062196,-2516.700203,-7476.080014,-1072.533697
59358.062505,1184.329507,-6957.935855,1838.629195
59358.062815,4737.318029,-5699.585753,5056.230287
59358.063124,3552.988522,-3034.844362,3677.258390
59358.063434,4367.215058,-5625.565159,6435.202183
59358.063743,3478.967927,-4737.318029,4826.401637
59358.064053,1184.329507,-2442.679609,2451.505594
59358.064363,4663.297435,-7105.977043,4826.401637
59358.064672,1184.329507,-3627.009116,612.876398
59358.064982,-2072.576638,-9548.656652,-2451.505594
59358.065291,-3478.967927,-16210.510130,-2834.553343
59358.065601,-6217.729913,-19023.292709,-4290.134789
59358.065910,-6809.894666,-18135.045579,-4903.011187
59358.066220,-3627.009116,-15396.283594,-2528.115143
59358.066530,-2812.782580,-7476.080014,-2451.505594
59358.066839,592.164754,-5403.503377,1838.629195
59358.067149,6291.750507,-6513.812290,6052.154434
59358.067458,4737.318029,-3627.009116,5209.449386
59358.067768,8216.285956,-4737.318029,7277.907231
59358.068077,9400.615463,-3552.988522,6665.030833
59358.068387,8734.430116,-3552.988522,5898.935335
59358.068697,6661.853478,-4663.297435,5056.230287
59358.069006,1924.535449,-9474.636058,536.266849
59358.069316,-4145.153275,-10732.986159,-3064.381992
59358.069625,-3108.864956,-18283.086767,-2834.553343
59358.069935,-2442.679609,-18061.024985,-4979.620737
59358.070244,-6809.894666,-15544.324782,-7354.516781
59358.070554,-3627.009116,-15396.283594,-3140.991542
59358.070864,-3552.988522,-9548.656652,-2451.505594
59358.071173,2368.659014,-5699.585753,1838.629195
59358.071483,10510.924376,-1924.535449,5898.935335
59358.071792,12361.439231,-1850.514855,7967.393179
59358.072102,11399.171507,-2442.679609,7967.393179
59358.072411,10584.944971,-8290.306550,6665.030833
59358.072721,2960.823768,-6883.915261,2451.505594
59358.073031,-1776.494261,-8660.409521,0.000000
59358.073340,-4811.338623,-14211.954086,-2528.115143
59358.073650,-11843.295072,-13101.645173,-7967.393179
59358.073959,-8068.244768,-13915.871710,-7201.297681
59358.074269,-3034.844362,-14804.118840,-2528.115143
59358.074578,1184.329507,-7994.224174,76.609550
59358.074888,1480.411884,-6661.853478,1838.629195
59358.075198,592.164754,-6217.729913,1838.629195
59358.075507,0.000000,-4811.338623,2451.505594
59358.075817,3775.050304,-7031.956449,4443.353888
59358.076126,2886.803174,-5921.647536,3600.648841
59358.076436,-4145.153275,-3627.009116,0.000000
59358.076745,-1554.432478,-9474.636058,1762.019645
59358.077055,-2442.679609,-11843.295072,1915.238745
59358.077365,-2368.659014,-8660.409521,0.000000
59358.077674,-1036.288319,-10732.986159,459.657299
59358.077984,-3627.009116,-11251.130318,-229.828649
59358.078293,-6365.771101,-13545.768739,-766.095498
59358.078603,-4811.338623,-13027.624579,-1302.362347
59358.078912,-4737.318029,-8734.430116,-1532.190996
59358.079222,-2960.823768,-5699.585753,1225.752797
59358.079532,-74.020594,-6513.812290,-76.609550
59358.079841,-2368.659014,-5995.668130,2451.505594
59358.080151,-74.020594,-5329.482782,2451.505594
59358.080460,2294.638420,-6513.812290,3600.648841
59358.080770,1628.453072,-6661.853478,2681.334243
59358.081079,-1110.308913,-9548.656652,1838.629195
59358.081389,-4145.153275,-13397.727550,-153.219100
59358.081698,-4737.318029,-12805.562797,-1532.190996
59358.082008,-2738.761985,-13323.706956,-1455.581446
59358.082318,-2368.659014,-9992.780217,-919.314598
59358.082627,-2960.823768,-9918.759623,-842.705048
59358.082937,-3997.112087,-11103.089130,-306.438199
59358.083246,-666.185348,-8142.265362,-842.705048
59358.083556,2368.659014,-7105.977043,2374.896044
59358.083865,4737.318029,-3627.009116,4903.011187
59358.084175,7031.956449,-5921.647536,5745.716235
59358.084485,2664.741391,-6587.832884,3677.258390
59358.084794,1184.329507,-8364.327145,3064.381992
59358.085104,1702.473667,-10066.800811,842.705048
59358.085413,-814.226536,-11029.068536,-153.219100
59358.085723,-3034.844362,-11029.068536,-2221.676944
59358.086032,-5181.441594,-13249.686362,-2987.772442
59358.086342,-1258.350101,-12435.459826,-2528.115143
59358.086652,1702.473667,-10658.965565,-76.609550
59358.086961,2368.659014,-5995.668130,0.000000
59358.087271,5033.400406,-7476.080014,3064.381992
59358.087580,4663.297435,-9474.636058,3600.648841
59358.087890,2664.741391,-7476.080014,2451.505594
59358.088199,4071.132681,-8882.471304,2681.334243
59358.088509,2664.741391,-8438.347739,1762.019645
59358.088819,-444.123565,-9252.574275,306.438199
59358.089128,-2664.741391,-10955.047942,-229.828649
59358.089438,-370.102971,-11547.212695,-76.609550
59358.089747,888.247130,-8290.306550,-76.609550
59358.090057,0.000000,-4811.338623,0.000000
59358.090366,2590.720797,-9252.574275,3064.381992
59358.090676,-1258.350101,-10658.965565,-76.609550
59358.090986,-3627.009116,-10214.842000,-3294.210641
59358.091295,-2664.741391,-9844.739029,-1225.752797
59358.091605,-666.185348,-8142.265362,-995.924147
59358.091914,-1110.308913,-7698.141797,-1072.533697
59358.092224,-1850.514855,-8882.471304,842.705048
59358.092533,814.226536,-11695.253884,2987.772442
59358.092843,2886.803174,-7698.141797,1149.143247
59358.093153,1184.329507,-7179.997637,3677.258390
59358.093462,1702.473667,-8882.471304,1149.143247
59358.093772,-3552.988522,-9992.780217,0.000000
59358.094082,-1850.514855,-11399.171507,-1455.581446
59358.094391,-1776.494261,-9696.697840,0.000000
59358.094701,-814.226536,-8142.265362,229.828649
59358.095011,-2516.700203,-8068.244768,-306.438199
59358.095320,-3701.029710,-10362.883188,1762.019645
59358.095630,-2960.823768,-10140.821405,1225.752797
59358.095940,-74.020594,-10510.924376,4443.353888
59358.096249,4663.297435,-7105.977043,2374.896044
59358.096559,1110.308913,-7254.018232,1762.019645
59358.096869,-4737.318029,-7772.162391,0.000000
59358.097178,-3552.988522,-9548.656652,0.000000
59358.097488,-2368.659014,-8956.491898,0.000000
59358.097798,-74.020594,-10140.821405,2451.505594
59358.098107,-2442.679609,-10658.965565,-689.485948
59358.098417,-5921.647536,-10436.903782,-689.485948
59358.098727,-2146.597232,-11843.295072,2068.457845
59358.099036,2886.803174,-7772.162391,4213.525239
59358.099346,3478.967927,-3997.112087,2068.457845
59358.099656,2368.659014,-5995.668130,3677.258390
59358.099965,1998.556043,-10658.965565,2987.772442
59358.100275,-1332.370696,-9104.533087,0.000000
59358.100585,148.041188,-10881.027347,1072.533697
59358.100894,-1258.350101,-9918.759623,76.609550
59358.101204,-4441.235652,-10881.027347,-1762.019645
59358.101514,-4811.338623,-11917.315666,-919.314598
59358.101823,-666.185348,-11843.295072,2068.457845
59358.102133,2294.638420,-6809.894666,1149.143247
59358.102443,3552.988522,-4811.338623,3677.258390
59358.102752,4663.297435,-7105.977043,3600.648841
59358.103062,0.000000,-7698.141797,842.705048
59358.103372,-74.020594,-9844.739029,76.609550
59358.103681,222.061783,-8438.347739,459.657299
59358.103991,814.226536,-8512.368333,459.657299
59358.104301,-1110.308913,-9696.697840,0.000000
59358.104610,-1702.473667,-10584.944971,-76.609550
59358.104920,0.000000,-11325.150913,1225.752797
59358.105230,3478.967927,-11843.295072,4213.525239
59358.105539,2294.638420,-5773.606348,76.609550
59358.105849,0.000000,-7772.162391,612.876398
59358.106159,-740.205942,-11325.150913,0.000000
59358.106468,-74.020594,-10658.965565,-76.609550
59358.106778,0.000000,-8512.368333,76.609550
59358.107088,1036.288319,-7179.997637,229.828649
59358.107397,-74.020594,-8808.450710,76.609550
59358.107707,-2072.576638,-10140.821405,612.876398
59358.108017,0.000000,-9548.656652,306.438199
59358.108326,4663.297435,-11251.130318,4519.963438
59358.108636,2294.638420,-5995.668130,153.219100
59358.108946,1332.370696,-9844.739029,2145.067394
59358.109256,-2442.679609,-11251.130318,-383.047749
59358.109565,-1998.556043,-11843.295072,-76.609550
59358.109875,-1924.535449,-9548.656652,-1225.752797
59358.110185,-296.082377,-8512.368333,459.657299
59358.110494,-2146.597232,-8586.388927,76.609550
59358.110804,-2960.823768,-9696.697840,0.000000
59358.111114,-2368.659014,-7179.997637,0.000000
59358.111423,1776.494261,-6291.750507,2451.505594
59358.111733,4663.297435,-6513.812290,2374.896044
59358.112043,296.082377,-7179.997637,1532.190996
59358.112352,-74.020594,-11547.212695,1149.143247
59358.112662,-592.164754,-11843.295072,1149.143247
59358.112972,-1036.288319,-10288.862594,0.000000
59358.113281,-1776.494261,-9844.739029,-306.438199
59358.113591,-3775.050304,-11177.109724,-689.485948
59358.113901,-4441.235652,-11399.171507,0.000000
59358.114210,-2368.659014,-7179.997637,612.876398
59358.114520,0.000000,-4811.338623,2451.505594
59358.114830,5847.626942,-7105.977043,4826.401637
59358.115139,0.000000,-4811.338623,1455.581446
59358.115449,-1776.494261,-10214.842000,2374.896044
59358.115759,-2072.576638,-10658.965565,1455.581446
59358.116068,-1998.556043,-10362.883188,-76.609550
59358.116378,-2368.659014,-8586.388927,-842.705048
59358.116688,-3849.070898,-10362.883188,-383.047749
59358.116997,-3108.864956,-9548.656652,-1685.410096
59358.117307,-1850.514855,-7698.141797,1149.143247
59358.117617,962.267725,-4885.359217,612.876398
59358.117926,2960.823768,-6291.750507,3677.258390
59358.118236,3478.967927,-9326.594869,4213.525239
59358.118546,-1480.411884,-9548.656652,842.705048
59358.118855,-2960.823768,-10732.986159,1532.190996
59358.119165,370.102971,-8882.471304,-76.609550
59358.119475,222.061783,-8660.409521,536.266849
59358.119784,-1480.411884,-9474.636058,0.000000
59358.120094,-2516.700203,-9992.780217,-1302.362347
59358.120404,-74.020594,-9474.636058,229.828649
59358.120713,2294.638420,-6809.894666,842.705048
59358.121023,1480.411884,-6291.750507,2451.505594
59358.121333,2294.638420,-9474.636058,4519.963438
59358.121642,-962.267725,-10362.883188,1149.143247
59358.121952,-2368.659014,-10140.821405,0.000000
59358.122262,-74.020594,-9178.553681,-76.609550
59358.122571,74.020594,-8364.327145,0.000000
59358.122881,-1776.494261,-8734.430116,-459.657299
59358.123191,-2368.659014,-9474.636058,-76.609550
59358.123500,-74.020594,-9474.636058,-76.609550
59358.123810,4663.297435,-8290.306550,1762.019645
59358.124120,1184.329507,-4811.338623,153.219100
59358.124429,2294.638420,-9474.636058,1762.019645
59358.124739,-2590.720797,-10436.903782,-306.438199
59358.125049,-1480.411884,-10140.821405,-1838.629195
59358.125358,888.247130,-10436.903782,229.828649
59358.125668,370.102971,-9252.574275,76.609550
59358.125978,-2146.597232,-10214.842000,-153.219100
59358.126288,-2442.679609,-11843.295072,1762.019645
59358.126597,2294.638420,-9474.636058,2145.067394
59358.126907,4663.297435,-7105.977043,2987.772442
59358.127217,1776.494261,-4219.173869,2451.505594
59358.127526,1110.308913,-8290.306550,2068.457845
59358.127836,-3552.988522,-10140.821405,0.000000
59358.128146,-3552.988522,-9548.656652,-2451.505594
59358.128455,-1406.391290,-10140.821405,306.438199
59358.128765,-1628.453072,-8734.430116,-306.438199
59358.129075,-3330.926739,-9548.656652,-536.266849
59358.129384,-3034.844362,-11843.295072,1149.143247
59358.129694,962.267725,-10066.800811,1225.752797
59358.130004,5181.441594,-8586.388927,4826.401637
59358.130313,3478.967927,-5477.523971,2374.896044
59358.130623,592.164754,-7772.162391,2451.505594
59358.130933,-370.102971,-10658.965565,0.000000
59358.131242,-1110.308913,-10214.842000,-842.705048
59358.131552,0.000000,-8660.409521,306.438199
59358.131862,-740.205942,-8956.491898,153.219100
59358.132171,-3627.009116,-10288.862594,-612.876398
59358.132481,-2886.803174,-12731.542202,1225.752797
59358.132791,-888.247130,-9548.656652,842.705048
59358.133100,4663.297435,-8882.471304,4213.525239
59358.133410,1998.556043,-5625.565159,2221.676944
59358.133720,-1184.329507,-8660.409521,2451.505594
59358.134029,-1850.514855,-11103.089130,0.000000
59358.134339,-1258.350101,-10362.883188,-76.609550
59358.134649,-592.164754,-8364.327145,766.095498
59358.134958,-740.205942,-7994.224174,766.095498
59358.135268,-2368.659014,-8586.388927,612.876398
59358.135578,-2368.659014,-9844.739029,1225.752797
59358.135887,0.000000,-8364.327145,1838.629195
59358.136197,2368.659014,-5995.668130,2451.505594
59358.136507,4663.297435,-7698.141797,2374.896044
59358.136816,-1184.329507,-8364.327145,0.000000
59358.137126,-1554.432478,-10732.986159,-459.657299
59358.137436,-74.020594,-11843.295072,-76.609550
59358.137745,0.000000,-9844.739029,-306.438199
59358.138055,-666.185348,-8956.491898,-689.485948
59358.138365,-2886.803174,-10658.965565,-459.657299
59358.138674,-3552.988522,-9548.656652,0.000000
59358.138984,0.000000,-8364.327145,2374.896044
59358.139294,3552.988522,-5995.668130,3064.381992
59358.139603,5847.626942,-7105.977043,4213.525239
59358.139913,0.000000,-7179.997637,1225.752797
59358.140223,-962.267725,-11251.130318,-76.609550
59358.140532,-74.020594,-11843.295072,-76.609550
59358.140842,-1406.391290,-9252.574275,-1149.143247
59358.141152,-1776.494261,-9326.594869,-383.047749
59358.141461,-2960.823768,-9918.759623,-995.924147
59358.141771,-4441.235652,-9548.656652,-1225.752797
59358.142081,0.000000,-8586.388927,842.705048
59358.142391,592.164754,-5403.503377,0.000000
59358.142700,4663.297435,-8882.471304,3294.210641
59358.143010,814.226536,-7179.997637,0.000000
59358.143320,-1036.288319,-11547.212695,1762.019645
59358.143629,444.123565,-11399.171507,612.876398
59358.143939,814.226536,-9474.636058,-76.609550
59358.144249,148.041188,-9104.533087,0.000000
59358.144558,-2294.638420,-10658.965565,-383.047749
59358.144868,-3997.112087,-9844.739029,-689.485948
59358.145178,148.041188,-9474.636058,1762.019645
59358.145487,2146.597232,-5403.503377,1455.581446
59358.145797,2960.823768,-7476.080014,3830.477490
59358.146107,-74.020594,-9474.636058,2374.896044
59358.146416,-3034.844362,-11251.130318,-76.609550
59358.146726,-2220.617826,-10140.821405,1225.752797
59358.147036,-370.102971,-8882.471304,919.314598
59358.147345,-1480.411884,-8364.327145,383.047749
59358.147655,-3034.844362,-9178.553681,0.000000
59358.147965,-3034.844362,-8882.471304,-76.609550
59358.148274,-74.020594,-8216.285956,1838.629195
59358.148584,2294.638420,-5921.647536,1149.143247
59358.148894,1776.494261,-7179.997637,2451.505594
59358.149203,-74.020594,-9474.636058,-76.609550
59358.149513,-1480.411884,-11621.233289,1685.410096
59358.149823,-2368.659014,-9548.656652,0.000000
59358.150132,-148.041188,-9326.594869,153.219100
59358.150442,-1702.473667,-8882.471304,-229.828649
59358.150752,-3478.967927,-10362.883188,-229.828649
59358.151061,-1258.350101,-10658.965565,1149.143247
59358.151371,1406.391290,-7624.121203,1838.629195
59358.151681,4663.297435,-6809.894666,2987.772442
59358.151990,1184.329507,-4811.338623,1838.629195
59358.152300,-74.020594,-9474.636058,2374.896044
59358.152610,-2960.823768,-10140.821405,1225.752797
59358.152919,-3849.070898,-9696.697840,-1225.752797
59358.153229,-1480.411884,-9474.636058,-153.219100
59358.153539,-2146.597232,-9400.615463,-306.438199
59358.153848,-3478.967927,-10066.800811,-536.266849
59358.154158,-1258.350101,-11843.295072,1149.143247
59358.154468,814.226536,-7476.080014,1302.362347
59358.154777,4663.297435,-7105.977043,3294.210641
59358.155087,1332.370696,-5403.503377,1532.190996
59358.155397,2294.638420,-11621.233289,4749.792088
59358.155706,-2368.659014,-10436.903782,0.000000
59358.156016,-1924.535449,-9548.656652,-1072.533697
59358.156326,148.041188,-8216.285956,0.000000
59358.156635,-1480.411884,-9326.594869,-536.266849
59358.156945,-2886.803174,-10584.944971,-842.705048
59358.157255,-666.185348,-11843.295072,1685.410096
59358.157564,1184.329507,-8660.409521,1302.362347
59358.157874,5625.565159,-8142.265362,3907.087040
59358.158184,2294.638420,-6661.853478,1608.800546
59358.158493,-3552.988522,-7179.997637,0.000000
59358.158803,-4145.153275,-9548.656652,0.000000
59358.159113,-1554.432478,-10066.800811,-995.924147
59358.159423,-666.185348,-8808.450710,153.219100
59358.159732,-1184.329507,-8216.285956,76.609550
59358.160042,-3034.844362,-9030.512492,-153.219100
59358.160352,-2368.659014,-9548.656652,612.876398
59358.160661,666.185348,-7846.182985,1149.143247
59358.160971,4737.318029,-8068.244768,3753.867940
59358.161281,3478.967927,-6513.812290,2068.457845
59358.161590,0.000000,-7179.997637,0.000000
59358.161900,-2368.659014,-9548.656652,-1915.238745
59358.162210,-74.020594,-10658.965565,-76.609550
59358.162519,222.061783,-9104.533087,0.000000
59358.162829,-740.205942,-9104.533087,0.000000
59358.163139,-3108.864956,-10362.883188,-459.657299
59358.163448,-3256.906145,-10140.821405,0.000000
59358.163758,0.000000,-6587.832884,1225.752797
59358.164068,4737.318029,-7179.997637,4596.572988
59358.164377,3182.885551,-7105.977043,2987.772442
59358.164687,-1776.494261,-9548.656652,2451.505594
59358.164997,-1258.350101,-10658.965565,-76.609550
59358.165306,-74.020594,-11251.130318,1762.019645
59358.165616,-888.247130,-8142.265362,0.000000
59358.165926,-2146.597232,-8364.327145,0.000000
59358.166235,-3627.009116,-9252.574275,0.000000
59358.166545,-4737.318029,-9548.656652,-1225.752797
59358.166855,-1184.329507,-5995.668130,0.000000
59358.167164,2960.823768,-6587.832884,3217.601092
59358.167474,3923.091493,-6513.812290,2374.896044
59358.167784,0.000000,-7772.162391,1225.752797
59358.168093,-74.020594,-11843.295072,-76.609550
59358.168403,-74.020594,-11547.212695,-76.609550
59358.168713,-370.102971,-9696.697840,-612.876398
59358.169022,-2368.659014,-9474.636058,-1532.190996
59358.169332,-3997.112087,-11843.295072,-766.095498
59358.169642,-3034.844362,-9918.759623,-76.609550
59358.169951,2886.803174,-8882.471304,2528.115143
59358.170261,3552.988522,-4811.338623,2451.505594
59358.170571,3849.070898,-7105.977043,4519.963438
59358.170880,-3552.988522,-6587.832884,0.000000
59358.171190,-74.020594,-13027.624579,2987.772442
59358.171500,-592.164754,-10288.862594,1225.752797
59358.171809,-814.226536,-9252.574275,306.438199
59358.172119,-2886.803174,-8808.450710,-459.657299
59358.172429,-4811.338623,-10066.800811,-995.924147
59358.172738,-2738.761985,-10066.800811,-76.609550
59358.173048,1036.288319,-7994.224174,2068.457845
59358.173358,2146.597232,-5477.523971,1225.752797
59358.173667,2960.823768,-7624.121203,3064.381992
59358.173977,2294.638420,-11843.295072,-76.609550
59358.174287,-74.020594,-12287.418637,2681.334243
59358.174596,0.000000,-9548.656652,306.438199
59358.174906,444.123565,-8290.306550,153.219100
59358.175216,-1258.350101,-8512.368333,-536.266849
59358.175526,-3330.926739,-10436.903782,-1302.362347
59358.175835,-1258.350101,-11843.295072,536.266849
59358.176145,1776.494261,-8364.327145,1762.019645
59358.176455,6143.709319,-7698.141797,3294.210641
59358.176764,2368.659014,-6291.750507,0.000000
59358.177074,1850.514855,-12287.418637,3524.039291
59358.177384,-666.185348,-12213.398043,1532.190996
59358.177693,-2368.659014,-9548.656652,0.000000
59358.178003,-1184.329507,-9178.553681,-76.609550
59358.178313,-3034.844362,-9178.553681,-689.485948
59358.178622,-4219.173869,-9844.739029,-459.657299
59358.178932,-1258.350101,-10658.965565,1608.800546
59358.179242,4663.297435,-9474.636058,3600.648841
59358.179551,3923.091493,-4737.318029,1762.019645
59358.179861,2960.823768,-6587.832884,3677.258390
59358.180171,3478.967927,-11843.295072,3294.210641
59358.180480,-2368.659014,-10140.821405,0.000000
59358.180790,-2368.659014,-9844.739029,-1762.019645
59358.181100,-1480.411884,-9844.739029,-1072.533697
59358.181409,-2812.782580,-10584.944971,-1072.533697
59358.181719,-3849.070898,-11251.130318,-1072.533697
59358.182029,-370.102971,-11029.068536,766.095498
59358.182338,2960.823768,-8364.327145,3677.258390
59358.182648,5847.626942,-7105.977043,4213.525239
59358.182958,1776.494261,-5403.503377,306.438199
59358.183267,1628.453072,-11325.150913,4826.401637
59358.183577,-3552.988522,-8364.327145,0.000000
59358.183887,-1110.308913,-8438.347739,0.000000
59358.184196,-1184.329507,-8290.306550,536.266849
59358.184506,-3330.926739,-7846.182985,-766.095498
59358.184816,-5995.668130,-11029.068536,-919.314598
59358.185125,-3404.947333,-9548.656652,-842.705048
59358.185435,0.000000,-8364.327145,1225.752797
59358.185745,4071.132681,-8882.471304,3600.648841
59358.186054,1110.308913,-7698.141797,2374.896044
59358.186364,-2368.659014,-7179.997637,0.000000
59358.186674,-2368.659014,-7179.997637,0.000000
59358.186983,-74.020594,-9178.553681,-76.609550
59358.187293,148.041188,-8290.306550,0.000000
59358.187603,-1998.556043,-9474.636058,-229.828649
59358.187912,-3034.844362,-11103.089130,-842.705048
59358.188222,-2368.659014,-10732.986159,306.438199
59358.188532,592.164754,-6587.832884,1225.752797
59358.188841,5847.626942,-9178.553681,3600.648841
59358.189151,1036.288319,-6513.812290,536.266849
59358.189461,-3552.988522,-9548.656652,612.876398
59358.189770,-2738.761985,-10362.883188,-1608.800546
59358.190080,-666.185348,-10658.965565,1149.143247
59358.190390,-1480.411884,-8512.368333,459.657299
59358.190699,-3923.091493,-8142.265362,-383.047749
59358.191009,-4441.235652,-9252.574275,0.000000
59358.191319,-3256.906145,-8438.347739,536.266849
59358.191628,0.000000,-4811.338623,1225.752797
59358.191938,5773.606348,-7105.977043,4749.792088
59358.192248,1332.370696,-5995.668130,0.000000
59358.192558,592.164754,-11325.150913,2757.943793
59358.192867,-74.020594,-11251.130318,-1302.362347
59358.193177,-74.020594,-11473.192101,-153.219100
59358.193486,-1406.391290,-9622.677246,-1608.800546
59358.193796,-3256.906145,-10140.821405,-2221.676944
59358.194106,-4441.235652,-11917.315666,-1762.019645
59358.194415,-1258.350101,-10288.862594,995.924147
59358.194725,4219.173869,-7698.141797,3447.429741
59358.195035,4737.318029,-4811.338623,3370.820191
59358.195344,5847.626942,-9474.636058,6665.030833
59358.195654,0.000000,-7624.121203,1149.143247
59358.195964,2294.638420,-11251.130318,2068.457845
59358.196273,592.164754,-9918.759623,1608.800546
59358.196583,-1036.288319,-8956.491898,-153.219100
59358.196893,-4367.215058,-10140.821405,-1378.971896
59358.197202,-5107.421000,-11769.274478,-1762.019645
59358.197512,-3330.926739,-9844.739029,-1991.848295
59358.197822,0.000000,-7179.997637,1225.752797
59358.198131,4663.297435,-7105.977043,2987.772442
59358.198441,888.247130,-5995.668130,0.000000
59358.198750,1776.494261,-10807.006753,3907.087040
59358.199060,3478.967927,-11843.295072,2374.896044
59358.199370,0.000000,-8660.409521,766.095498
59358.199679,148.041188,-8808.450710,0.000000
59358.199989,-2368.659014,-9326.594869,-1302.362347
59358.200299,-3182.885551,-10881.027347,-842.705048
59358.200608,-74.020594,-10362.883188,842.705048
59358.200918,4071.132681,-8882.471304,2374.896044
59358.201228,3182.885551,-6809.894666,2145.067394
59358.201537,0.000000,-7179.997637,2451.505594
59358.201847,-74.020594,-13027.624579,2374.896044
59358.202157,-74.020594,-12731.542202,2987.772442
59358.202466,-1184.329507,-8956.491898,766.095498
59358.202776,-1406.391290,-8438.347739,383.047749
59358.203085,-3923.091493,-8882.471304,-229.828649
59358.203395,-4515.256246,-9696.697840,-229.828649
59358.203705,-1850.514855,-8882.471304,612.876398
59358.204014,1554.432478,-6587.832884,3064.381992
59358.204324,3330.926739,-5625.565159,2681.334243
59358.204634,2960.823768,-9548.656652,5515.887586
59358.204943,-74.020594,-10658.965565,-76.609550
59358.205253,-1776.494261,-11325.150913,612.876398
59358.205563,-1776.494261,-9104.533087,-1225.752797
59358.205872,-1554.432478,-9474.636058,-1455.581446
59358.206182,-3775.050304,-10510.924376,-2451.505594
59358.206492,-3775.050304,-11621.233289,-1762.019645
59358.206801,0.000000,-10140.821405,0.000000
59358.207111,5847.626942,-9326.594869,4213.525239
59358.207421,5847.626942,-6513.812290,2987.772442
59358.207730,0.000000,-5403.503377,2451.505594
59358.208040,1184.329507,-11843.295072,3370.820191
59358.208349,-1184.329507,-9548.656652,1378.971896
59358.208659,-1628.453072,-8734.430116,0.000000
59358.208969,-2368.659014,-8660.409521,-459.657299
59358.209278,-5107.421000,-9474.636058,-1455.581446
59358.209588,-5403.503377,-10288.862594,-1685.410096
59358.209898,-2442.679609,-8660.409521,0.000000
59358.210207,1332.370696,-7772.162391,2451.505594
59358.210517,4663.297435,-7698.141797,4826.401637
59358.210827,814.226536,-5477.523971,689.485948
59358.211136,0.000000,-9844.739029,2451.505594
59358.211446,0.000000,-7772.162391,0.000000
59358.211756,222.061783,-8586.388927,-229.828649
59358.212065,-962.267725,-8882.471304,-995.924147
59358.212375,-2590.720797,-10807.006753,-1225.752797
59358.212685,-3034.844362,-11621.233289,-1302.362347
59358.212994,0.000000,-9548.656652,536.266849
59358.213304,2664.741391,-7476.080014,1838.629195
59358.213613,5773.606348,-8290.306550,4826.401637
59358.213923,1110.308913,-6069.688724,689.485948
59358.214233,592.164754,-11399.171507,2911.162892
59358.214542,-2368.659014,-8364.327145,0.000000
59358.214852,-74.020594,-9178.553681,689.485948
59358.215162,-1776.494261,-8438.347739,0.000000
59358.215471,-4293.194464,-9326.594869,-536.266849
59358.215781,-5033.400406,-10288.862594,-1072.533697
59358.216091,-2886.803174,-8586.388927,-76.609550
59358.216400,0.000000,-5699.585753,1225.752797
59358.216710,4663.297435,-7698.141797,4826.401637
59358.217020,1110.308913,-5921.647536,536.266849
59358.217329,0.000000,-7179.997637,1225.752797
59358.217639,-962.267725,-9104.533087,-1762.019645
59358.217949,962.267725,-9474.636058,-76.609550
59358.218258,-962.267725,-9252.574275,-842.705048
59358.218568,-3256.906145,-10214.842000,-1608.800546
59358.218877,-3256.906145,-11473.192101,-1532.190996
59358.219187,814.226536,-10955.047942,2068.457845
59358.219497,3330.926739,-6587.832884,1455.581446
59358.219806,4737.318029,-7179.997637,5592.497135
59358.220116,2294.638420,-7698.141797,1149.143247
59358.220426,-2368.659014,-9548.656652,0.000000
59358.220735,-74.020594,-10066.800811,0.000000
59358.221045,0.000000,-9326.594869,919.314598
59358.221355,-1850.514855,-9030.512492,-76.609550
59358.221664,-4737.318029,-10288.862594,-1072.533697
59358.221974,-5403.503377,-10658.965565,-1225.752797
59358.222284,-666.185348,-10955.047942,1762.019645
59358.222593,2886.803174,-6883.915261,2834.553343
59358.222903,2368.659014,-4811.338623,306.438199
59358.223213,592.164754,-8364.327145,3677.258390
59358.223522,-74.020594,-10658.965565,1762.019645
59358.223832,-74.020594,-9474.636058,-76.609550
59358.224141,-444.123565,-8882.471304,306.438199
59358.224451,-2146.597232,-9400.615463,-1302.362347
59358.224761,-4737.318029,-10288.862594,-2451.505594
59358.225070,-4663.297435,-11769.274478,-1532.190996
59358.225380,1110.308913,-9844.739029,2221.676944
59358.225690,4663.297435,-7698.141797,2374.896044
59358.225999,3108.864956,-5403.503377,2451.505594
59358.226309,4663.297435,-11843.295072,4213.525239
59358.226619,-370.102971,-10362.883188,1149.143247
59358.226928,1702.473667,-11843.295072,2374.896044
59358.227238,-592.164754,-9252.574275,612.876398
59358.227548,-2072.576638,-9326.594869,-459.657299
59358.227857,-4811.338623,-10140.821405,-536.266849
59358.228167,-4589.276840,-10362.883188,-842.705048
59358.228477,-296.082377,-8068.244768,1225.752797
59358.228786,2664.741391,-6365.771101,3217.601092
59358.229096,2516.700203,-4811.338623,0.000000
59358.229405,2072.576638,-9844.739029,4366.744339
59358.229715,-74.020594,-9474.636058,-76.609550
59358.230025,296.082377,-11473.192101,2068.457845
59358.230334,0.000000,-8956.491898,-612.876398
59358.230644,-1184.329507,-9474.636058,-1225.752797
59358.230954,-2812.782580,-10658.965565,-1685.410096
59358.231263,-1850.514855,-11843.295072,-459.657299
59358.231573,592.164754,-8364.327145,1838.629195
59358.231883,4367.215058,-7179.997637,2451.505594
59358.232192,4663.297435,-7105.977043,2374.896044
59358.232502,0.000000,-7179.997637,1225.752797
59358.232812,962.267725,-12435.459826,2374.896044
59358.233121,296.082377,-11399.171507,1991.848295
59358.233431,148.041188,-8364.327145,229.828649
59358.233741,-1628.453072,-8438.347739,0.000000
59358.234050,-4663.297435,-9622.677246,-1072.533697
59358.234360,-3627.009116,-10510.924376,-229.828649
59358.234669,0.000000,-6587.832884,612.876398
59358.234979,3627.009116,-6883.915261,3294.210641
59358.235289,4663.297435,-8290.306550,4826.401637
59358.235598,-2368.659014,-6587.832884,0.000000
59358.235908,-74.020594,-11251.130318,1608.800546
59358.236218,-2072.576638,-10288.862594,0.000000
59358.236527,-962.267725,-9326.594869,-1302.362347
59358.236837,-2220.617826,-9474.636058,-1302.362347
59358.237147,-3775.050304,-11029.068536,-1455.581446
59358.237456,-2590.720797,-11547.212695,-995.924147
59358.237766,370.102971,-7772.162391,0.000000
59358.238076,4737.318029,-7031.956449,3064.381992
59358.238385,5847.626942,-7105.977043,4213.525239
59358.238695,0.000000,-7179.997637,1838.629195
59358.239004,-74.020594,-11843.295072,2374.896044
59358.239314,-1776.494261,-9844.739029,612.876398
59358.239624,962.267725,-8808.450710,536.266849
59358.239933,-2960.823768,-10140.821405,153.219100
59358.240243,-5033.400406,-9844.739029,-1378.971896
59358.240553,-5699.585753,-11103.089130,-766.095498
59358.240862,-1258.350101,-6809.894666,76.609550
59358.241172,296.082377,-5403.503377,1838.629195
59358.241482,2368.659014,-7179.997637,4903.011187
59358.241791,-74.020594,-9474.636058,2374.896044
59358.242101,-3552.988522,-7920.203579,0.000000
59358.242411,-1924.535449,-8364.327145,0.000000
59358.242720,-148.041188,-8734.430116,-76.609550
59358.243030,-1776.494261,-8364.327145,-919.314598
59358.243340,-3108.864956,-10955.047942,-1149.143247
59358.243649,-2368.659014,-11621.233289,-306.438199
59358.243959,2294.638420,-9474.636058,1762.019645
59358.244268,3775.050304,-7179.997637,2145.067394
59358.244578,0.000000,-4811.338623,1225.752797
59358.244888,1776.494261,-11029.068536,3447.429741
59358.245197,-370.102971,-11843.295072,1149.143247
59358.245507,-2516.700203,-8364.327145,0.000000
59358.245817,-518.144159,-9474.636058,766.095498
59358.246126,-2368.659014,-8882.471304,-383.047749
59358.246436,-4811.338623,-9992.780217,-612.876398
59358.246746,-4071.132681,-9696.697840,-76.609550
59358.247055,1702.473667,-9474.636058,2374.896044
59358.247365,3701.029710,-6513.812290,2987.772442
59358.247675,2368.659014,-5995.668130,4903.011187
59358.247984,-74.020594,-9474.636058,2374.896044
59358.248294,-3552.988522,-9548.656652,0.000000
59358.248604,-1554.432478,-9474.636058,-2374.896044
59358.248913,-592.164754,-9252.574275,0.000000
59358.249223,-1554.432478,-9400.615463,-1149.143247
59358.249532,-3552.988522,-10807.006753,-1838.629195
59358.249842,-1924.535449,-11325.150913,-76.609550
59358.250152,4071.132681,-10658.965565,3600.648841
59358.250461,5847.626942,-6513.812290,3294.210641
59358.250771,2368.659014,-4811.338623,3677.258390
59358.251081,3478.967927,-10658.965565,3294.210641
59358.251390,-2220.617826,-9548.656652,612.876398
59358.251700,-74.020594,-10362.883188,383.047749
59358.252010,0.000000,-8660.409521,306.438199
59358.252319,-2960.823768,-9104.533087,-995.924147
59358.252629,-6069.688724,-11177.109724,-1378.971896
59358.252939,-3478.967927,-10732.986159,-76.609550
59358.253248,2368.659014,-9474.636058,3600.648841
59358.253558,4663.297435,-7105.977043,4213.525239
59358.253868,296.082377,-4811.338623,612.876398
59358.254177,-74.020594,-9474.636058,1762.019645
59358.254487,-2960.823768,-8364.327145,-3677.258390
59358.254796,-222.061783,-11473.192101,0.000000
59358.255106,-222.061783,-7846.182985,-842.705048
59358.255416,-888.247130,-9252.574275,0.000000
59358.255725,-2368.659014,-10214.842000,-612.876398
59358.256035,-1258.350101,-11029.068536,1762.019645
59358.256345,3701.029710,-10066.800811,4519.963438
59358.256654,5255.462188,-7105.977043,2987.772442
59358.256964,0.000000,-4811.338623,0.000000
59358.257274,-1184.329507,-11029.068536,2451.505594
59358.257583,-1258.350101,-11843.295072,-76.609550
59358.257893,-74.020594,-10658.965565,-76.609550
59358.258203,0.000000,-7920.203579,0.000000
59358.258512,-2368.659014,-8364.327145,0.000000
59358.258822,-4441.235652,-9844.739029,-459.657299
59358.259132,-3108.864956,-9992.780217,689.485948
59358.259441,1184.329507,-8438.347739,3677.258390
59358.259751,4663.297435,-7698.141797,4826.401637
59358.260060,0.000000,-3627.009116,0.000000
59358.260370,-2368.659014,-9548.656652,1225.752797
59358.260680,-1258.350101,-11769.274478,-76.609550
59358.260989,-74.020594,-9992.780217,-76.609550
59358.261299,-592.164754,-8586.388927,-383.047749
59358.261609,-1702.473667,-9252.574275,-536.266849
59358.261918,-3330.926739,-11103.089130,-766.095498
59358.262228,-1702.473667,-10881.027347,0.000000
59358.262538,1184.329507,-7179.997637,1532.190996
59358.262847,5551.544565,-7105.977043,4826.401637
59358.263157,518.144159,-3627.009116,0.000000
59358.263467,0.000000,-9548.656652,2451.505594
59358.263776,-74.020594,-11843.295072,1149.143247
59358.264086,-296.082377,-10658.965565,2374.896044
59358.264396,-592.164754,-9400.615463,0.000000
59358.264705,-3182.885551,-9474.636058,-689.485948
59358.265015,-4737.318029,-10436.903782,-612.876398
59358.265324,-2664.741391,-9992.780217,0.000000
59358.265634,0.000000,-5995.668130,1532.190996
59358.265944,4589.276840,-7105.977043,5515.887586
59358.266253,4663.297435,-8290.306550,3600.648841
59358.266563,-2960.823768,-7328.038826,0.000000
59358.266873,-1776.494261,-10584.944971,1149.143247
59358.267182,-1184.329507,-11103.089130,1991.848295
59358.267492,-222.061783,-8734.430116,-229.828649
59358.267802,-1924.535449,-8512.368333,-1149.143247
59358.268111,-2886.803174,-10732.986159,-459.657299
59358.268421,-666.185348,-9548.656652,-1072.533697
59358.268731,592.164754,-6291.750507,0.000000
59358.269040,3552.988522,-6587.832884,2451.505594
59358.269350,4663.297435,-8882.471304,2374.896044
59358.269660,-3256.906145,-8364.327145,0.000000
59358.269969,-666.185348,-12435.459826,1762.019645
59358.270279,-1628.453072,-10732.986159,919.314598
59358.270588,-74.020594,-9474.636058,-76.609550
59358.270898,-1850.514855,-9252.574275,-153.219100
59358.271208,-2960.823768,-10066.800811,0.000000
59358.271517,-1332.370696,-8364.327145,842.705048
59358.271827,1554.432478,-6439.791695,1225.752797
59358.272137,2664.741391,-4811.338623,612.876398
59358.272446,592.164754,-7772.162391,3064.381992
59358.272756,-74.020594,-11843.295072,-76.609550
59358.273066,-4071.132681,-9548.656652,-76.609550
59358.273375,-1776.494261,-9548.656652,306.438199
59358.273685,222.061783,-8290.306550,-76.609550
59358.273995,-1924.535449,-8956.491898,-153.219100
59358.274304,-3404.947333,-10436.903782,-612.876398
59358.274614,-1184.329507,-10066.800811,1149.143247
59358.274924,2886.803174,-7994.224174,1149.143247
59358.275233,3404.947333,-4959.379811,383.047749
59358.275543,592.164754,-7179.997637,2451.505594
59358.275852,-74.020594,-10658.965565,-76.609550
59358.276162,-2368.659014,-11029.068536,0.000000
59358.276472,0.000000,-9548.656652,0.000000
59358.276781,0.000000,-9474.636058,306.438199
59358.277091,-2738.761985,-9474.636058,-536.266849
59358.277401,-3923.091493,-10584.944971,-229.828649
59358.277710,-1480.411884,-11251.130318,2068.457845
59358.278020,4071.132681,-7994.224174,3600.648841
59358.278330,3182.885551,-4219.173869,1302.362347
59358.278639,0.000000,-7179.997637,2757.943793
59358.278949,-74.020594,-11251.130318,1149.143247
59358.279259,-3256.906145,-9548.656652,0.000000
59358.279568,-2368.659014,-7772.162391,-1838.629195
59358.279878,-444.123565,-8216.285956,0.000000
59358.280187,-2590.720797,-9178.553681,-1225.752797
59358.280497,-3034.844362,-10955.047942,-612.876398
59358.280807,-370.102971,-11843.295072,2068.457845
59358.281116,4663.297435,-9474.636058,4826.401637
59358.281426,4663.297435,-4811.338623,536.266849
59358.281736,2368.659014,-7772.162391,3064.381992
59358.282045,-74.020594,-11843.295072,-76.609550
59358.282355,-1628.453072,-10807.006753,-1838.629195
59358.282665,-666.185348,-9474.636058,-383.047749
59358.282974,0.000000,-8364.327145,76.609550
59358.283284,-2220.617826,-9326.594869,-306.438199
59358.283594,-4071.132681,-10436.903782,-383.047749
59358.283903,-814.226536,-10584.944971,2451.505594
59358.284213,3404.947333,-9474.636058,5439.278036
59358.284523,4663.297435,-8290.306550,4826.401637
59358.284832,0.000000,-4811.338623,612.876398
59358.285142,-1406.391290,-11251.130318,1762.019645
59358.285451,-2516.700203,-9548.656652,-2451.505594
59358.285761,-74.020594,-9474.636058,-76.609550
59358.286071,0.000000,-8068.244768,0.000000
59358.286380,-1850.514855,-9030.512492,-689.485948
59358.286690,-3108.864956,-10436.903782,-612.876398
59358.287000,0.000000,-9548.656652,919.314598
59358.287309,2664.741391,-9548.656652,3677.258390
59358.287619,5847.626942,-8290.306550,3600.648841
59358.287929,0.000000,-5403.503377,0.000000
59358.288238,-74.020594,-12435.459826,1685.410096
59358.288548,-1850.514855,-10066.800811,-1302.362347
59358.288858,2294.638420,-11103.089130,1608.800546
59358.289167,-74.020594,-8882.471304,0.000000
59358.289477,-2442.679609,-9474.636058,0.000000
59358.289787,-3849.070898,-10807.006753,76.609550
59358.290096,-2368.659014,-8364.327145,0.000000
59358.290406,1184.329507,-5995.668130,3064.381992
59358.290715,4663.297435,-7994.224174,4826.401637
59358.291025,0.000000,-4811.338623,306.438199
59358.291335,-1258.350101,-11843.295072,1991.848295
59358.291644,-2442.679609,-9474.636058,-76.609550
59358.291954,962.267725,-11251.130318,1455.581446
59358.292264,444.123565,-7772.162391,459.657299
59358.292573,-2516.700203,-8808.450710,-842.705048
59358.292883,-3404.947333,-10214.842000,-689.485948
59358.293193,-3256.906145,-8364.327145,0.000000
59358.293502,592.164754,-5403.503377,306.438199
59358.293812,4737.318029,-8364.327145,4903.011187
59358.294122,1110.308913,-6809.894666,229.828649
59358.294431,-1184.329507,-11325.150913,766.095498
59358.294741,-74.020594,-12435.459826,-76.609550
59358.295051,1184.329507,-10362.883188,1532.190996
59358.295360,148.041188,-9030.512492,919.314598
59358.295670,-1998.556043,-8956.491898,229.828649
59358.295980,-3404.947333,-10214.842000,383.047749
59358.296289,-1258.350101,-7254.018232,689.485948
59358.296599,888.247130,-3627.009116,995.924147
59358.296909,0.000000,-3034.844362,1225.752797
59358.297219,1702.473667,-9474.636058,2987.772442
59358.297528,-4367.215058,-9548.656652,-1072.533697
59358.297838,-4737.318029,-9844.739029,0.000000
59358.298148,-74.020594,-10658.965565,1149.143247
59358.298457,-2368.659014,-7476.080014,0.000000
59358.298767,-2368.659014,-9918.759623,306.438199
59358.299077,-2442.679609,-10288.862594,-76.609550
59358.299387,0.000000,-7179.997637,0.000000
59358.299696,1776.494261,-4811.338623,2451.505594
59358.300006,4737.318029,-5995.668130,4903.011187
59358.300316,3478.967927,-8290.306550,2374.896044
59358.300625,-2368.659014,-9548.656652,0.000000
59358.300935,-962.267725,-13027.624579,1149.143247
59358.301245,-74.020594,-11769.274478,1072.533697
59358.301555,-888.247130,-9474.636058,-459.657299
59358.301864,-4145.153275,-10140.821405,-1072.533697
59358.302174,-3849.070898,-11103.089130,-459.657299
59358.302484,-1776.494261,-7179.997637,0.000000
59358.302793,592.164754,-3627.009116,612.876398
59358.303103,2368.659014,-3627.009116,2757.943793
59358.303413,3182.885551,-9474.636058,4213.525239
59358.303722,-3478.967927,-8364.327145,306.438199
59358.304032,-666.185348,-11843.295072,2374.896044
59358.304342,-1184.329507,-8956.491898,766.095498
59358.304652,-444.123565,-8660.409521,229.828649
59358.304961,-2738.761985,-8808.450710,-919.314598
59358.305271,-4071.132681,-10362.883188,-1149.143247
59358.305581,-1850.514855,-9178.553681,-1302.362347
59358.305890,814.226536,-5995.668130,0.000000
59358.306200,0.000000,-4811.338623,612.876398
59358.306510,1776.494261,-9252.574275,3064.381992
59358.306820,-962.267725,-11251.130318,689.485948
59358.307129,296.082377,-11917.315666,2451.505594
59358.307439,0.000000,-8956.491898,1225.752797
59358.307749,370.102971,-8586.388927,919.314598
59358.308058,-2590.720797,-8882.471304,-306.438199
59358.308368,-3478.967927,-10140.821405,-306.438199
59358.308678,-74.020594,-10362.883188,1762.019645
59358.308988,3478.967927,-6809.894666,1762.019645
59358.309297,0.000000,-3627.009116,153.219100
59358.309607,0.000000,-9252.574275,2451.505594
59358.309917,-1850.514855,-11547.212695,-76.609550
59358.310226,-3256.906145,-10732.986159,612.876398
59358.310536,-1776.494261,-8364.327145,0.000000
59358.310846,-148.041188,-8364.327145,612.876398
59358.311156,-2590.720797,-9178.553681,-842.705048
59358.311465,-3182.885551,-9844.739029,-612.876398
59358.311775,1702.473667,-9474.636058,2374.896044
59358.312085,5847.626942,-7105.977043,4826.401637
59358.312394,2886.803174,-3627.009116,536.266849
59358.312704,1184.329507,-8660.409521,2451.505594
59358.313014,-370.102971,-11843.295072,-76.609550
59358.313324,-3552.988522,-9844.739029,0.000000
59358.313633,-962.267725,-9548.656652,-919.314598
59358.313943,-666.185348,-8956.491898,-459.657299
59358.314253,-3034.844362,-9474.636058,-153.219100
59358.314562,-3034.844362,-10658.965565,0.000000
59358.314872,2294.638420,-11547.212695,4826.401637
59358.315182,7031.956449,-9474.636058,5898.935335
59358.315491,2294.638420,-4219.173869,1762.019645
59358.315801,0.000000,-8956.491898,2451.505594
59358.316111,-1850.514855,-10658.965565,-76.609550
59358.316421,-4145.153275,-9548.656652,0.000000
59358.316730,-74.020594,-8882.471304,-76.609550
59358.317040,-1332.370696,-7772.162391,-459.657299
59358.317350,-3552.988522,-9844.739029,0.000000
59358.317659,-3330.926739,-11325.150913,-995.924147
59358.317969,0.000000,-10881.027347,2451.505594
59358.318279,4663.297435,-8734.430116,3677.258390
59358.318589,5847.626942,-9474.636058,4213.525239
59358.318898,1036.288319,-6291.750507,229.828649
59358.319208,-592.164754,-11325.150913,3217.601092
59358.319518,-962.267725,-8438.347739,-1532.190996
59358.319827,1110.308913,-8882.471304,-689.485948
59358.320137,-962.267725,-8660.409521,0.000000
59358.320447,-2960.823768,-9770.718434,-536.266849
59358.320757,-3701.029710,-11177.109724,0.000000
59358.321066,0.000000,-8956.491898,2451.505594
59358.321376,4145.153275,-7179.997637,2451.505594
59358.321686,5477.523971,-8290.306550,4826.401637
59358.321995,-74.020594,-9178.553681,-76.609550
59358.322305,-4441.235652,-9548.656652,306.438199
59358.322615,-1850.514855,-11843.295072,-1302.362347
59358.322925,-74.020594,-9474.636058,1149.143247
59358.323234,-1702.473667,-8216.285956,-229.828649
59358.323544,-3775.050304,-9326.594869,-459.657299
59358.323854,-4367.215058,-10066.800811,-995.924147
59358.324163,0.000000,-7179.997637,0.000000
59358.324473,2368.659014,-3627.009116,612.876398
59358.324783,4145.153275,-7476.080014,4903.011187
59358.325093,2294.638420,-9178.553681,1149.143247
59358.325402,-2368.659014,-11029.068536,612.876398
59358.325712,2294.638420,-11843.295072,-76.609550
59358.326022,814.226536,-11251.130318,1302.362347
59358.326331,-1554.432478,-9030.512492,-842.705048
59358.326641,-3997.112087,-10584.944971,-1302.362347
59358.326951,-3034.844362,-10362.883188,0.000000
59358.327260,0.000000,-7179.997637,689.485948
59358.327570,2368.659014,-4811.338623,1455.581446
59358.327880,2368.659014,-5403.503377,3064.381992
59358.328190,1702.473667,-10658.965565,2374.896044
59358.328499,-3701.029710,-8364.327145,0.000000
59358.328809,-74.020594,-11843.295072,2374.896044
59358.329119,888.247130,-9474.636058,1915.238745
59358.329428,-444.123565,-8512.368333,459.657299
59358.329738,-3182.885551,-9770.718434,-383.047749
59358.330048,-3182.885551,-10362.883188,-459.657299
59358.330358,-222.061783,-7179.997637,-76.609550
59358.330667,1702.473667,-5921.647536,-76.609550
59358.330977,592.164754,-4811.338623,612.876398
59358.331287,1480.411884,-9548.656652,2451.505594
59358.331596,-666.185348,-10140.821405,-2221.676944
59358.331906,592.164754,-13027.624579,1762.019645
59358.332216,0.000000,-9844.739029,0.000000
59358.332526,-962.267725,-9252.574275,-612.876398
59358.332835,-2738.761985,-9844.739029,-459.657299
59358.333145,-2220.617826,-10362.883188,459.657299
59358.333455,2294.638420,-8290.306550,2987.772442
59358.333764,4663.297435,-8290.306550,4826.401637
59358.334074,1184.329507,-4811.338623,1838.629195
59358.334384,148.041188,-10732.986159,2451.505594
59358.334694,-2590.720797,-9548.656652,-2528.115143
59358.335003,-2368.659014,-10732.986159,1838.629195
59358.335313,-2368.659014,-8364.327145,0.000000
59358.335623,-2072.576638,-8364.327145,0.000000
59358.335932,-4441.235652,-9474.636058,-1072.533697
59358.336242,-4293.194464,-9548.656652,-612.876398
59358.336552,-74.020594,-9474.636058,2374.896044
59358.336862,4663.297435,-8882.471304,3600.648841
59358.337171,1776.494261,-3627.009116,612.876398
59358.337481,592.164754,-8364.327145,2451.505594
59358.337791,-74.020594,-11251.130318,-76.609550
59358.338100,0.000000,-9548.656652,0.000000
59358.338410,-1332.370696,-8660.409521,-766.095498
59358.338720,-1998.556043,-9474.636058,-995.924147
59358.339029,-4515.256246,-10732.986159,-1225.752797
59358.339339,-3701.029710,-10807.006753,-383.047749
59358.339649,2886.803174,-9474.636058,3600.648841
59358.339959,7031.956449,-9474.636058,6052.154434
59358.340268,2886.803174,-5033.400406,2068.457845
59358.340578,0.000000,-8660.409521,2757.943793
59358.340888,-1406.391290,-10066.800811,-76.609550
59358.341197,-3552.988522,-7772.162391,0.000000
59358.341507,-444.123565,-9030.512492,0.000000
59358.341817,-2738.761985,-9104.533087,-536.266849
59358.342127,-5255.462188,-10584.944971,-2298.286494
59358.342436,-4737.318029,-11251.130318,-1149.143247
59358.342746,1258.350101,-9696.697840,1991.848295
59358.343056,3552.988522,-7179.997637,3064.381992
59358.343365,4663.297435,-8290.306550,4213.525239
59358.343675,-74.020594,-8586.388927,1072.533697
59358.343985,-74.020594,-12213.398043,3064.381992
59358.344295,-1702.473667,-8364.327145,0.000000
59358.344604,518.144159,-8586.388927,-76.609550
59358.344914,-2220.617826,-8142.265362,-459.657299
59358.345224,-4145.153275,-9474.636058,-1149.143247
59358.345533,-2590.720797,-10881.027347,76.609550
59358.345843,1776.494261,-8956.491898,2757.943793
59358.346153,2960.823768,-5995.668130,3677.258390
59358.346463,5255.462188,-8882.471304,4519.963438
59358.346772,-962.267725,-9178.553681,0.000000
59358.347082,-2368.659014,-10732.986159,1838.629195
59358.347392,-370.102971,-9770.718434,-1149.143247
59358.347701,-74.020594,-9474.636058,1149.143247
59358.348011,-2516.700203,-8734.430116,-536.266849
59358.348321,-4515.256246,-10066.800811,-1378.971896
59358.348631,-2664.741391,-10288.862594,-76.609550
59358.348940,1184.329507,-7179.997637,1225.752797
59358.349250,2368.659014,-4811.338623,2451.505594
59358.349560,5403.503377,-7772.162391,4749.792088
59358.349869,1702.473667,-9474.636058,1762.019645
59358.350179,-4737.318029,-9548.656652,0.000000
59358.350489,-74.020594,-10658.965565,-689.485948
59358.350798,-74.020594,-10658.965565,-76.609550
59358.351108,-2886.803174,-9622.677246,-1608.800546
59358.351418,-4515.256246,-11103.089130,-1915.238745
59358.351728,-2442.679609,-10732.986159,0.000000
59358.352037,0.000000,-6587.832884,612.876398
59358.352347,2442.679609,-4811.338623,1532.190996
59358.352657,2960.823768,-7179.997637,4290.134789
59358.352966,1702.473667,-9474.636058,2374.896044
59358.353276,-4737.318029,-7179.997637,0.000000
59358.353586,1702.473667,-9474.636058,-76.609550
59358.353896,370.102971,-9474.636058,842.705048
59358.354205,-2886.803174,-9178.553681,-1225.752797
59358.354515,-5403.503377,-10955.047942,-1608.800546
59358.354825,-3923.091493,-10881.027347,-766.095498
59358.355134,0.000000,-7476.080014,76.609550
59358.355444,2886.803174,-4293.194464,1302.362347
59358.355754,2960.823768,-5995.668130,3677.258390
59358.356064,1998.556043,-9474.636058,3600.648841
59358.356373,-3552.988522,-7179.997637,0.000000
59358.356683,1702.473667,-11547.212695,2374.896044
59358.356993,-592.164754,-9622.677246,0.000000
59358.357302,-2516.700203,-9474.636058,-1225.752797
59358.357612,-4737.318029,-10658.965565,-1762.019645
59358.357922,-2960.823768,-10658.965565,-383.047749
59358.358232,1702.473667,-8290.306550,2374.896044
59358.358541,4663.297435,-7105.977043,2374.896044
59358.358851,0.000000,-5995.668130,2451.505594
59358.359161,-74.020594,-10807.006753,2911.162892
59358.359470,-4071.132681,-7772.162391,0.000000
59358.359780,1258.350101,-11251.130318,4136.915689
59358.360090,0.000000,-8364.327145,1225.752797
59358.360400,-2220.617826,-8956.491898,0.000000
59358.360709,-4663.297435,-9918.759623,-1302.362347
59358.361019,-3552.988522,-10066.800811,-766.095498
59358.361329,2294.638420,-8882.471304,2374.896044
59358.361638,4663.297435,-8882.471304,3294.210641
59358.361948,0.000000,-5995.668130,612.876398
59358.362258,-296.082377,-10362.883188,3370.820191
59358.362567,-2442.679609,-9400.615463,-995.924147
59358.362877,0.000000,-11325.150913,2451.505594
59358.363187,-1184.329507,-8068.244768,0.000000
59358.363497,-2442.679609,-8956.491898,-689.485948
59358.363806,-3701.029710,-9992.780217,-842.705048
59358.364116,-1628.453072,-9622.677246,689.485948
59358.364426,4663.297435,-9474.636058,2987.772442
59358.364735,7031.956449,-8290.306550,4826.401637
59358.365045,1184.329507,-5403.503377,1225.752797
59358.365355,888.247130,-10658.965565,2374.896044
59358.365665,-4737.318029,-7179.997637,0.000000
59358.365974,-1184.329507,-10732.986159,1838.629195
59358.366284,-1628.453072,-9030.512492,-612.876398
59358.366594,-2812.782580,-9918.759623,-766.095498
59358.366903,-4811.338623,-10732.986159,-1455.581446
59358.367213,-2960.823768,-9696.697840,-612.876398
59358.367523,2886.803174,-9400.615463,2757.943793
59358.367833,6143.709319,-7698.141797,5745.716235
59358.368142,4367.215058,-5773.606348,3294.210641
59358.368452,0.000000,-8364.327145,1838.629195
59358.368762,-74.020594,-10658.965565,-76.609550
59358.369071,-2368.659014,-8364.327145,0.000000
59358.369381,-1258.350101,-9178.553681,-1302.362347
59358.369691,-3034.844362,-10066.800811,-1838.629195
59358.370001,-3923.091493,-11029.068536,-1685.410096
59358.370310,-1480.411884,-10362.883188,-536.266849
59358.370620,3108.864956,-8956.491898,2451.505594
59358.370930,4737.318029,-7179.997637,4290.134789
59358.371239,3923.091493,-9474.636058,4213.525239
59358.371549,-1258.350101,-8882.471304,-76.609550
59358.371859,-4737.318029,-8364.327145,0.000000
59358.372169,0.000000,-6291.750507,0.000000
59358.372478,666.185348,-8142.265362,689.485948
59358.372788,-2664.741391,-8956.491898,-459.657299
59358.373098,-5255.462188,-10510.924376,-1378.971896
59358.373407,-2590.720797,-10436.903782,-842.705048
59358.373717,592.164754,-7179.997637,1838.629195
59358.374027,2368.659014,-5995.668130,3064.381992
59358.374336,3552.988522,-8068.244768,4136.915689
59358.374646,-74.020594,-10658.965565,-76.609550
59358.374956,-2368.659014,-9548.656652,0.000000
59358.375266,-2146.597232,-7846.182985,-1532.190996
59358.375575,-74.020594,-9326.594869,-76.609550
59358.375885,-3552.988522,-8882.471304,-1378.971896
59358.376195,-4663.297435,-10510.924376,-1072.533697
59358.376504,-2146.597232,-10066.800811,536.266849
59358.376814,592.164754,-6587.832884,2451.505594
59358.377124,2368.659014,-4811.338623,2451.505594
59358.377434,2590.720797,-9474.636058,3600.648841
59358.377743,-1258.350101,-9178.553681,-383.047749
59358.378053,-2368.659014,-10140.821405,612.876398
59358.378363,-74.020594,-8290.306550,0.000000
59358.378672,-814.226536,-8956.491898,536.266849
59358.378982,-4145.153275,-9548.656652,-919.314598
59358.379292,-5625.565159,-10881.027347,-1378.971896
59358.379602,-2738.761985,-10214.842000,-306.438199
59358.379911,0.000000,-6957.935855,2298.286494
59358.380221,1776.494261,-3923.091493,1838.629195
59358.380531,2368.659014,-6883.915261,3677.258390
59358.380840,-74.020594,-10658.965565,-76.609550
59358.381150,-3552.988522,-8364.327145,0.000000
59358.381460,1702.473667,-9474.636058,-689.485948
59358.381770,-962.267725,-9178.553681,-842.705048
59358.382079,-3330.926739,-9992.780217,-1532.190996
59358.382389,-4219.173869,-11843.295072,-1378.971896
59358.382699,-814.226536,-10436.903782,995.924147
59358.383008,3182.885551,-7994.224174,2374.896044
59358.383318,3478.967927,-5033.400406,1762.019645
59358.383628,0.000000,-7179.997637,1838.629195
59358.383938,-74.020594,-13027.624579,3600.648841
59358.384247,-2294.638420,-8364.327145,0.000000
59358.384557,2886.803174,-10658.965565,1149.143247
59358.384867,0.000000,-8068.244768,0.000000
59358.385176,-2146.597232,-9844.739029,-76.609550
59358.385486,-3627.009116,-11029.068536,-612.876398
59358.385796,-1628.453072,-9474.636058,306.438199
59358.386105,4071.132681,-8290.306550,3447.429741
59358.386415,3478.967927,-5625.565159,1762.019645
59358.386725,592.164754,-7179.997637,1532.190996
59358.387035,-74.020594,-13027.624579,2374.896044
59358.387344,-4441.235652,-7772.162391,-2298.286494
59358.387654,1332.370696,-11547.212695,-76.609550
59358.387964,-2368.659014,-8512.368333,-1762.019645
59358.388273,-3701.029710,-9992.780217,-1838.629195
59358.388583,-4367.215058,-11325.150913,-1149.143247
59358.388893,0.000000,-8734.430116,1991.848295
59358.389203,6143.709319,-8142.265362,4826.401637
59358.389512,7031.956449,-5921.647536,3600.648841
59358.389822,1184.329507,-5995.668130,2451.505594
59358.390132,1110.308913,-13027.624579,3600.648841
59358.390441,-3552.988522,-7328.038826,-2374.896044
59358.390751,-296.082377,-12287.418637,2374.896044
59358.391061,-74.020594,-8734.430116,-76.609550
59358.391371,-4589.276840,-11029.068536,-1302.362347
59358.391680,-5107.421000,-10732.986159,-2068.457845
59358.391990,-2738.761985,-10140.821405,-76.609550
59358.392300,4071.132681,-7846.182985,2834.553343
59358.392609,4663.297435,-7105.977043,3600.648841
59358.392919,740.205942,-6143.709319,1838.629195
59358.393229,0.000000,-10732.986159,3677.258390
59358.393539,-74.020594,-9474.636058,-76.609550
59358.393848,1406.391290,-10066.800811,1762.019645
59358.394158,-888.247130,-8660.409521,-153.219100
59358.394468,-3552.988522,-8956.491898,-1072.533697
59358.394777,-4145.153275,-10807.006753,-842.705048
59358.395087,-518.144159,-9326.594869,1838.629195
59358.395397,4441.235652,-8660.409521,3830.477490
59358.395707,5847.626942,-8290.306550,3600.648841
59358.396016,0.000000,-7476.080014,383.047749
59358.396326,-3552.988522,-9548.656652,0.000000
59358.396636,-74.020594,-11843.295072,1762.019645
59358.396946,592.164754,-10658.965565,1532.190996
59358.397255,-1554.432478,-8660.409521,-689.485948
59358.397565,-3552.988522,-9696.697840,-459.657299
59358.397875,-3701.029710,-10436.903782,-459.657299
59358.398184,-666.185348,-8734.430116,995.924147
59358.398494,3478.967927,-6957.935855,2221.676944
59358.398804,3034.844362,-5107.421000,0.000000
59358.399114,0.000000,-6587.832884,1225.752797
59358.399423,-814.226536,-11621.233289,1915.238745
59358.399733,-1850.514855,-10066.800811,-1302.362347
59358.400043,-1258.350101,-8660.409521,0.000000
59358.400353,-1258.350101,-10066.800811,-383.047749
59358.400662,-3627.009116,-9474.636058,-1455.581446
59358.400972,-3552.988522,-11029.068536,-229.828649
59358.401282,444.123565,-9252.574275,1991.848295
59358.401592,1776.494261,-5255.462188,995.924147
59358.401901,2886.803174,-4367.215058,1838.629195
59358.402211,0.000000,-8364.327145,2451.505594
59358.402521,-74.020594,-11843.295072,2374.896044
59358.402830,-3404.947333,-8364.327145,-2451.505594
59358.403140,1110.308913,-8882.471304,229.828649
59358.403450,-74.020594,-10362.883188,842.705048
59358.403760,-3478.967927,-9622.677246,-919.314598
59358.404069,-3923.091493,-10436.903782,-1225.752797
59358.404379,-814.226536,-9918.759623,766.095498
59358.404689,1184.329507,-5403.503377,153.219100
59358.404999,888.247130,-3923.091493,1225.752797
59358.405308,0.000000,-7179.997637,1838.629195
59358.405618,-370.102971,-10955.047942,1149.143247
59358.405928,-4145.153275,-7772.162391,0.000000
59358.406237,2294.638420,-11251.130318,-76.609550
59358.406547,-888.247130,-9252.574275,612.876398
59358.406857,-2442.679609,-9474.636058,-306.438199
59358.407167,-2368.659014,-9548.656652,0.000000
59358.407476,814.226536,-8808.450710,1532.190996
59358.407786,3182.885551,-6513.812290,1762.019645
59358.408096,3478.967927,-5329.482782,842.705048
59358.408406,-2368.659014,-7179.997637,0.000000
59358.408715,-1776.494261,-11029.068536,2068.457845
59358.409025,-3478.967927,-8364.327145,-2451.505594
59358.409335,2590.720797,-11843.295072,2374.896044
59358.409644,-1184.329507,-8956.491898,306.438199
59358.409954,-2886.803174,-10140.821405,-689.485948
59358.410264,-3330.926739,-11029.068536,-153.219100
59358.410574,444.123565,-8586.388927,1608.800546
59358.410883,4663.297435,-7105.977043,3600.648841
59358.411193,4663.297435,-7105.977043,2987.772442
59358.411503,0.000000,-7179.997637,612.876398
59358.411813,-1258.350101,-11695.253884,1762.019645
59358.412122,-4737.318029,-7179.997637,0.000000
59358.412432,1184.329507,-10584.944971,2987.772442
59358.412742,-2368.659014,-7624.121203,0.000000
59358.413052,-3849.070898,-9400.615463,-612.876398
59358.413361,-4367.215058,-10807.006753,-995.924147
59358.413671,148.041188,-8660.409521,1378.971896
59358.413981,5847.626942,-8882.471304,3370.820191
59358.414290,4663.297435,-8882.471304,3600.648841
59358.414600,-1850.514855,-7476.080014,0.000000
59358.414910,-1776.494261,-10881.027347,2374.896044
59358.415220,-2368.659014,-8438.347739,-1838.629195
59358.415529,0.000000,-8660.409521,2757.943793
59358.415839,-1998.556043,-7920.203579,0.000000
59358.416149,-3701.029710,-10066.800811,-229.828649
59358.416459,-3330.926739,-11029.068536,306.438199
59358.416768,370.102971,-8290.306550,1762.019645
59358.417078,4663.297435,-8290.306550,3447.429741
59358.417388,7031.956449,-8290.306550,6052.154434
59358.417697,-74.020594,-7994.224174,842.705048
59358.418007,-3552.988522,-9548.656652,0.000000
59358.418317,-74.020594,-13027.624579,-76.609550
59358.418627,-2368.659014,-8364.327145,0.000000
59358.418936,-2368.659014,-8956.491898,-1302.362347
59358.419246,-3256.906145,-10881.027347,0.000000
59358.419556,-1850.514855,-10807.006753,766.095498
59358.419866,1924.535449,-7994.224174,2068.457845
59358.420175,5625.565159,-7179.997637,4136.915689
59358.420485,3552.988522,-6587.832884,3677.258390
59358.420795,1110.308913,-9474.636058,1762.019645
59358.421105,-2960.823768,-9548.656652,0.000000
59358.421414,-74.020594,-12435.459826,-76.609550
59358.421724,-2368.659014,-7179.997637,0.000000
59358.422034,-962.267725,-9252.574275,-689.485948
59358.422343,-3552.988522,-10510.924376,-1225.752797
59358.422653,-2960.823768,-11325.150913,-153.219100
59358.422963,814.226536,-8660.409521,1762.019645
59358.423273,2960.823768,-5995.668130,3677.258390
59358.423582,2368.659014,-5995.668130,3677.258390
59358.423892,1998.556043,-10658.965565,2987.772442
59358.424202,-1924.535449,-8956.491898,-2451.505594
59358.424512,-74.020594,-11251.130318,2068.457845
59358.424821,-1924.535449,-6587.832884,-1838.629195
59358.425131,-1258.350101,-8882.471304,-76.609550
59358.425441,-3627.009116,-10288.862594,-536.266849
59358.425750,-2368.659014,-10436.903782,536.266849
59358.426060,1036.288319,-8586.388927,1991.848295
59358.426370,1480.411884,-5995.668130,1838.629195
59358.426680,0.000000,-5403.503377,1225.752797
59358.426989,296.082377,-10436.903782,1838.629195
59358.427299,-666.185348,-10658.965565,-689.485948
59358.427609,0.000000,-9548.656652,0.000000
59358.427919,1110.308913,-8586.388927,-995.924147
59358.428228,-370.102971,-9474.636058,-76.609550
59358.428538,-3182.885551,-10362.883188,0.000000
59358.428848,-2590.720797,-10066.800811,383.047749
59358.429157,518.144159,-7698.141797,1378.971896
59358.429467,592.164754,-5699.585753,2221.676944
59358.429777,666.185348,-5625.565159,1378.971896
59358.430087,-2368.659014,-9548.656652,766.095498
59358.430396,-1258.350101,-11843.295072,-76.609550
59358.430706,-4737.318029,-9548.656652,0.000000
59358.431016,-74.020594,-9474.636058,-689.485948
59358.431326,-1480.411884,-8882.471304,306.438199
59358.431635,-2960.823768,-9992.780217,229.828649
59358.431945,-1406.391290,-9622.677246,842.705048
59358.432255,1480.411884,-7698.141797,2528.115143
59358.432565,3182.885551,-5477.523971,2987.772442
59358.432874,2294.638420,-5625.565159,1455.581446
59358.433184,-1184.329507,-9548.656652,1225.752797
59358.433494,-666.185348,-11843.295072,-76.609550
59358.433803,-4145.153275,-9548.656652,0.000000
59358.434113,2294.638420,-11843.295072,-76.609550
59358.434423,-2368.659014,-9252.574275,-919.314598
59358.434733,-3478.967927,-11177.109724,-306.438199
59358.435042,-2072.576638,-10584.944971,689.485948
59358.435352,2072.576638,-7402.059420,2451.505594
59358.435662,6439.791695,-6957.935855,4826.401637
59358.435972,4663.297435,-6513.812290,3447.429741
59358.436281,-2368.659014,-7772.162391,919.314598
59358.436591,-74.020594,-13545.768739,3600.648841
59358.436901,-1998.556043,-8068.244768,-2068.457845
59358.437210,1702.473667,-10584.944971,1762.019645
59358.437520,-2812.782580,-8364.327145,-919.314598
59358.437830,-4367.215058,-10214.842000,-842.705048
59358.438140,-2738.761985,-10584.944971,-229.828649
59358.438449,962.267725,-8290.306550,1302.362347
59358.438759,4663.297435,-7994.224174,3447.429741
59358.439069,2886.803174,-8290.306550,1149.143247
59358.439379,-3108.864956,-8364.327145,0.000000
59358.439688,-1184.329507,-12509.480420,2451.505594
59358.439998,-74.020594,-10658.965565,-76.609550
59358.440308,1776.494261,-8586.388927,2757.943793
59358.440617,-518.144159,-7994.224174,229.828649
59358.440927,-2886.803174,-9548.656652,0.000000
59358.441237,-2146.597232,-10510.924376,536.266849
59358.441547,2072.576638,-8512.368333,2298.286494
59358.441856,4589.276840,-8216.285956,2604.724693
59358.442166,3182.885551,-9474.636058,2987.772442
59358.442476,-1554.432478,-10658.965565,-76.609550
59358.442786,-4737.318029,-10732.986159,0.000000
59358.443095,-74.020594,-11251.130318,-76.609550
59358.443405,0.000000,-8660.409521,1915.238745
59358.443715,-2146.597232,-8290.306550,-383.047749
59358.444025,-3478.967927,-9844.739029,76.609550
59358.444334,-1110.308913,-9252.574275,1225.752797
59358.444644,2294.638420,-7328.038826,2604.724693
59358.444954,4737.318029,-5107.421000,2451.505594
59358.445263,2368.659014,-7179.997637,2757.943793
59358.445573,-74.020594,-10362.883188,-76.609550
59358.445883,-3552.988522,-9548.656652,0.000000
59358.446193,-74.020594,-13027.624579,-76.609550
59358.446502,-1776.494261,-8956.491898,0.000000
59358.446812,-2220.617826,-10214.842000,-995.924147
59358.447122,-4293.194464,-11917.315666,-306.438199
59358.447432,-1998.556043,-10214.842000,919.314598
59358.447741,2664.741391,-7031.956449,2451.505594
59358.448051,4145.153275,-3627.009116,2451.505594
59358.448361,2368.659014,-5995.668130,3677.258390
59358.448670,-74.020594,-9474.636058,2374.896044
59358.448980,-4737.318029,-9548.656652,0.000000
59358.449290,-74.020594,-11843.295072,-76.609550
59358.449600,-2368.659014,-7476.080014,0.000000
59358.449909,-2590.720797,-9474.636058,-536.266849
59358.450219,-4219.173869,-10436.903782,-919.314598
59358.450529,-2368.659014,-10214.842000,76.609550
59358.450839,2220.617826,-7846.182985,1838.629195
59358.451148,2960.823768,-5255.462188,1378.971896
59358.451458,148.041188,-6587.832884,1225.752797
59358.451768,-74.020594,-11547.212695,2451.505594
59358.452078,-74.020594,-9474.636058,-689.485948
59358.452387,0.000000,-9548.656652,1225.752797
59358.452697,370.102971,-7179.997637,459.657299
59358.453007,-1850.514855,-9474.636058,-153.219100
59358.453316,-3627.009116,-11473.192101,-306.438199
59358.453626,-814.226536,-10140.821405,1302.362347
59358.453936,2738.761985,-8216.285956,2528.115143
59358.454246,3182.885551,-4885.359217,2374.896044
59358.454555,0.000000,-6587.832884,919.314598
59358.454865,-2368.659014,-10584.944971,1225.752797
59358.455175,-2442.679609,-10658.965565,-1915.238745
59358.455485,-3552.988522,-9548.656652,0.000000
59358.455794,-1924.535449,-7772.162391,-2145.067394
59358.456104,-2294.638420,-8512.368333,153.219100
59358.456414,-2960.823768,-9326.594869,383.047749
59358.456723,-740.205942,-8586.388927,1455.581446
59358.457033,2738.761985,-5995.668130,2834.553343
59358.457343,4219.173869,-5921.647536,3600.648841
59358.457653,962.267725,-6513.812290,842.705048
59358.457962,-2072.576638,-10436.903782,0.000000
59358.458272,-74.020594,-14211.954086,-76.609550
59358.458582,-2368.659014,-8364.327145,-2145.067394
59358.458892,518.144159,-9474.636058,-1915.238745
59358.459201,-2812.782580,-9252.574275,-612.876398
59358.459511,-3775.050304,-11399.171507,-842.705048
59358.459821,-1332.370696,-10288.862594,842.705048
59358.460130,2738.761985,-7772.162391,3600.648841
59358.460440,4663.297435,-7105.977043,4826.401637
59358.460750,1998.556043,-6143.709319,2068.457845
59358.461060,-1184.329507,-9844.739029,2451.505594
59358.461369,-666.185348,-10658.965565,-689.485948
59358.461679,-2368.659014,-8364.327145,0.000000
59358.461989,-74.020594,-9474.636058,-1302.362347
59358.462299,-3849.070898,-8956.491898,0.000000
59358.462608,-4367.215058,-10510.924376,-612.876398
59358.462918,-1850.514855,-9548.656652,1072.533697
59358.463228,2072.576638,-6957.935855,3217.601092
59358.463538,4663.297435,-7105.977043,4826.401637
59358.463847,1702.473667,-7698.141797,1149.143247
59358.464157,-2664.741391,-8734.430116,-1608.800546
59358.464467,-1184.329507,-11917.315666,1225.752797
59358.464776,-74.020594,-10658.965565,-76.609550
59358.465086,1702.473667,-9474.636058,-76.609550
59358.465396,-2072.576638,-9104.533087,0.000000
59358.465706,-2664.741391,-10436.903782,0.000000
59358.466015,-666.185348,-10066.800811,1455.581446
59358.466325,2516.700203,-7846.182985,2451.505594
59358.466635,5181.441594,-7920.203579,4749.792088
59358.466945,3330.926739,-9474.636058,2987.772442
59358.467254,-2442.679609,-9178.553681,-689.485948
59358.467564,-1776.494261,-11325.150913,1532.190996
59358.467874,-74.020594,-9474.636058,-76.609550
59358.468183,888.247130,-8882.471304,-76.609550
59358.468493,-2664.741391,-8216.285956,-536.266849
59358.468803,-3849.070898,-9474.636058,-76.609550
59358.469113,-1628.453072,-9178.553681,383.047749
59358.469422,2368.659014,-7179.997637,612.876398
59358.469732,3552.988522,-6587.832884,3064.381992
59358.470042,1702.473667,-9474.636058,2145.067394
59358.470352,-1850.514855,-11547.212695,-689.485948
59358.470661,-4737.318029,-10732.986159,0.000000
59358.470971,-74.020594,-11251.130318,-76.609550
59358.471281,222.061783,-10658.965565,2221.676944
59358.471591,-2442.679609,-9400.615463,-842.705048
59358.471900,-3404.947333,-10955.047942,-153.219100
59358.472210,-592.164754,-9548.656652,1455.581446
59358.472520,3552.988522,-6883.915261,1838.629195
59358.472829,2960.823768,-4219.173869,2451.505594
59358.473139,1332.370696,-7624.121203,2451.505594
59358.473449,-666.185348,-10658.965565,-76.609550
59358.473759,-4145.153275,-10732.986159,0.000000
59358.474068,-74.020594,-11251.130318,-76.609550
59358.474378,-2960.823768,-9474.636058,766.095498
59358.474688,-3923.091493,-9844.739029,-689.485948
59358.474998,-4959.379811,-10436.903782,-459.657299
59358.475307,-888.247130,-8734.430116,1225.752797
59358.475617,3330.926739,-4811.338623,1302.362347
59358.475927,2368.659014,-3627.009116,0.000000
59358.476236,1184.329507,-7476.080014,2451.505594
59358.476546,-74.020594,-13027.624579,2374.896044
59358.476856,-3552.988522,-9548.656652,0.000000
59358.477166,2294.638420,-11547.212695,-76.609550
59358.477475,-1628.453072,-8364.327145,0.000000
59358.477785,-2886.803174,-10807.006753,-1072.533697
59358.478095,-3478.967927,-11695.253884,-995.924147
59358.478405,-518.144159,-10214.842000,995.924147
59358.478714,3404.947333,-7402.059420,2374.896044
59358.479024,3627.009116,-5403.503377,229.828649
59358.479334,592.164754,-7179.997637,2451.505594
59358.479643,0.000000,-11325.150913,3983.696590
59358.479953,-1258.350101,-9770.718434,-383.047749
59358.480263,0.000000,-9548.656652,2145.067394
59358.480573,-1776.494261,-6587.832884,0.000000
59358.480882,-3330.926739,-9474.636058,-153.219100
59358.481192,-4441.235652,-9992.780217,-612.876398
59358.481502,-1628.453072,-9030.512492,306.438199
59358.481812,2294.638420,-7698.141797,2068.457845
59358.482121,3478.967927,-6513.812290,-76.609550
59358.482431,0.000000,-7179.997637,766.095498
59358.482741,-3552.988522,-9548.656652,0.000000
59358.483051,-74.020594,-11843.295072,-76.609550
59358.483360,0.000000,-8364.327145,0.000000
59358.483670,-1776.494261,-6883.915261,0.000000
59358.483980,-2294.638420,-9548.656652,153.219100
59358.484289,-3034.844362,-10658.965565,-153.219100
59358.484599,370.102971,-9104.533087,1532.190996
59358.484909,3627.009116,-9474.636058,3600.648841
59358.485219,4663.297435,-7105.977043,3600.648841
59358.485528,0.000000,-7550.100608,612.876398
59358.485838,-1776.494261,-11325.150913,3064.381992
59358.486148,-666.185348,-10658.965565,-383.047749
59358.486458,-2072.576638,-9548.656652,0.000000
59358.486767,-3034.844362,-7772.162391,-1455.581446
59358.487077,-4293.194464,-9548.656652,0.000000
59358.487387,-3849.070898,-10140.821405,0.000000
59358.487696,-222.061783,-7698.141797,1685.410096
59358.488006,4663.297435,-6957.935855,4443.353888
59358.488316,5847.626942,-8290.306550,4826.401637
59358.488626,1110.308913,-7550.100608,1149.143247
59358.488935,-1776.494261,-10732.986159,2451.505594
59358.489245,-666.185348,-11843.295072,-1302.362347
59358.489555,-2368.659014,-9548.656652,-2451.505594
59358.489865,-2442.679609,-9474.636058,-1915.238745
59358.490174,-4145.153275,-9918.759623,-2068.457845
59358.490484,-3182.885551,-11473.192101,-612.876398
59358.490794,0.000000,-9622.677246,995.924147
59358.491103,4441.235652,-7846.182985,3677.258390
59358.491413,5551.544565,-8882.471304,5745.716235
59358.491723,2294.638420,-9474.636058,4213.525239
59358.492033,-3552.988522,-7772.162391,0.000000
59358.492342,-74.020594,-11843.295072,2374.896044
59358.492652,-1480.411884,-5995.668130,-2298.286494
59358.492962,-74.020594,-8882.471304,-76.609550
59358.493272,-5033.400406,-9030.512492,-995.924147
59358.493581,-4885.359217,-10658.965565,-383.047749
59358.493891,-1554.432478,-9252.574275,995.924147
59358.494201,1184.329507,-6291.750507,2604.724693
59358.494511,2368.659014,-7476.080014,5209.449386
59358.494820,1702.473667,-9474.636058,4213.525239
59358.495130,-1258.350101,-9326.594869,-689.485948
59358.495440,0.000000,-9548.656652,612.876398
59358.495749,1702.473667,-8882.471304,-76.609550
59358.496059,-74.020594,-9474.636058,-76.609550
59358.496369,-3034.844362,-9622.677246,-1072.533697
59358.496679,-3330.926739,-11029.068536,-842.705048
59358.496988,296.082377,-9326.594869,1225.752797
59358.497298,2368.659014,-5995.668130,612.876398
59358.497608,3552.988522,-5995.668130,3677.258390
59358.497917,1776.494261,-9622.677246,4826.401637
59358.498227,-370.102971,-10066.800811,-689.485948
59358.498537,0.000000,-10732.986159,1225.752797
59358.498846,1110.308913,-11251.130318,2374.896044
59358.499156,-1480.411884,-8068.244768,0.000000
59358.499466,-4441.235652,-9844.739029,0.000000
59358.499776,-3034.844362,-10658.965565,-76.609550
59358.500085,-222.061783,-7698.141797,1149.143247
59358.500395,2960.823768,-5107.421000,3064.381992
59358.500705,4737.318029,-7179.997637,5515.887586
59358.501014,2294.638420,-8882.471304,4519.963438
59358.501324,-1850.514855,-8586.388927,-1608.800546
59358.501634,-148.041188,-11621.233289,1072.533697
59358.501943,-74.020594,-8882.471304,-1302.362347
59358.502253,-74.020594,-10362.883188,-1302.362347
59358.502563,-3849.070898,-10214.842000,-1532.190996
59358.502873,-3330.926739,-12065.356855,-612.876398
59358.503182,1850.514855,-9770.718434,1608.800546
59358.503492,3552.988522,-5995.668130,2451.505594
59358.503802,4145.153275,-5995.668130,4903.011187
59358.504111,1924.535449,-9844.739029,4826.401637
59358.504421,-74.020594,-9474.636058,-76.609550
59358.504731,0.000000,-10140.821405,1532.190996
59358.505040,-74.020594,-9474.636058,-76.609550
59358.505350,-1850.514855,-10362.883188,-76.609550
59358.505660,-5773.606348,-9844.739029,-1378.971896
59358.505969,-5477.523971,-10881.027347,-766.095498
59358.506279,-592.164754,-9104.533087,1225.752797
59358.506589,1184.329507,-5403.503377,306.438199
59358.506899,0.000000,-4811.338623,1225.752797
59358.507208,296.082377,-8364.327145,2451.505594
59358.507518,-74.020594,-11251.130318,-76.609550
59358.507828,0.000000,-9548.656652,0.000000
59358.508137,1998.556043,-10658.965565,-76.609550
59358.508447,-1184.329507,-9548.656652,0.000000
59358.508757,-3034.844362,-10436.903782,-1608.800546
59358.509066,-2886.803174,-11251.130318,-842.705048
59358.509376,518.144159,-9252.574275,842.705048
59358.509686,2886.803174,-6291.750507,1149.143247
59358.509996,1184.329507,-4811.338623,612.876398
59358.510305,0.000000,-9548.656652,0.000000
59358.510615,1480.411884,-12953.603985,3907.087040
59358.510925,-1776.494261,-8956.491898,0.000000
59358.511234,-74.020594,-11251.130318,2987.772442
59358.511544,-3552.988522,-7476.080014,0.000000
59358.511854,-5995.668130,-10066.800811,-153.219100
59358.512163,-4367.215058,-9844.739029,0.000000
59358.512473,1332.370696,-7031.956449,2451.505594
59358.512783,4663.297435,-6809.894666,2987.772442
59358.513093,2294.638420,-3849.070898,1072.533697
59358.513402,-1184.329507,-7179.997637,0.000000
59358.513712,1184.329507,-11621.233289,2528.115143
59358.514022,-1776.494261,-9622.677246,-1455.581446
59358.514331,296.082377,-10436.903782,919.314598
59358.514641,-3552.988522,-9548.656652,-2451.505594
59358.514951,-3404.947333,-11695.253884,-1685.410096
59358.515260,-1776.494261,-11621.233289,-536.266849
59358.515570,1850.514855,-8660.409521,1991.848295
59358.515880,6439.791695,-7105.977043,4213.525239
59358.516189,6439.791695,-6513.812290,3600.648841
59358.516499,148.041188,-6143.709319,76.609550
59358.516809,0.000000,-11029.068536,2451.505594
59358.517119,-74.020594,-10658.965565,-76.609550
59358.517428,-1776.494261,-7179.997637,0.000000
59358.517738,-4441.235652,-7476.080014,-1608.800546
59358.518048,-4885.359217,-10066.800811,-842.705048
59358.518357,-3627.009116,-10214.842000,-536.266849
59358.518667,0.000000,-8586.388927,1302.362347
59358.518977,4367.215058,-8882.471304,4826.401637
59358.519286,4663.297435,-8882.471304,2374.896044
59358.519596,-222.061783,-8882.471304,-76.609550
59358.519906,-3552.988522,-8364.327145,0.000000
59358.520216,-74.020594,-11251.130318,-76.609550
59358.520525,-2368.659014,-5995.668130,-3064.381992
59358.520835,-1850.514855,-8142.265362,-1608.800546
59358.521145,-3478.967927,-10214.842000,-1225.752797
59358.521454,-2294.638420,-11325.150913,-153.219100
59358.521764,1628.453072,-9474.636058,1302.362347
59358.522074,4737.318029,-8364.327145,4519.963438
59358.522383,5847.626942,-9474.636058,4826.401637
59358.522693,1110.308913,-11843.295072,3600.648841
59358.523003,-3552.988522,-8364.327145,0.000000
59358.523313,-74.020594,-11251.130318,1762.019645
59358.523622,-3552.988522,-6587.832884,-2451.505594
59358.523932,-2442.679609,-8882.471304,-995.924147
59358.524242,-5921.647536,-9770.718434,-1149.143247
59358.524551,-3701.029710,-9770.718434,0.000000
59358.524861,222.061783,-7920.203579,1608.800546
59358.525171,2368.659014,-5995.668130,3677.258390
59358.525480,3552.988522,-7698.141797,4673.182538
59358.525790,2294.638420,-11843.295072,4826.401637
59358.526100,-3256.906145,-8364.327145,0.000000
59358.526409,-74.020594,-11843.295072,1149.143247
59358.526719,-1258.350101,-7402.059420,-2528.115143
59358.527029,-666.185348,-10362.883188,-76.609550
59358.527339,-3701.029710,-10955.047942,-1608.800546
59358.527648,-2146.597232,-11251.130318,-229.828649
59358.527958,2072.576638,-8956.491898,1608.800546
59358.528268,2664.741391,-5995.668130,2451.505594
59358.528577,2664.741391,-7179.997637,4290.134789
59358.528887,2294.638420,-11843.295072,3600.648841
59358.529197,-4145.153275,-8364.327145,0.000000
59358.529506,-74.020594,-11547.212695,1915.238745
59358.529816,-962.267725,-8290.306550,-689.485948
59358.530126,-2664.741391,-9918.759623,689.485948
59358.530436,-5107.421000,-10140.821405,-689.485948
59358.530745,-4219.173869,-10584.944971,-383.047749
59358.531055,296.082377,-7772.162391,2068.457845
59358.531365,1184.329507,-3627.009116,1225.752797
59358.531674,0.000000,-4811.338623,2451.505594
59358.531984,0.000000,-7179.997637,2451.505594
59358.532294,-74.020594,-11843.295072,-76.609550
59358.532603,-2368.659014,-8660.409521,0.000000
59358.532913,-74.020594,-11843.295072,-76.609550
59358.533223,-2368.659014,-9696.697840,-1225.752797
59358.533533,-4219.173869,-11251.130318,-2068.457845
59358.533842,-2146.597232,-11695.253884,-459.657299
59358.534152,2368.659014,-9252.574275,1762.019645
59358.534462,4663.297435,-5107.421000,919.314598
59358.534771,1776.494261,-5403.503377,1991.848295
59358.535081,0.000000,-7179.997637,1225.752797
59358.535391,2294.638420,-12953.603985,3600.648841
59358.535700,-1184.329507,-8956.491898,76.609550
59358.536010,-74.020594,-11251.130318,2987.772442
59358.536320,-3552.988522,-8364.327145,0.000000
59358.536630,-4663.297435,-10362.883188,-689.485948
59358.536939,-3404.947333,-10510.924376,-536.266849
59358.537249,1332.370696,-8068.244768,2145.067394
59358.537559,4071.132681,-5921.647536,2374.896044
59358.537868,1110.308913,-5033.400406,1149.143247
59358.538178,-4145.153275,-7179.997637,0.000000
59358.538488,-74.020594,-13027.624579,1762.019645
59358.538797,-1924.535449,-9548.656652,-1532.190996
59358.539107,888.247130,-9992.780217,1685.410096
59358.539417,-2960.823768,-8364.327145,-2145.067394
59358.539726,-2812.782580,-10732.986159,-995.924147
59358.540036,-814.226536,-10732.986159,612.876398
59358.540346,2738.761985,-8512.368333,1762.019645
59358.540656,6439.791695,-7105.977043,2374.896044
59358.540965,3478.967927,-6809.894666,2374.896044
59358.541275,-370.102971,-8438.347739,-153.219100
59358.541585,-2368.659014,-10140.821405,612.876398
59358.541894,-74.020594,-10658.965565,-76.609550
59358.542204,-2368.659014,-8364.327145,0.000000
59358.542514,-4145.153275,-8068.244768,-1072.533697
59358.542823,-4441.235652,-9844.739029,0.000000
59358.543133,-2220.617826,-10140.821405,1378.971896
59358.543443,1850.514855,-7328.038826,2757.943793
59358.543753,5847.626942,-7105.977043,4826.401637
59358.544062,3478.967927,-7105.977043,4826.401637
59358.544372,-74.020594,-8290.306550,-76.609550
59358.544682,-3552.988522,-9548.656652,0.000000
59358.544991,-74.020594,-10362.883188,-76.609550
59358.545301,-3552.988522,-5995.668130,0.000000
59358.545611,-2960.823768,-8586.388927,-2298.286494
59358.545920,-3923.091493,-11251.130318,-1762.019645
59358.546230,-1702.473667,-12139.377449,459.657299
59358.546540,1850.514855,-8808.450710,995.924147
59358.546850,5181.441594,-9474.636058,4213.525239
59358.547159,4663.297435,-9474.636058,4443.353888
59358.547469,-74.020594,-11251.130318,2374.896044
59358.547779,-2368.659014,-9548.656652,0.000000
59358.548088,-74.020594,-10362.883188,1455.581446
59358.548398,-4145.153275,-5403.503377,-2451.505594
59358.548708,-2442.679609,-8734.430116,-76.609550
59358.549017,-4959.379811,-9622.677246,-842.705048
59358.549327,-2516.700203,-9474.636058,919.314598
59358.549637,1406.391290,-7698.141797,1915.238745
59358.549946,2960.823768,-7476.080014,4596.572988
59358.550256,2738.761985,-8808.450710,3677.258390
59358.550566,-74.020594,-11843.295072,2374.896044
59358.550876,-3256.906145,-8364.327145,0.000000
59358.551185,-74.020594,-10955.047942,1149.143247
59358.551495,-1258.350101,-6069.688724,-3294.210641
59358.551805,-1258.350101,-9474.636058,-689.485948
59358.552114,-2738.761985,-10584.944971,-536.266849
59358.552424,-370.102971,-10436.903782,766.095498
59358.552734,3034.844362,-8660.409521,2374.896044
59358.553043,2960.823768,-5995.668130,3064.381992
59358.553353,2368.659014,-7772.162391,0.000000
59358.553663,2294.638420,-13027.624579,3600.648841
59358.553973,-2664.741391,-9696.697840,0.000000
59358.554282,-74.020594,-11325.150913,2374.896044
59358.554592,-74.020594,-7698.141797,-689.485948
59358.554902,-1998.556043,-10066.800811,-76.609550
59358.555211,-3701.029710,-9992.780217,-153.219100
59358.555521,-1702.473667,-9696.697840,995.924147
59358.555831,2220.617826,-6587.832884,2604.724693
59358.556140,1184.329507,-3627.009116,2451.505594
59358.556450,0.000000,-5995.668130,0.000000
59358.556760,-1776.494261,-10732.986159,1838.629195
59358.557070,-666.185348,-11843.295072,-76.609550
59358.557379,-2072.576638,-9548.656652,0.000000
59358.557689,-74.020594,-9474.636058,-76.609550
59358.557999,-1924.535449,-9696.697840,-383.047749
59358.558308,-3182.885551,-10955.047942,-689.485948
59358.558618,-1036.288319,-10362.883188,766.095498
59358.558928,3034.844362,-8216.285956,2068.457845
59358.559237,2368.659014,-3627.009116,612.876398
59358.559547,0.000000,-5107.421000,995.924147
59358.559857,0.000000,-8364.327145,1838.629195
59358.560166,2146.597232,-12435.459826,2374.896044
59358.560476,-1184.329507,-8364.327145,0.000000
59358.560786,-74.020594,-10658.965565,-76.609550
59358.561096,-3552.988522,-9844.739029,-306.438199
59358.561405,-3627.009116,-10881.027347,-383.047749
59358.561715,-1332.370696,-10214.842000,1378.971896
59358.562025,2368.659014,-7328.038826,2451.505594
59358.562334,3478.967927,-4737.318029,2068.457845
59358.562644,222.061783,-6809.894666,-76.609550
59358.562954,-4737.318029,-8364.327145,0.000000
59358.563263,-888.247130,-11843.295072,1455.581446
59358.563573,-1036.288319,-8364.327145,-3677.258390
59358.563883,1184.329507,-9474.636058,2604.724693
59358.564193,-3552.988522,-7476.080014,-1225.752797
59358.564502,-3404.947333,-10881.027347,-919.314598
59358.564812,-814.226536,-10362.883188,612.876398
59358.565122,3108.864956,-8438.347739,2374.896044
59358.565431,4663.297435,-7105.977043,2987.772442
59358.565741,2294.638420,-9474.636058,3600.648841
59358.566051,-1850.514855,-9400.615463,0.000000
59358.566360,0.000000,-11917.315666,1532.190996
59358.566670,-74.020594,-9474.636058,-76.609550
59358.566980,-2368.659014,-7772.162391,1225.752797
59358.567290,-3997.112087,-8364.327145,-919.314598
59358.567599,-3849.070898,-10658.965565,229.828649
59358.567909,-1036.288319,-10066.800811,1225.752797
59358.568219,2220.617826,-6957.935855,2451.505594
59358.568528,4663.297435,-7105.977043,4519.963438
59358.568838,2294.638420,-10658.965565,4213.525239
59358.569148,-2442.679609,-9400.615463,-76.609550
59358.569457,-1184.329507,-11325.150913,1225.752797
59358.569767,-74.020594,-7772.162391,-2528.115143
59358.570077,-2368.659014,-7179.997637,0.000000
59358.570386,-2738.761985,-8734.430116,-919.314598
59358.570696,-3108.864956,-11103.089130,0.000000
59358.571006,148.041188,-10140.821405,1378.971896
59358.571316,3404.947333,-7550.100608,2068.457845
59358.571625,4663.297435,-8290.306550,3983.696590
59358.571935,3404.947333,-8068.244768,3677.258390
59358.572245,-74.020594,-11251.130318,-76.609550
59358.572554,-2368.659014,-10732.986159,0.000000
59358.572864,-74.020594,-13027.624579,-76.609550
59358.573174,-3552.988522,-7476.080014,-2451.505594
59358.573483,-2738.761985,-9770.718434,-995.924147
59358.573793,-3701.029710,-11399.171507,0.000000
59358.574103,0.000000,-9400.615463,1685.410096
59358.574413,3034.844362,-6587.832884,2757.943793
59358.574722,4145.153275,-5995.668130,3677.258390
59358.575032,1776.494261,-8364.327145,4903.011187
59358.575342,-74.020594,-9474.636058,1149.143247
59358.575651,-2960.823768,-8660.409521,0.000000
59358.575961,1110.308913,-11843.295072,2374.896044
59358.576271,-1406.391290,-5773.606348,-2451.505594
59358.576580,-1258.350101,-9474.636058,-76.609550
59358.576890,-2442.679609,-10955.047942,-536.266849
59358.577200,-148.041188,-10436.903782,1072.533697
59358.577510,3404.947333,-7994.224174,1762.019645
59358.577819,2368.659014,-5403.503377,1838.629195
59358.578129,0.000000,-5995.668130,0.000000
59358.578439,-74.020594,-13027.624579,1762.019645
59358.578748,-2368.659014,-10732.986159,0.000000
59358.579058,1110.308913,-13027.624579,2374.896044
59358.579368,-1258.350101,-7105.977043,-1915.238745
59358.579677,-2886.803174,-9770.718434,766.095498
59358.579987,-2886.803174,-10288.862594,612.876398
59358.580297,0.000000,-8882.471304,1915.238745
59358.580606,2442.679609,-6291.750507,2757.943793
59358.580916,0.000000,-3627.009116,612.876398
59358.581226,-4737.318029,-4811.338623,0.000000
59358.581536,-2368.659014,-11769.274478,1838.629195
59358.581845,-2442.679609,-10066.800811,-76.609550
59358.582155,-74.020594,-11029.068536,2145.067394
59358.582465,-74.020594,-8290.306550,-76.609550
59358.582774,-3256.906145,-8364.327145,0.000000
59358.583084,-2368.659014,-10881.027347,536.266849
59358.583394,296.082377,-9696.697840,1378.971896
59358.583703,2886.803174,-7254.018232,1532.190996
59358.584013,2590.720797,-5625.565159,536.266849
59358.584323,-222.061783,-6513.812290,-383.047749
59358.584633,-2368.659014,-11325.150913,919.314598
59358.584942,-370.102971,-13027.624579,-76.609550
59358.585252,-1776.494261,-9548.656652,1225.752797
59358.585562,-74.020594,-11843.295072,-76.609550
59358.585871,-4441.235652,-9178.553681,-766.095498
59358.586181,-3182.885551,-10140.821405,1225.752797
59358.586491,148.041188,-8660.409521,2528.115143
59358.586800,3330.926739,-6069.688724,3294.210641
59358.587110,3478.967927,-5921.647536,2987.772442
59358.587420,-1258.350101,-6217.729913,229.828649
59358.587730,-4145.153275,-10140.821405,1225.752797
59358.588039,-1258.350101,-11843.295072,-76.609550
59358.588349,-3552.988522,-5995.668130,-2451.505594
59358.588659,444.123565,-9474.636058,2374.896044
59358.588968,-2294.638420,-8438.347739,-995.924147
59358.589278,-2960.823768,-11103.089130,0.000000
59358.589588,296.082377,-10140.821405,842.705048
59358.589897,2960.823768,-7402.059420,995.924147
59358.590207,5847.626942,-8290.306550,3294.210641
59358.590517,4663.297435,-9474.636058,-76.609550
59358.590826,-2368.659014,-9548.656652,0.000000
59358.591136,888.247130,-12361.439231,3064.381992
59358.591446,2294.638420,-9474.636058,-76.609550
59358.591756,-1776.494261,-8364.327145,1225.752797
59358.592065,-2738.761985,-9696.697840,-76.609550
59358.592375,-2294.638420,-10510.924376,919.314598
59358.592685,962.267725,-9474.636058,2145.067394
59358.592994,4145.153275,-6069.688724,3370.820191
59358.593304,4589.276840,-7105.977043,3983.696590
59358.593614,1332.370696,-10658.965565,3294.210641
59358.593923,-3627.009116,-10066.800811,-689.485948
59358.594233,-2368.659014,-10732.986159,0.000000
59358.594543,-74.020594,-9474.636058,-76.609550
59358.594853,0.000000,-6587.832884,0.000000
59358.595162,-1850.514855,-9474.636058,-76.609550
59358.595474,-2146.597232,-11177.109724,0.000000
59358.595784,1110.308913,-9548.656652,1378.971896
59358.596093,3849.070898,-7254.018232,2068.457845
59358.596403,3552.988522,-7254.018232,2451.505594
59358.596713,0.000000,-9548.656652,2451.505594
59358.597023,-74.020594,-12435.459826,-76.609550
59358.597332,-1776.494261,-10732.986159,0.000000
59358.597642,2294.638420,-11843.295072,2374.896044
59358.597952,-2368.659014,-7179.997637,-1225.752797
59358.598261,-3182.885551,-10510.924376,-76.609550
59358.598571,-2442.679609,-10362.883188,995.924147
59358.598881,1110.308913,-8364.327145,4213.525239
59358.599191,3034.844362,-5255.462188,3370.820191
59358.599500,1184.329507,-4811.338623,2834.553343
59358.599810,-666.185348,-9400.615463,1685.410096
59358.600120,-3627.009116,-9326.594869,-1915.238745
59358.600430,-2072.576638,-11029.068536,1225.752797
59358.600739,-1850.514855,-7698.141797,-1302.362347
59358.601049,-2368.659014,-6291.750507,-1532.190996
59358.601359,-2294.638420,-10066.800811,-383.047749
59358.601668,-2368.659014,-11029.068536,0.000000
59358.601978,740.205942,-9474.636058,1532.190996
59358.602288,3182.885551,-7624.121203,2374.896044
59358.602598,1184.329507,-5107.421000,612.876398
59358.602907,-2368.659014,-8364.327145,0.000000
59358.603217,-74.020594,-13323.706956,2374.896044
59358.603527,-222.061783,-9548.656652,-1915.238745
59358.603837,0.000000,-8364.327145,1225.752797
59358.604146,-1554.432478,-7994.224174,-1685.410096
59358.604456,-3552.988522,-9104.533087,383.047749
59358.604766,-1924.535449,-9770.718434,1225.752797
59358.605075,1110.308913,-7920.203579,2374.896044
59358.605385,2590.720797,-6365.771101,3294.210641
59358.605695,0.000000,-5625.565159,919.314598
59358.606005,-4737.318029,-7179.997637,0.000000
59358.606314,-2442.679609,-13619.789333,-76.609550
59358.606624,-2146.597232,-9548.656652,0.000000
59358.606934,1998.556043,-10658.965565,2374.896044
59358.607243,-74.020594,-8290.306550,-995.924147
59358.607553,-3256.906145,-8734.430116,0.000000
59358.607863,-1702.473667,-10510.924376,1149.143247
59358.608173,1998.556043,-7476.080014,1915.238745
59358.608482,3627.009116,-6365.771101,4213.525239
59358.608792,2812.782580,-5921.647536,842.705048
59358.609102,-222.061783,-7994.224174,0.000000
59358.609412,0.000000,-11621.233289,1225.752797
59358.609721,-74.020594,-11621.233289,-2451.505594
59358.610031,740.205942,-11325.150913,1455.581446
59358.610341,-370.102971,-10066.800811,-1302.362347
59358.610650,-3404.947333,-10436.903782,0.000000
59358.610960,-1628.453072,-10584.944971,1378.971896
59358.611270,1998.556043,-8808.450710,2451.505594
59358.611580,4145.153275,-5921.647536,3677.258390
59358.611889,2886.803174,-7105.977043,3600.648841
59358.612199,-74.020594,-9178.553681,842.705048
59358.612509,-3552.988522,-9548.656652,306.438199
59358.612818,-74.020594,-11843.295072,-76.609550
59358.613128,-2960.823768,-5995.668130,0.000000
59358.613438,-74.020594,-8956.491898,1762.019645
59358.613748,-2738.761985,-9770.718434,-459.657299
59358.614057,-1776.494261,-10658.965565,229.828649
59358.614367,1258.350101,-9104.533087,1149.143247
59358.614677,3256.906145,-6883.915261,1225.752797
59358.614987,4071.132681,-8290.306550,2681.334243
59358.615296,-74.020594,-11843.295072,1762.019645
59358.615606,-2442.679609,-10881.027347,-1072.533697
59358.615916,-74.020594,-14063.912898,2374.896044
59358.616225,-1258.350101,-7179.997637,-1532.190996
59358.616535,-1184.329507,-9474.636058,1762.019645
59358.616845,-2738.761985,-9326.594869,76.609550
59358.617155,-1850.514855,-10066.800811,1149.143247
59358.617464,2294.638420,-9474.636058,2987.772442
59358.617774,3182.885551,-6143.709319,1225.752797
59358.618084,2368.659014,-7476.080014,3064.381992
59358.618394,-74.020594,-11843.295072,2374.896044
59358.618703,-3034.844362,-10658.965565,-689.485948
59358.619013,-1776.494261,-10732.986159,2451.505594
59358.619323,-74.020594,-9474.636058,-76.609550
59358.619632,-2812.782580,-8512.368333,612.876398
59358.619942,-3256.906145,-10066.800811,-76.609550
59358.620252,-1924.535449,-10214.842000,842.705048
59358.620562,1776.494261,-7624.121203,1915.238745
59358.620871,3849.070898,-4811.338623,76.609550
59358.621181,2368.659014,-5995.668130,0.000000
59358.621491,296.082377,-10584.944971,2145.067394
59358.621800,-74.020594,-12731.542202,-76.609550
59358.622110,-592.164754,-12805.562797,1838.629195
59358.622420,-74.020594,-10658.965565,-76.609550
59358.622730,-4441.235652,-9548.656652,0.000000
59358.623039,-3256.906145,-11325.150913,-76.609550
59358.623349,-1628.453072,-10584.944971,1685.410096
59358.623659,2590.720797,-7476.080014,3064.381992
59358.623969,4071.132681,-5329.482782,3600.648841
59358.624278,296.082377,-4811.338623,0.000000
59358.624588,-2368.659014,-9548.656652,2451.505594
59358.624898,-814.226536,-11843.295072,2374.896044
59358.625207,-3552.988522,-7179.997637,0.000000
59358.625517,1554.432478,-9474.636058,3524.039291
59358.625827,-2516.700203,-6291.750507,0.000000
59358.626137,-3330.926739,-11177.109724,-76.609550
59358.626446,-2442.679609,-10955.047942,0.000000
59358.626756,666.185348,-8808.450710,1149.143247
59358.627066,3775.050304,-7994.224174,2374.896044
59358.627375,1924.535449,-5995.668130,1149.143247
59358.627685,0.000000,-9548.656652,306.438199
59358.627995,-74.020594,-12731.542202,2068.457845
59358.628305,-2960.823768,-7772.162391,-2451.505594
59358.628614,1406.391290,-10807.006753,1532.190996
59358.628924,-3108.864956,-7179.997637,-2451.505594
59358.629234,-2664.741391,-10214.842000,229.828649
59358.629544,-444.123565,-10066.800811,1455.581446
59358.629853,3330.926739,-7920.203579,3064.381992
59358.630163,4071.132681,-7698.141797,4519.963438
59358.630473,814.226536,-6513.812290,2374.896044
59358.630782,-4145.153275,-9548.656652,0.000000
59358.631092,-1776.494261,-11917.315666,2681.334243
59358.631402,-2738.761985,-8438.347739,-1762.019645
59358.631712,0.000000,-8068.244768,0.000000
59358.632021,-2442.679609,-7476.080014,-2221.676944
59358.632331,-4293.194464,-9622.677246,-766.095498
59358.632641,-2072.576638,-9918.759623,76.609550
59358.632951,1702.473667,-7920.203579,1915.238745
59358.633260,5255.462188,-7105.977043,3830.477490
59358.633570,3478.967927,-8290.306550,3600.648841
59358.633880,-666.185348,-8438.347739,76.609550
59358.634189,0.000000,-11325.150913,612.876398
59358.634499,-74.020594,-11251.130318,-76.609550
59358.634809,-2368.659014,-7179.997637,-3370.820191
59358.635119,-2442.679609,-9474.636058,-842.705048
59358.635428,-3108.864956,-10436.903782,0.000000
59358.635738,-592.164754,-10510.924376,1302.362347
59358.636048,2738.761985,-7994.224174,2451.505594
59358.636357,3552.988522,-6291.750507,3677.258390
59358.636667,2294.638420,-9474.636058,3600.648841
59358.636977,-666.185348,-10658.965565,1149.143247
59358.637287,-2960.823768,-9548.656652,0.000000
59358.637596,-74.020594,-11843.295072,2834.553343
59358.637906,-1850.514855,-5773.606348,-1915.238745
59358.638216,-1258.350101,-8882.471304,-76.609550
59358.638526,-3923.091493,-10140.821405,-383.047749
59358.638835,-1702.473667,-9696.697840,995.924147
59358.639145,1924.535449,-7476.080014,1838.629195
59358.639455,2368.659014,-5403.503377,1225.752797
59358.639764,3182.885551,-8364.327145,2757.943793
59358.640074,-74.020594,-11843.295072,1762.019645
59358.640384,-1850.514855,-10732.986159,-3064.381992
59358.640694,0.000000,-11917.315666,1838.629195
59358.641003,-74.020594,-8882.471304,-76.609550
59358.641313,-1554.432478,-10362.883188,-76.609550
59358.641623,-3775.050304,-9474.636058,-689.485948
59358.641933,-1184.329507,-9548.656652,1378.971896
59358.642242,3478.967927,-7476.080014,2987.772442
59358.642552,2368.659014,-4811.338623,1225.752797
59358.642862,1184.329507,-6587.832884,3064.381992
59358.643171,-370.102971,-11621.233289,2374.896044
59358.643481,-1850.514855,-10658.965565,-76.609550
59358.643791,-3552.988522,-9548.656652,0.000000
59358.644101,-74.020594,-10658.965565,2374.896044
59358.644410,-2072.576638,-9992.780217,-76.609550
59358.644720,-3627.009116,-10732.986159,-689.485948
59358.645030,-1776.494261,-10214.842000,612.876398
59358.645339,2368.659014,-7846.182985,1991.848295
59358.645649,2886.803174,-4367.215058,1225.752797
59358.645959,592.164754,-4811.338623,0.000000
59358.646269,888.247130,-11029.068536,2145.067394
59358.646578,-74.020594,-11843.295072,-689.485948
59358.646888,0.000000,-11325.150913,1225.752797
59358.647198,-74.020594,-11547.212695,-76.609550
59358.647508,-4441.235652,-8660.409521,0.000000
59358.647817,-3330.926739,-10436.903782,-459.657299
59358.648127,-444.123565,-10214.842000,1225.752797
59358.648437,3256.906145,-7698.141797,2604.724693
59358.648746,4663.297435,-5921.647536,2374.896044
59358.649056,0.000000,-5995.668130,919.314598
59358.649366,-888.247130,-10140.821405,2451.505594
59358.649676,-74.020594,-11251.130318,-76.609550
59358.649985,-2368.659014,-8364.327145,0.000000
59358.650295,-74.020594,-10658.965565,1915.238745
59358.650605,-4737.318029,-7179.997637,-2145.067394
59358.650914,-4219.173869,-11029.068536,-1149.143247
59358.651224,-1332.370696,-10807.006753,459.657299
59358.651534,2368.659014,-8142.265362,1991.848295
59358.651844,5255.462188,-7105.977043,3600.648841
59358.652153,2294.638420,-6513.812290,1762.019645
59358.652463,-1776.494261,-9548.656652,612.876398
59358.652773,-74.020594,-11843.295072,-76.609550
59358.653083,-2368.659014,-8364.327145,0.000000
59358.653392,1184.329507,-9400.615463,1225.752797
59358.653702,-4737.318029,-7179.997637,-2145.067394
59358.654012,-3997.112087,-9844.739029,-612.876398
59358.654321,-1184.329507,-10140.821405,766.095498
59358.654631,2442.679609,-8142.265362,2145.067394
59358.654941,4663.297435,-8882.471304,4213.525239
59358.655251,-74.020594,-8882.471304,1762.019645
59358.655560,-3108.864956,-8734.430116,0.000000
59358.655870,-74.020594,-12879.583391,3294.210641
59358.656180,-2146.597232,-8142.265362,-995.924147
59358.656490,-2368.659014,-7179.997637,0.000000
59358.656799,-3627.009116,-7994.224174,-689.485948
59358.657109,-3627.009116,-9844.739029,-536.266849
59358.657419,-1406.391290,-10066.800811,536.266849
59358.657728,2812.782580,-7550.100608,2451.505594
59358.658038,5847.626942,-7994.224174,5132.839837
59358.658348,4663.297435,-9178.553681,2374.896044
59358.658658,-1850.514855,-9474.636058,-383.047749
59358.658967,-2368.659014,-11029.068536,612.876398
59358.659277,-74.020594,-11251.130318,-689.485948
59358.659587,-4737.318029,-5995.668130,-3677.258390
59358.659896,-2442.679609,-10066.800811,-1302.362347
59358.660206,-3330.926739,-10362.883188,-383.047749
59358.660516,740.205942,-9252.574275,2145.067394
59358.660826,4367.215058,-6883.915261,3524.039291
59358.661135,4737.318029,-5403.503377,5209.449386
59358.661445,2886.803174,-9252.574275,3830.477490
59358.661755,-666.185348,-10362.883188,842.705048
59358.662065,-2368.659014,-9548.656652,0.000000
59358.662374,-74.020594,-11251.130318,-76.609550
59358.662684,-3404.947333,-5995.668130,-2528.115143
59358.662994,-3034.844362,-10510.924376,-689.485948
59358.663303,-4293.194464,-11325.150913,-1149.143247
59358.663613,-814.226536,-10436.903782,612.876398
59358.663923,2886.803174,-7846.182985,2528.115143
59358.664233,2368.659014,-4811.338623,3677.258390
59358.664542,2368.659014,-7328.038826,3370.820191
59358.664852,1110.308913,-11251.130318,2374.896044
59358.665162,-3552.988522,-7179.997637,0.000000
59358.665471,1184.329507,-10214.842000,1838.629195
59358.665781,-74.020594,-8290.306550,-1302.362347
59358.666091,-2812.782580,-10362.883188,-766.095498
59358.666401,-3775.050304,-11103.089130,-1149.143247
59358.666710,-444.123565,-10510.924376,383.047749
59358.667020,2886.803174,-7994.224174,2068.457845
59358.667330,1184.329507,-5107.421000,612.876398
59358.667640,592.164754,-8364.327145,2451.505594
59358.667949,444.123565,-11843.295072,3370.820191
59358.668259,-74.020594,-9474.636058,-76.609550
59358.668569,0.000000,-8364.327145,1225.752797
59358.668878,-74.020594,-9474.636058,-76.609550
59358.669188,-3552.988522,-9992.780217,0.000000
59358.669498,-4071.132681,-10807.006753,-919.314598
59358.669808,-1184.329507,-9918.759623,383.047749
59358.670117,2146.597232,-7402.059420,1838.629195
59358.670427,2368.659014,-4219.173869,0.000000
59358.670737,0.000000,-6587.832884,1225.752797
59358.671047,0.000000,-10881.027347,3294.210641
59358.671356,-1258.350101,-9178.553681,-1608.800546
59358.671666,-1184.329507,-10732.986159,612.876398
59358.671976,-74.020594,-11251.130318,-76.609550
59358.672285,-4737.318029,-9548.656652,-1225.752797
59358.672595,-3034.844362,-10584.944971,-153.219100
59358.672905,296.082377,-9030.512492,1072.533697
59358.673215,4071.132681,-7105.977043,3064.381992
59358.673524,4367.215058,-5329.482782,2374.896044
59358.673834,-1184.329507,-6587.832884,919.314598
59358.674144,-1776.494261,-10436.903782,1225.752797
59358.674453,-74.020594,-11547.212695,-76.609550
59358.674763,0.000000,-8364.327145,306.438199
59358.675073,-814.226536,-10955.047942,1762.019645
59358.675383,-5625.565159,-9548.656652,-1685.410096
59358.675692,-2960.823768,-10362.883188,-76.609550
59358.676002,370.102971,-10066.800811,1762.019645
59358.676312,3034.844362,-6809.894666,2681.334243
59358.676622,4663.297435,-6513.812290,3600.648841
59358.676931,814.226536,-6513.812290,1532.190996
59358.677241,-2368.659014,-9548.656652,0.000000
59358.677551,-74.020594,-11843.295072,-76.609550
59358.677860,-3552.988522,-7772.162391,-1838.629195
59358.678170,-1184.329507,-8660.409521,0.000000
59358.678480,-4737.318029,-8364.327145,-2451.505594
59358.678790,-3701.029710,-10584.944971,-306.438199
59358.679099,518.144159,-9622.677246,766.095498
59358.679409,3627.009116,-8364.327145,2451.505594
59358.679719,4663.297435,-8882.471304,4213.525239
59358.680029,-74.020594,-9474.636058,1762.019645
59358.680338,-2368.659014,-8364.327145,-1608.800546
59358.680648,296.082377,-11325.150913,3064.381992
59358.680958,-74.020594,-7698.141797,536.266849
59358.681267,-4737.318029,-5995.668130,0.000000
59358.681577,-3627.009116,-8586.388927,-1302.362347
59358.681887,-3478.967927,-10362.883188,-459.657299
59358.682197,-296.082377,-9252.574275,1225.752797
59358.682506,3108.864956,-7328.038826,2604.724693
59358.682816,5181.441594,-8290.306550,4213.525239
59358.683126,2294.638420,-9474.636058,2374.896044
59358.683435,-1554.432478,-8660.409521,-1915.238745
59358.683745,-74.020594,-12509.480420,1302.362347
59358.684055,-666.185348,-9474.636058,-1302.362347
59358.684365,-4737.318029,-6291.750507,-2451.505594
59358.684674,-3034.844362,-9474.636058,-1302.362347
59358.684984,-2886.803174,-10658.965565,-1072.533697
59358.685294,1702.473667,-9178.553681,1838.629195
59358.685604,4885.359217,-7105.977043,3140.991542
59358.685913,3849.070898,-7476.080014,4903.011187
59358.686223,1702.473667,-9474.636058,2681.334243
59358.686533,-666.185348,-9474.636058,-689.485948
59358.686842,0.000000,-11325.150913,2451.505594
59358.687152,-74.020594,-8882.471304,-76.609550
59358.687462,-3627.009116,-6143.709319,-2911.162892
59358.687772,-3182.885551,-10658.965565,-306.438199
59358.688081,-3849.070898,-10955.047942,-306.438199
59358.688391,296.082377,-9178.553681,1378.971896
59358.688701,3997.112087,-6291.750507,3370.820191
59358.689010,2368.659014,-4811.338623,3677.258390
59358.689320,592.164754,-7920.203579,2451.505594
59358.689630,-74.020594,-11843.295072,-76.609550
59358.689940,-3552.988522,-9548.656652,0.000000
59358.690249,-74.020594,-11547.212695,-76.609550
59358.690559,-1554.432478,-8290.306550,-2528.115143
59358.690869,-3182.885551,-11029.068536,-612.876398
59358.691179,-2442.679609,-11251.130318,-76.609550
59358.691488,1998.556043,-9474.636058,1991.848295
59358.691798,4515.256246,-7031.956449,3370.820191
59358.692108,2368.659014,-5995.668130,3064.381992
59358.692417,-592.164754,-9548.656652,2451.505594
59358.692727,-74.020594,-11843.295072,-76.609550
59358.693037,-2368.659014,-9548.656652,0.000000
59358.693347,1110.308913,-8882.471304,1149.143247
59358.693656,-2442.679609,-6217.729913,-1302.362347
59358.693966,-3182.885551,-10955.047942,-76.609550
59358.694276,-3182.885551,-10955.047942,-229.828649
59358.694586,148.041188,-9178.553681,1608.800546
59358.694895,2886.803174,-7179.997637,2681.334243
59358.695205,1184.329507,-5995.668130,3217.601092
59358.695515,0.000000,-9770.718434,2145.067394
59358.695824,-1258.350101,-10658.965565,-76.609550
59358.696134,-2368.659014,-10140.821405,612.876398
59358.696444,-74.020594,-9474.636058,-76.609550
59358.696754,-3034.844362,-6661.853478,-2987.772442
59358.697063,-2442.679609,-10955.047942,-76.609550
59358.697373,-1850.514855,-10658.965565,383.047749
59358.697683,1480.411884,-8364.327145,1608.800546
59358.697993,4515.256246,-7031.956449,2911.162892
59358.698303,1184.329507,-4811.338623,1225.752797
59358.698612,-1184.329507,-9548.656652,1838.629195
59358.698922,-666.185348,-12435.459826,-76.609550
59358.699232,-2368.659014,-9548.656652,0.000000
59358.699542,-74.020594,-10658.965565,-76.609550
59358.699852,-1258.350101,-9474.636058,-689.485948
59358.700162,-5921.647536,-9548.656652,-1225.752797
59358.700471,-962.267725,-12435.459826,1762.019645
59358.700781,1702.473667,-8290.306550,1762.019645
59358.701091,3552.988522,-5995.668130,3677.258390
59358.701401,3552.988522,-5995.668130,4903.011187
59358.701711,1850.514855,-9400.615463,2528.115143
59358.702021,-74.020594,-11843.295072,-76.609550
59358.702330,-2368.659014,-9844.739029,0.000000
59358.702640,-74.020594,-10658.965565,-76.609550
59358.702950,-3923.091493,-7179.997637,-3983.696590
59358.703260,-3182.885551,-10955.047942,-1302.362347
59358.703570,-2294.638420,-10510.924376,0.000000
59358.703880,2368.659014,-8808.450710,1915.238745
59358.704189,4367.215058,-6513.812290,2987.772442
59358.704499,2368.659014,-6587.832884,3983.696590
59358.704809,740.205942,-9770.718434,2451.505594
59358.705119,-74.020594,-8882.471304,-1302.362347
59358.705429,296.082377,-10732.986159,1838.629195
59358.705739,-74.020594,-8586.388927,-383.047749
59358.706048,-3404.947333,-7624.121203,-3140.991542
59358.706358,-3627.009116,-10658.965565,-1302.362347
59358.706668,-3034.844362,-10362.883188,0.000000
59358.706978,1554.432478,-9474.636058,1838.629195
59358.707288,3256.906145,-6069.688724,2451.505594
59358.707598,2368.659014,-7624.121203,4290.134789
59358.707907,1110.308913,-10584.944971,2374.896044
59358.708217,-666.185348,-10658.965565,-76.609550
59358.708527,-2368.659014,-9548.656652,0.000000
59358.708837,1702.473667,-9474.636058,-76.609550
59358.709147,-3034.844362,-5995.668130,-3140.991542
59358.709457,-2442.679609,-10658.965565,-76.609550
59358.709766,-1184.329507,-9844.739029,229.828649
59358.710076,2072.576638,-9252.574275,1991.848295
59358.710386,3552.988522,-7328.038826,2451.505594
59358.710696,0.000000,-7179.997637,2451.505594
59358.711006,-1184.329507,-11325.150913,1532.190996
59358.711316,-1258.350101,-13027.624579,-76.609550
59358.711625,-3552.988522,-9548.656652,0.000000
59358.711935,-74.020594,-9326.594869,1149.143247
59358.712245,-3034.844362,-6809.894666,-1915.238745
59358.712555,-3256.906145,-10066.800811,-76.609550
59358.712865,-2368.659014,-10288.862594,1072.533697
59358.713175,1850.514855,-7550.100608,1991.848295
59358.713484,3330.926739,-5995.668130,2757.943793
59358.713794,0.000000,-4811.338623,1838.629195
59358.714104,-2368.659014,-9548.656652,1225.752797
59358.714414,-74.020594,-13915.871710,3294.210641
59358.714724,-2812.782580,-8660.409521,-1838.629195
59358.715034,-148.041188,-9992.780217,919.314598
59358.715343,-74.020594,-8882.471304,-76.609550
59358.715653,-3256.906145,-10955.047942,0.000000
59358.715963,-1258.350101,-10658.965565,842.705048
59358.716273,2516.700203,-8586.388927,2374.896044
59358.716583,3849.070898,-6661.853478,3140.991542
59358.716893,0.000000,-4811.338623,612.876398
59358.717202,-2368.659014,-8364.327145,306.438199
59358.717512,-296.082377,-11917.315666,3064.381992
59358.717822,-74.020594,-8734.430116,-689.485948
59358.718132,0.000000,-8660.409521,612.876398
59358.718442,-74.020594,-11843.295072,-76.609550
59358.718752,-4145.153275,-10436.903782,0.000000
59358.719061,-1776.494261,-11103.089130,842.705048
59358.719371,1998.556043,-8512.368333,1991.848295
59358.719681,3552.988522,-6513.812290,2757.943793
59358.719991,1998.556043,-5921.647536,536.266849
59358.720301,-2368.659014,-8660.409521,0.000000
59358.720611,-2368.659014,-10732.986159,1838.629195
59358.720920,-370.102971,-9326.594869,-383.047749
59358.721230,0.000000,-7772.162391,612.876398
59358.721540,-2220.617826,-7179.997637,0.000000
59358.721850,-2442.679609,-9178.553681,-1302.362347
59358.722160,-1184.329507,-10066.800811,229.828649
59358.722470,2368.659014,-8882.471304,2145.067394
59358.722779,3478.967927,-7105.977043,2451.505594
59358.723089,1776.494261,-9474.636058,3907.087040
59358.723399,-666.185348,-10658.965565,2374.896044
59358.723709,-2590.720797,-9252.574275,-1915.238745
59358.724019,592.164754,-10140.821405,2145.067394
59358.724328,1406.391290,-7994.224174,-76.609550
59358.724638,-1258.350101,-8586.388927,-76.609550
59358.724948,-3997.112087,-9844.739029,-689.485948
59358.725258,-1184.329507,-10510.924376,1532.190996
59358.725568,2368.659014,-8290.306550,2604.724693
59358.725878,3256.906145,-6513.812290,2451.505594
59358.726187,0.000000,-5255.462188,0.000000
59358.726497,-3849.070898,-9548.656652,0.000000
59358.726807,-74.020594,-13619.789333,1762.019645
59358.727117,-1776.494261,-8956.491898,0.000000
59358.727427,0.000000,-8956.491898,1838.629195
59358.727737,-2368.659014,-8364.327145,0.000000
59358.728046,-2442.679609,-10584.944971,536.266849
59358.728356,370.102971,-9696.697840,1532.190996
59358.728666,3108.864956,-7550.100608,2681.334243
59358.728976,3404.947333,-5995.668130,2451.505594
59358.729286,1924.535449,-8734.430116,2145.067394
59358.729596,-74.020594,-13619.789333,2374.896044
59358.729905,-3182.885551,-9548.656652,-1685.410096
59358.730215,-74.020594,-11547.212695,1149.143247
59358.730525,-1258.350101,-5995.668130,-3140.991542
59358.730835,-3627.009116,-10214.842000,-1608.800546
59358.731145,-3404.947333,-10732.986159,0.000000
59358.731455,-444.123565,-10436.903782,2068.457845
59358.731764,3478.967927,-7624.121203,3294.210641
59358.732074,3330.926739,-5699.585753,4826.401637
59358.732384,0.000000,-5995.668130,1608.800546
59358.732694,-4145.153275,-7179.997637,0.000000
59358.733004,-1776.494261,-11769.274478,1532.190996
59358.733314,-666.185348,-10362.883188,-76.609550
59358.733623,-4737.318029,-5995.668130,0.000000
59358.733933,-2368.659014,-9104.533087,1225.752797
59358.734243,-2294.638420,-10584.944971,536.266849
59358.734553,-296.082377,-9326.594869,1455.581446
59358.734863,2812.782580,-8142.265362,2757.943793
59358.735173,3478.967927,-5995.668130,842.705048
59358.735482,1998.556043,-8882.471304,2298.286494
59358.735792,-74.020594,-13027.624579,1762.019645
59358.736102,-2442.679609,-9548.656652,-1685.410096
59358.736412,814.226536,-11103.089130,2068.457845
59358.736722,-1554.432478,-6365.771101,-2451.505594
59358.737032,-3849.070898,-7846.182985,-2451.505594
59358.737341,-2960.823768,-10732.986159,0.000000
59358.737651,0.000000,-9844.739029,1685.410096
59358.737961,3256.906145,-7105.977043,2834.553343
59358.738271,5477.523971,-7105.977043,4826.401637
59358.738581,0.000000,-6069.688724,2221.676944
59358.738891,-4737.318029,-9548.656652,0.000000
59358.739200,-666.185348,-12731.542202,-76.609550
59358.739510,-1406.391290,-8364.327145,-3064.381992
59358.739820,0.000000,-8660.409521,995.924147
59358.740130,-1406.391290,-9474.636058,1608.800546
59358.740440,-2442.679609,-10436.903782,-76.609550
59358.740750,0.000000,-9622.677246,1072.533697
59358.741059,3182.885551,-7105.977043,2298.286494
59358.741369,1406.391290,-4811.338623,0.000000
59358.741679,1554.432478,-8068.244768,1915.238745
59358.741989,-74.020594,-11843.295072,-76.609550
59358.742299,-2368.659014,-10140.821405,-1225.752797
59358.742609,1406.391290,-11843.295072,-76.609550
59358.742918,-3108.864956,-5995.668130,-2451.505594
59358.743228,-4737.318029,-8364.327145,-2298.286494
59358.743538,-3108.864956,-11695.253884,0.000000
59358.743848,74.020594,-10807.006753,1762.019645
59358.744158,3552.988522,-7476.080014,3294.210641
59358.744468,4663.297435,-7105.977043,5439.278036
59358.744777,-74.020594,-6735.874072,1455.581446
59358.745087,-3256.906145,-8364.327145,0.000000
59358.745397,-962.267725,-11843.295072,1685.410096
59358.745707,-4737.318029,-5995.668130,0.000000
59358.746017,-74.020594,-9474.636058,-76.609550
59358.746327,-1554.432478,-9326.594869,995.924147
59358.746636,-2738.761985,-9770.718434,-153.219100
59358.746946,-1036.288319,-9252.574275,1072.533697
59358.747256,2368.659014,-7328.038826,2068.457845
59358.747566,592.164754,-4811.338623,0.000000
59358.747876,1924.535449,-8512.368333,1991.848295
59358.748186,-74.020594,-11843.295072,-76.609550
59358.748495,-1776.494261,-9548.656652,0.000000
59358.748805,3478.967927,-13027.624579,3294.210641
59358.749115,0.000000,-6587.832884,0.000000
59358.749425,-3701.029710,-8364.327145,-995.924147
59358.749735,-3034.844362,-10362.883188,0.000000
59358.750045,222.061783,-9696.697840,1455.581446
59358.750354,3330.926739,-7105.977043,2757.943793
59358.750664,4663.297435,-8290.306550,4673.182538
59358.750974,-962.267725,-7328.038826,306.438199
59358.751284,-4145.153275,-9548.656652,0.000000
59358.751594,-1554.432478,-11843.295072,-1302.362347
59358.751904,-2368.659014,-9548.656652,0.000000
59358.752213,-74.020594,-9474.636058,-76.609550
59358.752523,-1554.432478,-9474.636058,536.266849
59358.752833,-2072.576638,-10140.821405,459.657299
59358.753143,888.247130,-9030.512492,1838.629195
59358.753453,4071.132681,-6661.853478,2681.334243
59358.753763,1480.411884,-3923.091493,1225.752797
59358.754072,1184.329507,-8364.327145,919.314598
59358.754382,-666.185348,-11843.295072,-76.609550
59358.754692,-4737.318029,-9548.656652,0.000000
59358.755002,1702.473667,-12435.459826,1762.019645
59358.755312,-3552.988522,-7772.162391,153.219100
59358.755622,-4737.318029,-9548.656652,-1685.410096
59358.755931,-3108.864956,-10881.027347,153.219100
59358.756241,740.205942,-9844.739029,1991.848295
59358.756551,3627.009116,-6513.812290,2911.162892
59358.756861,4663.297435,-7105.977043,3600.648841
59358.757171,-814.226536,-7698.141797,689.485948
59358.757481,-2960.823768,-10140.821405,0.000000
59358.757790,-74.020594,-14211.954086,2374.896044
59358.758100,-2368.659014,-7179.997637,0.000000
59358.758410,-666.185348,-6883.915261,0.000000
59358.758720,-1258.350101,-8734.430116,1149.143247
59358.759030,-1776.494261,-9548.656652,766.095498
59358.759340,814.226536,-8734.430116,1532.190996
59358.759649,3404.947333,-7550.100608,2681.334243
59358.759959,1776.494261,-5995.668130,2451.505594
59358.760269,-74.020594,-9474.636058,536.266849
59358.760579,-2738.761985,-11399.171507,-689.485948
59358.760889,-2072.576638,-11177.109724,-1225.752797
59358.761199,0.000000,-9770.718434,0.000000
59358.761508,-74.020594,-7994.224174,-383.047749
59358.761818,-3182.885551,-9548.656652,-2451.505594
59358.762128,-1628.453072,-12213.398043,1991.848295
59358.762438,1110.308913,-8882.471304,1302.362347
59358.762748,4145.153275,-6587.832884,3983.696590
59358.763058,2664.741391,-4219.173869,1838.629195
59358.763367,370.102971,-8882.471304,1762.019645
59358.763677,-1776.494261,-11029.068536,383.047749
59358.763987,-1702.473667,-11399.171507,153.219100
59358.764297,-1406.391290,-9474.636058,0.000000
59358.764607,-74.020594,-9178.553681,-76.609550
59358.764917,-2738.761985,-8882.471304,-689.485948
59358.765226,-4737.318029,-9548.656652,0.000000
59358.765536,1702.473667,-9474.636058,2374.896044
59358.765846,2072.576638,-5403.503377,1532.190996
59358.766156,1628.453072,-5107.421000,1838.629195
59358.766466,296.082377,-9030.512492,1378.971896
59358.766776,-1258.350101,-11029.068536,229.828649
59358.767085,-592.164754,-10881.027347,0.000000
59358.767395,-444.123565,-9548.656652,383.047749
59358.767705,-148.041188,-10362.883188,-76.609550
59358.768015,-2442.679609,-13027.624579,-76.609550
59358.768325,-4737.318029,-9548.656652,0.000000
59358.768635,1184.329507,-10510.924376,2757.943793
59358.768944,3478.967927,-6513.812290,2068.457845
59358.769254,1998.556043,-5625.565159,0.000000
59358.769564,-888.247130,-8512.368333,1378.971896
59358.769874,-1998.556043,-11177.109724,76.609550
59358.770184,-1480.411884,-10510.924376,306.438199
59358.770494,0.000000,-8734.430116,1149.143247
