#time,accel_x,accel_y,accel_z
163573.802870,-2368.659014,-7772.162391,0.000000
163573.803190,444.123565,-9992.780217,-689.485948
163573.803510,74.020594,-9178.553681,-306.438199
163573.803830,74.020594,-8808.450710,-383.047749
163573.804150,2294.638420,-10658.965565,-76.609550
163573.804469,1702.473667,-10510.924376,-76.609550
163573.804789,518.144159,-11251.130318,-76.609550
163573.805109,222.061783,-8438.347739,-383.047749
163573.805429,0.000000,-8364.327145,306.438199
163573.805749,0.000000,-9548.656652,1225.752797
163573.806068,-1036.288319,-8290.306550,0.000000
163573.806388,-666.185348,-8734.430116,383.047749
163573.806708,-962.267725,-9548.656652,-76.609550
163573.807028,-1184.329507,-9474.636058,0.000000
163573.807347,-74.020594,-9474.636058,-76.609550
163573.807667,-1184.329507,-8364.327145,612.876398
163573.807987,-74.020594,-9474.636058,-76.609550
163573.808307,-1776.494261,-8956.491898,-842.705048
163573.808627,-4145.153275,-7772.162391,0.000000
163573.808946,-3034.844362,-7105.977043,-3140.991542
163573.809266,-1184.329507,-9548.656652,-1302.362347
163573.809586,-1110.308913,-9844.739029,-995.924147
163573.809906,-888.247130,-10140.821405,-842.705048
163573.810226,-74.020594,-11843.295072,1455.581446
163573.810545,370.102971,-9474.636058,-689.485948
163573.810865,-74.020594,-9178.553681,-995.924147
163573.811185,0.000000,-8956.491898,-2451.505594
163573.811505,1924.535449,-11029.068536,2068.457845
163573.811824,-74.020594,-9474.636058,-689.485948
163573.812144,1184.329507,-10362.883188,536.266849
163573.812464,0.000000,-9400.615463,-383.047749
163573.812784,296.082377,-9548.656652,-76.609550
163573.813104,370.102971,-9326.594869,0.000000
163573.813423,0.000000,-7772.162391,306.438199
163573.813743,370.102971,-8808.450710,229.828649
163573.814063,0.000000,-8660.409521,76.609550
163573.814383,0.000000,-9252.574275,0.000000
163573.814703,-370.102971,-8068.244768,-153.219100
163573.815022,-74.020594,-8882.471304,-919.314598
163573.815342,-74.020594,-10658.965565,1762.019645
163573.815662,-74.020594,-9178.553681,-383.047749
163573.815982,-1702.473667,-8586.388927,-383.047749
163573.816301,-888.247130,-10140.821405,1685.410096
163573.816621,-3849.070898,-7772.162391,0.000000
163573.816941,-1332.370696,-9918.759623,-919.314598
163573.817261,-1258.350101,-9992.780217,-1149.143247
163573.817581,-1258.350101,-9252.574275,-842.705048
163573.817900,-74.020594,-10066.800811,-229.828649
163573.818220,-74.020594,-9474.636058,-1302.362347
163573.818540,1554.432478,-10658.965565,-229.828649
163573.818860,0.000000,-7476.080014,-3217.601092
163573.819180,0.000000,-9548.656652,0.000000
163573.819499,0.000000,-9548.656652,0.000000
163573.819819,0.000000,-9548.656652,-842.705048
163573.820139,592.164754,-9548.656652,-229.828649
163573.820459,444.123565,-9548.656652,0.000000
163573.820778,592.164754,-9548.656652,0.000000
163573.821098,814.226536,-8882.471304,-842.705048
163573.821418,518.144159,-9326.594869,383.047749
163573.821738,-74.020594,-7550.100608,-1302.362347
163573.822058,0.000000,-8364.327145,0.000000
163573.822377,-74.020594,-9992.780217,1225.752797
163573.822697,-2368.659014,-7772.162391,1225.752797
163573.823017,-814.226536,-8586.388927,0.000000
163573.823337,-1036.288319,-8956.491898,-306.438199
163573.823657,-1332.370696,-9104.533087,-306.438199
163573.823976,-1258.350101,-7698.141797,-1915.238745
163573.824296,-74.020594,-8882.471304,-689.485948
163573.824616,-74.020594,-10658.965565,-1302.362347
163573.824936,-2368.659014,-8956.491898,-1838.629195
163573.825256,-74.020594,-10140.821405,0.000000
163573.825575,740.205942,-10584.944971,2298.286494
163573.825895,0.000000,-8364.327145,0.000000
163573.826215,1554.432478,-9474.636058,-76.609550
163573.826535,1110.308913,-9326.594869,-459.657299
163573.826854,1406.391290,-9252.574275,-383.047749
163573.827174,2294.638420,-10658.965565,-76.609550
163573.827494,1184.329507,-9548.656652,0.000000
163573.827814,3330.926739,-10362.883188,-76.609550
163573.828134,3478.967927,-11843.295072,-76.609550
163573.828453,3775.050304,-9178.553681,-689.485948
163573.828773,3552.988522,-9548.656652,2451.505594
163573.829093,3923.091493,-8364.327145,76.609550
163573.829413,4441.235652,-8290.306550,1378.971896
163573.829733,5181.441594,-9104.533087,689.485948
163573.830052,5477.523971,-8956.491898,0.000000
163573.830372,4663.297435,-8068.244768,-1685.410096
163573.830692,3256.906145,-8364.327145,0.000000
163573.831012,2368.659014,-7476.080014,0.000000
163573.831331,5551.544565,-10510.924376,-76.609550
163573.831651,4367.215058,-10658.965565,-76.609550
163573.831971,2368.659014,-8364.327145,-1225.752797
163573.832291,5255.462188,-9474.636058,-1455.581446
163573.832611,6513.812290,-9252.574275,-689.485948
163573.832930,7105.977043,-9400.615463,-383.047749
163573.833250,6735.874072,-8290.306550,-1915.238745
163573.833570,6439.791695,-11251.130318,-76.609550
163573.833890,4663.297435,-11843.295072,-1302.362347
163573.834210,1184.329507,-11621.233289,-1762.019645
163573.834529,2442.679609,-12287.418637,1685.410096
163573.834849,3552.988522,-11843.295072,2068.457845
163573.835169,2368.659014,-8512.368333,0.000000
163573.835489,4663.297435,-6957.935855,536.266849
163573.835808,4959.379811,-5033.400406,0.000000
163573.836128,4959.379811,-5551.544565,-842.705048
163573.836448,6439.791695,-7105.977043,-2221.676944
163573.836768,3552.988522,-8364.327145,-2145.067394
163573.837088,4293.194464,-12139.377449,-1915.238745
163573.837407,4663.297435,-16580.613101,-76.609550
163573.837727,2886.803174,-16580.613101,1149.143247
163573.838047,2960.823768,-15470.304188,5209.449386
163573.838367,3182.885551,-10510.924376,2757.943793
163573.838687,3182.885551,-7105.977043,1532.190996
163573.839006,1628.453072,-4441.235652,-459.657299
163573.839326,0.000000,-3627.009116,0.000000
163573.839646,1702.473667,-5329.482782,-842.705048
163573.839966,592.164754,-6735.874072,-1072.533697
163573.840285,-3404.947333,-6587.832884,0.000000
163573.840605,-3552.988522,-9696.697840,-612.876398
163573.840925,-370.102971,-12435.459826,-76.609550
163573.841245,0.000000,-9548.656652,0.000000
163573.841565,814.226536,-10066.800811,-229.828649
163573.841884,518.144159,-10214.842000,0.000000
163573.842204,1110.308913,-10436.903782,766.095498
163573.842524,814.226536,-7550.100608,-1762.019645
163573.842844,1110.308913,-8216.285956,-689.485948
163573.843164,-74.020594,-7994.224174,-4979.620737
163573.843483,-2220.617826,-9548.656652,-4290.134789
163573.843803,888.247130,-12213.398043,-3064.381992
163573.844123,592.164754,-10732.986159,1225.752797
163573.844443,2738.761985,-10807.006753,2834.553343
163573.844762,2072.576638,-7846.182985,1991.848295
163573.845082,3108.864956,-7624.121203,76.609550
163573.845402,4515.256246,-7994.224174,1455.581446
163573.845722,5773.606348,-9548.656652,3600.648841
163573.846042,3108.864956,-7179.997637,4290.134789
163573.846361,3849.070898,-6883.915261,1455.581446
163573.846681,0.000000,-5995.668130,-4290.134789
163573.847001,-4441.235652,-9696.697840,-7354.516781
163573.847321,-666.185348,-13915.871710,-5592.497135
163573.847641,-1110.308913,-13989.892304,-3140.991542
163573.847960,-1258.350101,-12583.501014,-2757.943793
163573.848280,-888.247130,-10288.862594,-3447.429741
163573.848600,4737.318029,-10436.903782,3064.381992
163573.848920,11103.089130,-8438.347739,6741.640382
163573.849239,14211.954086,-4959.379811,10572.117872
163573.849559,11769.274478,-2368.659014,6665.030833
163573.849879,4737.318029,-2442.679609,153.219100
163573.850199,5551.544565,-9474.636058,-76.609550
163573.850519,2812.782580,-12213.398043,-1225.752797
163573.850838,1332.370696,-13397.727550,-2221.676944
163573.851158,-2442.679609,-13841.851115,-5439.278036
163573.851478,-2072.576638,-13693.809927,-7354.516781
163573.851798,-2072.576638,-11917.315666,-7814.174080
163573.852118,3330.926739,-11843.295072,-1149.143247
163573.852437,5255.462188,-8512.368333,1149.143247
163573.852757,6809.894666,-7402.059420,2451.505594
163573.853077,9400.615463,-7105.977043,4213.525239
163573.853397,8216.285956,-5329.482782,5132.839837
163573.853716,7105.977043,-6587.832884,6741.640382
163573.854036,8216.285956,-8290.306550,6665.030833
163573.854356,7031.956449,-6513.812290,2221.676944
163573.854676,0.000000,-6587.832884,0.000000
163573.854996,-2146.597232,-11251.130318,-5592.497135
163573.855315,-3923.091493,-13841.851115,-7048.078582
163573.855635,-2960.823768,-15470.304188,-5975.544884
163573.855955,-1628.453072,-14137.933492,-5056.230287
163573.856275,-962.267725,-11843.295072,-3447.429741
163573.856595,1110.308913,-9992.780217,-842.705048
163573.856914,2960.823768,-6513.812290,536.266849
163573.857234,4737.318029,-5995.668130,3677.258390
163573.857554,8808.450710,-5773.606348,6358.592633
163573.857874,4737.318029,-2442.679609,2451.505594
163573.858193,4663.297435,-6809.894666,3294.210641
163573.858513,1776.494261,-8512.368333,0.000000
163573.858833,-1184.329507,-10955.047942,-2145.067394
163573.859153,-2146.597232,-11843.295072,-4060.306139
163573.859473,-74.020594,-14211.954086,-2528.115143
163573.859792,-74.020594,-15396.283594,-76.609550
163573.860112,1702.473667,-11843.295072,-689.485948
163573.860432,2738.761985,-7476.080014,1149.143247
163573.860752,4737.318029,-5403.503377,1838.629195
163573.861072,2368.659014,-5403.503377,1225.752797
163573.861391,4515.256246,-7402.059420,2604.724693
163573.861711,2738.761985,-7624.121203,2681.334243
163573.862031,1554.432478,-8068.244768,1455.581446
163573.862351,3478.967927,-9474.636058,-76.609550
163573.862671,0.000000,-7846.182985,-2757.943793
163573.862990,-74.020594,-10436.903782,-3064.381992
163573.863310,-1258.350101,-11695.253884,-4366.744339
163573.863630,-2146.597232,-9622.677246,-5439.278036
163573.863950,0.000000,-10140.821405,0.000000
163573.864269,2886.803174,-10658.965565,-536.266849
163573.864589,4219.173869,-11029.068536,1991.848295
163573.864909,6587.832884,-9400.615463,3677.258390
163573.865229,7476.080014,-8142.265362,4519.963438
163573.865549,7031.956449,-6513.812290,3600.648841
163573.865868,3627.009116,-5255.462188,1225.752797
163573.866188,296.082377,-4811.338623,-3677.258390
163573.866508,0.000000,-9548.656652,-2757.943793
163573.866828,1554.432478,-11251.130318,-1915.238745
163573.867148,0.000000,-9548.656652,-4903.011187
163573.867467,740.205942,-11621.233289,-2681.334243
163573.867787,2294.638420,-11251.130318,-1072.533697
163573.868107,4515.256246,-11843.295072,1302.362347
163573.868427,6439.791695,-9474.636058,2987.772442
163573.868746,8216.285956,-9474.636058,4213.525239
163573.869066,8216.285956,-8142.265362,5745.716235
163573.869386,4071.132681,-5329.482782,-76.609550
163573.869706,1184.329507,-6069.688724,0.000000
163573.870026,1776.494261,-7772.162391,0.000000
163573.870345,1776.494261,-8734.430116,-1838.629195
163573.870665,1406.391290,-10732.986159,-2528.115143
163573.870985,296.082377,-11473.192101,-3753.867940
163573.871305,1480.411884,-12361.439231,-2221.676944
163573.871625,5847.626942,-14211.954086,1762.019645
163573.871945,4663.297435,-11251.130318,1838.629195
163573.872265,2072.576638,-9770.718434,1149.143247
163573.872585,1110.308913,-9030.512492,-1302.362347
163573.872905,666.185348,-7698.141797,-76.609550
163573.873225,5033.400406,-7179.997637,2451.505594
163573.873545,5033.400406,-6587.832884,2604.724693
163573.873865,5773.606348,-7994.224174,766.095498
163573.874185,3182.885551,-9548.656652,-459.657299
163573.874505,3256.906145,-10955.047942,-459.657299
163573.874825,2294.638420,-12435.459826,-1455.581446
163573.875145,-2368.659014,-10732.986159,-2451.505594
163573.875465,1036.288319,-11769.274478,-2221.676944
163573.875785,4293.194464,-11769.274478,2298.286494
163573.876105,5847.626942,-10066.800811,1149.143247
163573.876425,2368.659014,-6587.832884,3064.381992
163573.876745,4219.173869,-8660.409521,1915.238745
163573.877065,4737.318029,-6957.935855,2374.896044
163573.877385,3775.050304,-7105.977043,919.314598
163573.877705,0.000000,-6587.832884,0.000000
163573.878025,814.226536,-8438.347739,-1378.971896
163573.878345,1184.329507,-9992.780217,0.000000
163573.878665,2368.659014,-8364.327145,0.000000
163573.878985,3330.926739,-11843.295072,-2221.676944
163573.879305,2294.638420,-12731.542202,-76.609550
163573.879625,0.000000,-10140.821405,-2911.162892
163573.879945,-370.102971,-10584.944971,-2451.505594
163573.880265,-740.205942,-9992.780217,-2374.896044
163573.880585,518.144159,-9918.759623,76.609550
163573.880905,4071.132681,-6513.812290,1149.143247
163573.881225,6809.894666,-6587.832884,4366.744339
163573.881545,5255.462188,-5403.503377,2145.067394
163573.881865,7402.059420,-8660.409521,3983.696590
163573.882186,4071.132681,-7550.100608,1149.143247
163573.882506,0.000000,-7179.997637,-3677.258390
163573.882826,-1702.473667,-10807.006753,-4673.182538
163573.883146,-814.226536,-12879.583391,-4903.011187
163573.883466,888.247130,-11917.315666,-2681.334243
163573.883786,1480.411884,-11843.295072,-1915.238745
163573.884106,2368.659014,-11029.068536,76.609550
163573.884426,592.164754,-7179.997637,0.000000
163573.884746,3849.070898,-7624.121203,2987.772442
163573.885066,6069.688724,-7772.162391,4136.915689
163573.885386,5847.626942,-7105.977043,3907.087040
163573.885706,9400.615463,-7105.977043,5745.716235
163573.886026,6735.874072,-7476.080014,2987.772442
163573.886346,4071.132681,-9992.780217,842.705048
163573.886666,-888.247130,-9326.594869,-3064.381992
163573.886986,-4737.318029,-11917.315666,-3677.258390
163573.887306,-4959.379811,-13545.768739,-6511.811733
163573.887626,-666.185348,-14582.057057,-3524.039291
163573.887946,1702.473667,-12435.459826,-3753.867940
163573.888266,0.000000,-9548.656652,0.000000
163573.888586,3182.885551,-10658.965565,3600.648841
163573.888906,296.082377,-5995.668130,1378.971896
163573.889226,814.226536,-5699.585753,1225.752797
163573.889546,888.247130,-6513.812290,2451.505594
163573.889866,2738.761985,-6883.915261,4903.011187
163573.890186,3330.926739,-5699.585753,2145.067394
163573.890506,3182.885551,-8808.450710,2221.676944
163573.890826,-2220.617826,-9918.759623,-1762.019645
163573.891146,-5329.482782,-11769.274478,-4673.182538
163573.891466,-7772.162391,-15100.201217,-6205.373534
163573.891786,-7772.162391,-13027.624579,-5286.058936
163573.892106,-6513.812290,-11917.315666,-3064.381992
163573.892426,-2516.700203,-9770.718434,0.000000
163573.892746,2294.638420,-9178.553681,3600.648841
163573.893066,0.000000,-4811.338623,4903.011187
163573.893386,518.144159,-3701.029710,3294.210641
163573.893706,-1702.473667,-4663.297435,2987.772442
163573.894026,-3034.844362,-6735.874072,76.609550
163573.894346,-2146.597232,-8216.285956,1608.800546
163573.894666,-962.267725,-11251.130318,1149.143247
163573.894986,-2664.741391,-12805.562797,-995.924147
163573.895306,-6513.812290,-11621.233289,-6281.983084
163573.895626,-11843.295072,-11029.068536,-7354.516781
163573.895946,-9474.636058,-12805.562797,-5362.668486
163573.896266,-7105.977043,-7772.162391,-7354.516781
163573.896586,-74.020594,-11251.130318,-76.609550
163573.896906,1332.370696,-7105.977043,2757.943793
163573.897226,4367.215058,-5625.565159,4519.963438
163573.897546,3404.947333,-4441.235652,4826.401637
163573.897866,4663.297435,-6513.812290,2374.896044
163573.898186,-2442.679609,-10658.965565,3600.648841
163573.898506,4145.153275,-8734.430116,2374.896044
163573.898826,2960.823768,-7772.162391,1225.752797
163573.899146,1184.329507,-12509.480420,1225.752797
163573.899466,-3256.906145,-10140.821405,-3677.258390
163573.899786,-2220.617826,-13323.706956,-3294.210641
163573.900106,-5255.462188,-10584.944971,-6128.763984
163573.900426,-4515.256246,-11473.192101,-4749.792088
163573.900746,-1258.350101,-10955.047942,-1302.362347
163573.901066,5033.400406,-7179.997637,3064.381992
163573.901386,10584.944971,-6513.812290,6665.030833
163573.901706,8068.244768,-4219.173869,4826.401637
163573.902026,3108.864956,-3627.009116,3064.381992
163573.902346,0.000000,-7179.997637,2757.943793
163573.902666,-814.226536,-9252.574275,-1762.019645
163573.902986,-2664.741391,-11325.150913,-4443.353888
163573.903306,-1924.535449,-13767.830521,-2145.067394
163573.903626,666.185348,-12879.583391,-2528.115143
163573.903946,1998.556043,-11177.109724,-2834.553343
163573.904266,-2960.823768,-9548.656652,-3677.258390
163573.904586,-3034.844362,-7772.162391,-4903.011187
163573.904906,-3256.906145,-7179.997637,-4290.134789
163573.905226,2960.823768,-7994.224174,2374.896044
163573.905546,4737.318029,-5403.503377,4903.011187
163573.905866,7920.203579,-7698.141797,7354.516781
163573.906186,6957.935855,-6513.812290,4903.011187
163573.906506,1480.411884,-8364.327145,1685.410096
163573.906826,-2442.679609,-9918.759623,-2528.115143
163573.907146,-4811.338623,-11843.295072,-4979.620737
163573.907466,-5403.503377,-13619.789333,-3753.867940
163573.907786,-2442.679609,-12435.459826,-3753.867940
163573.908106,-2072.576638,-10140.821405,-1225.752797
163573.908426,592.164754,-8660.409521,2834.553343
163573.908746,-2368.659014,-4811.338623,0.000000
163573.909066,-2442.679609,-6957.935855,153.219100
163573.909386,-1628.453072,-6587.832884,842.705048
163573.909706,1480.411884,-6957.935855,2374.896044
163573.910026,4663.297435,-7105.977043,3600.648841
163573.910346,3552.988522,-9844.739029,4903.011187
163573.910666,-74.020594,-10362.883188,-76.609550
163573.910986,-6957.935855,-10732.986159,-4443.353888
163573.911306,-9474.636058,-10881.027347,-6588.421283
163573.911626,-7105.977043,-12509.480420,-3600.648841
163573.911946,-4885.359217,-11473.192101,-3677.258390
163573.912266,222.061783,-9474.636058,383.047749
163573.912586,2146.597232,-7179.997637,919.314598
163573.912906,3330.926739,-4959.379811,612.876398
163573.913226,444.123565,-5995.668130,612.876398
163573.913546,-2368.659014,-7772.162391,1378.971896
163573.913866,-74.020594,-9178.553681,1532.190996
163573.914186,1110.308913,-9474.636058,-76.609550
163573.914506,1110.308913,-11547.212695,2221.676944
163573.914826,0.000000,-9844.739029,0.000000
163573.915146,-1554.432478,-11621.233289,-689.485948
163573.915466,-3330.926739,-10955.047942,-3447.429741
163573.915786,-5995.668130,-10881.027347,-4290.134789
163573.916106,-4811.338623,-9474.636058,-4060.306139
163573.916426,-74.020594,-8586.388927,-689.485948
163573.916746,2368.659014,-7772.162391,306.438199
163573.917066,4737.318029,-7179.997637,5515.887586
163573.917386,2738.761985,-5625.565159,2681.334243
163573.917706,444.123565,-8216.285956,2987.772442
163573.918026,-3256.906145,-8364.327145,-1838.629195
163573.918346,-1258.350101,-9770.718434,-1072.533697
163573.918666,0.000000,-11325.150913,-1302.362347
163573.918986,1184.329507,-11917.315666,229.828649
163573.919306,1110.308913,-9474.636058,-2528.115143
163573.919626,-74.020594,-11843.295072,-76.609550
163573.919946,-370.102971,-9474.636058,-1915.238745
163573.920266,-1850.514855,-7179.997637,-4290.134789
163573.920586,-2368.659014,-7179.997637,-459.657299
163573.920906,0.000000,-5995.668130,0.000000
163573.921226,5551.544565,-9474.636058,2451.505594
163573.921546,4293.194464,-7846.182985,2911.162892
163573.921866,1850.514855,-8068.244768,766.095498
163573.922186,-74.020594,-9474.636058,-689.485948
163573.922506,-370.102971,-10362.883188,-919.314598
163573.922826,1480.411884,-10732.986159,-1225.752797
163573.923146,4145.153275,-11251.130318,2451.505594
163573.923466,5773.606348,-10658.965565,2298.286494
163573.923786,1110.308913,-7476.080014,-2681.334243
163573.924106,-370.102971,-8290.306550,-1915.238745
163573.924426,-4441.235652,-8956.491898,-3907.087040
163573.924746,-4219.173869,-10214.842000,-2834.553343
163573.925066,-2960.823768,-9104.533087,-2528.115143
163573.925386,0.000000,-10732.986159,2757.943793
163573.925706,518.144159,-9104.533087,0.000000
163573.926026,-148.041188,-8660.409521,536.266849
163573.926346,-2442.679609,-9474.636058,0.000000
163573.926666,-3701.029710,-9252.574275,-4826.401637
163573.926986,-3330.926739,-9548.656652,-3753.867940
163573.927306,-74.020594,-11843.295072,-1302.362347
163573.927626,148.041188,-9696.697840,0.000000
163573.927946,1480.411884,-6291.750507,-1225.752797
163573.928266,814.226536,-9474.636058,2987.772442
163573.928586,0.000000,-7179.997637,0.000000
163573.928906,-1480.411884,-9030.512492,-919.314598
163573.929226,-962.267725,-9030.512492,306.438199
163573.929546,-370.102971,-8882.471304,1532.190996
163573.929866,1702.473667,-9474.636058,2145.067394
163573.930186,4663.297435,-8882.471304,2987.772442
163573.930506,-74.020594,-9178.553681,536.266849
163573.930826,-3256.906145,-7920.203579,0.000000
163573.931146,-5329.482782,-9548.656652,-1838.629195
163573.931466,-2146.597232,-11547.212695,-76.609550
163573.931786,0.000000,-7476.080014,0.000000
163573.932106,1332.370696,-10140.821405,1149.143247
163573.932426,1480.411884,-7772.162391,842.705048
163573.932746,-1628.453072,-8216.285956,-1149.143247
163573.933066,-4145.153275,-8364.327145,-3677.258390
163573.933386,-2368.659014,-10510.924376,-2298.286494
163573.933706,-666.185348,-14211.954086,-76.609550
163573.934026,-1776.494261,-10288.862594,0.000000
163573.934346,1554.432478,-10732.986159,1225.752797
163573.934666,2368.659014,-10881.027347,2374.896044
163573.934986,0.000000,-9548.656652,-1072.533697
163573.935306,-1924.535449,-9770.718434,-3064.381992
163573.935626,-3256.906145,-9696.697840,-3294.210641
163573.935946,-3552.988522,-9548.656652,-3064.381992
163573.936266,148.041188,-7772.162391,0.000000
163573.936586,1184.329507,-7179.997637,0.000000
163573.936906,2368.659014,-7772.162391,1991.848295
163573.937226,1036.288319,-8142.265362,306.438199
163573.937546,-74.020594,-11251.130318,-76.609550
163573.937866,0.000000,-9918.759623,0.000000
163573.938186,0.000000,-10214.842000,536.266849
163573.938506,1184.329507,-9844.739029,1072.533697
163573.938826,888.247130,-8364.327145,995.924147
163573.939146,-1110.308913,-6957.935855,766.095498
163573.939466,-74.020594,-8882.471304,-383.047749
163573.939786,-1554.432478,-10066.800811,-1762.019645
163573.940106,-2442.679609,-7105.977043,-1915.238745
163573.940426,-2368.659014,-9548.656652,0.000000
163573.940746,2886.803174,-10658.965565,3600.648841
163573.941066,1480.411884,-7179.997637,306.438199
163573.941386,-296.082377,-9252.574275,383.047749
163573.941706,-1036.288319,-9030.512492,-766.095498
163573.942026,-1480.411884,-9696.697840,0.000000
163573.942346,-1776.494261,-9548.656652,-1225.752797
163573.942666,1036.288319,-11843.295072,536.266849
163573.942986,2294.638420,-11843.295072,-76.609550
163573.943306,518.144159,-6957.935855,-2451.505594
163573.943626,-1776.494261,-9178.553681,-2528.115143
163573.943946,-74.020594,-11843.295072,-689.485948
163573.944266,-2368.659014,-10584.944971,-1225.752797
163573.944586,-1702.473667,-9474.636058,-919.314598
163573.944906,666.185348,-9474.636058,76.609550
163573.945226,0.000000,-7772.162391,1225.752797
163573.945546,1480.411884,-6291.750507,306.438199
163573.945866,296.082377,-8364.327145,1532.190996
163573.946186,1702.473667,-11843.295072,1149.143247
163573.946506,-222.061783,-9474.636058,-689.485948
163573.946826,-666.185348,-11251.130318,-689.485948
163573.947146,-1036.288319,-11103.089130,-689.485948
163573.947466,-1258.350101,-10066.800811,-1762.019645
163573.947786,-2442.679609,-9104.533087,-919.314598
163573.948106,-2294.638420,-9030.512492,-1225.752797
163573.948426,-4145.153275,-7179.997637,-2528.115143
163573.948746,-74.020594,-8290.306550,-76.609550
163573.949066,-1554.432478,-7105.977043,383.047749
163573.949386,0.000000,-7179.997637,0.000000
163573.949706,3775.050304,-8586.388927,3447.429741
163573.950026,-74.020594,-7402.059420,-689.485948
163573.950346,-222.061783,-9918.759623,-229.828649
163573.950666,-3034.844362,-11769.274478,-2145.067394
163573.950986,-4219.173869,-11177.109724,-1762.019645
163573.951306,-2442.679609,-11843.295072,-995.924147
163573.951626,-1924.535449,-10955.047942,-842.705048
163573.951946,1702.473667,-9326.594869,-76.609550
163573.952266,1110.308913,-9178.553681,-76.609550
163573.952586,0.000000,-7179.997637,0.000000
163573.952906,296.082377,-7179.997637,0.000000
163573.953226,1998.556043,-8586.388927,-76.609550
163573.953546,370.102971,-8734.430116,1378.971896
163573.953866,1480.411884,-9696.697840,1378.971896
163573.954186,1554.432478,-9326.594869,1532.190996
163573.954506,1184.329507,-11843.295072,2145.067394
163573.954826,-1480.411884,-9548.656652,-919.314598
163573.955146,-1628.453072,-9548.656652,-1225.752797
163573.955466,-74.020594,-11103.089130,-1302.362347
163573.955786,-1258.350101,-9474.636058,-2221.676944
163573.956106,-3478.967927,-7179.997637,-3677.258390
163573.956426,-370.102971,-8882.471304,-1915.238745
163573.956746,-592.164754,-9178.553681,-919.314598
163573.957066,74.020594,-9918.759623,153.219100
163573.957386,1554.432478,-7698.141797,153.219100
163573.957706,0.000000,-9548.656652,306.438199
163573.958026,-2368.659014,-8364.327145,0.000000
163573.958346,444.123565,-11177.109724,-76.609550
163573.958666,-370.102971,-11251.130318,-76.609550
163573.958986,2294.638420,-10362.883188,-1915.238745
163573.959306,2294.638420,-11843.295072,-76.609550
163573.959626,1406.391290,-8438.347739,76.609550
163573.959946,1110.308913,-8512.368333,76.609550
163573.960266,518.144159,-9918.759623,766.095498
163573.960586,0.000000,-8364.327145,612.876398
163573.960906,-296.082377,-8364.327145,459.657299
163573.961226,1110.308913,-9474.636058,1149.143247
163573.961546,518.144159,-7698.141797,-76.609550
163573.961866,0.000000,-7772.162391,1225.752797
163573.962186,1480.411884,-11251.130318,3907.087040
163573.962506,-1776.494261,-8660.409521,0.000000
163573.962826,-1258.350101,-9178.553681,0.000000
163573.963146,-1776.494261,-8216.285956,-459.657299
163573.963466,-1110.308913,-9252.574275,-842.705048
163573.963786,-666.185348,-8586.388927,-3447.429741
163573.964106,-740.205942,-10510.924376,-766.095498
163573.964426,-2294.638420,-10732.986159,-919.314598
163573.964746,-3256.906145,-9918.759623,-1455.581446
163573.965066,-1850.514855,-9474.636058,-689.485948
163573.965386,-740.205942,-10066.800811,-1302.362347
163573.965706,592.164754,-9548.656652,306.438199
163573.966026,3182.885551,-9178.553681,995.924147
163573.966346,1332.370696,-8364.327145,383.047749
163573.966666,0.000000,-9548.656652,0.000000
163573.966986,-74.020594,-10362.883188,-1302.362347
163573.967306,-814.226536,-9770.718434,-306.438199
163573.967626,-74.020594,-9326.594869,-1072.533697
163573.967946,-1406.391290,-8882.471304,-2604.724693
163573.968266,-2294.638420,-9770.718434,-766.095498
163573.968586,-2368.659014,-9548.656652,-1838.629195
163573.968906,-1776.494261,-9252.574275,-842.705048
163573.969226,-3552.988522,-7179.997637,0.000000
163573.969546,-1628.453072,-8512.368333,-306.438199
163573.969866,-2220.617826,-6587.832884,-2451.505594
163573.970186,2294.638420,-9770.718434,1149.143247
163573.970506,2960.823768,-9548.656652,3217.601092
163573.970826,1924.535449,-9400.615463,2681.334243
163573.971146,0.000000,-7698.141797,76.609550
163573.971466,-444.123565,-10066.800811,-76.609550
163573.971786,-2738.761985,-8364.327145,-2374.896044
163573.972105,-74.020594,-9326.594869,-76.609550
163573.972425,-2368.659014,-8068.244768,-1225.752797
163573.972745,-1258.350101,-9252.574275,-2451.505594
163573.973065,-2368.659014,-9548.656652,0.000000
163573.973385,-1554.432478,-9178.553681,-1455.581446
163573.973705,-1258.350101,-7846.182985,-995.924147
163573.974025,-1406.391290,-8512.368333,-536.266849
163573.974345,-2072.576638,-6661.853478,-2681.334243
163573.974665,-666.185348,-9400.615463,1762.019645
163573.974984,2294.638420,-8882.471304,-76.609550
163573.975304,740.205942,-8660.409521,306.438199
163573.975624,2442.679609,-10066.800811,0.000000
163573.975944,3478.967927,-11251.130318,2068.457845
163573.976264,0.000000,-8364.327145,-1225.752797
163573.976584,0.000000,-9474.636058,-1225.752797
163573.976904,370.102971,-10140.821405,-842.705048
163573.977224,888.247130,-11103.089130,612.876398
163573.977544,1702.473667,-9474.636058,-383.047749
163573.977863,-74.020594,-11547.212695,1455.581446
163573.978183,-814.226536,-9178.553681,-383.047749
163573.978503,-74.020594,-10658.965565,-76.609550
163573.978823,-74.020594,-8364.327145,-612.876398
163573.979143,2220.617826,-9474.636058,3447.429741
163573.979463,0.000000,-8068.244768,153.219100
163573.979783,-518.144159,-9400.615463,689.485948
163573.980103,-1480.411884,-9548.656652,-1302.362347
163573.980423,-4589.276840,-9844.739029,-2451.505594
163573.980742,-3997.112087,-8660.409521,-4290.134789
163573.981062,-1850.514855,-10955.047942,-1149.143247
163573.981382,-74.020594,-11843.295072,1608.800546
163573.981702,-74.020594,-9770.718434,-689.485948
163573.982022,0.000000,-8882.471304,-76.609550
163573.982342,1480.411884,-8808.450710,2374.896044
163573.982662,-2220.617826,-7994.224174,-1532.190996
163573.982982,-1480.411884,-8882.471304,-842.705048
163573.983302,962.267725,-9770.718434,383.047749
163573.983621,592.164754,-7179.997637,0.000000
163573.983941,1110.308913,-7772.162391,1149.143247
163573.984261,-1776.494261,-8364.327145,0.000000
163573.984581,-2072.576638,-7772.162391,0.000000
163573.984901,-3034.844362,-9918.759623,-3677.258390
163573.985221,-74.020594,-11843.295072,-76.609550
163573.985541,740.205942,-8364.327145,0.000000
163573.985861,444.123565,-9104.533087,-383.047749
163573.986181,592.164754,-9252.574275,919.314598
163573.986500,-962.267725,-9252.574275,536.266849
163573.986820,-1702.473667,-6069.688724,-1915.238745
163573.987140,-3478.967927,-8290.306550,-3140.991542
163573.987460,-4737.318029,-9548.656652,-3370.820191
163573.987780,-148.041188,-10436.903782,-459.657299
163573.988100,2294.638420,-13027.624579,2374.896044
163573.988420,2294.638420,-9474.636058,-76.609550
163573.988740,-1036.288319,-10881.027347,-459.657299
163573.989060,-1998.556043,-8734.430116,-2068.457845
163573.989379,-1776.494261,-8956.491898,-1762.019645
163573.989699,1184.329507,-8660.409521,689.485948
163573.990019,4071.132681,-8956.491898,2451.505594
163573.990339,5255.462188,-11251.130318,2374.896044
163573.990659,2738.761985,-9474.636058,-76.609550
163573.990979,-1406.391290,-8364.327145,-1072.533697
163573.991299,-3775.050304,-7254.018232,-3064.381992
163573.991619,-1258.350101,-11251.130318,-1915.238745
163573.991939,-2072.576638,-11325.150913,-1072.533697
163573.992258,1406.391290,-8956.491898,-76.609550
163573.992578,1110.308913,-10510.924376,2298.286494
163573.992898,0.000000,-5995.668130,2451.505594
163573.993218,-1776.494261,-7328.038826,0.000000
163573.993538,-4145.153275,-7179.997637,0.000000
163573.993858,-1332.370696,-9474.636058,-842.705048
163573.994178,-666.185348,-9770.718434,1149.143247
163573.994498,4071.132681,-7698.141797,1149.143247
163573.994818,3627.009116,-9474.636058,2987.772442
163573.995138,1628.453072,-9474.636058,612.876398
163573.995457,-1628.453072,-8438.347739,-2604.724693
163573.995777,-5477.523971,-10807.006753,-2528.115143
163573.996097,-6513.812290,-8512.368333,-4903.011187
163573.996417,-1258.350101,-10658.965565,-3140.991542
163573.996737,0.000000,-10288.862594,0.000000
163573.997057,2664.741391,-10066.800811,2451.505594
163573.997377,2294.638420,-9474.636058,2374.896044
163573.997697,1184.329507,-8882.471304,2374.896044
163573.998017,-1480.411884,-8364.327145,-766.095498
163573.998336,0.000000,-8808.450710,-383.047749
163573.998656,1554.432478,-9326.594869,1149.143247
163573.998976,0.000000,-7179.997637,0.000000
163573.999296,1480.411884,-9548.656652,612.876398
163573.999616,1110.308913,-11103.089130,153.219100
163573.999936,-518.144159,-11843.295072,-1608.800546
163574.000256,-4219.173869,-10658.965565,-3524.039291
163574.000576,-4737.318029,-10140.821405,-1225.752797
163574.000896,-1480.411884,-8956.491898,-1838.629195
163574.001215,3478.967927,-9252.574275,1991.848295
163574.001535,4293.194464,-8438.347739,3830.477490
163574.001855,2738.761985,-8068.244768,3983.696590
163574.002175,-666.185348,-7105.977043,-76.609550
163574.002495,-4441.235652,-8734.430116,-612.876398
163574.002815,-3034.844362,-8734.430116,-2068.457845
163574.003135,0.000000,-9030.512492,-153.219100
163574.003455,2294.638420,-10214.842000,1838.629195
163574.003775,-1480.411884,-9548.656652,0.000000
163574.004094,-1184.329507,-10436.903782,-919.314598
163574.004414,-5403.503377,-9326.594869,-5132.839837
163574.004734,-6217.729913,-10066.800811,-4366.744339
163574.005054,-4737.318029,-7772.162391,-4903.011187
163574.005374,2294.638420,-11843.295072,-76.609550
163574.005694,4145.153275,-9548.656652,3370.820191
163574.006014,4959.379811,-8660.409521,3907.087040
163574.006334,3775.050304,-8068.244768,3753.867940
163574.006654,-1480.411884,-7105.977043,383.047749
163574.006973,-1406.391290,-8660.409521,-459.657299
163574.007293,0.000000,-8364.327145,-2451.505594
163574.007613,0.000000,-7772.162391,0.000000
163574.007933,1998.556043,-13027.624579,1762.019645
163574.008253,-1258.350101,-9770.718434,-1915.238745
163574.008573,-1850.514855,-11251.130318,-1378.971896
163574.008893,-3997.112087,-9252.574275,-2681.334243
163574.009213,-3775.050304,-8808.450710,-2834.553343
163574.009533,-740.205942,-9104.533087,689.485948
163574.009852,3330.926739,-9474.636058,4060.306139
163574.010172,4145.153275,-9030.512492,4826.401637
163574.010492,4071.132681,-8290.306550,1762.019645
163574.010812,-2368.659014,-6883.915261,0.000000
163574.011132,-3775.050304,-8364.327145,-2451.505594
163574.011452,-3627.009116,-9474.636058,-4979.620737
163574.011772,-2220.617826,-11473.192101,-1608.800546
163574.012092,148.041188,-10436.903782,-1302.362347
163574.012412,2664.741391,-11325.150913,536.266849
163574.012731,3478.967927,-10510.924376,1149.143247
163574.013051,-2220.617826,-8364.327145,-2451.505594
163574.013371,-5329.482782,-8364.327145,-3064.381992
163574.013691,-1628.453072,-9548.656652,-1762.019645
163574.014011,3330.926739,-11473.192101,3677.258390
163574.014331,2368.659014,-7179.997637,1225.752797
163574.014651,4663.297435,-8290.306550,3907.087040
163574.014971,3256.906145,-7179.997637,2681.334243
163574.015291,-1406.391290,-7550.100608,-1915.238745
163574.015610,-4145.153275,-11029.068536,-2528.115143
163574.015930,-4737.318029,-9992.780217,-3524.039291
163574.016250,-2886.803174,-11251.130318,-2681.334243
163574.016570,-1184.329507,-10288.862594,-1072.533697
163574.016890,-2960.823768,-8364.327145,0.000000
163574.017210,-370.102971,-9474.636058,-76.609550
163574.017530,-5329.482782,-5995.668130,-3677.258390
163574.017850,-1554.432478,-9474.636058,-229.828649
163574.018170,148.041188,-7402.059420,306.438199
163574.018489,1850.514855,-8586.388927,2834.553343
163574.018809,3775.050304,-8290.306550,2374.896044
163574.019129,3478.967927,-9474.636058,2987.772442
163574.019449,-962.267725,-8290.306550,-76.609550
163574.019769,-4811.338623,-10658.965565,-3753.867940
163574.020089,-8290.306550,-9548.656652,-6128.763984
163574.020409,-7105.977043,-10732.986159,-3677.258390
163574.020729,-1998.556043,-9548.656652,-2221.676944
163574.021049,2812.782580,-8734.430116,1608.800546
163574.021368,3923.091493,-8512.368333,3294.210641
163574.021688,1110.308913,-6439.791695,842.705048
163574.022008,-666.185348,-9474.636058,-76.609550
163574.022328,-1850.514855,-9474.636058,-459.657299
163574.022648,2294.638420,-9474.636058,-76.609550
163574.022968,2072.576638,-9770.718434,612.876398
163574.023288,4737.318029,-11029.068536,2451.505594
163574.023608,1184.329507,-7772.162391,612.876398
163574.023928,-962.267725,-8956.491898,-1915.238745
163574.024247,-3256.906145,-10214.842000,-3447.429741
163574.024567,-4885.359217,-10732.986159,-4366.744339
163574.024887,-1628.453072,-9844.739029,-1455.581446
163574.025207,1850.514855,-9548.656652,1149.143247
163574.025527,296.082377,-8364.327145,1225.752797
163574.025847,2960.823768,-7254.018232,2451.505594
163574.026167,-74.020594,-8882.471304,3294.210641
163574.026487,-1258.350101,-7698.141797,-689.485948
163574.026807,-4737.318029,-6587.832884,-3677.258390
163574.027126,-666.185348,-11177.109724,-76.609550
163574.027446,666.185348,-9770.718434,76.609550
163574.027766,74.020594,-10955.047942,459.657299
163574.028086,1110.308913,-8882.471304,-1915.238745
163574.028406,-74.020594,-10066.800811,-2068.457845
163574.028726,-3182.885551,-8216.285956,-3294.210641
163574.029046,-1554.432478,-9474.636058,-2528.115143
163574.029366,0.000000,-8956.491898,0.000000
163574.029686,4737.318029,-9548.656652,3677.258390
163574.030005,4737.318029,-6883.915261,2757.943793
163574.030325,4145.153275,-8364.327145,2987.772442
163574.030645,0.000000,-8068.244768,689.485948
163574.030965,-3923.091493,-9178.553681,-2221.676944
163574.031285,-74.020594,-11251.130318,-1302.362347
163574.031605,-740.205942,-11547.212695,-229.828649
163574.031925,-666.185348,-7772.162391,0.000000
163574.032245,-1776.494261,-7772.162391,612.876398
163574.032565,-2072.576638,-7772.162391,0.000000
163574.032884,-2146.597232,-7476.080014,-4290.134789
163574.033204,-2960.823768,-9400.615463,-2221.676944
163574.033524,-2072.576638,-7624.121203,-1915.238745
163574.033844,-518.144159,-8364.327145,383.047749
163574.034164,2294.638420,-11843.295072,-76.609550
163574.034484,2368.659014,-8660.409521,1149.143247
163574.034804,-3256.906145,-9548.656652,-1225.752797
163574.035124,-4737.318029,-9548.656652,-2451.505594
163574.035444,-3552.988522,-10732.986159,-2451.505594
163574.035763,-74.020594,-10658.965565,-2528.115143
163574.036083,2294.638420,-11843.295072,-76.609550
163574.036403,1406.391290,-9696.697840,2451.505594
163574.036723,3701.029710,-8512.368333,1455.581446
163574.037043,1036.288319,-8216.285956,536.266849
163574.037363,-2368.659014,-6587.832884,306.438199
163574.037683,-888.247130,-9622.677246,306.438199
163574.038003,962.267725,-9474.636058,919.314598
163574.038323,2886.803174,-11251.130318,2374.896044
163574.038642,74.020594,-9844.739029,1225.752797
163574.038962,2960.823768,-8808.450710,2681.334243
163574.039282,-888.247130,-8956.491898,-1378.971896
163574.039602,-3849.070898,-10362.883188,-1991.848295
163574.039922,-4737.318029,-9770.718434,-3064.381992
163574.040242,-3923.091493,-10288.862594,-2451.505594
163574.040562,-74.020594,-8882.471304,-1608.800546
163574.040882,1850.514855,-9178.553681,2681.334243
163574.041202,2886.803174,-6957.935855,2374.896044
163574.041521,444.123565,-6661.853478,1225.752797
163574.041841,-74.020594,-9474.636058,-153.219100
163574.042161,518.144159,-9326.594869,-76.609550
163574.042481,0.000000,-8956.491898,1378.971896
163574.042801,2294.638420,-9474.636058,2374.896044
163574.043121,2294.638420,-11251.130318,-76.609550
163574.043441,-4441.235652,-7179.997637,-4596.572988
163574.043761,-3627.009116,-10362.883188,-3753.867940
163574.044081,-5477.523971,-10881.027347,-3753.867940
163574.044400,-3330.926739,-10510.924376,-3217.601092
163574.044720,-1332.370696,-10214.842000,-383.047749
163574.045040,1702.473667,-10658.965565,2681.334243
163574.045360,3627.009116,-7328.038826,2604.724693
163574.045680,814.226536,-7698.141797,-76.609550
163574.046000,0.000000,-7179.997637,0.000000
163574.046320,-1258.350101,-10658.965565,-76.609550
163574.046640,-2960.823768,-6735.874072,0.000000
163574.046960,1110.308913,-10955.047942,1302.362347
163574.047279,2738.761985,-10510.924376,1838.629195
163574.047599,1406.391290,-9474.636058,-306.438199
163574.047919,-1258.350101,-10658.965565,-1302.362347
163574.048239,-1332.370696,-11843.295072,-1302.362347
163574.048559,-3034.844362,-11843.295072,-1302.362347
163574.048879,-2442.679609,-9474.636058,-2528.115143
163574.049199,-1036.288319,-7846.182985,-689.485948
163574.049519,1184.329507,-8364.327145,1838.629195
163574.049839,1628.453072,-4219.173869,1072.533697
163574.050158,592.164754,-7031.956449,2298.286494
163574.050478,-518.144159,-6587.832884,0.000000
163574.050798,-1036.288319,-8956.491898,-842.705048
163574.051118,-74.020594,-11103.089130,-76.609550
163574.051438,-3256.906145,-10288.862594,-2068.457845
163574.051758,-1776.494261,-11029.068536,0.000000
163574.052078,-74.020594,-10658.965565,-76.609550
163574.052398,-74.020594,-11843.295072,-689.485948
163574.052718,-4737.318029,-7476.080014,-4290.134789
163574.053037,-1258.350101,-8882.471304,-1302.362347
163574.053357,1776.494261,-8586.388927,306.438199
163574.053677,3923.091493,-8364.327145,2451.505594
163574.053997,4959.379811,-7698.141797,3064.381992
163574.054317,3775.050304,-7402.059420,2374.896044
163574.054637,0.000000,-7920.203579,1225.752797
163574.054957,-1184.329507,-9252.574275,0.000000
163574.055277,-1776.494261,-11917.315666,-459.657299
163574.055597,-1850.514855,-12139.377449,-76.609550
163574.055916,-3552.988522,-9548.656652,0.000000
163574.056236,222.061783,-10362.883188,-995.924147
163574.056556,-2072.576638,-8956.491898,-1608.800546
163574.056876,-2738.761985,-9030.512492,-1762.019645
163574.057196,-1850.514855,-8290.306550,-1915.238745
163574.057516,-74.020594,-9474.636058,-1915.238745
163574.057836,222.061783,-8290.306550,-76.609550
163574.058156,0.000000,-7476.080014,1225.752797
163574.058476,4441.235652,-7846.182985,3064.381992
163574.058795,592.164754,-8956.491898,766.095498
163574.059115,-3404.947333,-8364.327145,-2374.896044
163574.059435,-3256.906145,-10807.006753,-3294.210641
163574.059755,-2886.803174,-10881.027347,-1455.581446
163574.060075,-1332.370696,-11177.109724,-1915.238745
163574.060395,1702.473667,-10658.965565,-76.609550
163574.060715,2072.576638,-7772.162391,2604.724693
163574.061035,3775.050304,-7698.141797,2374.896044
163574.061355,2294.638420,-7550.100608,1762.019645
163574.061674,2294.638420,-5921.647536,459.657299
163574.061994,296.082377,-7772.162391,3064.381992
163574.062314,666.185348,-8068.244768,536.266849
163574.062634,1776.494261,-10214.842000,995.924147
163574.062954,-148.041188,-8956.491898,-1608.800546
163574.063274,-3775.050304,-8956.491898,-3677.258390
163574.063594,-3552.988522,-11177.109724,-4826.401637
163574.063914,-2960.823768,-10436.903782,-3524.039291
163574.064234,-1480.411884,-9548.656652,-2451.505594
163574.064553,0.000000,-10140.821405,612.876398
163574.064873,2294.638420,-11251.130318,1762.019645
163574.065193,0.000000,-5995.668130,612.876398
163574.065513,2442.679609,-8734.430116,1608.800546
163574.065833,888.247130,-10288.862594,842.705048
163574.066153,592.164754,-9770.718434,306.438199
163574.066473,-74.020594,-9178.553681,-689.485948
163574.066793,-814.226536,-9474.636058,-995.924147
163574.067113,-2368.659014,-7698.141797,-3140.991542
163574.067432,-4145.153275,-9844.739029,-1532.190996
163574.067752,-1332.370696,-10066.800811,-2068.457845
163574.068072,-666.185348,-11103.089130,-76.609550
163574.068392,-2072.576638,-7772.162391,0.000000
163574.068712,222.061783,-9400.615463,1072.533697
163574.069032,1406.391290,-9696.697840,1762.019645
163574.069352,518.144159,-7550.100608,1302.362347
163574.069672,-74.020594,-6513.812290,-76.609550
163574.069992,1110.308913,-10510.924376,1608.800546
163574.070311,1110.308913,-9178.553681,-383.047749
163574.070631,-1184.329507,-8956.491898,306.438199
163574.070951,-74.020594,-9178.553681,1149.143247
163574.071271,-3552.988522,-7179.997637,0.000000
163574.071591,518.144159,-9474.636058,-459.657299
163574.071911,-814.226536,-8660.409521,-995.924147
163574.072231,-1776.494261,-8586.388927,-919.314598
163574.072551,-74.020594,-9474.636058,-76.609550
163574.072871,-74.020594,-8586.388927,-383.047749
163574.073190,-1480.411884,-8142.265362,0.000000
163574.073510,-3256.906145,-7179.997637,-2145.067394
163574.073830,-2368.659014,-9696.697840,-306.438199
163574.074150,-1258.350101,-7550.100608,-4366.744339
163574.074470,-2442.679609,-6513.812290,-4673.182538
163574.074790,0.000000,-10732.986159,-1225.752797
163574.075110,-518.144159,-11177.109724,-1072.533697
163574.075430,-370.102971,-11843.295072,383.047749
163574.075750,2294.638420,-13027.624579,2374.896044
163574.076069,740.205942,-8068.244768,1072.533697
163574.076389,2368.659014,-8364.327145,689.485948
163574.076709,1480.411884,-6883.915261,689.485948
163574.077029,1332.370696,-9104.533087,919.314598
163574.077349,0.000000,-6291.750507,0.000000
163574.077669,-3108.864956,-8660.409521,-2451.505594
163574.077989,-1184.329507,-9548.656652,-766.095498
163574.078309,-1258.350101,-10510.924376,-76.609550
163574.078629,-2146.597232,-9178.553681,-1608.800546
163574.078948,-74.020594,-11843.295072,-76.609550
163574.079268,-518.144159,-9474.636058,-459.657299
163574.079588,-518.144159,-8808.450710,76.609550
163574.079908,-740.205942,-8364.327145,1225.752797
163574.080228,-2368.659014,-7476.080014,459.657299
163574.080548,-1184.329507,-8068.244768,1532.190996
163574.080868,-370.102971,-6513.812290,-1225.752797
163574.081188,592.164754,-5699.585753,-995.924147
163574.081508,592.164754,-9548.656652,306.438199
163574.081827,-74.020594,-11843.295072,-1302.362347
163574.082147,-2368.659014,-12287.418637,-2451.505594
163574.082467,-4219.173869,-12361.439231,-2757.943793
163574.082787,-3849.070898,-11399.171507,-2911.162892
163574.083107,-1776.494261,-10510.924376,-2604.724693
163574.083427,148.041188,-8956.491898,766.095498
163574.083747,1776.494261,-8364.327145,1838.629195
163574.084067,6735.874072,-10658.965565,6665.030833
163574.084387,4071.132681,-5625.565159,2834.553343
163574.084706,592.164754,-5699.585753,1225.752797
163574.085026,2294.638420,-9474.636058,2374.896044
163574.085346,740.205942,-8438.347739,0.000000
163574.085666,2146.597232,-9918.759623,0.000000
163574.085986,222.061783,-10881.027347,-1225.752797
163574.086306,-1184.329507,-11917.315666,-1225.752797
163574.086626,-3552.988522,-10732.986159,-3064.381992
163574.086946,-4145.153275,-9548.656652,-3677.258390
163574.087266,-2516.700203,-10066.800811,-1762.019645
163574.087585,-74.020594,-9178.553681,-76.609550
163574.087905,1406.391290,-6809.894666,-1302.362347
163574.088225,4367.215058,-9474.636058,3600.648841
163574.088545,1406.391290,-8068.244768,2145.067394
163574.088865,222.061783,-7550.100608,2451.505594
163574.089185,148.041188,-7698.141797,-612.876398
163574.089505,-1184.329507,-9548.656652,0.000000
163574.089825,-74.020594,-10066.800811,-1915.238745
163574.090145,0.000000,-8660.409521,-1685.410096
163574.090464,1184.329507,-10732.986159,-2451.505594
163574.090784,2886.803174,-11843.295072,-76.609550
163574.091104,-4145.153275,-9548.656652,-3677.258390
163574.091424,-5329.482782,-8956.491898,-3294.210641
163574.091744,-4293.194464,-8882.471304,-2834.553343
163574.092064,-962.267725,-9030.512492,1532.190996
163574.092384,2442.679609,-7550.100608,1838.629195
163574.092704,4367.215058,-7402.059420,4290.134789
163574.093024,2072.576638,-7179.997637,2451.505594
163574.093343,222.061783,-7772.162391,1225.752797
163574.093663,-1258.350101,-11251.130318,-76.609550
163574.093983,-3627.009116,-8586.388927,-2528.115143
163574.094303,-3552.988522,-9548.656652,-1225.752797
163574.094623,-888.247130,-9844.739029,-919.314598
163574.094943,666.185348,-11029.068536,153.219100
163574.095263,-962.267725,-9474.636058,153.219100
163574.095583,-3108.864956,-8068.244768,-3907.087040
163574.095902,-3034.844362,-8290.306550,-3140.991542
163574.096222,-2146.597232,-9178.553681,-1302.362347
163574.096542,1184.329507,-6587.832884,1225.752797
163574.096862,4663.297435,-9178.553681,3983.696590
163574.097182,4663.297435,-9474.636058,4213.525239
163574.097502,0.000000,-7772.162391,306.438199
163574.097822,-1258.350101,-9474.636058,-995.924147
163574.098142,-3034.844362,-9178.553681,-2298.286494
163574.098462,-3182.885551,-9474.636058,-3447.429741
163574.098781,-74.020594,-9178.553681,-2221.676944
163574.099101,2590.720797,-11695.253884,-76.609550
163574.099421,1702.473667,-13027.624579,-76.609550
163574.099741,-444.123565,-9104.533087,-383.047749
163574.100061,-2146.597232,-7994.224174,-1608.800546
163574.100381,-592.164754,-10140.821405,1762.019645
163574.100701,-1406.391290,-7772.162391,-1072.533697
163574.101021,1406.391290,-8808.450710,1762.019645
163574.101341,3034.844362,-7994.224174,3983.696590
163574.101660,1998.556043,-9548.656652,1225.752797
163574.101980,1110.308913,-9918.759623,0.000000
163574.102300,-2960.823768,-9252.574275,-1838.629195
163574.102620,-2442.679609,-10362.883188,-612.876398
163574.102940,-370.102971,-11251.130318,-2528.115143
163574.103260,518.144159,-11251.130318,-76.609550
163574.103580,2368.659014,-10436.903782,919.314598
163574.103900,-444.123565,-10732.986159,612.876398
163574.104220,-1702.473667,-9326.594869,-536.266849
163574.104539,-2442.679609,-8216.285956,0.000000
163574.104859,-2368.659014,-6291.750507,-3677.258390
163574.105179,962.267725,-6883.915261,153.219100
163574.105499,1776.494261,-6735.874072,-842.705048
163574.105819,1184.329507,-9548.656652,3064.381992
163574.106139,2886.803174,-10510.924376,1762.019645
163574.106459,-74.020594,-13027.624579,-76.609550
163574.106779,-4145.153275,-9548.656652,-2604.724693
163574.107099,-2812.782580,-10066.800811,-3217.601092
163574.107418,148.041188,-9548.656652,-1991.848295
163574.107738,1480.411884,-9548.656652,153.219100
163574.108058,888.247130,-8660.409521,-1378.971896
163574.108378,1924.535449,-10658.965565,-76.609550
163574.108698,-2960.823768,-7179.997637,-2145.067394
163574.109018,-2960.823768,-8956.491898,0.000000
163574.109338,-74.020594,-11621.233289,2987.772442
163574.109658,1184.329507,-7179.997637,1225.752797
163574.109978,3182.885551,-9918.759623,3217.601092
163574.110297,2886.803174,-9104.533087,1149.143247
163574.110617,740.205942,-10732.986159,689.485948
163574.110937,-1850.514855,-7994.224174,-2834.553343
163574.111257,-6217.729913,-9252.574275,-5362.668486
163574.111577,-7105.977043,-8956.491898,-4290.134789
163574.111897,-2516.700203,-10288.862594,-3217.601092
163574.112217,-74.020594,-13027.624579,-76.609550
163574.112537,-2368.659014,-7179.997637,-3677.258390
163574.112857,-74.020594,-8290.306550,-229.828649
163574.113176,-1406.391290,-7846.182985,-153.219100
163574.113496,-1628.453072,-8734.430116,-1149.143247
163574.113816,-296.082377,-9030.512492,306.438199
163574.114136,3478.967927,-10584.944971,4826.401637
163574.114456,4737.318029,-8956.491898,4596.572988
163574.114776,4737.318029,-7846.182985,3830.477490
163574.115096,962.267725,-8882.471304,1608.800546
163574.115416,-3552.988522,-8364.327145,-3064.381992
163574.115736,-6809.894666,-6291.750507,-4903.011187
163574.116055,-666.185348,-9474.636058,-3140.991542
163574.116375,0.000000,-8068.244768,-1838.629195
163574.116695,1776.494261,-10140.821405,0.000000
163574.117015,1702.473667,-10658.965565,2068.457845
163574.117335,-1184.329507,-10732.986159,766.095498
163574.117655,-4737.318029,-9252.574275,-1302.362347
163574.117975,-4071.132681,-9992.780217,-2221.676944
163574.118295,-1184.329507,-9252.574275,76.609550
163574.118615,1998.556043,-8142.265362,2298.286494
163574.118934,4145.153275,-7772.162391,3677.258390
163574.119254,3775.050304,-7994.224174,1455.581446
163574.119574,0.000000,-7179.997637,-3677.258390
163574.119894,-6365.771101,-8512.368333,-4903.011187
163574.120214,-4219.173869,-13619.789333,-3753.867940
163574.120534,-4441.235652,-11917.315666,-3064.381992
163574.120854,888.247130,-11399.171507,-1532.190996
163574.121174,2220.617826,-11843.295072,766.095498
163574.121494,2590.720797,-9548.656652,689.485948
163574.121813,-2072.576638,-7179.997637,0.000000
163574.122133,-1184.329507,-7031.956449,-612.876398
163574.122453,888.247130,-7476.080014,1225.752797
163574.122773,4367.215058,-8882.471304,2374.896044
163574.123093,3182.885551,-7179.997637,2834.553343
163574.123413,5551.544565,-11843.295072,4826.401637
163574.123733,0.000000,-8216.285956,689.485948
163574.124053,-2368.659014,-9992.780217,-1915.238745
163574.124373,-4663.297435,-10214.842000,-3907.087040
163574.124692,-4737.318029,-9548.656652,-4290.134789
163574.125012,-4737.318029,-7772.162391,-3370.820191
163574.125332,1110.308913,-9474.636058,-1915.238745
163574.125652,592.164754,-9548.656652,153.219100
163574.125972,2368.659014,-8660.409521,0.000000
163574.126292,-74.020594,-8290.306550,-76.609550
163574.126612,-2442.679609,-9252.574275,-76.609550
163574.126932,-1036.288319,-8364.327145,76.609550
163574.127252,1110.308913,-7624.121203,536.266849
163574.127571,2072.576638,-9696.697840,1608.800546
163574.127891,-1184.329507,-8660.409521,0.000000
163574.128211,-1258.350101,-11103.089130,-1302.362347
163574.128531,-4219.173869,-9178.553681,-2757.943793
163574.128851,-3997.112087,-9548.656652,-6665.030833
163574.129171,-3552.988522,-9548.656652,-1838.629195
163574.129491,4367.215058,-10658.965565,-76.609550
163574.129811,2960.823768,-8956.491898,2757.943793
163574.130131,2886.803174,-9474.636058,919.314598
163574.130450,666.185348,-8956.491898,1608.800546
163574.130770,-888.247130,-8660.409521,1915.238745
163574.131090,-1628.453072,-9548.656652,-76.609550
163574.131410,-1332.370696,-10362.883188,-689.485948
163574.131730,370.102971,-10658.965565,-76.609550
163574.132050,1184.329507,-9548.656652,1225.752797
163574.132370,2960.823768,-7179.997637,612.876398
163574.132690,-74.020594,-9474.636058,-76.609550
163574.133009,-4737.318029,-9030.512492,-2528.115143
163574.133329,-3552.988522,-8956.491898,-3140.991542
163574.133649,296.082377,-9770.718434,-766.095498
163574.133969,1184.329507,-9844.739029,1532.190996
163574.134289,592.164754,-10140.821405,1838.629195
163574.134609,592.164754,-8364.327145,0.000000
163574.134929,-74.020594,-10510.924376,-689.485948
163574.135249,-4071.132681,-9474.636058,-3140.991542
163574.135569,-4811.338623,-9770.718434,-3753.867940
163574.135888,-74.020594,-10807.006753,-229.828649
163574.136208,2738.761985,-9474.636058,1225.752797
163574.136528,2886.803174,-10436.903782,842.705048
163574.136848,1184.329507,-7846.182985,1225.752797
163574.137168,0.000000,-7179.997637,-2451.505594
163574.137488,-1258.350101,-8734.430116,-3753.867940
163574.137808,-1776.494261,-10140.821405,-2451.505594
163574.138128,1184.329507,-9548.656652,0.000000
163574.138448,5181.441594,-11621.233289,3600.648841
163574.138767,5847.626942,-8882.471304,1149.143247
163574.139087,2368.659014,-8734.430116,1072.533697
163574.139407,-2442.679609,-7328.038826,-383.047749
163574.139727,-4737.318029,-8290.306550,-3753.867940
163574.140047,-1850.514855,-11251.130318,-689.485948
163574.140367,518.144159,-9844.739029,919.314598
163574.140687,3330.926739,-9178.553681,2374.896044
163574.141007,1850.514855,-7994.224174,1762.019645
163574.141327,-1480.411884,-6291.750507,0.000000
163574.141646,-4737.318029,-7772.162391,-3677.258390
163574.141966,-3923.091493,-10658.965565,-2528.115143
163574.142286,-3552.988522,-10140.821405,-2221.676944
163574.142606,-1110.308913,-10510.924376,0.000000
163574.142926,1924.535449,-10584.944971,995.924147
163574.143246,2368.659014,-9844.739029,3677.258390
163574.143566,0.000000,-9400.615463,-1225.752797
163574.143886,-2960.823768,-9548.656652,-1225.752797
163574.144206,-3627.009116,-11843.295072,-2528.115143
163574.144525,-4145.153275,-10140.821405,-3064.381992
163574.144845,74.020594,-8512.368333,-2451.505594
163574.145165,2886.803174,-10732.986159,2145.067394
163574.145485,2960.823768,-9030.512492,3064.381992
163574.145805,518.144159,-8216.285956,1608.800546
163574.146125,-1036.288319,-7550.100608,-76.609550
163574.146445,-1924.535449,-7772.162391,-1838.629195
163574.146765,-888.247130,-7476.080014,0.000000
163574.147085,0.000000,-9548.656652,2604.724693
163574.147404,3478.967927,-11843.295072,1762.019645
163574.147724,-1406.391290,-9548.656652,-76.609550
163574.148044,-2368.659014,-9252.574275,0.000000
163574.148364,-3552.988522,-9326.594869,-2911.162892
163574.148684,-3108.864956,-8364.327145,-1378.971896
163574.149004,-2442.679609,-9252.574275,-1915.238745
163574.149324,1702.473667,-9474.636058,-383.047749
163574.149644,3034.844362,-8956.491898,306.438199
163574.149964,2368.659014,-7772.162391,2451.505594
163574.150283,1924.535449,-8290.306550,2298.286494
163574.150603,-74.020594,-9474.636058,-76.609550
163574.150923,-3034.844362,-7105.977043,-2834.553343
163574.151243,-1850.514855,-9770.718434,-2298.286494
163574.151563,-1628.453072,-11621.233289,0.000000
163574.151883,-1554.432478,-11621.233289,-995.924147
163574.152203,-3552.988522,-10658.965565,-2374.896044
163574.152523,-3034.844362,-12435.459826,-689.485948
163574.152843,-5773.606348,-9992.780217,-2911.162892
163574.153162,-2442.679609,-9326.594869,-689.485948
163574.153482,-1776.494261,-7772.162391,612.876398
163574.153802,2072.576638,-6587.832884,1838.629195
163574.154122,3923.091493,-7105.977043,5362.668486
163574.154442,0.000000,-7772.162391,3064.381992
163574.154762,-3404.947333,-9474.636058,-766.095498
163574.155082,-7994.224174,-11251.130318,-3064.381992
163574.155402,-9474.636058,-12435.459826,-4213.525239
163574.155722,-9622.677246,-12065.356855,-3370.820191
163574.156041,-8068.244768,-12731.542202,-2068.457845
163574.156361,-4589.276840,-10066.800811,0.000000
163574.156681,-4219.173869,-7772.162391,0.000000
163574.157001,-3775.050304,-6883.915261,-1149.143247
163574.157321,-5107.421000,-5921.647536,-2221.676944
163574.157641,-3627.009116,-7105.977043,1149.143247
163574.157961,-4367.215058,-6513.812290,1149.143247
163574.158281,-5625.565159,-7772.162391,306.438199
163574.158601,-3627.009116,-10584.944971,2068.457845
163574.158920,-3552.988522,-9548.656652,1532.190996
163574.159240,-5995.668130,-8734.430116,-2221.676944
163574.159560,-10140.821405,-11325.150913,-4826.401637
163574.159880,-12213.398043,-12731.542202,-5592.497135
163574.160200,-8660.409521,-10510.924376,-4596.572988
163574.160520,-6291.750507,-9474.636058,-2221.676944
163574.160840,-3034.844362,-9474.636058,1608.800546
163574.161160,-1406.391290,-9474.636058,2987.772442
163574.161480,1702.473667,-5921.647536,4060.306139
163574.161799,1406.391290,-7105.977043,2987.772442
163574.162119,-2072.576638,-8364.327145,2451.505594
163574.162439,-2220.617826,-9030.512492,229.828649
163574.162759,-666.185348,-12435.459826,2987.772442
163574.163079,-2812.782580,-10140.821405,-2221.676944
163574.163399,-7105.977043,-11917.315666,-2145.067394
163574.163719,-6513.812290,-11325.150913,-4213.525239
163574.164039,-6809.894666,-9548.656652,-1838.629195
163574.164359,-3404.947333,-8808.450710,-1915.238745
163574.164678,-4811.338623,-10066.800811,689.485948
163574.164998,-2072.576638,-9474.636058,-76.609550
163574.165318,0.000000,-7179.997637,3370.820191
163574.165638,2146.597232,-5551.544565,1991.848295
163574.165958,-1924.535449,-7994.224174,2757.943793
163574.166278,-4737.318029,-7179.997637,-3677.258390
163574.166598,-6513.812290,-7179.997637,-1838.629195
163574.166918,-4737.318029,-7920.203579,-4903.011187
163574.167238,-5921.647536,-11029.068536,-2145.067394
163574.167557,-3997.112087,-11917.315666,-6435.202183
163574.167877,-2442.679609,-13027.624579,-689.485948
163574.168197,-814.226536,-12657.521608,306.438199
163574.168517,-1998.556043,-8956.491898,153.219100
163574.168837,-1184.329507,-8882.471304,1225.752797
163574.169157,814.226536,-5625.565159,1991.848295
163574.169477,3034.844362,-7254.018232,4213.525239
163574.169797,6143.709319,-7105.977043,5286.058936
163574.170116,1998.556043,-6365.771101,1915.238745
163574.170436,-2812.782580,-7179.997637,-2451.505594
163574.170756,-7105.977043,-10140.821405,-4903.011187
163574.171076,-5403.503377,-15396.283594,-3140.991542
163574.171396,-7698.141797,-13101.645173,-4903.011187
163574.171716,-6957.935855,-12805.562797,-2987.772442
163574.172036,-7698.141797,-10807.006753,-2298.286494
163574.172356,-5403.503377,-7994.224174,-612.876398
163574.172676,-1628.453072,-7846.182985,2451.505594
163574.172996,2812.782580,-5921.647536,5209.449386
163574.173316,3478.967927,-7105.977043,7277.907231
163574.173636,-1406.391290,-3627.009116,2068.457845
163574.173956,-3849.070898,-6143.709319,-995.924147
163574.174276,-1850.514855,-14211.954086,-76.609550
163574.174596,-5921.647536,-11029.068536,-1838.629195
163574.174916,-7624.121203,-12879.583391,-4290.134789
163574.175236,-10066.800811,-12139.377449,-5056.230287
163574.175556,-9474.636058,-9548.656652,-6128.763984
163574.175876,-7994.224174,-9548.656652,-2451.505594
163574.176196,-3034.844362,-6883.915261,0.000000
163574.176515,0.000000,-5403.503377,2451.505594
163574.176835,0.000000,-4811.338623,2451.505594
163574.177155,-74.020594,-4737.318029,1762.019645
163574.177475,-2960.823768,-8734.430116,1608.800546
163574.177795,-3552.988522,-9104.533087,995.924147
163574.178115,-2368.659014,-11547.212695,919.314598
163574.178435,-3849.070898,-12213.398043,536.266849
163574.178755,-8290.306550,-10732.986159,-2451.505594
163574.179075,-7476.080014,-11843.295072,-3753.867940
163574.179395,-8068.244768,-9104.533087,-5056.230287
163574.179715,-6513.812290,-8364.327145,-4903.011187
163574.180035,-6513.812290,-9548.656652,-612.876398
163574.180355,-1258.350101,-8290.306550,-76.609550
163574.180675,-1628.453072,-6587.832884,2451.505594
163574.180995,-1554.432478,-6217.729913,1378.971896
163574.181315,-3775.050304,-7550.100608,-919.314598
163574.181635,-3627.009116,-10288.862594,842.705048
163574.181955,-1998.556043,-11029.068536,766.095498
163574.182275,-1850.514855,-13027.624579,-76.609550
163574.182595,-3627.009116,-14211.954086,2068.457845
163574.182915,-4811.338623,-9918.759623,-1915.238745
163574.183235,-6513.812290,-7179.997637,-4596.572988
163574.183555,-3034.844362,-9474.636058,-2528.115143
163574.183875,-4293.194464,-8290.306550,-1378.971896
163574.184194,-2442.679609,-7624.121203,383.047749
163574.184514,-222.061783,-7698.141797,1915.238745
163574.184834,0.000000,-8364.327145,3677.258390
163574.185154,-1184.329507,-7179.997637,1532.190996
163574.185474,-2960.823768,-6291.750507,0.000000
163574.185794,-4145.153275,-9844.739029,-1225.752797
163574.186114,-3034.844362,-12657.521608,-2145.067394
163574.186434,-3627.009116,-11695.253884,-1302.362347
163574.186754,-4959.379811,-12435.459826,689.485948
163574.187074,-3701.029710,-10214.842000,-383.047749
163574.187394,-1258.350101,-9548.656652,383.047749
163574.187714,148.041188,-6883.915261,2068.457845
163574.188034,0.000000,-3627.009116,612.876398
163574.188354,-5329.482782,-4811.338623,-2451.505594
163574.188674,-3256.906145,-9548.656652,-153.219100
163574.188994,-3034.844362,-9474.636058,-995.924147
163574.189314,-3627.009116,-10658.965565,-2528.115143
163574.189634,-4219.173869,-13027.624579,-76.609550
163574.189954,-4589.276840,-11251.130318,-1225.752797
163574.190274,-2590.720797,-11251.130318,689.485948
163574.190594,-2442.679609,-9474.636058,1225.752797
163574.190914,-5921.647536,-5403.503377,0.000000
163574.191234,-4071.132681,-5995.668130,-2298.286494
163574.191554,-2146.597232,-9474.636058,-689.485948
163574.191874,-1258.350101,-11843.295072,2374.896044
163574.192193,-3627.009116,-7846.182985,766.095498
163574.192513,-4737.318029,-9548.656652,1915.238745
163574.192833,-5773.606348,-8660.409521,-2757.943793
163574.193153,-2368.659014,-11621.233289,-612.876398
163574.193473,-1036.288319,-10066.800811,1685.410096
163574.193793,-2220.617826,-8290.306550,1991.848295
163574.194113,-3627.009116,-5921.647536,-2528.115143
163574.194433,-5329.482782,-7772.162391,-3830.477490
163574.194753,-4515.256246,-10436.903782,-3217.601092
163574.195073,-3849.070898,-11991.336260,0.000000
163574.195393,-3627.009116,-12287.418637,4826.401637
163574.195713,-5921.647536,-9548.656652,1225.752797
163574.196033,-7105.977043,-7179.997637,-919.314598
163574.196353,-3034.844362,-8586.388927,-689.485948
163574.196673,-74.020594,-9474.636058,-76.609550
163574.196993,-1776.494261,-7772.162391,1378.971896
163574.197313,-666.185348,-9474.636058,1149.143247
163574.197633,-6217.729913,-8068.244768,-2374.896044
163574.197953,-7179.997637,-8068.244768,-6205.373534
163574.198273,-5107.421000,-8956.491898,-6205.373534
163574.198593,-3552.988522,-11843.295072,-3524.039291
163574.198913,-3627.009116,-13175.665768,-1608.800546
163574.199233,-6217.729913,-12361.439231,-1225.752797
163574.199553,-6809.894666,-10140.821405,0.000000
163574.199872,-2960.823768,-9844.739029,2757.943793
163574.200192,-666.185348,-5403.503377,1915.238745
163574.200512,2220.617826,-5033.400406,4060.306139
163574.200832,1480.411884,-4293.194464,3983.696590
163574.201152,1184.329507,-4811.338623,2528.115143
163574.201472,-592.164754,-7476.080014,1149.143247
163574.201792,-2442.679609,-11251.130318,-689.485948
163574.202112,-5403.503377,-13027.624579,-3140.991542
163574.202432,-7179.997637,-11991.336260,-5898.935335
163574.202752,-9474.636058,-11917.315666,-5362.668486
163574.203072,-7846.182985,-11325.150913,-3677.258390
163574.203392,-5995.668130,-7179.997637,-4596.572988
163574.203712,-888.247130,-7772.162391,-76.609550
163574.204032,814.226536,-6365.771101,1149.143247
163574.204352,444.123565,-6957.935855,2221.676944
163574.204672,-74.020594,-10658.965565,4826.401637
163574.204992,-370.102971,-11843.295072,1838.629195
163574.205312,-3849.070898,-11325.150913,3064.381992
163574.205632,-1258.350101,-12287.418637,4213.525239
163574.205952,-1258.350101,-12435.459826,3600.648841
163574.206272,-5921.647536,-5995.668130,0.000000
163574.206592,-5477.523971,-6513.812290,-4979.620737
163574.206912,-7328.038826,-7624.121203,-5745.716235
163574.207232,-7328.038826,-8882.471304,-6894.859482
163574.207552,-6883.915261,-9474.636058,-5515.887586
163574.207871,-4737.318029,-10140.821405,-2451.505594
163574.208191,-3849.070898,-9696.697840,0.000000
163574.208511,592.164754,-10362.883188,4443.353888
163574.208831,4071.132681,-11547.212695,7890.783629
163574.209151,3182.885551,-8882.471304,6052.154434
163574.209471,0.000000,-5403.503377,3677.258390
163574.209791,-518.144159,-8586.388927,2911.162892
163574.210111,-4071.132681,-8956.491898,459.657299
163574.210431,-7254.018232,-9400.615463,-2374.896044
163574.210751,-9030.512492,-9474.636058,-3447.429741
163574.211071,-8956.491898,-10658.965565,-4979.620737
163574.211391,-8734.430116,-9548.656652,-4826.401637
163574.211711,-5403.503377,-8882.471304,-2834.553343
163574.212031,-2960.823768,-8364.327145,1378.971896
163574.212351,592.164754,-8068.244768,4903.011187
163574.212671,0.000000,-6587.832884,2451.505594
163574.212991,296.082377,-8512.368333,2987.772442
163574.213311,-1258.350101,-8808.450710,2221.676944
163574.213631,-1850.514855,-9030.512492,1149.143247
163574.213951,-370.102971,-11843.295072,-76.609550
163574.214271,-74.020594,-11843.295072,306.438199
163574.214591,1702.473667,-13027.624579,-76.609550
163574.214911,370.102971,-9844.739029,-842.705048
163574.215231,1776.494261,-7772.162391,-1149.143247
163574.215551,2368.659014,-9548.656652,2451.505594
163574.215870,2590.720797,-8956.491898,2528.115143
163574.216190,3478.967927,-8216.285956,3753.867940
163574.216510,4293.194464,-8512.368333,5286.058936
163574.216830,3627.009116,-8882.471304,5592.497135
163574.217150,4367.215058,-10362.883188,7584.345430
163574.217470,0.000000,-8364.327145,4903.011187
163574.217790,-1184.329507,-9548.656652,4979.620737
163574.218110,-1406.391290,-11843.295072,4826.401637
163574.218430,-3034.844362,-9770.718434,2374.896044
163574.218750,-3552.988522,-8364.327145,2451.505594
163574.219070,-1258.350101,-10584.944971,3753.867940
163574.219390,-222.061783,-10214.842000,5515.887586
163574.219710,1184.329507,-9252.574275,7584.345430
163574.220030,2886.803174,-6217.729913,6665.030833
163574.220350,3478.967927,-5625.565159,6665.030833
163574.220670,592.164754,-4811.338623,4060.306139
163574.220990,0.000000,-5107.421000,2451.505594
163574.221310,592.164754,-11177.109724,4979.620737
163574.221630,740.205942,-14211.954086,7354.516781
163574.221950,-2960.823768,-14878.139434,5056.230287
163574.222270,-2294.638420,-16358.551318,7277.907231
163574.222590,-2516.700203,-13693.809927,8197.221829
163574.222910,-2368.659014,-9400.615463,8503.660028
163574.223230,-74.020594,-4737.318029,6971.469032
163574.223549,-444.123565,-2146.597232,8503.660028
163574.223869,2294.638420,-2960.823768,5439.278036
163574.224189,518.144159,-4811.338623,5515.887586
163574.224509,148.041188,-7772.162391,4903.011187
163574.224829,-1924.535449,-8364.327145,3677.258390
163574.225149,-3034.844362,-12435.459826,5898.935335
163574.225469,-4737.318029,-12213.398043,3753.867940
163574.225789,-5329.482782,-11621.233289,3294.210641
163574.226109,-3627.009116,-10658.965565,3600.648841
163574.226429,-1776.494261,-7772.162391,4213.525239
163574.226749,0.000000,-8364.327145,4290.134789
163574.227069,296.082377,-9548.656652,6741.640382
163574.227389,0.000000,-8364.327145,6435.202183
163574.227709,-1258.350101,-7698.141797,3294.210641
163574.228029,-1258.350101,-8882.471304,2987.772442
163574.228349,-1332.370696,-8216.285956,2374.896044
163574.228669,1406.391290,-7698.141797,2987.772442
163574.228989,2368.659014,-8660.409521,2604.724693
163574.229309,592.164754,-9548.656652,2451.505594
163574.229629,-1036.288319,-11769.274478,-689.485948
163574.229949,-2664.741391,-13989.892304,-1838.629195
163574.230269,-1702.473667,-15396.283594,-76.609550
163574.230589,-2294.638420,-11473.192101,0.000000
163574.230909,666.185348,-11251.130318,3600.648841
163574.231229,1406.391290,-7846.182985,2221.676944
163574.231548,2886.803174,-7772.162391,2681.334243
163574.231868,3849.070898,-6365.771101,3600.648841
163574.232188,3108.864956,-5403.503377,1532.190996
163574.232508,518.144159,-5329.482782,-1378.971896
163574.232828,2738.761985,-10881.027347,612.876398
163574.233148,3108.864956,-10955.047942,2604.724693
163574.233468,1110.308913,-9770.718434,1378.971896
163574.233788,-1850.514855,-10584.944971,-1302.362347
163574.234108,-4811.338623,-11547.212695,-5592.497135
163574.234428,-6809.894666,-13101.645173,-2911.162892
163574.234748,-3627.009116,-12435.459826,459.657299
163574.235068,-74.020594,-10066.800811,3600.648841
163574.235388,0.000000,-4811.338623,0.000000
163574.235708,2294.638420,-4737.318029,842.705048
163574.236028,2738.761985,-5107.421000,1838.629195
163574.236348,1406.391290,-5773.606348,766.095498
163574.236668,74.020594,-9030.512492,-612.876398
163574.236988,-148.041188,-11843.295072,-76.609550
163574.237308,-1554.432478,-12213.398043,-1072.533697
163574.237628,-4145.153275,-11547.212695,-3140.991542
163574.237948,-4441.235652,-11029.068536,-2451.505594
163574.238268,-1776.494261,-11029.068536,0.000000
163574.238588,-2368.659014,-7179.997637,0.000000
163574.238908,-666.185348,-8142.265362,2298.286494
163574.239227,-962.267725,-7846.182985,2068.457845
163574.239547,2294.638420,-7105.977043,3677.258390
163574.239867,4663.297435,-7105.977043,4826.401637
163574.240187,5551.544565,-9474.636058,6052.154434
163574.240507,1554.432478,-9474.636058,2987.772442
163574.240827,-2072.576638,-9548.656652,306.438199
163574.241147,-1998.556043,-13915.871710,1455.581446
163574.241467,-4145.153275,-12805.562797,1532.190996
163574.241787,-4959.379811,-10140.821405,-1532.190996
163574.242107,-1850.514855,-10658.965565,1302.362347
163574.242427,-814.226536,-8438.347739,1838.629195
163574.242747,-962.267725,-7624.121203,4519.963438
163574.243067,-74.020594,-8216.285956,6052.154434
163574.243387,0.000000,-5995.668130,5209.449386
163574.243707,2294.638420,-7994.224174,5132.839837
163574.244027,2812.782580,-7179.997637,5592.497135
163574.244347,1184.329507,-7179.997637,5515.887586
163574.244667,0.000000,-9548.656652,5515.887586
163574.244987,-1998.556043,-11695.253884,1455.581446
163574.245307,-3775.050304,-13323.706956,919.314598
163574.245627,-4515.256246,-13027.624579,1455.581446
163574.245947,-4145.153275,-11917.315666,2145.067394
163574.246267,-2220.617826,-9474.636058,2374.896044
163574.246587,-2368.659014,-7179.997637,3830.477490
163574.246907,0.000000,-4293.194464,4136.915689
163574.247226,0.000000,-3034.844362,5209.449386
163574.247546,1480.411884,-6735.874072,8503.660028
163574.247866,1184.329507,-4811.338623,7354.516781
163574.248186,4663.297435,-7105.977043,6665.030833
163574.248506,1776.494261,-8734.430116,6281.983084
163574.248826,0.000000,-11769.274478,5745.716235
163574.249146,-74.020594,-12731.542202,3600.648841
163574.249466,-2738.761985,-12287.418637,2451.505594
163574.249786,-3627.009116,-13619.789333,4826.401637
163574.250106,-4811.338623,-9474.636058,1149.143247
163574.250426,-6957.935855,-7179.997637,153.219100
163574.250746,-2368.659014,-6143.709319,2451.505594
163574.251066,740.205942,-7179.997637,3370.820191
163574.251386,2220.617826,-7402.059420,3600.648841
163574.251706,2516.700203,-8734.430116,5515.887586
163574.252026,1776.494261,-10288.862594,5592.497135
163574.252346,2886.803174,-11251.130318,4826.401637
163574.252666,2886.803174,-12731.542202,8503.660028
163574.252986,1702.473667,-10658.965565,4519.963438
163574.253306,-2368.659014,-8660.409521,2604.724693
163574.253626,-2960.823768,-8364.327145,612.876398
163574.253946,-2368.659014,-9400.615463,1532.190996
163574.254266,-3552.988522,-7772.162391,0.000000
163574.254586,-1406.391290,-7624.121203,-995.924147
163574.254906,-592.164754,-8956.491898,0.000000
163574.255225,444.123565,-10066.800811,3064.381992
163574.255545,4071.132681,-11843.295072,4443.353888
163574.255865,2368.659014,-12509.480420,7660.954980
163574.256185,1998.556043,-11547.212695,5439.278036
163574.256505,-74.020594,-12731.542202,7277.907231
163574.256825,-2442.679609,-8586.388927,3600.648841
163574.257145,-1184.329507,-7772.162391,4290.134789
163574.257465,-888.247130,-5995.668130,-612.876398
163574.257785,-2146.597232,-7328.038826,-842.705048
163574.258105,-1332.370696,-10732.986159,-689.485948
163574.258425,-3108.864956,-10732.986159,0.000000
163574.258745,-1998.556043,-11251.130318,306.438199
163574.259065,-5625.565159,-10288.862594,0.000000
163574.259385,-2442.679609,-11843.295072,3524.039291
163574.259705,-74.020594,-7698.141797,1762.019645
163574.260025,4663.297435,-9474.636058,4826.401637
163574.260345,2960.823768,-5995.668130,2451.505594
163574.260665,2072.576638,-9326.594869,1608.800546
163574.260985,1110.308913,-11325.150913,1378.971896
163574.261305,-148.041188,-10955.047942,766.095498
163574.261625,-3330.926739,-10955.047942,-2451.505594
163574.261945,-4441.235652,-10584.944971,-1302.362347
163574.262265,-1258.350101,-9326.594869,-689.485948
163574.262585,296.082377,-7179.997637,1532.190996
163574.262904,2590.720797,-7254.018232,612.876398
163574.263224,0.000000,-7179.997637,2451.505594
163574.263544,1110.308913,-9030.512492,2451.505594
163574.263864,1406.391290,-10066.800811,2604.724693
163574.264184,444.123565,-8068.244768,1762.019645
163574.264504,-1702.473667,-8290.306550,536.266849
163574.264824,-74.020594,-9474.636058,1915.238745
163574.265144,0.000000,-7179.997637,1838.629195
163574.265464,2664.741391,-9770.718434,3217.601092
163574.265784,-518.144159,-12805.562797,2604.724693
163574.266104,-2294.638420,-12065.356855,919.314598
163574.266424,-1258.350101,-13027.624579,-76.609550
163574.266744,-3997.112087,-11325.150913,0.000000
163574.267064,-5181.441594,-9474.636058,76.609550
163574.267384,-1332.370696,-5773.606348,153.219100
163574.267704,3108.864956,-7179.997637,3907.087040
163574.268024,4737.318029,-5921.647536,2911.162892
163574.268344,2442.679609,-9474.636058,6052.154434
163574.268664,0.000000,-8364.327145,2451.505594
163574.268984,-74.020594,-13027.624579,4826.401637
163574.269304,-74.020594,-15100.201217,3600.648841
163574.269624,-2368.659014,-9400.615463,2451.505594
163574.269944,-592.164754,-8660.409521,1302.362347
163574.270264,1406.391290,-8142.265362,3370.820191
163574.270583,2664.741391,-9548.656652,2987.772442
163574.270903,0.000000,-7772.162391,3064.381992
163574.271223,-1554.432478,-9474.636058,2374.896044
163574.271543,-4589.276840,-10140.821405,2911.162892
163574.271863,-3330.926739,-8216.285956,1838.629195
163574.272183,-74.020594,-8290.306550,3294.210641
163574.272503,1924.535449,-7179.997637,3677.258390
163574.272822,3108.864956,-9474.636058,6358.592633
163574.273142,1998.556043,-8660.409521,5286.058936
163574.273462,-4663.297435,-5995.668130,1838.629195
163574.273782,-4737.318029,-9548.656652,1838.629195
163574.274102,-4663.297435,-8142.265362,-1225.752797
163574.274422,-2368.659014,-10807.006753,383.047749
163574.274742,0.000000,-9696.697840,2374.896044
163574.275061,1110.308913,-9474.636058,2834.553343
163574.275381,-666.185348,-9474.636058,2068.457845
163574.275701,-3552.988522,-8660.409521,-1532.190996
163574.276021,-3034.844362,-8734.430116,-2528.115143
163574.276341,-1776.494261,-7179.997637,0.000000
163574.276661,2294.638420,-9770.718434,1762.019645
163574.276980,2368.659014,-9548.656652,2451.505594
163574.277300,4663.297435,-8512.368333,2221.676944
163574.277620,2368.659014,-9252.574275,1455.581446
163574.277940,0.000000,-9252.574275,-383.047749
163574.278260,-2072.576638,-8364.327145,-4903.011187
163574.278580,-1554.432478,-10510.924376,-3753.867940
163574.278900,0.000000,-9474.636058,-3753.867940
163574.279219,0.000000,-9548.656652,-2451.505594
163574.279539,-74.020594,-10362.883188,-995.924147
163574.279859,-74.020594,-10658.965565,-2528.115143
163574.280179,-3552.988522,-9548.656652,-3677.258390
163574.280499,-666.185348,-8734.430116,-2681.334243
163574.280819,222.061783,-8660.409521,-2298.286494
163574.281139,2442.679609,-9400.615463,-383.047749
163574.281458,1998.556043,-7772.162391,-1455.581446
163574.281778,2294.638420,-10658.965565,-76.609550
163574.282098,-1554.432478,-7105.977043,-4366.744339
163574.282418,-4737.318029,-8882.471304,-4213.525239
163574.282738,-5921.647536,-7179.997637,-7354.516781
163574.283058,-74.020594,-11843.295072,-3753.867940
163574.283378,0.000000,-10732.986159,-3064.381992
163574.283697,1998.556043,-9548.656652,-2298.286494
163574.284017,1332.370696,-8586.388927,-1991.848295
163574.284337,-1776.494261,-9400.615463,-3447.429741
163574.284657,-1776.494261,-9770.718434,-4443.353888
163574.284977,1110.308913,-9474.636058,-2374.896044
163574.285297,2146.597232,-9400.615463,-1302.362347
163574.285617,4663.297435,-11843.295072,-76.609550
163574.285936,962.267725,-8660.409521,-1915.238745
163574.286256,-74.020594,-13027.624579,-76.609550
163574.286576,-3256.906145,-7920.203579,-4136.915689
163574.286896,-3034.844362,-7105.977043,-4979.620737
163574.287216,-2590.720797,-8586.388927,-3677.258390
163574.287536,0.000000,-9548.656652,-2451.505594
163574.287855,2368.659014,-10732.986159,0.000000
163574.288175,2368.659014,-11473.192101,306.438199
163574.288495,-2664.741391,-10584.944971,1072.533697
163574.288815,-4219.173869,-7698.141797,-1915.238745
163574.289135,-2442.679609,-7105.977043,-3753.867940
163574.289455,3478.967927,-8586.388927,-76.609550
163574.289775,4663.297435,-8956.491898,1455.581446
163574.290094,3849.070898,-10066.800811,3677.258390
163574.290414,814.226536,-9918.759623,2374.896044
163574.290734,-4737.318029,-7179.997637,-3524.039291
163574.291054,-4293.194464,-11843.295072,-1302.362347
163574.291374,-3849.070898,-7179.997637,-2757.943793
163574.291694,0.000000,-8660.409521,306.438199
163574.292014,4589.276840,-11103.089130,4366.744339
163574.292333,4663.297435,-9474.636058,2374.896044
163574.292653,1184.329507,-9252.574275,2757.943793
163574.292973,-1332.370696,-8808.450710,842.705048
163574.293293,-1776.494261,-10066.800811,76.609550
163574.293613,-2220.617826,-9030.512492,2374.896044
163574.293933,-74.020594,-8068.244768,536.266849
163574.294253,4071.132681,-9474.636058,4519.963438
163574.294572,3034.844362,-8290.306550,3064.381992
163574.294892,518.144159,-8734.430116,1302.362347
163574.295212,-4145.153275,-9548.656652,0.000000
163574.295532,-2442.679609,-14211.954086,-76.609550
163574.295852,-4589.276840,-11177.109724,-842.705048
163574.296172,-2442.679609,-9474.636058,383.047749
163574.296492,444.123565,-8364.327145,2374.896044
163574.296811,2368.659014,-7179.997637,4903.011187
163574.297131,1776.494261,-6883.915261,2451.505594
163574.297451,-74.020594,-9030.512492,2451.505594
163574.297771,-1258.350101,-11843.295072,2068.457845
163574.298091,-4737.318029,-8364.327145,0.000000
163574.298411,-1850.514855,-8882.471304,-1302.362347
163574.298731,1110.308913,-10658.965565,2068.457845
163574.299050,592.164754,-8068.244768,1455.581446
163574.299370,-962.267725,-9326.594869,919.314598
163574.299690,-1702.473667,-10140.821405,153.219100
163574.300010,-4145.153275,-10140.821405,0.000000
163574.300330,-1776.494261,-7476.080014,0.000000
163574.300650,2368.659014,-9474.636058,3064.381992
163574.300969,3182.885551,-6587.832884,2068.457845
163574.301289,4737.318029,-7179.997637,153.219100
163574.301609,3849.070898,-11769.274478,4213.525239
163574.301929,370.102971,-10140.821405,1762.019645
163574.302249,-1406.391290,-10732.986159,919.314598
163574.302569,-2738.761985,-9844.739029,0.000000
163574.302889,-2368.659014,-8364.327145,-2451.505594
163574.303208,1110.308913,-10436.903782,-612.876398
163574.303528,3552.988522,-12509.480420,2451.505594
163574.303848,1702.473667,-10214.842000,2374.896044
163574.304168,-3997.112087,-7179.997637,0.000000
163574.304488,-4737.318029,-7179.997637,-919.314598
163574.304808,-4737.318029,-7179.997637,-4903.011187
163574.305128,1036.288319,-9252.574275,-1685.410096
163574.305447,2294.638420,-9400.615463,1225.752797
163574.305767,2146.597232,-10214.842000,2681.334243
163574.306087,-74.020594,-9474.636058,-76.609550
163574.306407,-2664.741391,-9252.574275,-2068.457845
163574.306727,-3404.947333,-8364.327145,-3524.039291
163574.307047,-1258.350101,-9548.656652,-3064.381992
163574.307367,1628.453072,-11917.315666,-76.609550
163574.307686,2368.659014,-10732.986159,2451.505594
163574.308006,0.000000,-7772.162391,0.000000
163574.308326,-1776.494261,-8956.491898,-766.095498
163574.308646,-2146.597232,-9178.553681,-1302.362347
163574.308966,-666.185348,-7772.162391,-4443.353888
163574.309286,2294.638420,-9474.636058,-1915.238745
163574.309606,1480.411884,-8586.388927,306.438199
163574.309925,1702.473667,-8290.306550,76.609550
163574.310245,0.000000,-9030.512492,-919.314598
163574.310565,-2072.576638,-9548.656652,-1838.629195
163574.310885,-2812.782580,-9474.636058,-3447.429741
163574.311205,-4441.235652,-8660.409521,-4136.915689
163574.311525,-1628.453072,-7476.080014,-4903.011187
163574.311845,592.164754,-9548.656652,0.000000
163574.312164,2590.720797,-6513.812290,-1302.362347
163574.312484,-74.020594,-8882.471304,-842.705048
163574.312804,-1702.473667,-9474.636058,-2757.943793
163574.313124,-2368.659014,-8216.285956,-4136.915689
163574.313444,-1110.308913,-9474.636058,-2451.505594
163574.313764,1332.370696,-11251.130318,-76.609550
163574.314083,2664.741391,-10140.821405,229.828649
163574.314403,3182.885551,-9474.636058,-76.609550
163574.314723,0.000000,-8364.327145,0.000000
163574.315043,-296.082377,-11843.295072,-689.485948
163574.315363,-2442.679609,-7994.224174,-4979.620737
163574.315683,-1554.432478,-10214.842000,-1762.019645
163574.316003,1258.350101,-8882.471304,-459.657299
163574.316322,2738.761985,-8290.306550,-536.266849
163574.316642,3182.885551,-11547.212695,1762.019645
163574.316962,1184.329507,-11473.192101,2911.162892
163574.317282,-2368.659014,-9548.656652,0.000000
163574.317602,-2294.638420,-11695.253884,842.705048
163574.317922,-2442.679609,-9770.718434,-76.609550
163574.318242,-3256.906145,-7179.997637,0.000000
163574.318561,2294.638420,-7698.141797,842.705048
163574.318881,1480.411884,-7920.203579,1149.143247
163574.319201,-74.020594,-9548.656652,-153.219100
163574.319521,-2886.803174,-11473.192101,-766.095498
163574.319841,-2368.659014,-11917.315666,306.438199
163574.320161,-4515.256246,-10881.027347,-1225.752797
163574.320481,-2368.659014,-8956.491898,0.000000
163574.320800,0.000000,-6291.750507,0.000000
163574.321120,888.247130,-7328.038826,1838.629195
163574.321440,0.000000,-5995.668130,0.000000
163574.321760,1110.308913,-10658.965565,1149.143247
163574.322080,-888.247130,-10658.965565,1225.752797
163574.322400,-1480.411884,-10214.842000,1072.533697
163574.322720,-2368.659014,-9030.512492,-306.438199
163574.323039,0.000000,-9178.553681,536.266849
163574.323359,74.020594,-7105.977043,-1225.752797
163574.323679,1184.329507,-7179.997637,0.000000
163574.323999,592.164754,-9844.739029,1838.629195
163574.324319,1110.308913,-11547.212695,612.876398
163574.324639,-1554.432478,-8660.409521,-2451.505594
163574.324958,740.205942,-9918.759623,995.924147
163574.325278,1406.391290,-8734.430116,689.485948
163574.325598,296.082377,-8586.388927,766.095498
163574.325918,2294.638420,-11843.295072,2374.896044
163574.326238,1702.473667,-10658.965565,2374.896044
163574.326558,-592.164754,-9696.697840,2145.067394
163574.326878,-1258.350101,-10066.800811,-383.047749
163574.327197,-1184.329507,-8956.491898,-919.314598
163574.327517,0.000000,-7772.162391,0.000000
163574.327837,518.144159,-9474.636058,612.876398
163574.328157,-444.123565,-9844.739029,229.828649
163574.328477,-1480.411884,-8364.327145,-153.219100
163574.328797,-2442.679609,-8512.368333,-1915.238745
163574.329117,814.226536,-10658.965565,-76.609550
163574.329436,-2072.576638,-7920.203579,-2145.067394
163574.329756,0.000000,-9844.739029,1378.971896
163574.330076,-74.020594,-10066.800811,1149.143247
163574.330396,-74.020594,-10658.965565,-689.485948
163574.330716,-4145.153275,-7179.997637,-2451.505594
163574.331036,-666.185348,-9178.553681,-919.314598
163574.331356,1184.329507,-9178.553681,459.657299
163574.331675,1406.391290,-8808.450710,1149.143247
163574.331995,370.102971,-8290.306550,1149.143247
163574.332315,0.000000,-8734.430116,-76.609550
163574.332635,-962.267725,-7846.182985,-995.924147
163574.332955,0.000000,-7179.997637,-2528.115143
163574.333275,-2960.823768,-9548.656652,0.000000
163574.333595,592.164754,-9548.656652,1225.752797
163574.333914,-2072.576638,-7772.162391,-2145.067394
163574.334234,-74.020594,-10362.883188,383.047749
163574.334554,-666.185348,-9844.739029,-459.657299
163574.334874,-1332.370696,-8512.368333,0.000000
163574.335194,-74.020594,-9474.636058,-76.609550
163574.335514,814.226536,-10658.965565,-1302.362347
163574.335834,370.102971,-11251.130318,-76.609550
163574.336153,0.000000,-7179.997637,-1838.629195
163574.336473,-888.247130,-10510.924376,-306.438199
163574.336793,0.000000,-8364.327145,-1838.629195
163574.337113,-1110.308913,-8364.327145,-2911.162892
163574.337433,-370.102971,-10584.944971,-1608.800546
163574.337753,444.123565,-9400.615463,-919.314598
163574.338072,814.226536,-11399.171507,0.000000
163574.338392,4071.132681,-11843.295072,-76.609550
163574.338712,296.082377,-10140.821405,0.000000
163574.339032,-74.020594,-9474.636058,-689.485948
163574.339352,-2146.597232,-5699.585753,-3370.820191
163574.339672,-3552.988522,-7772.162391,-3677.258390
163574.339992,1702.473667,-7698.141797,-2681.334243
163574.340311,1998.556043,-10510.924376,1838.629195
163574.340631,888.247130,-10140.821405,1302.362347
163574.340951,0.000000,-8512.368333,153.219100
163574.341271,-74.020594,-10658.965565,1149.143247
163574.341591,-666.185348,-7105.977043,-1838.629195
163574.341911,-962.267725,-9400.615463,-1915.238745
163574.342231,0.000000,-8586.388927,-1302.362347
163574.342550,0.000000,-8364.327145,612.876398
163574.342870,-74.020594,-9474.636058,-76.609550
163574.343190,-1184.329507,-10436.903782,-1762.019645
163574.343510,-2368.659014,-8660.409521,-1915.238745
163574.343830,-1036.288319,-8364.327145,-995.924147
163574.344150,0.000000,-9622.677246,153.219100
163574.344470,0.000000,-7179.997637,0.000000
163574.344789,518.144159,-9474.636058,536.266849
163574.345109,-1332.370696,-8956.491898,306.438199
163574.345429,74.020594,-7920.203579,-842.705048
163574.345749,-296.082377,-7698.141797,-1455.581446
163574.346069,2294.638420,-10658.965565,-1608.800546
163574.346389,2886.803174,-13027.624579,-76.609550
163574.346709,74.020594,-10214.842000,229.828649
163574.347028,0.000000,-8364.327145,-2145.067394
163574.347348,-74.020594,-10584.944971,1685.410096
163574.347668,-2960.823768,-7179.997637,-2451.505594
163574.347988,592.164754,-8586.388927,153.219100
163574.348308,1406.391290,-10807.006753,1685.410096
163574.348628,2664.741391,-10955.047942,2987.772442
163574.348947,1628.453072,-10066.800811,2987.772442
163574.349267,-888.247130,-9104.533087,2298.286494
163574.349587,-814.226536,-8290.306550,-536.266849
163574.349907,-1850.514855,-8142.265362,-1608.800546
163574.350227,-1776.494261,-7179.997637,612.876398
163574.350547,0.000000,-10140.821405,2451.505594
163574.350867,-1332.370696,-9992.780217,612.876398
163574.351186,-1924.535449,-11251.130318,153.219100
163574.351506,-3701.029710,-9178.553681,-1532.190996
163574.351826,-3108.864956,-9252.574275,-995.924147
163574.352146,-1258.350101,-6883.915261,-1302.362347
163574.352466,-1184.329507,-5107.421000,-995.924147
163574.352786,0.000000,-6587.832884,0.000000
163574.353106,2368.659014,-9548.656652,1532.190996
163574.353425,3182.885551,-11547.212695,2374.896044
163574.353745,0.000000,-10732.986159,4903.011187
163574.354065,-1184.329507,-9548.656652,76.609550
163574.354385,-3034.844362,-8586.388927,-1838.629195
163574.354705,-1480.411884,-8068.244768,-3140.991542
163574.355025,74.020594,-7772.162391,-2604.724693
163574.355345,2294.638420,-8142.265362,-76.609550
163574.355664,3478.967927,-11251.130318,1762.019645
163574.355984,-1998.556043,-10214.842000,-1915.238745
163574.356304,-3552.988522,-9918.759623,-3140.991542
163574.356624,-740.205942,-10658.965565,-76.609550
163574.356944,0.000000,-7179.997637,0.000000
163574.357264,2590.720797,-8808.450710,766.095498
163574.357584,2516.700203,-9474.636058,919.314598
163574.357903,1554.432478,-8660.409521,76.609550
163574.358223,-666.185348,-9178.553681,-2145.067394
163574.358543,-1036.288319,-11177.109724,-1302.362347
163574.358863,-74.020594,-9474.636058,-2528.115143
163574.359183,-666.185348,-13027.624579,-689.485948
163574.359503,518.144159,-8438.347739,-1072.533697
163574.359823,888.247130,-11695.253884,2221.676944
163574.360142,0.000000,-8364.327145,-766.095498
163574.360462,-814.226536,-7254.018232,-1378.971896
163574.360782,-962.267725,-8586.388927,-1532.190996
163574.361102,444.123565,-8364.327145,-2451.505594
163574.361422,0.000000,-8512.368333,0.000000
163574.361742,592.164754,-9696.697840,612.876398
163574.362061,740.205942,-10732.986159,2145.067394
163574.362381,-370.102971,-9474.636058,-1302.362347
163574.362701,-2442.679609,-9474.636058,-1915.238745
163574.363021,-1184.329507,-10140.821405,-459.657299
163574.363341,-518.144159,-8956.491898,-1302.362347
163574.363661,296.082377,-10362.883188,153.219100
163574.363981,518.144159,-9992.780217,76.609550
163574.364300,0.000000,-7772.162391,0.000000
163574.364620,-2590.720797,-8512.368333,-766.095498
163574.364940,-1554.432478,-8808.450710,-1608.800546
163574.365260,-2368.659014,-8068.244768,0.000000
163574.365580,-74.020594,-9104.533087,1762.019645
163574.365900,1998.556043,-11251.130318,2374.896044
163574.366220,0.000000,-9548.656652,0.000000
163574.366539,-74.020594,-10807.006753,229.828649
163574.366859,-2220.617826,-11029.068536,-229.828649
163574.367179,-2294.638420,-9548.656652,-1608.800546
163574.367499,-2442.679609,-7105.977043,-1455.581446
163574.367819,444.123565,-8586.388927,-1455.581446
163574.368139,2294.638420,-8882.471304,-689.485948
163574.368459,1554.432478,-9104.533087,-76.609550
163574.368778,888.247130,-9548.656652,459.657299
163574.369098,1702.473667,-13915.871710,3600.648841
163574.369418,-2072.576638,-8364.327145,-842.705048
163574.369738,-222.061783,-7105.977043,-1149.143247
163574.370058,1258.350101,-8364.327145,-995.924147
163574.370378,2960.823768,-9844.739029,1225.752797
163574.370698,1776.494261,-9548.656652,1532.190996
163574.371017,370.102971,-10510.924376,2528.115143
163574.371337,-2294.638420,-10214.842000,-76.609550
163574.371657,-2442.679609,-8882.471304,-2528.115143
163574.371977,-74.020594,-8290.306550,-2528.115143
163574.372297,1924.535449,-8956.491898,612.876398
163574.372617,2294.638420,-9696.697840,919.314598
163574.372936,370.102971,-11029.068536,1149.143247
163574.373256,-1924.535449,-10436.903782,-383.047749
163574.373576,-7105.977043,-7772.162391,-2451.505594
163574.373896,-4663.297435,-7550.100608,-2451.505594
163574.374216,-2738.761985,-6069.688724,-3370.820191
163574.374536,0.000000,-7772.162391,0.000000
163574.374856,4515.256246,-9474.636058,612.876398
163574.375175,4663.297435,-12731.542202,2374.896044
163574.375495,-2072.576638,-9548.656652,306.438199
163574.375815,-4589.276840,-10881.027347,-2221.676944
163574.376135,-5921.647536,-8364.327145,-3983.696590
163574.376455,-2072.576638,-8364.327145,-1915.238745
163574.376775,0.000000,-8364.327145,0.000000
163574.377095,4071.132681,-9178.553681,1149.143247
163574.377414,2368.659014,-7846.182985,2451.505594
163574.377734,-888.247130,-7179.997637,0.000000
163574.378054,-962.267725,-9992.780217,1762.019645
163574.378374,-2368.659014,-7179.997637,0.000000
163574.378694,-592.164754,-7402.059420,-459.657299
163574.379014,2220.617826,-9030.512492,842.705048
163574.379334,2738.761985,-9030.512492,1149.143247
163574.379653,518.144159,-8660.409521,0.000000
163574.379973,-2590.720797,-10436.903782,-459.657299
163574.380293,-3256.906145,-10955.047942,-1225.752797
163574.380613,-1258.350101,-11843.295072,-76.609550
163574.380933,-1258.350101,-8438.347739,-1455.581446
163574.381253,592.164754,-7179.997637,1225.752797
163574.381573,3775.050304,-8882.471304,2374.896044
163574.381892,2146.597232,-8660.409521,2528.115143
163574.382212,-2368.659014,-8956.491898,-383.047749
163574.382532,-4219.173869,-9104.533087,-2451.505594
163574.382852,-1258.350101,-11843.295072,-2528.115143
163574.383172,-1184.329507,-11103.089130,-2068.457845
163574.383492,1628.453072,-12509.480420,153.219100
163574.383811,814.226536,-11547.212695,1685.410096
163574.384131,-2368.659014,-7772.162391,0.000000
163574.384451,-5329.482782,-7476.080014,-2145.067394
163574.384771,-5329.482782,-7179.997637,-5515.887586
163574.385091,888.247130,-8216.285956,-1225.752797
163574.385411,3256.906145,-8956.491898,2604.724693
163574.385731,4515.256246,-9474.636058,2374.896044
163574.386050,3923.091493,-9474.636058,2528.115143
163574.386370,-2368.659014,-9474.636058,-919.314598
163574.386690,-3034.844362,-9030.512492,-2451.505594
163574.387010,-3108.864956,-8290.306550,-3370.820191
163574.387330,-666.185348,-8660.409521,-1762.019645
163574.387650,1480.411884,-8364.327145,-1072.533697
163574.387970,1554.432478,-11029.068536,1149.143247
163574.388289,2294.638420,-8882.471304,-76.609550
163574.388609,-4145.153275,-6735.874072,-2451.505594
163574.388929,-1258.350101,-8882.471304,-1302.362347
163574.389249,-2368.659014,-5995.668130,-3447.429741
163574.389569,0.000000,-7846.182985,-766.095498
163574.389889,2960.823768,-7179.997637,0.000000
163574.390209,2960.823768,-9548.656652,2374.896044
163574.390528,1184.329507,-11473.192101,1532.190996
163574.390848,-1258.350101,-12139.377449,-612.876398
163574.391168,-2442.679609,-13027.624579,-2528.115143
163574.391488,-4737.318029,-6735.874072,-3983.696590
163574.391808,-2072.576638,-7772.162391,-4903.011187
163574.392128,4663.297435,-9474.636058,-1302.362347
163574.392448,4441.235652,-9400.615463,612.876398
163574.392767,2812.782580,-9030.512492,1608.800546
163574.393087,-1110.308913,-10066.800811,153.219100
163574.393407,-2960.823768,-10732.986159,-1225.752797
163574.393727,-2368.659014,-8364.327145,-1915.238745
163574.394047,0.000000,-7179.997637,0.000000
163574.394367,2960.823768,-9548.656652,1991.848295
163574.394686,5181.441594,-10288.862594,4596.572988
163574.395006,-74.020594,-7698.141797,-76.609550
163574.395326,-1850.514855,-10510.924376,-383.047749
163574.395646,-5477.523971,-9326.594869,-3140.991542
163574.395966,-3404.947333,-9548.656652,-1608.800546
163574.396286,-740.205942,-10140.821405,76.609550
163574.396606,0.000000,-9548.656652,2145.067394
163574.396925,1480.411884,-8290.306550,1838.629195
163574.397245,-2960.823768,-7179.997637,612.876398
163574.397565,-2368.659014,-9548.656652,612.876398
163574.397885,-2442.679609,-9474.636058,-1608.800546
163574.398205,-2442.679609,-8882.471304,-3140.991542
163574.398525,518.144159,-10955.047942,1838.629195
163574.398845,1998.556043,-10658.965565,1149.143247
163574.399164,962.267725,-9474.636058,2604.724693
163574.399484,-2146.597232,-9474.636058,-76.609550
163574.399804,-2738.761985,-9474.636058,-1302.362347
163574.400124,-3182.885551,-7402.059420,-3677.258390
163574.400444,1998.556043,-11103.089130,-1302.362347
163574.400764,2294.638420,-11103.089130,153.219100
163574.401084,2368.659014,-10140.821405,1225.752797
163574.401403,2294.638420,-9178.553681,1762.019645
163574.401723,-1628.453072,-9178.553681,612.876398
163574.402043,-2368.659014,-9104.533087,-1915.238745
163574.402363,0.000000,-7846.182985,-689.485948
163574.402683,2886.803174,-9474.636058,2221.676944
163574.403003,4737.318029,-9252.574275,0.000000
163574.403323,2960.823768,-9992.780217,2298.286494
163574.403642,1110.308913,-9474.636058,-383.047749
163574.403962,-2664.741391,-11251.130318,-1302.362347
163574.404282,-5921.647536,-7772.162391,-4290.134789
163574.404602,-1924.535449,-9178.553681,-2221.676944
163574.404922,-1184.329507,-9326.594869,-919.314598
163574.405242,1628.453072,-8438.347739,306.438199
163574.405561,2368.659014,-6365.771101,306.438199
163574.405881,0.000000,-7476.080014,0.000000
163574.406201,-3330.926739,-8956.491898,-2757.943793
163574.406521,-2812.782580,-10732.986159,-1685.410096
163574.406841,-1258.350101,-11843.295072,-76.609550
163574.407161,-666.185348,-9474.636058,-153.219100
163574.407481,0.000000,-5551.544565,-3064.381992
163574.407800,2516.700203,-8512.368333,-383.047749
163574.408120,-148.041188,-8142.265362,-1915.238745
163574.408440,-1628.453072,-10436.903782,-1455.581446
163574.408760,-1258.350101,-11843.295072,-1608.800546
163574.409080,-74.020594,-13323.706956,-76.609550
163574.409400,74.020594,-9770.718434,612.876398
163574.409720,0.000000,-7179.997637,612.876398
163574.410039,3182.885551,-8216.285956,3064.381992
163574.410359,-1776.494261,-5403.503377,0.000000
163574.410679,-888.247130,-7550.100608,-1225.752797
163574.410999,-1406.391290,-7994.224174,-383.047749
163574.411319,-1110.308913,-9918.759623,76.609550
163574.411639,-518.144159,-10584.944971,689.485948
163574.411959,2294.638420,-11251.130318,-76.609550
163574.412278,-1258.350101,-10510.924376,153.219100
163574.412598,-370.102971,-10658.965565,-689.485948
163574.412918,-2738.761985,-9252.574275,-2145.067394
163574.413238,-1480.411884,-8364.327145,0.000000
163574.413558,-74.020594,-8290.306550,-4060.306139
163574.413878,1332.370696,-10881.027347,1072.533697
163574.414198,2664.741391,-9696.697840,536.266849
163574.414517,2146.597232,-11251.130318,2221.676944
163574.414837,-74.020594,-11547.212695,2068.457845
163574.415157,-4737.318029,-8290.306550,-766.095498
163574.415477,-3627.009116,-5921.647536,-3447.429741
163574.415797,-1184.329507,-7476.080014,-4596.572988
163574.416117,1184.329507,-9548.656652,-2451.505594
163574.416436,4663.297435,-12731.542202,1762.019645
163574.416756,1480.411884,-13323.706956,2834.553343
163574.417076,-2590.720797,-10732.986159,0.000000
163574.417396,-3849.070898,-9548.656652,-2374.896044
163574.417716,-2294.638420,-8290.306550,-1762.019645
163574.418036,0.000000,-5107.421000,0.000000
163574.418356,2738.761985,-7105.977043,1838.629195
163574.418675,3256.906145,-8068.244768,2451.505594
163574.418995,1184.329507,-10510.924376,1838.629195
163574.419315,-2442.679609,-9474.636058,-1685.410096
163574.419635,-4737.318029,-8660.409521,-1225.752797
163574.419955,-3997.112087,-8882.471304,-3064.381992
163574.420275,-1332.370696,-9548.656652,-1915.238745
163574.420595,296.082377,-10214.842000,0.000000
163574.420914,1406.391290,-8216.285956,0.000000
163574.421234,-74.020594,-8290.306550,-76.609550
163574.421554,-2368.659014,-8364.327145,0.000000
163574.421874,-2368.659014,-7550.100608,-1838.629195
163574.422194,-666.185348,-7994.224174,-459.657299
163574.422514,1480.411884,-8660.409521,612.876398
163574.422834,3478.967927,-9474.636058,2068.457845
163574.423153,296.082377,-7772.162391,306.438199
163574.423473,-888.247130,-9178.553681,-76.609550
163574.423793,-1258.350101,-9474.636058,-3753.867940
163574.424113,-2442.679609,-9548.656652,-4519.963438
163574.424433,1702.473667,-13619.789333,-76.609550
163574.424753,1850.514855,-11325.150913,1991.848295
163574.425073,2368.659014,-10436.903782,3140.991542
163574.425392,1110.308913,-6883.915261,1455.581446
163574.425712,148.041188,-8068.244768,1685.410096
163574.426032,-592.164754,-8660.409521,-229.828649
163574.426352,0.000000,-7772.162391,0.000000
163574.426672,0.000000,-11029.068536,3677.258390
163574.426992,1702.473667,-10066.800811,2374.896044
163574.427311,-1258.350101,-7254.018232,-2068.457845
163574.427631,-1924.535449,-9474.636058,-995.924147
163574.427951,-1184.329507,-9696.697840,-1991.848295
163574.428271,-2294.638420,-10881.027347,-1072.533697
163574.428591,-1258.350101,-11251.130318,1762.019645
163574.428911,-1480.411884,-11843.295072,-76.609550
163574.429231,0.000000,-9844.739029,2451.505594
163574.429550,2590.720797,-9030.512492,1149.143247
163574.429870,518.144159,-8216.285956,1455.581446
163574.430190,0.000000,-7772.162391,0.000000
163574.430510,-666.185348,-8882.471304,-689.485948
163574.430830,-2072.576638,-10732.986159,-995.924147
163574.431150,-1332.370696,-9400.615463,-919.314598
163574.431470,-888.247130,-10288.862594,-1915.238745
163574.431789,1554.432478,-11325.150913,766.095498
163574.432109,-1924.535449,-8956.491898,-2298.286494
163574.432429,-1776.494261,-9992.780217,459.657299
163574.432749,-666.185348,-9992.780217,306.438199
163574.433069,592.164754,-9178.553681,1149.143247
163574.433389,0.000000,-5995.668130,0.000000
163574.433709,2590.720797,-6809.894666,1149.143247
163574.434028,2072.576638,-7254.018232,229.828649
163574.434348,592.164754,-8290.306550,-306.438199
163574.434668,-1184.329507,-10436.903782,-1685.410096
163574.434988,-2590.720797,-11103.089130,-689.485948
163574.435308,-2146.597232,-10658.965565,-2528.115143
163574.435628,-740.205942,-10362.883188,-1302.362347
163574.435948,-74.020594,-7994.224174,-2374.896044
163574.436267,0.000000,-6587.832884,-1225.752797
163574.436587,0.000000,-5995.668130,-3064.381992
163574.436907,592.164754,-8882.471304,-919.314598
163574.437227,0.000000,-8882.471304,-1072.533697
163574.437547,-296.082377,-10214.842000,-459.657299
163574.437867,2294.638420,-11843.295072,-76.609550
163574.438186,3478.967927,-10658.965565,-76.609550
163574.438506,-666.185348,-8882.471304,-689.485948
163574.438826,-2368.659014,-5995.668130,-2451.505594
163574.439146,-2072.576638,-8512.368333,-2911.162892
163574.439466,-2368.659014,-8364.327145,-2451.505594
163574.439786,-962.267725,-11621.233289,-2604.724693
163574.440106,814.226536,-12805.562797,536.266849
163574.440425,0.000000,-10140.821405,689.485948
163574.440745,-1924.535449,-8364.327145,76.609550
163574.441065,1702.473667,-8290.306550,-76.609550
163574.441385,0.000000,-5403.503377,0.000000
163574.441705,2220.617826,-8290.306550,1762.019645
163574.442025,1702.473667,-9918.759623,2374.896044
163574.442345,2294.638420,-11843.295072,2068.457845
163574.442664,-3552.988522,-7179.997637,0.000000
163574.442984,-2664.741391,-10658.965565,-689.485948
163574.443304,-2442.679609,-8808.450710,-1532.190996
163574.443624,-1110.308913,-8142.265362,-306.438199
163574.443944,-1184.329507,-7698.141797,-689.485948
163574.444264,0.000000,-8438.347739,-76.609550
163574.444584,-1184.329507,-8364.327145,0.000000
163574.444903,0.000000,-8364.327145,0.000000
163574.445223,888.247130,-11843.295072,2145.067394
163574.445543,-74.020594,-11621.233289,1762.019645
163574.445863,-2960.823768,-6587.832884,-2145.067394
163574.446183,-1110.308913,-10362.883188,153.219100
163574.446503,1480.411884,-9622.677246,153.219100
163574.446823,1110.308913,-9696.697840,612.876398
163574.447142,2294.638420,-11251.130318,-76.609550
163574.447462,-74.020594,-11843.295072,842.705048
163574.447782,-74.020594,-11251.130318,-76.609550
163574.448102,0.000000,-8364.327145,0.000000
163574.448422,-592.164754,-9844.739029,1149.143247
163574.448742,-1184.329507,-5995.668130,0.000000
163574.449062,-1332.370696,-5033.400406,-1608.800546
163574.449381,-148.041188,-7772.162391,-306.438199
163574.449701,444.123565,-10362.883188,-306.438199
163574.450021,0.000000,-12509.480420,1302.362347
163574.450341,-74.020594,-13027.624579,4826.401637
163574.450661,-2368.659014,-9548.656652,2451.505594
163574.450981,-666.185348,-8290.306550,-689.485948
163574.451300,-1924.535449,-5699.585753,-2145.067394
163574.451620,-3552.988522,-4811.338623,0.000000
163574.451940,2886.803174,-11843.295072,-76.609550
163574.452260,0.000000,-8364.327145,-383.047749
163574.452580,-1406.391290,-11103.089130,-612.876398
163574.452900,-3108.864956,-11177.109724,-919.314598
163574.453220,-3552.988522,-8068.244768,-3677.258390
163574.453539,-74.020594,-8216.285956,0.000000
163574.453859,1924.535449,-9178.553681,-76.609550
163574.454179,1998.556043,-8068.244768,-76.609550
163574.454499,2294.638420,-9178.553681,-689.485948
163574.454819,888.247130,-9844.739029,612.876398
163574.455139,0.000000,-10732.986159,0.000000
163574.455459,888.247130,-10436.903782,-76.609550
163574.455778,-740.205942,-9622.677246,-153.219100
163574.456098,-1110.308913,-8956.491898,-995.924147
163574.456418,2294.638420,-8290.306550,-1915.238745
163574.456738,1776.494261,-8216.285956,919.314598
163574.457058,1480.411884,-8660.409521,76.609550
163574.457378,1406.391290,-11029.068536,1149.143247
163574.457698,0.000000,-10066.800811,2374.896044
163574.458017,-1184.329507,-9548.656652,3064.381992
163574.458337,-4737.318029,-7179.997637,0.000000
163574.458657,-1184.329507,-8956.491898,919.314598
163574.458977,-74.020594,-8734.430116,766.095498
163574.459297,296.082377,-8364.327145,0.000000
163574.459617,2294.638420,-9474.636058,-76.609550
163574.459937,-2368.659014,-10140.821405,0.000000
163574.460256,-3923.091493,-10362.883188,-2145.067394
163574.460576,-3330.926739,-10658.965565,-1685.410096
163574.460896,-2368.659014,-9844.739029,-1838.629195
163574.461216,296.082377,-9326.594869,-76.609550
163574.461536,0.000000,-8364.327145,0.000000
163574.461856,888.247130,-9548.656652,0.000000
163574.462175,2886.803174,-10510.924376,2681.334243
163574.462495,-1850.514855,-7105.977043,-1455.581446
163574.462815,-1258.350101,-10658.965565,-76.609550
163574.463135,-1924.535449,-8512.368333,-919.314598
163574.463455,-148.041188,-9622.677246,-919.314598
163574.463775,592.164754,-10658.965565,689.485948
163574.464095,518.144159,-11547.212695,1762.019645
163574.464414,-888.247130,-7550.100608,689.485948
163574.464734,-2960.823768,-4885.359217,-3753.867940
163574.465054,-2368.659014,-7179.997637,-2451.505594
163574.465374,1850.514855,-10066.800811,-76.609550
163574.465694,2886.803174,-9918.759623,-1302.362347
163574.466014,2368.659014,-11547.212695,4136.915689
163574.466334,222.061783,-7402.059420,1455.581446
163574.466653,-1702.473667,-7031.956449,-1378.971896
163574.466973,-666.185348,-9474.636058,-1608.800546
163574.467293,1776.494261,-10214.842000,-1302.362347
163574.467613,1332.370696,-10732.986159,1838.629195
163574.467933,2294.638420,-11843.295072,-76.609550
163574.468253,518.144159,-10955.047942,-1302.362347
163574.468573,-3256.906145,-8364.327145,-3677.258390
163574.468892,-74.020594,-9178.553681,-3140.991542
163574.469212,-740.205942,-9548.656652,-1608.800546
163574.469532,1110.308913,-7920.203579,-1149.143247
163574.469852,1554.432478,-8290.306550,-306.438199
163574.470172,2664.741391,-10436.903782,1225.752797
163574.470492,0.000000,-8808.450710,-1378.971896
163574.470812,-1776.494261,-8956.491898,0.000000
163574.471131,-1554.432478,-10140.821405,-2451.505594
163574.471451,-2368.659014,-10140.821405,-919.314598
163574.471771,-3552.988522,-7179.997637,-4749.792088
163574.472091,1406.391290,-9474.636058,-76.609550
163574.472411,592.164754,-9622.677246,-153.219100
163574.472731,-888.247130,-9918.759623,766.095498
163574.473050,-1480.411884,-9252.574275,0.000000
163574.473370,-3552.988522,-7105.977043,-689.485948
163574.473690,-3034.844362,-8660.409521,-612.876398
163574.474010,-2220.617826,-6809.894666,-689.485948
163574.474330,-2368.659014,-7179.997637,1225.752797
163574.474650,1998.556043,-7994.224174,3447.429741
163574.474970,0.000000,-5403.503377,0.000000
163574.475289,-814.226536,-9474.636058,153.219100
163574.475609,-3552.988522,-9770.718434,-1455.581446
163574.475929,-2886.803174,-10584.944971,-1225.752797
163574.476249,-74.020594,-9474.636058,-76.609550
163574.476569,3478.967927,-10658.965565,-76.609550
163574.476888,3478.967927,-11843.295072,3600.648841
163574.477208,3330.926739,-10955.047942,2987.772442
163574.477528,814.226536,-9030.512492,1455.581446
163574.477848,0.000000,-9548.656652,1838.629195
163574.478168,592.164754,-9548.656652,-306.438199
163574.478487,1776.494261,-8438.347739,0.000000
163574.478807,1998.556043,-9918.759623,1378.971896
163574.479127,1702.473667,-9844.739029,229.828649
163574.479447,1702.473667,-10362.883188,-76.609550
163574.479767,296.082377,-11325.150913,1302.362347
163574.480086,-1258.350101,-10658.965565,-383.047749
163574.480406,-3256.906145,-10140.821405,-766.095498
163574.480726,-2294.638420,-7772.162391,-1532.190996
163574.481046,1184.329507,-10288.862594,2451.505594
163574.481366,740.205942,-8660.409521,1455.581446
163574.481685,-148.041188,-7624.121203,995.924147
163574.482005,-3034.844362,-8586.388927,-459.657299
163574.482325,-3034.844362,-9030.512492,-2451.505594
163574.482645,-1702.473667,-10584.944971,-2451.505594
163574.482965,0.000000,-9844.739029,383.047749
163574.483284,814.226536,-9474.636058,1378.971896
163574.483604,1702.473667,-10658.965565,-76.609550
163574.483924,-666.185348,-9474.636058,-689.485948
163574.484244,-2368.659014,-9548.656652,0.000000
163574.484564,-1554.432478,-8882.471304,-1991.848295
163574.484883,0.000000,-8660.409521,-842.705048
163574.485203,222.061783,-8290.306550,0.000000
163574.485523,-1184.329507,-7179.997637,-2451.505594
163574.485843,0.000000,-8956.491898,0.000000
163574.486163,592.164754,-6365.771101,-1302.362347
163574.486482,-2368.659014,-7772.162391,0.000000
163574.486802,-74.020594,-10362.883188,-153.219100
163574.487122,-74.020594,-10658.965565,-76.609550
163574.487442,0.000000,-8808.450710,0.000000
163574.487762,2516.700203,-9104.533087,229.828649
163574.488081,1850.514855,-10066.800811,766.095498
163574.488401,0.000000,-8808.450710,-842.705048
163574.488721,-3627.009116,-8438.347739,-3140.991542
163574.489041,-1332.370696,-11843.295072,-689.485948
163574.489361,0.000000,-7772.162391,-1225.752797
163574.489680,1628.453072,-11547.212695,1378.971896
163574.490000,2886.803174,-11769.274478,2374.896044
163574.490320,-2072.576638,-7179.997637,0.000000
163574.490640,-1258.350101,-9178.553681,-536.266849
163574.490960,-814.226536,-9252.574275,-1455.581446
163574.491279,-1924.535449,-9622.677246,-1225.752797
163574.491599,-666.185348,-8142.265362,-1915.238745
163574.491919,-1406.391290,-9548.656652,-1225.752797
163574.492239,0.000000,-9696.697840,306.438199
163574.492559,1998.556043,-9474.636058,0.000000
163574.492878,-74.020594,-11251.130318,1455.581446
163574.493198,-3775.050304,-7772.162391,-3677.258390
163574.493518,-1258.350101,-9474.636058,-1455.581446
163574.493838,-518.144159,-8068.244768,-536.266849
163574.494158,962.267725,-9178.553681,536.266849
163574.494477,1406.391290,-9548.656652,1532.190996
163574.494797,2368.659014,-10658.965565,4826.401637
163574.495117,-1776.494261,-8068.244768,306.438199
163574.495437,-2812.782580,-8142.265362,-612.876398
163574.495757,-2664.741391,-8068.244768,-1455.581446
163574.496076,-1184.329507,-8660.409521,0.000000
163574.496396,0.000000,-8956.491898,0.000000
163574.496716,1110.308913,-10066.800811,0.000000
163574.497036,-2368.659014,-8956.491898,1225.752797
163574.497356,-3330.926739,-9104.533087,0.000000
163574.497675,-3034.844362,-8290.306550,-2528.115143
163574.497995,-1776.494261,-7846.182985,-995.924147
163574.498315,962.267725,-9030.512492,-1225.752797
163574.498635,4071.132681,-11251.130318,1532.190996
163574.498955,4071.132681,-12287.418637,3447.429741
163574.499274,0.000000,-9178.553681,1762.019645
163574.499594,-4737.318029,-8068.244768,-2374.896044
163574.499914,-3627.009116,-8882.471304,-5592.497135
163574.500234,0.000000,-7920.203579,-3753.867940
163574.500554,2368.659014,-8364.327145,-1838.629195
163574.500873,7920.203579,-13027.624579,4826.401637
163574.501193,3552.988522,-11769.274478,2451.505594
163574.501513,-1554.432478,-11325.150913,0.000000
163574.501833,-3701.029710,-9474.636058,-2221.676944
163574.502153,-4515.256246,-8364.327145,-3370.820191
163574.502472,-1776.494261,-5403.503377,-1838.629195
163574.502792,2220.617826,-7179.997637,-612.876398
163574.503112,5847.626942,-11547.212695,4213.525239
163574.503432,3478.967927,-9474.636058,1762.019645
163574.503752,-2960.823768,-8956.491898,0.000000
163574.504071,-2442.679609,-11843.295072,-76.609550
163574.504391,-4737.318029,-8068.244768,-3294.210641
163574.504711,-1924.535449,-8364.327145,-1608.800546
163574.505031,1628.453072,-8808.450710,0.000000
163574.505351,2368.659014,-8364.327145,2451.505594
163574.505670,0.000000,-7179.997637,2451.505594
163574.505990,-4737.318029,-7772.162391,0.000000
163574.506310,-4737.318029,-9548.656652,-2145.067394
163574.506630,-4219.173869,-8734.430116,-4903.011187
163574.506950,-666.185348,-8882.471304,-1302.362347
163574.507269,3701.029710,-8586.388927,1608.800546
163574.507589,2960.823768,-8438.347739,1302.362347
163574.507909,2886.803174,-9104.533087,536.266849
163574.508229,-1258.350101,-10436.903782,-995.924147
163574.508549,-5329.482782,-11917.315666,-2451.505594
163574.508868,-1554.432478,-11251.130318,-1302.362347
163574.509188,-1776.494261,-8734.430116,-842.705048
163574.509508,2960.823768,-9548.656652,1225.752797
163574.509828,5847.626942,-9474.636058,3600.648841
163574.510148,4663.297435,-9474.636058,1762.019645
163574.510467,296.082377,-9770.718434,1532.190996
163574.510787,-1998.556043,-10214.842000,-612.876398
163574.511107,-2738.761985,-9252.574275,-459.657299
163574.511427,-1258.350101,-9474.636058,-76.609550
163574.511747,2368.659014,-10288.862594,2374.896044
163574.512066,3404.947333,-10362.883188,2374.896044
163574.512386,-74.020594,-11251.130318,2374.896044
163574.512706,-3627.009116,-8364.327145,-1991.848295
163574.513026,-4737.318029,-8364.327145,-3370.820191
163574.513346,-1258.350101,-9474.636058,-1302.362347
163574.513665,0.000000,-9770.718434,459.657299
163574.513985,2590.720797,-9548.656652,1838.629195
163574.514305,1776.494261,-9104.533087,1762.019645
163574.514625,-2368.659014,-7772.162391,306.438199
163574.514945,-4737.318029,-7179.997637,-3064.381992
163574.515264,-4737.318029,-5995.668130,-4596.572988
163574.515584,296.082377,-10658.965565,-1608.800546
163574.515904,2886.803174,-11843.295072,-76.609550
163574.516224,2294.638420,-9548.656652,229.828649
163574.516544,3478.967927,-11251.130318,3294.210641
163574.516863,-1406.391290,-7846.182985,-919.314598
163574.517183,-2220.617826,-8956.491898,-3064.381992
163574.517503,-1628.453072,-9030.512492,-2145.067394
163574.517823,0.000000,-7772.162391,0.000000
163574.518143,0.000000,-8364.327145,0.000000
163574.518462,2664.741391,-9844.739029,2145.067394
163574.518782,518.144159,-9326.594869,2987.772442
163574.519102,-1258.350101,-9474.636058,-1302.362347
163574.519422,-2738.761985,-6809.894666,-6511.811733
163574.519742,-1258.350101,-9178.553681,-1762.019645
163574.520061,962.267725,-8364.327145,-1378.971896
163574.520381,2516.700203,-10362.883188,919.314598
163574.520701,3478.967927,-11843.295072,2374.896044
163574.521021,518.144159,-10955.047942,842.705048
163574.521341,-1850.514855,-11399.171507,-76.609550
163574.521660,-2664.741391,-9178.553681,-2528.115143
163574.521980,-3552.988522,-8364.327145,-1838.629195
163574.522300,0.000000,-7772.162391,-2451.505594
163574.522620,4071.132681,-7698.141797,-689.485948
163574.522940,2590.720797,-9030.512492,1762.019645
163574.523259,1184.329507,-8068.244768,0.000000
163574.523579,-1702.473667,-10214.842000,-766.095498
163574.523899,-1776.494261,-12139.377449,-76.609550
163574.524219,-1554.432478,-9252.574275,-919.314598
163574.524539,0.000000,-10140.821405,1532.190996
163574.524858,4367.215058,-10066.800811,1762.019645
163574.525178,2294.638420,-8734.430116,1991.848295
163574.525498,-2960.823768,-5995.668130,-2451.505594
163574.525818,-1554.432478,-10955.047942,-995.924147
163574.526138,-4737.318029,-10658.965565,-1455.581446
163574.526457,-2960.823768,-10807.006753,-153.219100
163574.526777,148.041188,-10288.862594,842.705048
163574.527097,1776.494261,-8364.327145,3064.381992
163574.527417,0.000000,-5995.668130,612.876398
163574.527737,296.082377,-8734.430116,995.924147
163574.528056,-666.185348,-9474.636058,-153.219100
163574.528376,-1258.350101,-11325.150913,-1915.238745
163574.528696,-74.020594,-11843.295072,-1302.362347
163574.529016,-1480.411884,-10955.047942,0.000000
163574.529336,962.267725,-9326.594869,919.314598
163574.529655,1554.432478,-9474.636058,612.876398
163574.529975,-1184.329507,-8364.327145,1225.752797
163574.530295,-2368.659014,-9770.718434,-459.657299
163574.530615,-666.185348,-8882.471304,-689.485948
163574.530935,-962.267725,-6809.894666,-2528.115143
163574.531254,0.000000,-7772.162391,0.000000
163574.531574,4663.297435,-11769.274478,2374.896044
163574.531894,2368.659014,-8956.491898,0.000000
163574.532214,444.123565,-11251.130318,995.924147
163574.532534,-1258.350101,-10955.047942,-612.876398
163574.532853,-2738.761985,-8734.430116,-1455.581446
163574.533173,-1850.514855,-7772.162391,-3677.258390
163574.533493,2516.700203,-8808.450710,-76.609550
163574.533813,2960.823768,-8364.327145,0.000000
163574.534133,2368.659014,-9252.574275,1608.800546
163574.534452,222.061783,-11547.212695,-76.609550
163574.534772,-1998.556043,-12435.459826,-689.485948
163574.535092,-2960.823768,-10288.862594,-612.876398
163574.535412,-2442.679609,-8290.306550,-2221.676944
163574.535732,-592.164754,-6809.894666,-2528.115143
163574.536051,592.164754,-8364.327145,-2451.505594
163574.536371,1110.308913,-10362.883188,-1302.362347
163574.536691,-666.185348,-11399.171507,0.000000
163574.537011,-3849.070898,-10214.842000,-1915.238745
163574.537331,-3923.091493,-7920.203579,-3983.696590
163574.537650,-1554.432478,-8142.265362,-3753.867940
163574.537970,1702.473667,-8216.285956,-1608.800546
163574.538290,2960.823768,-6587.832884,0.000000
163574.538610,2664.741391,-8660.409521,919.314598
163574.538930,-74.020594,-10658.965565,-1532.190996
163574.539249,-5921.647536,-8660.409521,-4290.134789
163574.539569,-1850.514855,-10066.800811,-3907.087040
163574.539889,-592.164754,-9548.656652,-3600.648841
163574.540209,1332.370696,-10140.821405,-1915.238745
163574.540529,2960.823768,-7920.203579,-1302.362347
163574.540848,2294.638420,-8882.471304,-1302.362347
163574.541168,814.226536,-8142.265362,-3447.429741
163574.541488,-1258.350101,-9178.553681,-4979.620737
163574.541808,-2664.741391,-8956.491898,-5362.668486
163574.542128,-1628.453072,-9548.656652,-4596.572988
163574.542447,-2368.659014,-9548.656652,-4903.011187
163574.542767,1702.473667,-10214.842000,-612.876398
163574.543087,888.247130,-8290.306550,-2911.162892
163574.543407,-518.144159,-8956.491898,-5286.058936
163574.543727,-666.185348,-12435.459826,-4979.620737
163574.544046,-74.020594,-11251.130318,-4903.011187
163574.544366,296.082377,-10658.965565,-5209.449386
163574.544686,1110.308913,-9474.636058,-6205.373534
163574.545006,1702.473667,-13619.789333,-4979.620737
163574.545326,0.000000,-9548.656652,-4903.011187
163574.545645,0.000000,-8956.491898,-7737.564530
163574.545965,-2368.659014,-10214.842000,-7431.126331
163574.546285,-2368.659014,-11843.295072,-6741.640382
163574.546605,-1554.432478,-9548.656652,-6894.859482
163574.546925,2294.638420,-9992.780217,-3753.867940
163574.547244,0.000000,-6587.832884,-6128.763984
163574.547564,592.164754,-9844.739029,-2757.943793
163574.547884,2294.638420,-8290.306550,-4060.306139
163574.548204,1406.391290,-8290.306550,-5286.058936
163574.548524,-3552.988522,-5995.668130,-8580.269578
163574.548843,-1554.432478,-11103.089130,-5898.935335
163574.549163,740.205942,-10807.006753,-6971.469032
163574.549483,4071.132681,-11843.295072,-2528.115143
163574.549803,0.000000,-7846.182985,-7124.688131
163574.550122,-2590.720797,-10288.862594,-4979.620737
163574.550442,-2368.659014,-7402.059420,-5822.325785
163574.550762,-2960.823768,-5995.668130,-3677.258390
163574.551082,3330.926739,-7105.977043,-3294.210641
163574.551402,2146.597232,-7698.141797,-2834.553343
163574.551721,0.000000,-5995.668130,-4903.011187
163574.552041,370.102971,-6883.915261,-4443.353888
