#time,accel_x,accel_y,accel_z
163442.374051,592.164754,-10214.842000,919.314598
163442.374370,0.000000,-9030.512492,-612.876398
163442.374690,148.041188,-8956.491898,0.000000
163442.375009,74.020594,-9400.615463,-689.485948
163442.375328,-2368.659014,-7179.997637,0.000000
163442.375648,-74.020594,-10658.965565,-76.609550
163442.375967,-74.020594,-7994.224174,-689.485948
163442.376286,0.000000,-8956.491898,306.438199
163442.376606,0.000000,-9548.656652,1225.752797
163442.376925,2294.638420,-10658.965565,-76.609550
163442.377244,-592.164754,-8956.491898,0.000000
163442.377563,-814.226536,-9400.615463,-383.047749
163442.377883,-666.185348,-9252.574275,-229.828649
163442.378202,-1036.288319,-9030.512492,1455.581446
163442.378521,-74.020594,-8438.347739,-76.609550
163442.378841,1036.288319,-10510.924376,-76.609550
163442.379160,-1554.432478,-8068.244768,-1225.752797
163442.379479,-2368.659014,-9548.656652,0.000000
163442.379799,-74.020594,-9474.636058,-995.924147
163442.380118,-74.020594,-10658.965565,-1302.362347
163442.380437,-888.247130,-9548.656652,-766.095498
163442.380757,-814.226536,-9770.718434,-766.095498
163442.381076,-148.041188,-9548.656652,-842.705048
163442.381395,0.000000,-9548.656652,306.438199
163442.381714,0.000000,-8364.327145,0.000000
163442.382034,740.205942,-9992.780217,0.000000
163442.382353,1702.473667,-10362.883188,-76.609550
163442.382672,-74.020594,-9474.636058,-383.047749
163442.382992,0.000000,-7772.162391,-2374.896044
163442.383311,1554.432478,-10362.883188,536.266849
163442.383630,0.000000,-9252.574275,229.828649
163442.383950,-370.102971,-8882.471304,229.828649
163442.384269,0.000000,-8956.491898,383.047749
163442.384588,0.000000,-9548.656652,1991.848295
163442.384908,0.000000,-7179.997637,-1915.238745
163442.385227,-1776.494261,-8660.409521,612.876398
163442.385546,-74.020594,-9474.636058,-306.438199
163442.385865,-1184.329507,-9030.512492,-76.609550
163442.386185,-74.020594,-10658.965565,-76.609550
163442.386504,-1036.288319,-9326.594869,0.000000
163442.386823,-888.247130,-9400.615463,-229.828649
163442.387143,-962.267725,-9252.574275,-612.876398
163442.387462,0.000000,-8660.409521,306.438199
163442.387781,-1258.350101,-9844.739029,-995.924147
163442.388101,-74.020594,-10658.965565,-76.609550
163442.388420,-1776.494261,-9104.533087,-1225.752797
163442.388739,0.000000,-9548.656652,0.000000
163442.389059,3478.967927,-11843.295072,-76.609550
163442.389378,0.000000,-9548.656652,0.000000
163442.389697,-74.020594,-9252.574275,-459.657299
163442.390016,74.020594,-9178.553681,0.000000
163442.390336,0.000000,-9400.615463,-612.876398
163442.390655,-962.267725,-7772.162391,-2374.896044
163442.390974,666.185348,-10066.800811,459.657299
163442.391294,0.000000,-9178.553681,306.438199
163442.391613,296.082377,-9400.615463,612.876398
163442.391932,0.000000,-8734.430116,612.876398
163442.392252,1110.308913,-10510.924376,1149.143247
163442.392571,1110.308913,-11251.130318,2374.896044
163442.392890,-74.020594,-8882.471304,-689.485948
163442.393210,-1776.494261,-8364.327145,0.000000
163442.393529,-518.144159,-9474.636058,0.000000
163442.393848,-2442.679609,-7179.997637,-2451.505594
163442.394167,-148.041188,-9548.656652,-459.657299
163442.394487,-814.226536,-9400.615463,0.000000
163442.394806,-666.185348,-9474.636058,-383.047749
163442.395125,-74.020594,-10362.883188,-153.219100
163442.395445,-74.020594,-9918.759623,-1302.362347
163442.395764,-888.247130,-10288.862594,0.000000
163442.396083,-666.185348,-9918.759623,-689.485948
163442.396403,-2960.823768,-7476.080014,-2145.067394
163442.396722,0.000000,-9548.656652,153.219100
163442.397041,0.000000,-8512.368333,-1762.019645
163442.397361,148.041188,-9400.615463,-306.438199
163442.397680,444.123565,-9030.512492,0.000000
163442.397999,740.205942,-9252.574275,-689.485948
163442.398318,2294.638420,-9400.615463,-383.047749
163442.398638,2294.638420,-9178.553681,229.828649
163442.398957,2368.659014,-9104.533087,0.000000
163442.399276,4663.297435,-11251.130318,2374.896044
163442.399596,2294.638420,-8586.388927,-306.438199
163442.399915,1184.329507,-9548.656652,1225.752797
163442.400234,2442.679609,-8290.306550,153.219100
163442.400554,2664.741391,-9326.594869,153.219100
163442.400873,3552.988522,-9252.574275,689.485948
163442.401192,3849.070898,-8364.327145,0.000000
163442.401512,4367.215058,-7994.224174,-1149.143247
163442.401831,4367.215058,-8290.306550,-76.609550
163442.402150,3552.988522,-8364.327145,1225.752797
163442.402469,5847.626942,-9474.636058,842.705048
163442.402789,4367.215058,-9474.636058,-76.609550
163442.403108,2664.741391,-9548.656652,0.000000
163442.403427,3775.050304,-10140.821405,-1915.238745
163442.403747,3478.967927,-10140.821405,-1991.848295
163442.404066,4515.256246,-9474.636058,-1608.800546
163442.404385,5699.585753,-7920.203579,-2757.943793
163442.404705,8068.244768,-9770.718434,612.876398
163442.405024,8216.285956,-9474.636058,-689.485948
163442.405343,5921.647536,-9548.656652,0.000000
163442.405663,3552.988522,-10732.986159,0.000000
163442.405982,5551.544565,-15396.283594,-76.609550
163442.406301,1184.329507,-11473.192101,0.000000
163442.406620,2664.741391,-11177.109724,536.266849
163442.406940,3849.070898,-9622.677246,1302.362347
163442.407259,4663.297435,-7698.141797,1149.143247
163442.407578,4293.194464,-5551.544565,0.000000
163442.407898,3997.112087,-4367.215058,0.000000
163442.408217,4663.297435,-6291.750507,-1225.752797
163442.408536,5477.523971,-8364.327145,-229.828649
163442.408856,4663.297435,-9474.636058,-1915.238745
163442.409175,4811.338623,-14211.954086,-76.609550
163442.409494,2072.576638,-13989.892304,-536.266849
163442.409814,1998.556043,-15174.221811,1149.143247
163442.410133,2368.659014,-13619.789333,2298.286494
163442.410452,1184.329507,-9548.656652,2451.505594
163442.410771,0.000000,-4811.338623,0.000000
163442.411091,592.164754,-4811.338623,-3677.258390
163442.411410,0.000000,-5403.503377,0.000000
163442.411729,2294.638420,-7105.977043,-76.609550
163442.412049,1110.308913,-6513.812290,-1302.362347
163442.412368,-74.020594,-9474.636058,-76.609550
163442.412687,-2442.679609,-9622.677246,-995.924147
163442.413007,-888.247130,-10066.800811,0.000000
163442.413326,962.267725,-10436.903782,306.438199
163442.413645,0.000000,-9548.656652,0.000000
163442.413965,222.061783,-11843.295072,-76.609550
163442.414284,1110.308913,-11251.130318,536.266849
163442.414603,1184.329507,-8956.491898,153.219100
163442.414922,2368.659014,-8956.491898,0.000000
163442.415242,-74.020594,-7105.977043,-3753.867940
163442.415561,0.000000,-9622.677246,-2604.724693
163442.415880,1628.453072,-12065.356855,0.000000
163442.416200,2664.741391,-11917.315666,2374.896044
163442.416519,1554.432478,-10066.800811,3294.210641
163442.416838,222.061783,-7031.956449,1225.752797
163442.417158,3478.967927,-7994.224174,1149.143247
163442.417477,3849.070898,-8068.244768,1225.752797
163442.417796,2368.659014,-7179.997637,3677.258390
163442.418116,5847.626942,-8586.388927,3983.696590
163442.418435,4071.132681,-7105.977043,-76.609550
163442.418754,-2072.576638,-7624.121203,-5745.716235
163442.419073,-3627.009116,-11251.130318,-7354.516781
163442.419393,-2960.823768,-13249.686362,-5286.058936
163442.419712,-74.020594,-14582.057057,-1302.362347
163442.420031,0.000000,-11917.315666,-1685.410096
163442.420351,1850.514855,-11177.109724,-1685.410096
163442.420670,8216.285956,-11843.295072,2374.896044
163442.420989,11029.068536,-7328.038826,5745.716235
163442.421309,11251.130318,-2442.679609,6128.763984
163442.421628,11177.109724,-3478.967927,5745.716235
163442.421947,6809.894666,-4441.235652,1149.143247
163442.422267,5033.400406,-9252.574275,-689.485948
163442.422586,4219.173869,-12583.501014,229.828649
163442.422905,1480.411884,-13915.871710,-76.609550
163442.423224,-2664.741391,-13101.645173,-8273.831378
163442.423544,-3552.988522,-12509.480420,-7814.174080
163442.423863,814.226536,-14804.118840,-3753.867940
163442.424182,5255.462188,-12361.439231,1685.410096
163442.424502,7624.121203,-8882.471304,2374.896044
163442.424821,6587.832884,-6069.688724,2834.553343
163442.425140,6735.874072,-4737.318029,3217.601092
163442.425460,5773.606348,-5255.462188,3983.696590
163442.425779,6365.771101,-7772.162391,6281.983084
163442.426098,5477.523971,-9252.574275,4673.182538
163442.426418,7031.956449,-9474.636058,2374.896044
163442.426737,1110.308913,-9474.636058,-2528.115143
163442.427056,-1554.432478,-12435.459826,-6205.373534
163442.427375,-1850.514855,-15396.283594,-6205.373534
163442.427695,-1776.494261,-14285.974681,-4596.572988
163442.428014,74.020594,-12509.480420,-3983.696590
163442.428333,1184.329507,-9992.780217,-1685.410096
163442.428653,2664.741391,-8660.409521,0.000000
163442.428972,1332.370696,-4811.338623,0.000000
163442.429291,5255.462188,-7105.977043,2987.772442
163442.429611,4071.132681,-6735.874072,3294.210641
163442.429930,2072.576638,-6883.915261,3677.258390
163442.430249,222.061783,-7994.224174,1838.629195
163442.430569,-370.102971,-11843.295072,1762.019645
163442.430888,-3256.906145,-10140.821405,-612.876398
163442.431207,-3627.009116,-10658.965565,-3217.601092
163442.431526,-5921.647536,-10288.862594,-4290.134789
163442.431846,-4737.318029,-11029.068536,-919.314598
163442.432165,-4737.318029,-7179.997637,0.000000
163442.432484,1110.308913,-9474.636058,3064.381992
163442.432804,1628.453072,-6587.832884,2528.115143
163442.433123,-962.267725,-6143.709319,1838.629195
163442.433442,-2442.679609,-8290.306550,-76.609550
163442.433762,-4367.215058,-8586.388927,-1302.362347
163442.434081,-4959.379811,-12287.418637,-842.705048
163442.434400,-6587.832884,-12435.459826,-1915.238745
163442.434720,-8068.244768,-8956.491898,-4290.134789
163442.435039,-6513.812290,-7772.162391,-1225.752797
163442.435358,-4589.276840,-6439.791695,-3677.258390
163442.435677,-2442.679609,-8438.347739,-2068.457845
163442.435997,-1110.308913,-8438.347739,306.438199
163442.436316,148.041188,-8586.388927,2451.505594
163442.436635,2294.638420,-8586.388927,2987.772442
163442.436955,2738.761985,-8216.285956,2911.162892
163442.437274,0.000000,-8364.327145,0.000000
163442.437593,-148.041188,-12731.542202,1149.143247
163442.437913,-2442.679609,-11843.295072,-1685.410096
163442.438232,-4737.318029,-11917.315666,-1225.752797
163442.438551,-4885.359217,-11029.068536,-3447.429741
163442.438871,-3849.070898,-9178.553681,-3370.820191
163442.439190,-1480.411884,-8586.388927,-2221.676944
163442.439509,1332.370696,-6291.750507,-1532.190996
163442.439828,2294.638420,-5847.626942,-1915.238745
163442.440148,2590.720797,-8290.306550,2987.772442
163442.440467,1776.494261,-5995.668130,2451.505594
163442.440786,5033.400406,-9474.636058,5669.106685
163442.441106,7031.956449,-10658.965565,4826.401637
163442.441434,2368.659014,-8364.327145,2451.505594
163442.441753,-666.185348,-11251.130318,-1685.410096
163442.442072,-3034.844362,-13249.686362,-3140.991542
163442.442391,-3182.885551,-13027.624579,-4596.572988
163442.442711,-4219.173869,-10140.821405,-6205.373534
163442.443030,-2442.679609,-10436.903782,-4443.353888
163442.443349,-74.020594,-9474.636058,-3753.867940
163442.443668,1998.556043,-7105.977043,-1915.238745
163442.443988,6439.791695,-6513.812290,-76.609550
163442.444307,6439.791695,-5921.647536,2068.457845
163442.444626,5551.544565,-5995.668130,1378.971896
163442.444945,6883.915261,-9178.553681,6588.421283
163442.445264,6661.853478,-9252.574275,5592.497135
163442.445584,5847.626942,-9030.512492,3600.648841
163442.445903,888.247130,-9770.718434,383.047749
163442.446222,-2664.741391,-11695.253884,-3140.991542
163442.446541,-4145.153275,-11917.315666,-4903.011187
163442.446861,-5773.606348,-11917.315666,-6665.030833
163442.447180,-5625.565159,-10732.986159,-4903.011187
163442.447499,-6513.812290,-7179.997637,-6741.640382
163442.447818,-296.082377,-7698.141797,-2298.286494
163442.448138,2516.700203,-6735.874072,0.000000
163442.448457,2590.720797,-6217.729913,3907.087040
163442.448776,2812.782580,-5847.626942,3600.648841
163442.449095,3478.967927,-6513.812290,7277.907231
163442.449415,4293.194464,-7179.997637,5975.544884
163442.449734,1776.494261,-6587.832884,2757.943793
163442.450053,-888.247130,-10140.821405,1532.190996
163442.450372,-4515.256246,-13027.624579,-153.219100
163442.450692,-9474.636058,-11917.315666,-7048.078582
163442.451011,-8216.285956,-14063.912898,-7354.516781
163442.451330,-9474.636058,-12657.521608,-7354.516781
163442.451649,-8290.306550,-9918.759623,-6435.202183
163442.451969,-3627.009116,-8290.306550,-3140.991542
163442.452288,-74.020594,-5921.647536,-76.609550
163442.452607,4663.297435,-5921.647536,2374.896044
163442.452926,2368.659014,-3923.091493,4290.134789
163442.453245,5921.647536,-5107.421000,5515.887586
163442.453565,7105.977043,-8364.327145,10725.336972
163442.453884,4737.318029,-8808.450710,6128.763984
163442.454203,1776.494261,-10066.800811,2221.676944
163442.454522,-3997.112087,-12065.356855,-1915.238745
163442.454842,-6217.729913,-13619.789333,-5745.716235
163442.455161,-5403.503377,-15988.448347,-6818.249932
163442.455480,-7105.977043,-12509.480420,-5515.887586
163442.455799,-4071.132681,-10510.924376,-4979.620737
163442.456119,-3997.112087,-9474.636058,-2528.115143
163442.456438,-1258.350101,-3701.029710,-2451.505594
163442.456757,3849.070898,-6587.832884,4826.401637
163442.457076,3034.844362,-3849.070898,3983.696590
163442.457396,5181.441594,-5329.482782,6435.202183
163442.457715,4663.297435,-6513.812290,6741.640382
163442.458034,3552.988522,-7772.162391,4903.011187
163442.458353,3034.844362,-8364.327145,1532.190996
163442.458673,-1776.494261,-11325.150913,-1532.190996
163442.458992,-7105.977043,-11917.315666,-6128.763984
163442.459311,-6217.729913,-15988.448347,-7354.516781
163442.459630,-4811.338623,-16580.613101,-6511.811733
163442.459950,-5329.482782,-12213.398043,-7201.297681
163442.460269,-5477.523971,-10436.903782,-5898.935335
163442.460588,0.000000,-5921.647536,-3064.381992
163442.460907,4737.318029,-6069.688724,1608.800546
163442.461226,4737.318029,-2442.679609,4903.011187
163442.461546,7698.141797,-3849.070898,7584.345430
163442.461865,7476.080014,-1850.514855,8580.269578
163442.462184,9474.636058,-7179.997637,11031.775171
163442.462503,8808.450710,-9326.594869,7201.297681
163442.462823,2886.803174,-10658.965565,-76.609550
163442.463142,-6365.771101,-12509.480420,-5209.449386
163442.463461,-8586.388927,-16210.510130,-8656.879127
163442.463780,-8808.450710,-16506.592507,-9652.803275
163442.464100,-7920.203579,-13397.727550,-7431.126331
163442.464419,-7698.141797,-10140.821405,-7354.516781
163442.464738,-3627.009116,-7698.141797,-4979.620737
163442.465057,0.000000,-3627.009116,0.000000
163442.465377,4589.276840,-4367.215058,4903.011187
163442.465696,9400.615463,-4737.318029,9116.536426
163442.466015,8586.388927,-4515.256246,11644.651570
163442.466334,7846.182985,-5921.647536,9806.022374
163442.466654,6661.853478,-9548.656652,6741.640382
163442.466973,1332.370696,-10955.047942,1532.190996
163442.467292,-8142.265362,-10732.986159,-8580.269578
163442.467611,-11251.130318,-17246.798449,-9806.022374
163442.467931,-11547.212695,-18431.127956,-10265.679673
163442.468250,-8068.244768,-16654.633695,-6971.469032
163442.468569,-5699.585753,-11843.295072,-6818.249932
163442.468888,-4737.318029,-7179.997637,-2451.505594
163442.469208,518.144159,-2442.679609,-1532.190996
163442.469527,4441.235652,-3552.988522,5362.668486
163442.469846,7328.038826,-1406.391290,8120.612279
163442.470165,9622.677246,-3108.864956,11644.651570
163442.470484,9400.615463,-6513.812290,9729.412825
163442.470804,7698.141797,-9548.656652,8810.098227
163442.471123,2960.823768,-11325.150913,2221.676944
163442.471442,-5477.523971,-12065.356855,-5286.058936
163442.471761,-10881.027347,-18209.066173,-8580.269578
163442.472081,-14211.954086,-19023.292709,-11644.651570
163442.472400,-13027.624579,-16062.468941,-11644.651570
163442.472719,-7846.182985,-14359.995275,-7201.297681
163442.473038,-4737.318029,-8364.327145,-3677.258390
163442.473358,-2072.576638,-1554.432478,-2987.772442
163442.473677,6439.791695,-2960.823768,3294.210641
163442.473996,7994.224174,-962.267725,7048.078582
163442.474315,9400.615463,-2146.597232,9346.365076
163442.474635,9400.615463,-5107.421000,10342.289223
163442.474954,7402.059420,-9770.718434,9499.584175
163442.475273,5255.462188,-12361.439231,4596.572988
163442.475592,-3108.864956,-12213.398043,-4903.011187
163442.475912,-11251.130318,-14285.974681,-9806.022374
163442.476231,-10066.800811,-19171.333898,-9652.803275
163442.476550,-11251.130318,-15544.324782,-12257.527968
163442.476869,-5995.668130,-14211.954086,-7737.564530
163442.477189,-2886.803174,-8734.430116,-4136.915689
163442.477508,0.000000,-4515.256246,-995.924147
163442.477827,4367.215058,-1924.535449,3677.258390
163442.478146,8216.285956,1184.329507,7277.907231
163442.478465,10732.986159,-1554.432478,10342.289223
163442.478785,10584.944971,-1776.494261,9729.412825
163442.479104,7105.977043,-6587.832884,8580.269578
163442.479423,5033.400406,-11177.109724,6665.030833
163442.479742,-4737.318029,-9548.656652,-4903.011187
163442.480062,-7550.100608,-14804.118840,-8886.707777
163442.480381,-12435.459826,-18653.189738,-11797.870669
163442.480700,-11769.274478,-18135.045579,-11108.384721
163442.481019,-7476.080014,-15988.448347,-8656.879127
163442.481339,-1258.350101,-12435.459826,-3983.696590
163442.481658,592.164754,-7031.956449,-1762.019645
163442.481977,4367.215058,-3256.906145,1762.019645
163442.482296,5551.544565,-1184.329507,6052.154434
163442.482616,8290.306550,-666.185348,10418.898773
163442.482935,8290.306550,-1998.556043,8733.488677
163442.483254,7105.977043,-6883.915261,8810.098227
163442.483573,5773.606348,-10732.986159,6052.154434
163442.483893,1480.411884,-12657.521608,229.828649
163442.484212,-4219.173869,-15100.201217,-6511.811733
163442.484531,-11843.295072,-16802.674883,-8886.707777
163442.484850,-10288.862594,-18653.189738,-9422.974625
163442.485170,-7698.141797,-15470.304188,-7354.516781
163442.485489,-4219.173869,-12065.356855,-4826.401637
163442.485808,-2960.823768,-7772.162391,0.000000
163442.486127,1776.494261,-2220.617826,536.266849
163442.486446,4441.235652,-2442.679609,4826.401637
163442.486766,7105.977043,-370.102971,8503.660028
163442.487085,7402.059420,-3627.009116,8273.831378
163442.487404,7105.977043,-5181.441594,6665.030833
163442.487723,5033.400406,-10732.986159,7354.516781
163442.488043,0.000000,-10140.821405,2451.505594
163442.488362,-6365.771101,-12805.562797,-5362.668486
163442.488681,-10732.986159,-18357.107362,-8963.317327
163442.489000,-14211.954086,-17246.798449,-9806.022374
163442.489320,-9030.512492,-16802.674883,-9806.022374
163442.489639,-6069.688724,-13397.727550,-5898.935335
163442.489958,-2738.761985,-8734.430116,-2604.724693
163442.490277,-1554.432478,-2442.679609,-3677.258390
163442.490597,3478.967927,-1554.432478,2451.505594
163442.490916,3701.029710,-74.020594,3677.258390
163442.491235,6217.729913,-3627.009116,8580.269578
163442.491554,8808.450710,-6957.935855,9193.145976
163442.491874,10584.944971,-11251.130318,9729.412825
163442.492193,4737.318029,-11769.274478,6741.640382
163442.492512,222.061783,-10066.800811,-1302.362347
163442.492831,-5551.544565,-13471.748144,-5362.668486
163442.493151,-7920.203579,-14952.160028,-7967.393179
163442.493470,-8512.368333,-14582.057057,-9269.755526
163442.493789,-4811.338623,-15396.283594,-4979.620737
163442.494108,-3701.029710,-9178.553681,-5898.935335
163442.494428,-3404.947333,-6661.853478,-4366.744339
163442.494747,0.000000,-2442.679609,-1532.190996
163442.495066,4663.297435,-7105.977043,3600.648841
163442.495385,2368.659014,-3627.009116,5286.058936
163442.495704,6439.791695,-5329.482782,6358.592633
163442.496024,8142.265362,-6883.915261,9039.926876
163442.496343,8586.388927,-9548.656652,10418.898773
163442.496662,5847.626942,-8512.368333,4903.011187
163442.496981,-74.020594,-10066.800811,-1608.800546
163442.497301,-5255.462188,-13841.851115,-4903.011187
163442.497620,-6291.750507,-16580.613101,-8656.879127
163442.497939,-7179.997637,-14656.077652,-8656.879127
163442.498258,-4811.338623,-14211.954086,-6511.811733
163442.498578,-4663.297435,-10584.944971,-6128.763984
163442.498897,-2072.576638,-7624.121203,-4596.572988
163442.499216,296.082377,-6513.812290,-766.095498
163442.499535,3552.988522,-5995.668130,4290.134789
163442.499855,4737.318029,-5551.544565,5515.887586
163442.500174,7105.977043,-4811.338623,9806.022374
163442.500493,11251.130318,-7105.977043,12180.918418
163442.500812,8808.450710,-7105.977043,9729.412825
163442.501132,2294.638420,-5403.503377,0.000000
163442.501451,-2886.803174,-11547.212695,-2221.676944
163442.501770,-6439.791695,-14211.954086,-5515.887586
163442.502089,-7105.977043,-16284.530724,-6741.640382
163442.502409,-8068.244768,-15100.201217,-7277.907231
163442.502728,-7698.141797,-13101.645173,-6741.640382
163442.503047,-8290.306550,-7179.997637,-7354.516781
163442.503366,-3552.988522,-7328.038826,-2451.505594
163442.503685,-74.020594,-5921.647536,1149.143247
163442.504005,2294.638420,-2516.700203,1455.581446
163442.504324,8216.285956,-5921.647536,9116.536426
163442.504643,7402.059420,-3849.070898,9729.412825
163442.504962,7920.203579,-6291.750507,8963.317327
163442.505282,3478.967927,-6661.853478,3524.039291
163442.505601,-3256.906145,-9548.656652,0.000000
163442.505920,-6069.688724,-13619.789333,-5669.106685
163442.506239,-6735.874072,-17764.942608,-8044.002729
163442.506559,-7772.162391,-18949.272115,-6205.373534
163442.506878,-8364.327145,-13915.871710,-8963.317327
163442.507197,-4959.379811,-13027.624579,-5286.058936
163442.507516,-3552.988522,-7179.997637,-4443.353888
163442.507836,444.123565,-7031.956449,383.047749
163442.508155,3478.967927,-5773.606348,4596.572988
163442.508474,6439.791695,-4885.359217,8886.707777
163442.508793,8290.306550,-2442.679609,7354.516781
163442.509113,10362.883188,-5921.647536,11261.603821
163442.509432,4885.359217,-4811.338623,5439.278036
163442.509751,-1554.432478,-7476.080014,0.000000
163442.510070,-4441.235652,-12435.459826,-3753.867940
163442.510390,-5403.503377,-16580.613101,-7431.126331
163442.510709,-7550.100608,-18949.272115,-5822.325785
163442.511028,-8364.327145,-15396.283594,-8810.098227
163442.511347,-7476.080014,-15396.283594,-6205.373534
163442.511666,-5625.565159,-7772.162391,-6741.640382
163442.511986,-3923.091493,-5107.421000,-3677.258390
163442.512305,1258.350101,-5921.647536,2681.334243
163442.512624,5773.606348,-4589.276840,6052.154434
163442.512943,10140.821405,-3775.050304,10648.727422
163442.513263,11769.274478,-3330.926739,10955.165621
163442.513582,8660.409521,-5181.441594,7890.783629
163442.513901,3997.112087,-8290.306550,3600.648841
163442.514220,-74.020594,-13619.789333,-1302.362347
163442.514540,-3627.009116,-16284.530724,-5898.935335
163442.514859,-7105.977043,-17838.963202,-7354.516781
163442.515178,-8586.388927,-16432.571912,-8886.707777
163442.515497,-7179.997637,-14285.974681,-7737.564530
163442.515817,-3997.112087,-11473.192101,-6588.421283
163442.516136,-1998.556043,-7624.121203,-3830.477490
163442.516455,2146.597232,-4441.235652,995.924147
163442.516774,3552.988522,-4515.256246,5515.887586
163442.517094,5329.482782,-74.020594,7967.393179
163442.517413,10066.800811,-1850.514855,11031.775171
163442.517732,10436.903782,-3182.885551,10572.117872
163442.518051,4737.318029,-5995.668130,6741.640382
163442.518371,-592.164754,-9030.512492,-1149.143247
163442.518690,-5033.400406,-13693.809927,-6205.373534
163442.519009,-8068.244768,-17690.922014,-8580.269578
163442.519328,-11695.253884,-16950.716072,-9806.022374
163442.519648,-11621.233289,-14359.995275,-9882.631924
163442.519967,-5995.668130,-12435.459826,-8656.879127
163442.520286,-4737.318029,-7476.080014,-6741.640382
163442.520605,0.000000,-4811.338623,-3064.381992
163442.520924,4663.297435,-7105.977043,6665.030833
163442.521244,6809.894666,-3627.009116,8733.488677
163442.521563,10510.924376,-1480.411884,9882.631924
163442.521882,10214.842000,-2368.659014,9806.022374
163442.522201,7846.182985,-5255.462188,6971.469032
163442.522521,1406.391290,-7550.100608,2757.943793
163442.522840,-1258.350101,-13471.748144,-2834.553343
163442.523159,-6439.791695,-15988.448347,-8503.660028
163442.523478,-10436.903782,-17764.942608,-8656.879127
163442.523798,-11473.192101,-16358.551318,-9806.022374
163442.524117,-7179.997637,-17172.777854,-6205.373534
163442.524436,-6809.894666,-9548.656652,-5975.544884
163442.524755,-3034.844362,-5847.626942,-1991.848295
163442.525075,1110.308913,-5995.668130,4136.915689
163442.525394,4441.235652,-3108.864956,8580.269578
163442.525713,9622.677246,-1258.350101,11644.651570
163442.526032,10584.944971,-2960.823768,10955.165621
163442.526352,8438.347739,-5921.647536,9499.584175
163442.526671,1702.473667,-9178.553681,1608.800546
163442.526990,-3923.091493,-11917.315666,-5439.278036
163442.527309,-6291.750507,-17764.942608,-6205.373534
163442.527629,-9326.594869,-19837.519246,-8044.002729
163442.527948,-10436.903782,-17542.880825,-9576.193725
163442.528267,-8068.244768,-15914.427753,-7737.564530
163442.528586,-3552.988522,-11621.233289,-4136.915689
163442.528905,-2960.823768,-7179.997637,-3064.381992
163442.529225,0.000000,-4219.173869,1225.752797
163442.529544,4737.318029,-4219.173869,6741.640382
163442.529863,8808.450710,-2368.659014,11568.042020
163442.530182,9474.636058,-74.020594,7354.516781
163442.530502,10436.903782,-3404.947333,8810.098227
163442.530821,5329.482782,-6291.750507,5745.716235
163442.531140,148.041188,-10510.924376,-383.047749
163442.531459,-3849.070898,-14582.057057,-6052.154434
163442.531779,-6217.729913,-17838.963202,-7048.078582
163442.532098,-11251.130318,-16654.633695,-8580.269578
163442.532417,-8882.471304,-15470.304188,-6435.202183
163442.532736,-4589.276840,-12583.501014,-5515.887586
163442.533056,-1554.432478,-9474.636058,-2528.115143
163442.533375,-2072.576638,-1998.556043,-3677.258390
163442.533694,3775.050304,-5329.482782,5439.278036
163442.534013,7105.977043,-2738.761985,8350.440928
163442.534333,9474.636058,-962.267725,8810.098227
163442.534652,8808.450710,-3256.906145,7277.907231
163442.534971,5329.482782,-5921.647536,6052.154434
163442.535290,74.020594,-9844.739029,0.000000
163442.535610,-4589.276840,-13915.871710,-5898.935335
163442.535929,-9474.636058,-15470.304188,-9806.022374
163442.536248,-9474.636058,-18431.127956,-6741.640382
163442.536567,-9474.636058,-15174.221811,-8580.269578
163442.536886,-3997.112087,-14137.933492,-5439.278036
163442.537206,-2220.617826,-9400.615463,-3983.696590
163442.537525,-740.205942,-5255.462188,-2451.505594
163442.537844,4071.132681,-7105.977043,3600.648841
163442.538163,5847.626942,-3997.112087,7124.688131
163442.538483,9104.533087,-2368.659014,9116.536426
163442.538802,7994.224174,-1554.432478,7354.516781
163442.539121,7920.203579,-5847.626942,7277.907231
163442.539440,2960.823768,-8364.327145,4903.011187
163442.539760,-1850.514855,-11325.150913,-2451.505594
163442.540079,-4959.379811,-15026.180623,-6128.763984
163442.540398,-8660.409521,-17320.819043,-7354.516781
163442.540717,-10288.862594,-16802.674883,-7354.516781
163442.541037,-4811.338623,-15396.283594,-4979.620737
163442.541356,-2516.700203,-11251.130318,-2528.115143
163442.541675,-2738.761985,-6809.894666,-3447.429741
163442.541994,-1184.329507,-4811.338623,612.876398
163442.542314,0.000000,-2442.679609,3677.258390
163442.542633,5107.421000,-74.020594,5669.106685
163442.542952,9030.512492,-2294.638420,7354.516781
163442.543271,6513.812290,-4441.235652,6588.421283
163442.543591,3552.988522,-7846.182985,3600.648841
163442.543910,-74.020594,-13027.624579,-76.609550
163442.544229,-4959.379811,-13545.768739,-5898.935335
163442.544548,-9474.636058,-15470.304188,-9193.145976
163442.544868,-9548.656652,-18949.272115,-6205.373534
163442.545187,-8586.388927,-13693.809927,-7354.516781
163442.545506,-3923.091493,-10140.821405,-6435.202183
163442.545826,-370.102971,-8216.285956,-1302.362347
163442.546145,1110.308913,-4737.318029,-76.609550
163442.546464,2590.720797,-6069.688724,4213.525239
163442.546783,6217.729913,-5181.441594,7507.735880
163442.547103,11177.109724,-6513.812290,10955.165621
163442.547422,5921.647536,-4811.338623,6588.421283
163442.547741,3997.112087,-6735.874072,4443.353888
163442.548060,-592.164754,-9548.656652,766.095498
163442.548380,-3034.844362,-12657.521608,-3064.381992
163442.548699,-7698.141797,-12509.480420,-7354.516781
163442.549018,-9474.636058,-14878.139434,-7354.516781
163442.549338,-7105.977043,-14952.160028,-5209.449386
163442.549657,-4219.173869,-12731.542202,-2834.553343
163442.549976,-3701.029710,-7254.018232,-4826.401637
163442.550295,-74.020594,-8290.306550,-1608.800546
163442.550615,0.000000,-6365.771101,1378.971896
163442.550934,3256.906145,-5477.523971,3983.696590
163442.551253,6513.812290,-4885.359217,6741.640382
163442.551573,5921.647536,-3330.926739,5898.935335
163442.551892,5255.462188,-5107.421000,4443.353888
163442.552211,2442.679609,-7179.997637,1532.190996
163442.552530,0.000000,-9548.656652,-3677.258390
163442.552850,-4737.318029,-13249.686362,-4290.134789
163442.553169,-4811.338623,-14211.954086,-6818.249932
163442.553488,-4959.379811,-15988.448347,-4366.744339
163442.553807,-3034.844362,-13249.686362,-4826.401637
163442.554127,-1480.411884,-10436.903782,-3907.087040
163442.554446,-2072.576638,-7920.203579,-2757.943793
163442.554765,-74.020594,-8734.430116,536.266849
163442.555085,1998.556043,-6587.832884,3370.820191
163442.555404,4811.338623,-5921.647536,5439.278036
163442.555723,4737.318029,-3034.844362,5515.887586
163442.556042,6513.812290,-5033.400406,6971.469032
163442.556362,4663.297435,-6513.812290,1762.019645
163442.556681,1184.329507,-9252.574275,1762.019645
163442.557000,-1850.514855,-10436.903782,-2451.505594
163442.557320,-5403.503377,-12435.459826,-4749.792088
163442.557639,-5995.668130,-15988.448347,-4979.620737
163442.557958,-5699.585753,-16284.530724,-4060.306139
163442.558277,-4737.318029,-13101.645173,-4290.134789
163442.558597,-4811.338623,-11843.295072,-6205.373534
163442.558916,-4219.173869,-9474.636058,-2528.115143
163442.559235,-4145.153275,-7179.997637,-3677.258390
163442.559554,1702.473667,-6809.894666,1302.362347
163442.559874,6217.729913,-4515.256246,4979.620737
163442.560193,7402.059420,-3627.009116,7201.297681
163442.560512,8290.306550,-4959.379811,7431.126331
163442.560832,7031.956449,-7994.224174,6052.154434
163442.561151,1184.329507,-8364.327145,1225.752797
163442.561470,-74.020594,-12435.459826,-1532.190996
163442.561789,-4219.173869,-14211.954086,-2528.115143
163442.562109,-3923.091493,-15396.283594,-4979.620737
163442.562428,-7105.977043,-11917.315666,-6741.640382
163442.562747,-4219.173869,-10658.965565,-6052.154434
163442.563067,-5403.503377,-9252.574275,-5286.058936
163442.563386,-2960.823768,-8734.430116,-1532.190996
163442.563705,148.041188,-8142.265362,1225.752797
163442.564024,4293.194464,-5995.668130,4826.401637
163442.564344,4885.359217,-3330.926739,4903.011187
163442.564663,4145.153275,-3627.009116,3677.258390
163442.564982,3552.988522,-6291.750507,6435.202183
163442.565301,1702.473667,-8290.306550,1762.019645
163442.565621,-3552.988522,-9548.656652,0.000000
163442.565940,-4515.256246,-12435.459826,-3907.087040
163442.566259,-6365.771101,-15174.221811,-4366.744339
163442.566579,-4959.379811,-14359.995275,-5592.497135
163442.566898,-3923.091493,-10362.883188,-7431.126331
163442.567217,-5403.503377,-10066.800811,-6205.373534
163442.567536,-5181.441594,-9474.636058,-4979.620737
163442.567856,-2072.576638,-8956.491898,-1838.629195
163442.568175,3256.906145,-8290.306550,4443.353888
163442.568494,7550.100608,-7624.121203,8963.317327
163442.568814,5329.482782,-3034.844362,6741.640382
163442.569133,6439.791695,-4589.276840,5898.935335
163442.569452,3034.844362,-7624.121203,3600.648841
163442.569771,814.226536,-9326.594869,612.876398
163442.570091,-1258.350101,-9770.718434,-2528.115143
163442.570410,-1554.432478,-15396.283594,-689.485948
163442.570729,-2442.679609,-14804.118840,-3524.039291
163442.571048,-3923.091493,-11843.295072,-5286.058936
163442.571368,-8290.306550,-9548.656652,-7354.516781
163442.571687,-4219.173869,-11843.295072,-1915.238745
163442.572006,-2516.700203,-9548.656652,-1991.848295
163442.572326,518.144159,-8586.388927,1838.629195
163442.572645,2812.782580,-6587.832884,5056.230287
163442.572964,4737.318029,-4441.235652,4903.011187
163442.573283,5847.626942,-4145.153275,4903.011187
163442.573603,3701.029710,-6587.832884,4519.963438
163442.573922,1702.473667,-9178.553681,2987.772442
163442.574241,-74.020594,-10066.800811,-2528.115143
163442.574561,-3256.906145,-11843.295072,-2528.115143
163442.574880,-1850.514855,-15692.365970,-1915.238745
163442.575199,-3478.967927,-13323.706956,-5975.544884
163442.575518,-4737.318029,-12805.562797,-6128.763984
163442.575838,-5921.647536,-11473.192101,-5975.544884
163442.576157,-5921.647536,-9548.656652,-4903.011187
163442.576476,0.000000,-8956.491898,0.000000
163442.576795,3627.009116,-8364.327145,4903.011187
163442.577115,8216.285956,-7105.977043,7890.783629
163442.577434,7328.038826,-2368.659014,6205.373534
163442.577753,8808.450710,-3552.988522,6665.030833
163442.578073,4663.297435,-7402.059420,4826.401637
163442.578392,2368.659014,-9030.512492,1532.190996
163442.578711,-1628.453072,-11103.089130,-1762.019645
163442.579030,-3701.029710,-13915.871710,-3064.381992
163442.579350,-5625.565159,-14285.974681,-4596.572988
163442.579669,-6217.729913,-12509.480420,-9193.145976
163442.579988,-8290.306550,-12509.480420,-6741.640382
163442.580308,-5699.585753,-12435.459826,-4979.620737
163442.580627,-3182.885551,-9474.636058,-1302.362347
163442.580946,2294.638420,-7698.141797,3600.648841
163442.581265,4737.318029,-4811.338623,6818.249932
163442.581585,6365.771101,-2590.720797,7277.907231
163442.581904,5773.606348,-2442.679609,5822.325785
163442.582223,5847.626942,-7476.080014,5362.668486
163442.582543,0.000000,-8956.491898,612.876398
163442.582862,-2442.679609,-12435.459826,-2757.943793
163442.583181,-5403.503377,-14211.954086,-4366.744339
163442.583500,-4811.338623,-15100.201217,-7431.126331
163442.583820,-5107.421000,-15396.283594,-6818.249932
163442.584139,-4811.338623,-13545.768739,-6205.373534
163442.584458,-5477.523971,-11029.068536,-5515.887586
163442.584777,-1850.514855,-10362.883188,-1225.752797
163442.585097,2368.659014,-6883.915261,3064.381992
163442.585416,4737.318029,-4811.338623,7354.516781
163442.585735,7402.059420,-2738.761985,9346.365076
163442.586055,9252.574275,-2960.823768,8733.488677
163442.586374,7031.956449,-4145.153275,4826.401637
163442.586693,666.185348,-5699.585753,1302.362347
163442.587012,-1036.288319,-12879.583391,-76.609550
163442.587332,-5921.647536,-13101.645173,-5362.668486
163442.587651,-7254.018232,-15174.221811,-6358.592633
163442.587970,-7476.080014,-14656.077652,-7584.345430
163442.588290,-7550.100608,-13101.645173,-8580.269578
163442.588609,-8364.327145,-10214.842000,-7737.564530
163442.588928,-3552.988522,-10214.842000,-1762.019645
163442.589247,1554.432478,-7179.997637,1378.971896
163442.589567,4589.276840,-5995.668130,6052.154434
163442.589886,8808.450710,-4589.276840,9116.536426
163442.590205,5921.647536,-2442.679609,7354.516781
163442.590524,7179.997637,-5329.482782,6358.592633
163442.590844,1554.432478,-7994.224174,229.828649
163442.591163,-3330.926739,-11917.315666,-3983.696590
163442.591482,-7105.977043,-11917.315666,-4903.011187
163442.591802,-5995.668130,-14211.954086,-5898.935335
163442.592121,-4811.338623,-15026.180623,-5898.935335
163442.592440,-4071.132681,-12287.418637,-6281.983084
163442.592759,-4589.276840,-10807.006753,-4213.525239
163442.593079,-1998.556043,-9400.615463,-76.609550
163442.593398,2886.803174,-6439.791695,2911.162892
163442.593717,4737.318029,-3627.009116,4443.353888
163442.594037,7105.977043,-3923.091493,10725.336972
163442.594356,8808.450710,-3552.988522,7890.783629
163442.594675,3552.988522,-2442.679609,6128.763984
163442.594994,1554.432478,-7846.182985,1838.629195
163442.595314,-2146.597232,-11843.295072,-2374.896044
163442.595633,-6439.791695,-13693.809927,-6052.154434
163442.595952,-7328.038826,-13693.809927,-8197.221829
163442.596271,-5107.421000,-14804.118840,-7431.126331
163442.596591,-5107.421000,-13027.624579,-6205.373534
163442.596910,-5181.441594,-10066.800811,-6818.249932
163442.597229,-4145.153275,-9252.574275,-2451.505594
163442.597549,1554.432478,-8882.471304,3447.429741
163442.597868,2368.659014,-4811.338623,5515.887586
163442.598187,7328.038826,-4441.235652,7814.174080
163442.598506,7550.100608,-3923.091493,6741.640382
163442.598826,5847.626942,-4737.318029,5209.449386
163442.599145,1702.473667,-6365.771101,1455.581446
163442.599464,-74.020594,-13027.624579,-76.609550
163442.599784,-3034.844362,-14211.954086,-5592.497135
163442.600103,-6143.709319,-13767.830521,-5745.716235
163442.600422,-5403.503377,-13619.789333,-6205.373534
163442.600741,-1702.473667,-14211.954086,-2528.115143
163442.601061,-3256.906145,-9252.574275,-3677.258390
163442.601380,-2442.679609,-8068.244768,-1455.581446
163442.601699,1110.308913,-6957.935855,1225.752797
163442.602018,1406.391290,-6809.894666,4903.011187
163442.602338,6143.709319,-5921.647536,7354.516781
163442.602657,7476.080014,-5329.482782,7277.907231
163442.602976,3775.050304,-4737.318029,4213.525239
163442.603296,-74.020594,-7031.956449,0.000000
163442.603615,-5329.482782,-10140.821405,-2451.505594
163442.603934,-3923.091493,-14211.954086,-3753.867940
163442.604253,-6439.791695,-13175.665768,-5669.106685
163442.604573,-6069.688724,-14211.954086,-5592.497135
163442.604892,-2960.823768,-11325.150913,-5132.839837
163442.605211,-2368.659014,-9548.656652,-4903.011187
163442.605531,-2368.659014,-7179.997637,-2451.505594
163442.605850,592.164754,-7179.997637,-2451.505594
163442.606169,1776.494261,-9548.656652,4290.134789
163442.606488,5255.462188,-8290.306550,6052.154434
163442.606808,4663.297435,-6513.812290,4213.525239
163442.607127,6439.791695,-8290.306550,6052.154434
163442.607446,2886.803174,-7476.080014,2451.505594
163442.607765,370.102971,-9178.553681,383.047749
163442.608085,-3034.844362,-10807.006753,-3677.258390
163442.608404,-5921.647536,-10732.986159,-3677.258390
163442.608723,-4737.318029,-11325.150913,-5286.058936
163442.609043,-4737.318029,-9548.656652,-4903.011187
163442.609362,-2368.659014,-8660.409521,-3677.258390
163442.609681,-370.102971,-10658.965565,-76.609550
163442.610000,1702.473667,-8290.306550,-1302.362347
163442.610320,1480.411884,-10584.944971,1762.019645
163442.610639,1998.556043,-8438.347739,3524.039291
163442.610958,2146.597232,-8364.327145,4519.963438
163442.611278,3478.967927,-7772.162391,4519.963438
163442.611597,296.082377,-6587.832884,2068.457845
163442.611916,-74.020594,-9178.553681,-76.609550
163442.612235,-4737.318029,-8956.491898,-3677.258390
163442.612555,-5921.647536,-9548.656652,-4903.011187
163442.612874,-2590.720797,-12213.398043,-3677.258390
163442.613193,-2442.679609,-9474.636058,-4673.182538
163442.613512,-1776.494261,-8586.388927,-2451.505594
163442.613832,-1036.288319,-8364.327145,-2068.457845
163442.614151,666.185348,-8512.368333,-842.705048
163442.614470,3478.967927,-11843.295072,3294.210641
163442.614790,2812.782580,-10066.800811,3677.258390
163442.615109,3108.864956,-9474.636058,5439.278036
163442.615428,4663.297435,-9474.636058,3600.648841
163442.615747,1480.411884,-7476.080014,2757.943793
163442.616067,0.000000,-7476.080014,0.000000
163442.616386,-1258.350101,-9474.636058,-2528.115143
163442.616705,-1776.494261,-10732.986159,-2834.553343
163442.617025,-2368.659014,-10732.986159,-1532.190996
163442.617344,-3108.864956,-9474.636058,-2528.115143
163442.617663,-74.020594,-11843.295072,-1302.362347
163442.617982,-1702.473667,-8290.306550,-2451.505594
163442.618302,-74.020594,-10066.800811,-229.828649
163442.618621,1110.308913,-9474.636058,1149.143247
163442.618940,296.082377,-8882.471304,2068.457845
163442.619259,1702.473667,-8882.471304,536.266849
163442.619579,2072.576638,-8882.471304,3217.601092
163442.619898,2442.679609,-8734.430116,2221.676944
163442.620217,296.082377,-7920.203579,306.438199
163442.620537,-1258.350101,-10658.965565,-76.609550
163442.620856,-3552.988522,-10658.965565,-1915.238745
163442.621175,-4219.173869,-9622.677246,-4060.306139
163442.621494,-3849.070898,-9696.697840,-3064.381992
163442.621814,-2960.823768,-9548.656652,-2451.505594
163442.622133,-74.020594,-9474.636058,-1302.362347
163442.622452,2294.638420,-9326.594869,-76.609550
163442.622772,2294.638420,-8364.327145,1149.143247
163442.623091,2368.659014,-9178.553681,1762.019645
163442.623410,2368.659014,-9400.615463,3064.381992
163442.623729,592.164754,-7179.997637,3677.258390
163442.624049,3034.844362,-8734.430116,2987.772442
163442.624368,1850.514855,-9400.615463,1838.629195
163442.624687,-74.020594,-10658.965565,-383.047749
163442.625006,-2516.700203,-9696.697840,-2604.724693
163442.625326,-2368.659014,-11843.295072,-153.219100
163442.625645,-2960.823768,-9548.656652,-2681.334243
163442.625964,-1776.494261,-8956.491898,-2374.896044
163442.626284,-962.267725,-7994.224174,-1532.190996
163442.626603,0.000000,-7031.956449,-1838.629195
163442.626922,-1258.350101,-6587.832884,-1302.362347
163442.627241,1184.329507,-9548.656652,1378.971896
163442.627561,962.267725,-9844.739029,1455.581446
163442.627880,-74.020594,-10807.006753,2221.676944
163442.628199,1702.473667,-10955.047942,2374.896044
163442.628519,-1776.494261,-9548.656652,306.438199
163442.628838,-666.185348,-10955.047942,-689.485948
163442.629157,-2442.679609,-9770.718434,-2528.115143
163442.629476,-4737.318029,-8660.409521,-4443.353888
163442.629796,-4737.318029,-7772.162391,-2451.505594
163442.630115,-3034.844362,-8290.306550,-3753.867940
163442.630434,-962.267725,-8068.244768,-2068.457845
163442.630753,1332.370696,-7402.059420,-766.095498
163442.631073,2442.679609,-7994.224174,1762.019645
163442.631392,3404.947333,-8512.368333,2987.772442
163442.631711,3478.967927,-9474.636058,2987.772442
163442.632031,0.000000,-9548.656652,1149.143247
163442.632350,-2368.659014,-9548.656652,1225.752797
163442.632669,-296.082377,-10214.842000,612.876398
163442.632988,-4441.235652,-8364.327145,0.000000
163442.633308,-1850.514855,-10362.883188,-1455.581446
163442.633627,-1850.514855,-10140.821405,-1455.581446
163442.633946,-2368.659014,-8068.244768,-1378.971896
163442.634266,-2146.597232,-5699.585753,-2834.553343
163442.634585,-666.185348,-6513.812290,-3140.991542
163442.634904,370.102971,-7698.141797,-1302.362347
163442.635223,0.000000,-7179.997637,0.000000
163442.635543,592.164754,-9696.697840,1072.533697
163442.635862,1702.473667,-12435.459826,2374.896044
163442.636181,0.000000,-10732.986159,306.438199
163442.636500,222.061783,-11399.171507,995.924147
163442.636820,370.102971,-9844.739029,459.657299
163442.637139,-666.185348,-9770.718434,-612.876398
163442.637458,-1850.514855,-8882.471304,-2528.115143
163442.637778,-370.102971,-10955.047942,-842.705048
163442.638097,-74.020594,-9474.636058,-383.047749
163442.638416,-814.226536,-7772.162391,-1302.362347
163442.638735,-74.020594,-9474.636058,-689.485948
163442.639055,888.247130,-9474.636058,2068.457845
163442.639374,296.082377,-7179.997637,306.438199
163442.639693,1850.514855,-9252.574275,1149.143247
163442.640013,2368.659014,-10066.800811,1915.238745
163442.640332,296.082377,-9696.697840,1532.190996
163442.640651,-740.205942,-10955.047942,1225.752797
163442.640970,1110.308913,-11029.068536,1762.019645
163442.641290,-74.020594,-9474.636058,1762.019645
163442.641609,-666.185348,-9474.636058,-1302.362347
163442.641928,-1776.494261,-8808.450710,-1072.533697
163442.642247,-74.020594,-11843.295072,-76.609550
163442.642567,-1702.473667,-7994.224174,-1225.752797
163442.642887,-1258.350101,-7698.141797,-1455.581446
163442.643206,-1406.391290,-7328.038826,-2145.067394
163442.643526,0.000000,-7179.997637,0.000000
163442.643845,0.000000,-7179.997637,0.000000
163442.644165,592.164754,-9696.697840,612.876398
163442.644484,2294.638420,-11843.295072,1762.019645
163442.644804,-2146.597232,-10288.862594,0.000000
163442.645123,1702.473667,-10658.965565,536.266849
163442.645443,0.000000,-8290.306550,459.657299
163442.645762,-2072.576638,-8068.244768,0.000000
163442.646082,-962.267725,-9548.656652,-1455.581446
163442.646401,-592.164754,-9770.718434,-689.485948
163442.646721,592.164754,-9992.780217,1915.238745
163442.647040,0.000000,-7179.997637,-2451.505594
163442.647360,-2368.659014,-7179.997637,-2451.505594
163442.647679,-74.020594,-8882.471304,-459.657299
163442.647999,0.000000,-6439.791695,-1915.238745
163442.648319,0.000000,-7772.162391,0.000000
163442.648638,1702.473667,-10658.965565,1378.971896
163442.648958,74.020594,-11325.150913,1762.019645
163442.649277,1776.494261,-10658.965565,3677.258390
163442.649597,3701.029710,-8512.368333,2374.896044
163442.649916,0.000000,-7772.162391,766.095498
163442.650236,-3775.050304,-7772.162391,-3064.381992
163442.650555,-3552.988522,-10214.842000,-2221.676944
163442.650875,-2960.823768,-11029.068536,-153.219100
163442.651194,-2738.761985,-9178.553681,-2911.162892
163442.651514,-7105.977043,-5995.668130,-5822.325785
163442.651833,-2738.761985,-8068.244768,-2987.772442
163442.652153,1332.370696,-7772.162391,-995.924147
163442.652472,2072.576638,-8808.450710,689.485948
163442.652792,3182.885551,-9474.636058,1762.019645
163442.653111,-74.020594,-10066.800811,2068.457845
163442.653431,0.000000,-9548.656652,2145.067394
163442.653750,1184.329507,-7179.997637,1225.752797
163442.654070,2960.823768,-10362.883188,2221.676944
163442.654390,0.000000,-10288.862594,1532.190996
163442.654709,-2664.741391,-9548.656652,-2451.505594
163442.655029,-2072.576638,-10955.047942,-2298.286494
163442.655348,-2442.679609,-10436.903782,-2528.115143
163442.655668,-2072.576638,-8956.491898,-2911.162892
163442.655987,-74.020594,-9178.553681,-689.485948
163442.656307,1332.370696,-7846.182985,1532.190996
163442.656626,4663.297435,-9474.636058,2987.772442
163442.656946,592.164754,-5995.668130,1838.629195
163442.657265,444.123565,-7624.121203,2451.505594
163442.657585,-1924.535449,-7994.224174,0.000000
163442.657904,592.164754,-10732.986159,2604.724693
163442.658224,518.144159,-9770.718434,842.705048
163442.658543,-2368.659014,-10288.862594,-2298.286494
163442.658863,-4515.256246,-11843.295072,-4366.744339
163442.659182,-5921.647536,-11917.315666,-4979.620737
163442.659502,-6513.812290,-10436.903782,-4903.011187
163442.659821,-2664.741391,-10732.986159,-3677.258390
163442.660141,-74.020594,-11251.130318,-689.485948
163442.660461,814.226536,-5033.400406,-2221.676944
163442.660780,5847.626942,-7105.977043,2374.896044
163442.661100,4367.215058,-6809.894666,3907.087040
163442.661419,4071.132681,-7624.121203,3600.648841
163442.661739,1850.514855,-8882.471304,4290.134789
163442.662058,2368.659014,-10732.986159,6128.763984
163442.662378,3256.906145,-9474.636058,2834.553343
163442.662697,-74.020594,-10510.924376,-76.609550
163442.663017,-2442.679609,-12435.459826,-3753.867940
163442.663336,-5551.544565,-11917.315666,-4903.011187
163442.663656,-2442.679609,-13619.789333,-3140.991542
163442.663975,-3552.988522,-9622.677246,-3983.696590
163442.664295,-3627.009116,-9104.533087,-3447.429741
163442.664614,-1480.411884,-7254.018232,-1302.362347
163442.664934,1998.556043,-5477.523971,2528.115143
163442.665253,592.164754,-2738.761985,1225.752797
163442.665573,3775.050304,-7105.977043,4519.963438
163442.665893,2368.659014,-7328.038826,4290.134789
163442.666212,1924.535449,-9030.512492,4290.134789
163442.666532,4071.132681,-10510.924376,1762.019645
163442.666851,814.226536,-9696.697840,-1455.581446
163442.667171,-2442.679609,-12435.459826,-3140.991542
163442.667490,-6143.709319,-12435.459826,-6435.202183
163442.667810,-5107.421000,-13027.624579,-7584.345430
163442.668129,-4737.318029,-12805.562797,-5822.325785
163442.668449,-4737.318029,-9104.533087,-5822.325785
163442.668768,-1998.556043,-7772.162391,-2604.724693
163442.669088,2146.597232,-5921.647536,459.657299
163442.669407,4663.297435,-5403.503377,4060.306139
163442.669727,6587.832884,-4515.256246,4903.011187
163442.670046,5921.647536,-5403.503377,6435.202183
163442.670366,4441.235652,-8364.327145,6128.763984
163442.670685,7031.956449,-11843.295072,6971.469032
163442.671005,3478.967927,-10066.800811,1532.190996
163442.671324,-2368.659014,-11325.150913,-1225.752797
163442.671644,-6365.771101,-12435.459826,-6665.030833
163442.671964,-7254.018232,-14359.995275,-7660.954980
163442.672283,-6883.915261,-14211.954086,-6971.469032
163442.672603,-5921.647536,-10732.986159,-6128.763984
163442.672922,-5551.544565,-6735.874072,-7354.516781
163442.673242,-1480.411884,-5773.606348,-1915.238745
163442.673561,0.000000,-3034.844362,1532.190996
163442.673881,5255.462188,-4737.318029,6281.983084
163442.674200,7031.956449,-4737.318029,8503.660028
163442.674520,6513.812290,-7179.997637,9499.584175
163442.674839,5033.400406,-8660.409521,6358.592633
163442.675159,3108.864956,-9918.759623,2681.334243
163442.675478,-2146.597232,-11621.233289,-2987.772442
163442.675798,-8882.471304,-11917.315666,-9422.974625
163442.676117,-9844.739029,-17468.860231,-9269.755526
163442.676437,-8364.327145,-16284.530724,-9269.755526
163442.676756,-7105.977043,-12213.398043,-7507.735880
163442.677076,-4219.173869,-9400.615463,-4673.182538
163442.677396,2886.803174,-7698.141797,-76.609550
163442.677715,2960.823768,-4811.338623,4060.306139
163442.678035,5847.626942,-2294.638420,6971.469032
163442.678354,9844.739029,-3256.906145,9422.974625
163442.678674,9400.615463,-5403.503377,10418.898773
163442.678993,7402.059420,-6587.832884,8886.707777
163442.679313,4663.297435,-10955.047942,4213.525239
163442.679632,-2368.659014,-10732.986159,-2757.943793
163442.679952,-9474.636058,-11917.315666,-9652.803275
163442.680271,-13027.624579,-16654.633695,-11031.775171
163442.680591,-10140.821405,-17764.942608,-9882.631924
163442.680910,-9178.553681,-15026.180623,-8733.488677
163442.681230,-5773.606348,-10807.006753,-5132.839837
163442.681549,-2368.659014,-6587.832884,-842.705048
163442.681869,4293.194464,-3108.864956,5362.668486
163442.682188,7105.977043,-1258.350101,8580.269578
163442.682508,8956.491898,-740.205942,7967.393179
163442.682827,10658.965565,-4663.297435,11644.651570
163442.683147,7476.080014,-6957.935855,8503.660028
163442.683467,2220.617826,-9548.656652,2911.162892
163442.683786,-74.020594,-14211.954086,-1608.800546
163442.684106,-7624.121203,-14434.015869,-8886.707777
163442.684425,-11621.233289,-17394.839637,-11721.261119
163442.684745,-11325.150913,-18653.189738,-11568.042020
163442.685064,-7105.977043,-16654.633695,-6894.859482
163442.685384,-4145.153275,-9548.656652,-6435.202183
163442.685703,0.000000,-5403.503377,0.000000
163442.686023,4885.359217,-2442.679609,3677.258390
163442.686342,8512.368333,-2442.679609,9193.145976
163442.686662,8216.285956,2738.761985,7967.393179
163442.686981,12583.501014,-4145.153275,11644.651570
163442.687301,8438.347739,-6513.812290,9193.145976
163442.687620,4737.318029,-10214.842000,5669.106685
163442.687940,74.020594,-12731.542202,-766.095498
163442.688259,-7698.141797,-12805.562797,-7507.735880
163442.688579,-12657.521608,-17024.736666,-12640.575717
163442.688899,-13915.871710,-19911.539840,-12334.137518
163442.689218,-11325.150913,-13841.851115,-13483.280765
163442.689538,-6513.812290,-13101.645173,-4290.134789
163442.689857,-2960.823768,-4811.338623,-3064.381992
163442.690177,3923.091493,-3552.988522,3600.648841
163442.690496,7772.162391,0.000000,6588.421283
163442.690816,8734.430116,666.185348,8120.612279
163442.691135,9400.615463,-4737.318029,9729.412825
163442.691455,8216.285956,-7105.977043,8197.221829
163442.691774,4663.297435,-10881.027347,5439.278036
163442.692094,2294.638420,-14211.954086,995.924147
163442.692413,-4737.318029,-13397.727550,-6128.763984
163442.692733,-10658.965565,-15470.304188,-7967.393179
163442.693052,-12509.480420,-16654.633695,-11031.775171
163442.693372,-7994.224174,-15766.386565,-9882.631924
163442.693691,-4737.318029,-11917.315666,-6205.373534
163442.694011,-1332.370696,-7698.141797,-2068.457845
163442.694330,3478.967927,-5921.647536,-76.609550
163442.694650,5847.626942,-2442.679609,5362.668486
163442.694970,8808.450710,0.000000,6052.154434
163442.695289,5329.482782,-1258.350101,7507.735880
163442.695609,6735.874072,-5403.503377,7967.393179
163442.695928,4663.297435,-7698.141797,3753.867940
163442.696248,3330.926739,-11251.130318,5209.449386
163442.696567,-1258.350101,-11103.089130,-1072.533697
163442.696887,-7031.956449,-12287.418637,-7584.345430
163442.697206,-12213.398043,-16580.613101,-9882.631924
163442.697526,-10658.965565,-14878.139434,-10648.727422
163442.697845,-9474.636058,-12657.521608,-9806.022374
163442.698165,-5329.482782,-10732.986159,-3983.696590
163442.698484,-1776.494261,-7179.997637,-1532.190996
163442.698804,2220.617826,-4293.194464,995.924147
163442.699123,7031.956449,-4145.153275,4826.401637
163442.699443,6513.812290,-1184.329507,6894.859482
163442.699762,8956.491898,-4737.318029,7967.393179
163442.700082,8216.285956,-6809.894666,9269.755526
163442.700401,5921.647536,-10436.903782,8580.269578
163442.700721,1258.350101,-12139.377449,3064.381992
163442.701041,-3627.009116,-11695.253884,-4903.011187
163442.701360,-9104.533087,-16284.530724,-8044.002729
163442.701680,-10140.821405,-17764.942608,-10495.508323
163442.701999,-6439.791695,-16580.613101,-6205.373534
163442.702319,-4737.318029,-12213.398043,-4060.306139
163442.702638,-1110.308913,-7550.100608,-1915.238745
163442.702958,518.144159,-5255.462188,919.314598
163442.703277,3923.091493,-1406.391290,4136.915689
163442.703597,3849.070898,-74.020594,4903.011187
163442.703916,5255.462188,-4145.153275,6818.249932
163442.704236,5773.606348,-7179.997637,6741.640382
163442.704555,5255.462188,-10288.862594,7048.078582
163442.704875,3478.967927,-12287.418637,4826.401637
163442.705194,-740.205942,-9474.636058,-3140.991542
163442.705514,-6883.915261,-13693.809927,-6588.421283
163442.705833,-9548.656652,-15692.365970,-7431.126331
163442.706153,-5995.668130,-17764.942608,-8656.879127
163442.706473,-5921.647536,-13101.645173,-4903.011187
163442.706792,-3775.050304,-9030.512492,-4749.792088
163442.707112,-962.267725,-7031.956449,-1149.143247
163442.707431,2738.761985,-5403.503377,1532.190996
163442.707751,4367.215058,-3404.947333,3217.601092
163442.708070,5181.441594,-4293.194464,5132.839837
163442.708390,5847.626942,-5033.400406,6588.421283
163442.708709,7179.997637,-8512.368333,7967.393179
163442.709029,8216.285956,-11547.212695,8503.660028
163442.709348,2886.803174,-9326.594869,995.924147
163442.709668,-4145.153275,-10732.986159,-3370.820191
163442.709987,-8364.327145,-13471.748144,-7890.783629
163442.710307,-7402.059420,-16284.530724,-7967.393179
163442.710626,-5847.626942,-14804.118840,-6741.640382
163442.710946,-3849.070898,-12213.398043,-4443.353888
163442.711265,-2442.679609,-6587.832884,-4136.915689
163442.711585,2072.576638,-5329.482782,536.266849
163442.711904,1480.411884,-1850.514855,1225.752797
163442.712224,3552.988522,-3330.926739,4290.134789
163442.712544,5181.441594,-6809.894666,6052.154434
163442.712863,5329.482782,-7179.997637,7507.735880
163442.713183,5255.462188,-10288.862594,6052.154434
163442.713502,2072.576638,-10140.821405,2298.286494
163442.713822,-3256.906145,-9844.739029,-3677.258390
163442.714141,-7846.182985,-11325.150913,-8963.317327
163442.714461,-6587.832884,-17172.777854,-6818.249932
163442.714780,-4811.338623,-16284.530724,-6818.249932
163442.715100,-5477.523971,-12805.562797,-4979.620737
163442.715419,-1258.350101,-11251.130318,-3140.991542
163442.715739,1998.556043,-9474.636058,-76.609550
163442.716058,2368.659014,-4811.338623,2145.067394
163442.716378,2664.741391,-3627.009116,3600.648841
163442.716697,4959.379811,-4367.215058,5898.935335
163442.717017,7105.977043,-5477.523971,7890.783629
163442.717336,8216.285956,-7105.977043,9806.022374
163442.717656,5699.585753,-8512.368333,5515.887586
163442.717976,-74.020594,-9030.512492,1149.143247
163442.718295,-3034.844362,-12731.542202,-5592.497135
163442.718615,-7846.182985,-14656.077652,-7890.783629
163442.718934,-5403.503377,-17764.942608,-6205.373534
163442.719254,-7994.224174,-14730.098246,-6741.640382
163442.719573,-5773.606348,-12509.480420,-4366.744339
163442.719893,-2220.617826,-7402.059420,-2604.724693
163442.720212,2072.576638,-5107.421000,2451.505594
163442.720532,1776.494261,-3034.844362,4903.011187
163442.720851,4811.338623,-4737.318029,4903.011187
163442.721171,8512.368333,-6217.729913,8503.660028
163442.721490,7031.956449,-6365.771101,7584.345430
163442.721810,3552.988522,-7179.997637,3983.696590
163442.722129,1702.473667,-9474.636058,-76.609550
163442.722449,-4885.359217,-10807.006753,-4903.011187
163442.722768,-8068.244768,-14508.036463,-8886.707777
163442.723088,-7698.141797,-17172.777854,-8273.831378
163442.723407,-6513.812290,-15470.304188,-4903.011187
163442.723727,-4441.235652,-11917.315666,-5515.887586
163442.724047,-3256.906145,-7772.162391,-2451.505594
163442.724366,1184.329507,-5107.421000,612.876398
163442.724686,4293.194464,-4515.256246,4903.011187
163442.725005,4071.132681,-2442.679609,3753.867940
163442.725325,7105.977043,-4441.235652,8503.660028
163442.725644,6513.812290,-5625.565159,8580.269578
163442.725964,7105.977043,-6735.874072,7277.907231
163442.726283,2368.659014,-7550.100608,2681.334243
163442.726603,-3552.988522,-9548.656652,-3064.381992
163442.726922,-7179.997637,-11843.295072,-8350.440928
163442.727242,-9400.615463,-15618.345376,-9193.145976
163442.727561,-8290.306550,-16062.468941,-8580.269578
163442.727881,-6439.791695,-15470.304188,-5515.887586
163442.728200,-5255.462188,-9844.739029,-6128.763984
163442.728520,-518.144159,-7550.100608,-919.314598
163442.728839,1776.494261,-4811.338623,1838.629195
163442.729159,2886.803174,-4071.132681,4136.915689
163442.729479,7031.956449,-4737.318029,7277.907231
163442.729798,9400.615463,-5329.482782,8350.440928
163442.730118,7846.182985,-5625.565159,7890.783629
163442.730437,2368.659014,-5995.668130,2451.505594
163442.730757,1332.370696,-11177.109724,-76.609550
163442.731076,-4737.318029,-11029.068536,-5975.544884
163442.731396,-7476.080014,-13915.871710,-9806.022374
163442.731715,-7105.977043,-17024.736666,-9193.145976
163442.732035,-6809.894666,-16062.468941,-8120.612279
163442.732354,-4663.297435,-13989.892304,-4673.182538
163442.732674,-74.020594,-11251.130318,-1302.362347
163442.732993,518.144159,-7994.224174,2145.067394
163442.733313,3478.967927,-4737.318029,4826.401637
163442.733632,4885.359217,-2442.679609,7354.516781
163442.733952,9474.636058,-2738.761985,7967.393179
163442.734271,8216.285956,-1998.556043,6741.640382
163442.734591,6217.729913,-6587.832884,6971.469032
163442.734910,0.000000,-8438.347739,766.095498
163442.735230,-4441.235652,-11547.212695,-5745.716235
163442.735550,-7994.224174,-15988.448347,-8044.002729
163442.735869,-10658.965565,-16062.468941,-9882.631924
163442.736189,-10140.821405,-16654.633695,-9729.412825
163442.736508,-7994.224174,-15026.180623,-6741.640382
163442.736828,-4737.318029,-10732.986159,-2451.505594
163442.737147,-74.020594,-6957.935855,-1302.362347
163442.737467,2886.803174,-5625.565159,2987.772442
163442.737786,4663.297435,-3330.926739,6281.983084
163442.738106,7550.100608,-1776.494261,8120.612279
163442.738425,9104.533087,-3923.091493,9193.145976
163442.738745,8882.471304,-5995.668130,9806.022374
163442.739064,3849.070898,-8882.471304,3447.429741
163442.739384,-222.061783,-11251.130318,-1225.752797
163442.739703,-3627.009116,-14211.954086,-6205.373534
163442.740023,-7328.038826,-16062.468941,-9806.022374
163442.740342,-6143.709319,-18949.272115,-7431.126331
163442.740662,-7698.141797,-16210.510130,-7354.516781
163442.740981,-4071.132681,-13027.624579,-3064.381992
163442.741301,-2442.679609,-7772.162391,-1608.800546
163442.741620,-296.082377,-4071.132681,2145.067394
163442.741940,0.000000,-74.020594,2757.943793
163442.742259,6217.729913,-2368.659014,8810.098227
163442.742579,9400.615463,-2294.638420,10035.851024
163442.742898,8512.368333,-4515.256246,9269.755526
163442.743218,5551.544565,-7105.977043,4826.401637
163442.743537,-814.226536,-8734.430116,-1225.752797
163442.743856,-3627.009116,-13323.706956,-4979.620737
163442.744176,-7772.162391,-14285.974681,-9882.631924
163442.744495,-10955.047942,-17246.798449,-11031.775171
163442.744815,-9474.636058,-17838.963202,-7354.516781
163442.745134,-6661.853478,-13101.645173,-8427.050478
163442.745454,-2738.761985,-9474.636058,-3753.867940
163442.745773,0.000000,-7179.997637,-306.438199
163442.746092,1702.473667,-4885.359217,3677.258390
163442.746412,7328.038826,-2442.679609,6818.249932
163442.746731,10658.965565,-1850.514855,10572.117872
163442.747051,11177.109724,-3256.906145,10112.460574
163442.747370,9400.615463,-8290.306550,8503.660028
163442.747689,2220.617826,-7698.141797,2374.896044
163442.748009,-2960.823768,-11325.150913,-2451.505594
163442.748328,-7179.997637,-14211.954086,-8656.879127
163442.748648,-8808.450710,-17320.819043,-9806.022374
163442.748967,-9252.574275,-18949.272115,-8427.050478
163442.749287,-6809.894666,-16358.551318,-7354.516781
163442.749606,-3330.926739,-10584.944971,-4903.011187
163442.749925,-2072.576638,-6513.812290,-2221.676944
163442.750245,0.000000,-2442.679609,1225.752797
163442.750564,4737.318029,-4737.318029,6052.154434
163442.750884,8216.285956,-4737.318029,8503.660028
163442.751203,9474.636058,-3627.009116,10418.898773
163442.751523,8734.430116,-5033.400406,7737.564530
163442.751842,2960.823768,-7846.182985,3677.258390
163442.752161,-1480.411884,-10584.944971,-919.314598
163442.752481,-6513.812290,-10732.986159,-8350.440928
163442.752800,-7179.997637,-16580.613101,-8963.317327
163442.753120,-9844.739029,-18283.086767,-11108.384721
163442.753439,-8882.471304,-16950.716072,-7354.516781
163442.753758,-6809.894666,-12509.480420,-4903.011187
163442.754078,-74.020594,-9474.636058,-76.609550
163442.754397,296.082377,-4367.215058,1378.971896
163442.754717,2590.720797,-2960.823768,4136.915689
163442.755036,7031.956449,-2738.761985,7660.954980
163442.755356,10066.800811,-2220.617826,9499.584175
163442.755675,9104.533087,-3923.091493,8503.660028
163442.755994,5847.626942,-7698.141797,5898.935335
163442.756314,-74.020594,-10066.800811,1149.143247
163442.756633,-1850.514855,-13027.624579,-4366.744339
163442.756953,-6513.812290,-14730.098246,-8963.317327
163442.757272,-7179.997637,-18949.272115,-7431.126331
163442.757592,-9474.636058,-17024.736666,-7967.393179
163442.757911,-5329.482782,-14804.118840,-4290.134789
163442.758230,-1776.494261,-8660.409521,-2221.676944
163442.758550,-888.247130,-5403.503377,306.438199
163442.758869,1480.411884,-4811.338623,3217.601092
163442.759189,3775.050304,-4589.276840,4903.011187
163442.759508,8216.285956,-5921.647536,8503.660028
163442.759827,6957.935855,-4441.235652,5975.544884
163442.760147,2960.823768,-6587.832884,3753.867940
163442.760466,1702.473667,-11547.212695,2987.772442
163442.760786,-2590.720797,-10214.842000,-3677.258390
163442.761105,-4885.359217,-13693.809927,-6818.249932
163442.761425,-6809.894666,-15248.242405,-7814.174080
163442.761744,-8290.306550,-16654.633695,-6128.763984
163442.762063,-5329.482782,-13101.645173,-6511.811733
163442.762383,-2368.659014,-10140.821405,-2451.505594
163442.762702,-74.020594,-7105.977043,-76.609550
163442.763022,3182.885551,-7994.224174,3600.648841
163442.763341,1702.473667,-4811.338623,2451.505594
163442.763661,6661.853478,-5181.441594,7277.907231
163442.763980,10066.800811,-4811.338623,7890.783629
163442.764299,5773.606348,-6957.935855,6665.030833
163442.764619,1332.370696,-8216.285956,3294.210641
163442.764938,-2368.659014,-8956.491898,-1225.752797
163442.765258,-3627.009116,-10658.965565,-5209.449386
163442.765577,-6809.894666,-12509.480420,-6894.859482
163442.765897,-9474.636058,-14878.139434,-7354.516781
163442.766216,-6217.729913,-14878.139434,-3677.258390
163442.766535,-3923.091493,-11029.068536,-5745.716235
163442.766855,-1480.411884,-8438.347739,-3294.210641
163442.767174,-2220.617826,-6661.853478,-1225.752797
163442.767494,-740.205942,-7179.997637,1072.533697
163442.767813,4663.297435,-8290.306550,4519.963438
163442.768132,7031.956449,-7105.977043,6052.154434
163442.768452,5255.462188,-5551.544565,6052.154434
163442.768771,3478.967927,-5773.606348,2374.896044
163442.769091,0.000000,-7179.997637,1532.190996
163442.769410,0.000000,-8364.327145,-2451.505594
163442.769730,-2738.761985,-11547.212695,-5362.668486
163442.770049,-4145.153275,-14434.015869,-5286.058936
163442.770368,-4811.338623,-15100.201217,-4213.525239
163442.770688,-2812.782580,-13619.789333,-3907.087040
163442.771007,-74.020594,-11843.295072,-1302.362347
163442.771327,-1554.432478,-6513.812290,-1072.533697
163442.771646,-74.020594,-7105.977043,-383.047749
163442.771966,0.000000,-6587.832884,3677.258390
163442.772285,5699.585753,-7031.956449,6128.763984
163442.772604,4737.318029,-1850.514855,3064.381992
163442.772924,4663.297435,-6291.750507,5439.278036
163442.773243,1184.329507,-7179.997637,3294.210641
163442.773563,-1480.411884,-8364.327145,-842.705048
163442.773882,-3330.926739,-11251.130318,-3447.429741
163442.774201,-5477.523971,-12509.480420,-4903.011187
163442.774521,-8290.306550,-12657.521608,-5822.325785
163442.774840,-4737.318029,-14137.933492,-3753.867940
163442.775160,-2368.659014,-11325.150913,-3370.820191
163442.775479,-2738.761985,-7031.956449,-5132.839837
163442.775799,-1554.432478,-8882.471304,-2528.115143
163442.776118,-1776.494261,-8142.265362,0.000000
163442.776437,1554.432478,-7920.203579,2681.334243
163442.776757,5181.441594,-6143.709319,5209.449386
163442.777076,5921.647536,-6291.750507,8886.707777
163442.777396,5033.400406,-6957.935855,5898.935335
163442.777715,2886.803174,-8290.306550,3524.039291
163442.778035,2294.638420,-10658.965565,-76.609550
163442.778354,-2738.761985,-10362.883188,-3753.867940
163442.778673,-2442.679609,-14211.954086,-3753.867940
163442.778993,-6069.688724,-13767.830521,-4596.572988
163442.779312,-3552.988522,-12583.501014,-3524.039291
163442.779632,-3034.844362,-10066.800811,-3830.477490
163442.779951,-3552.988522,-8364.327145,-1302.362347
163442.780271,-4737.318029,-5995.668130,-2451.505594
163442.780590,-666.185348,-8512.368333,2068.457845
163442.780909,3775.050304,-6957.935855,4903.011187
163442.781229,4811.338623,-5403.503377,6052.154434
163442.781548,4663.297435,-5921.647536,5898.935335
163442.781868,3478.967927,-6513.812290,3983.696590
163442.782187,1406.391290,-9474.636058,1532.190996
163442.782506,-814.226536,-9474.636058,-2528.115143
163442.782826,-3627.009116,-11769.274478,-5592.497135
163442.783145,-4737.318029,-14285.974681,-3983.696590
163442.783465,-5329.482782,-12213.398043,-6741.640382
163442.783784,-2294.638420,-12065.356855,-4903.011187
163442.784104,-2442.679609,-9178.553681,-5439.278036
163442.784423,-1924.535449,-9548.656652,-2757.943793
163442.784742,666.185348,-8882.471304,-1532.190996
163442.785062,4515.256246,-8364.327145,3294.210641
163442.785381,7846.182985,-7105.977043,4903.011187
163442.785701,9400.615463,-7105.977043,9116.536426
163442.786020,7031.956449,-5773.606348,6052.154434
163442.786340,4145.153275,-7772.162391,5975.544884
163442.786659,1850.514855,-7698.141797,536.266849
163442.786978,-222.061783,-10362.883188,-1915.238745
163442.787298,-2960.823768,-12213.398043,-3370.820191
163442.787617,-3997.112087,-13101.645173,-6741.640382
163442.787937,-5625.565159,-10732.986159,-8580.269578
163442.788256,-5921.647536,-9548.656652,-8503.660028
163442.788575,-8290.306550,-10140.821405,-6128.763984
163442.788895,-3849.070898,-11769.274478,-2145.067394
163442.789214,-74.020594,-9474.636058,2374.896044
163442.789534,4737.318029,-8512.368333,7967.393179
163442.789853,6957.935855,-4515.256246,8120.612279
163442.790173,7624.121203,-3034.844362,7584.345430
163442.790492,4663.297435,-4737.318029,4979.620737
163442.790811,0.000000,-4811.338623,612.876398
163442.791131,-1258.350101,-10066.800811,-1302.362347
163442.791450,-3923.091493,-12583.501014,-5286.058936
163442.791770,-6809.894666,-14285.974681,-7048.078582
163442.792089,-7994.224174,-14285.974681,-8273.831378
163442.792409,-3627.009116,-15396.283594,-5592.497135
163442.792728,-5329.482782,-12065.356855,-5822.325785
163442.793047,-4737.318029,-10881.027347,-3294.210641
163442.793367,-74.020594,-8512.368333,1608.800546
163442.793686,4663.297435,-7179.997637,6665.030833
163442.794006,7920.203579,-3182.885551,9882.631924
163442.794325,7920.203579,-2664.741391,9116.536426
163442.794645,3478.967927,-2738.761985,5286.058936
163442.794964,0.000000,-4811.338623,2451.505594
163442.795283,-2368.659014,-8660.409521,-919.314598
163442.795603,-2442.679609,-14211.954086,-2528.115143
163442.795922,-6661.853478,-14582.057057,-5515.887586
163442.796242,-7476.080014,-15692.365970,-7660.954980
163442.796561,-7179.997637,-14211.954086,-7354.516781
163442.796880,-6291.750507,-12213.398043,-5592.497135
163442.797200,-4737.318029,-10436.903782,-1838.629195
163442.797519,-666.185348,-9474.636058,1225.752797
163442.797839,4663.297435,-9474.636058,6052.154434
163442.798158,5551.544565,-4737.318029,8503.660028
163442.798478,6439.791695,-370.102971,7354.516781
163442.798797,8216.285956,-4145.153275,7277.907231
163442.799116,2294.638420,-5773.606348,2528.115143
163442.799436,-1406.391290,-9474.636058,-1225.752797
163442.799755,-4219.173869,-12361.439231,-5669.106685
163442.800075,-4737.318029,-15470.304188,-4596.572988
163442.800394,-7105.977043,-14878.139434,-8963.317327
163442.800714,-7698.141797,-14285.974681,-7967.393179
163442.801033,-3552.988522,-12361.439231,-5362.668486
163442.801352,-2368.659014,-11621.233289,-1608.800546
163442.801672,-962.267725,-6365.771101,0.000000
163442.801991,5255.462188,-7550.100608,5975.544884
163442.802311,7328.038826,-4737.318029,8580.269578
163442.802630,9548.656652,-3701.029710,9806.022374
163442.802949,7402.059420,-3108.864956,6818.249932
163442.803269,2368.659014,-5107.421000,4903.011187
163442.803588,-1184.329507,-7179.997637,-1685.410096
163442.803908,-3552.988522,-11621.233289,-4136.915689
163442.804227,-7105.977043,-14285.974681,-6128.763984
163442.804547,-5033.400406,-15766.386565,-4903.011187
163442.804866,-7031.956449,-12065.356855,-8580.269578
163442.805185,-4071.132681,-11843.295072,-6281.983084
163442.805505,-4737.318029,-9400.615463,-5822.325785
163442.805824,-2368.659014,-8734.430116,-919.314598
163442.806144,3478.967927,-8290.306550,3600.648841
163442.806463,6883.915261,-7105.977043,7277.907231
163442.806783,8216.285956,-4145.153275,8963.317327
163442.807102,7105.977043,-1332.370696,7354.516781
163442.807421,5329.482782,-5773.606348,6588.421283
163442.807741,0.000000,-8364.327145,0.000000
163442.808060,-4737.318029,-11399.171507,-6052.154434
163442.808380,-5551.544565,-14359.995275,-6818.249932
163442.808699,-6513.812290,-15766.386565,-7431.126331
163442.809018,-6217.729913,-15174.221811,-6511.811733
163442.809338,-1258.350101,-13619.789333,-5592.497135
163442.809657,-2146.597232,-10214.842000,-1838.629195
163442.809977,-74.020594,-9178.553681,-76.609550
163442.810296,2886.803174,-5403.503377,3600.648841
163442.810616,4885.359217,-4811.338623,4290.134789
163442.810935,6735.874072,-2960.823768,6128.763984
163442.811254,7105.977043,-5033.400406,8044.002729
163442.811574,2886.803174,-6365.771101,4749.792088
163442.811893,-1850.514855,-8660.409521,-383.047749
163442.812213,-5551.544565,-12731.542202,-4979.620737
163442.812532,-8290.306550,-11917.315666,-7737.564530
163442.812852,-8734.430116,-13397.727550,-7660.954980
163442.813171,-6217.729913,-13397.727550,-5822.325785
163442.813490,-4737.318029,-10732.986159,-4290.134789
163442.813810,-1998.556043,-7328.038826,-3370.820191
163442.814129,-74.020594,-8882.471304,-76.609550
163442.814449,1554.432478,-7105.977043,3064.381992
163442.814768,3775.050304,-7105.977043,5362.668486
163442.815088,4885.359217,-6661.853478,6894.859482
163442.815407,4737.318029,-7179.997637,6741.640382
163442.815726,3552.988522,-7328.038826,3830.477490
163442.816046,740.205942,-9178.553681,1685.410096
163442.816365,-1258.350101,-11843.295072,-3140.991542
163442.816685,-4811.338623,-11251.130318,-6818.249932
163442.817004,-2442.679609,-14211.954086,-3140.991542
163442.817323,-3256.906145,-12509.480420,-3983.696590
163442.817643,-1702.473667,-10732.986159,-2681.334243
163442.817962,-962.267725,-7846.182985,-2145.067394
163442.818282,-1184.329507,-7179.997637,-153.219100
163442.818601,0.000000,-4811.338623,0.000000
163442.818921,3182.885551,-8142.265362,4519.963438
163442.819240,4293.194464,-7920.203579,6588.421283
163442.819559,4811.338623,-7254.018232,5209.449386
163442.819879,4367.215058,-7994.224174,3600.648841
163442.820198,-222.061783,-7402.059420,-383.047749
163442.820518,-2442.679609,-10955.047942,-3140.991542
163442.820837,-4515.256246,-11843.295072,-6894.859482
163442.821157,-7105.977043,-11325.150913,-7048.078582
163442.821476,-3552.988522,-11917.315666,-3064.381992
163442.821795,-3034.844362,-9178.553681,-4136.915689
163442.822115,-296.082377,-9326.594869,-2451.505594
163442.822434,-444.123565,-7624.121203,-919.314598
163442.822754,1480.411884,-7254.018232,766.095498
163442.823073,4071.132681,-7920.203579,3294.210641
163442.823392,3478.967927,-8734.430116,4826.401637
163442.823712,5107.421000,-9474.636058,6435.202183
163442.824031,5847.626942,-9474.636058,4826.401637
163442.824351,814.226536,-8142.265362,536.266849
163442.824670,-3552.988522,-8660.409521,-1838.629195
163442.824990,-4367.215058,-10584.944971,-5286.058936
163442.825309,-4589.276840,-11991.336260,-4136.915689
163442.825628,-2516.700203,-11473.192101,-1991.848295
163442.825948,-1998.556043,-9548.656652,-2911.162892
163442.826267,-1258.350101,-6883.915261,-2757.943793
163442.826587,-2294.638420,-6809.894666,-1302.362347
163442.826906,-2368.659014,-6587.832884,0.000000
163442.827226,1406.391290,-9474.636058,2374.896044
163442.827545,2294.638420,-11251.130318,4826.401637
163442.827864,1184.329507,-9548.656652,5822.325785
163442.828184,2738.761985,-9030.512492,3447.429741
163442.828503,1850.514855,-8512.368333,1072.533697
163442.828823,-666.185348,-8808.450710,-1991.848295
163442.829142,-4367.215058,-7772.162391,-5439.278036
163442.829462,-3182.885551,-12435.459826,-4366.744339
163442.829781,-1850.514855,-13027.624579,-3830.477490
163442.830100,-2368.659014,-10436.903782,-2987.772442
163442.830420,-74.020594,-9474.636058,-1302.362347
163442.830739,2886.803174,-9474.636058,-76.609550
163442.831059,1776.494261,-7179.997637,766.095498
163442.831378,3478.967927,-8438.347739,3064.381992
163442.831697,4959.379811,-8882.471304,3983.696590
163442.832017,3478.967927,-10436.903782,4136.915689
163442.832336,3478.967927,-9474.636058,3677.258390
163442.832656,3182.885551,-9474.636058,1455.581446
163442.832975,518.144159,-8586.388927,-76.609550
163442.833295,-74.020594,-9474.636058,-3140.991542
163442.833614,-3108.864956,-9622.677246,-4673.182538
163442.833933,-2442.679609,-13027.624579,-2528.115143
163442.834253,-3552.988522,-9992.780217,-2757.943793
163442.834572,-2590.720797,-7994.224174,-2451.505594
163442.834892,-962.267725,-7550.100608,-842.705048
163442.835211,592.164754,-6587.832884,766.095498
163442.835531,592.164754,-7772.162391,2451.505594
163442.835850,2960.823768,-9104.533087,3064.381992
163442.836169,2886.803174,-11843.295072,4519.963438
163442.836489,0.000000,-10066.800811,1455.581446
163442.836808,296.082377,-8068.244768,-1455.581446
163442.837128,-74.020594,-11251.130318,-76.609550
163442.837447,-2368.659014,-9696.697840,-3447.429741
163442.837766,-3256.906145,-11177.109724,-3983.696590
163442.838086,-3256.906145,-11325.150913,-3294.210641
163442.838405,-3552.988522,-9548.656652,-2451.505594
163442.838725,-2368.659014,-7772.162391,-2528.115143
163442.839044,-2072.576638,-7179.997637,-1225.752797
163442.839364,1480.411884,-7476.080014,612.876398
163442.839683,4663.297435,-10362.883188,4826.401637
163442.840002,2294.638420,-7105.977043,1762.019645
163442.840322,2442.679609,-9918.759623,3600.648841
163442.840641,0.000000,-9548.656652,2374.896044
163442.840961,-592.164754,-10140.821405,689.485948
163442.841280,-1924.535449,-9770.718434,-689.485948
163442.841600,-4737.318029,-9548.656652,-2987.772442
163442.841919,-3923.091493,-10066.800811,-3753.867940
163442.842238,-5033.400406,-9548.656652,-3294.210641
163442.842558,-5921.647536,-7179.997637,-3677.258390
163442.842877,-1702.473667,-9844.739029,-1225.752797
163442.843197,-2442.679609,-5921.647536,-3064.381992
163442.843516,814.226536,-7698.141797,76.609550
163442.843835,1554.432478,-8734.430116,1608.800546
163442.844155,1406.391290,-9178.553681,2145.067394
163442.844474,2294.638420,-11843.295072,3600.648841
163442.844794,-74.020594,-11695.253884,1762.019645
163442.845113,-370.102971,-10066.800811,1149.143247
163442.845432,-1258.350101,-8882.471304,-2528.115143
163442.845752,-3182.885551,-9104.533087,-2451.505594
163442.846071,-4441.235652,-8364.327145,-3370.820191
163442.846391,-4737.318029,-7772.162391,-3677.258390
163442.846710,-1480.411884,-9844.739029,-1225.752797
163442.847029,-148.041188,-8734.430116,-1302.362347
163442.847349,148.041188,-7031.956449,-919.314598
163442.847668,3478.967927,-7105.977043,-1302.362347
163442.847988,2960.823768,-7328.038826,2451.505594
163442.848307,4071.132681,-8734.430116,1762.019645
163442.848626,0.000000,-8364.327145,1225.752797
163442.848946,0.000000,-9548.656652,0.000000
163442.849265,296.082377,-10140.821405,1225.752797
163442.849584,1998.556043,-11843.295072,1149.143247
163442.849904,-370.102971,-9548.656652,-459.657299
163442.850223,-2738.761985,-9622.677246,-1685.410096
163442.850543,-2590.720797,-8660.409521,-4290.134789
163442.850862,-666.185348,-10658.965565,-2451.505594
163442.851181,-1184.329507,-8068.244768,0.000000
163442.851501,-74.020594,-7698.141797,-1072.533697
163442.851820,962.267725,-9474.636058,-76.609550
163442.852140,0.000000,-5995.668130,0.000000
163442.852459,1110.308913,-7179.997637,229.828649
163442.852778,740.205942,-9622.677246,919.314598
163442.853098,-1554.432478,-11399.171507,-536.266849
163442.853417,-1702.473667,-12139.377449,-153.219100
163442.853737,2294.638420,-13619.789333,2374.896044
163442.854056,518.144159,-10658.965565,-689.485948
163442.854375,-1480.411884,-8808.450710,-1608.800546
163442.854695,-3478.967927,-7476.080014,-3370.820191
163442.855014,0.000000,-9252.574275,-919.314598
163442.855333,1110.308913,-7698.141797,-1915.238745
163442.855653,518.144159,-8882.471304,-536.266849
163442.855972,-962.267725,-8068.244768,-995.924147
163442.856292,740.205942,-8364.327145,536.266849
163442.856611,2146.597232,-7846.182985,1991.848295
163442.856930,0.000000,-9548.656652,3677.258390
163442.857250,-666.185348,-9844.739029,383.047749
163442.857569,-1480.411884,-9696.697840,1149.143247
163442.857889,-518.144159,-9844.739029,1378.971896
163442.858208,-1480.411884,-8364.327145,0.000000
163442.858527,-2442.679609,-8956.491898,-919.314598
163442.858847,-2442.679609,-9474.636058,-2221.676944
163442.859166,-4145.153275,-8956.491898,-2451.505594
163442.859486,-4737.318029,-7179.997637,-3447.429741
163442.859805,-222.061783,-9474.636058,-995.924147
163442.860124,-2812.782580,-8364.327145,-1838.629195
163442.860444,296.082377,-8438.347739,-919.314598
163442.860763,1110.308913,-8808.450710,0.000000
163442.861082,1332.370696,-9400.615463,1149.143247
163442.861402,0.000000,-8956.491898,612.876398
163442.861721,-1628.453072,-10510.924376,919.314598
163442.862041,518.144159,-11251.130318,3294.210641
163442.862360,3478.967927,-11843.295072,2374.896044
163442.862679,-370.102971,-8956.491898,-842.705048
163442.862999,-74.020594,-11547.212695,-76.609550
163442.863318,-2368.659014,-9844.739029,-2451.505594
163442.863638,-1554.432478,-9474.636058,-1762.019645
163442.863957,-888.247130,-8808.450710,-2528.115143
163442.864276,-1110.308913,-8290.306550,-689.485948
163442.864596,0.000000,-7179.997637,-919.314598
163442.864915,2442.679609,-7624.121203,612.876398
163442.865235,3701.029710,-9400.615463,3600.648841
163442.865554,1258.350101,-7698.141797,842.705048
163442.865873,0.000000,-8364.327145,0.000000
163442.866193,3478.967927,-11843.295072,2374.896044
163442.866512,1628.453072,-9326.594869,2145.067394
163442.866831,740.205942,-9770.718434,153.219100
163442.867151,-1776.494261,-9918.759623,-2681.334243
163442.867470,-4145.153275,-11029.068536,-3677.258390
163442.867790,-4737.318029,-10140.821405,-4366.744339
163442.868109,-4737.318029,-9548.656652,-4290.134789
163442.868428,-1480.411884,-9326.594869,-3217.601092
163442.868748,-666.185348,-9474.636058,-689.485948
163442.869067,1702.473667,-6587.832884,-995.924147
163442.869387,5255.462188,-8290.306550,2987.772442
163442.869706,3108.864956,-8142.265362,3140.991542
163442.870025,1184.329507,-8290.306550,2757.943793
163442.870345,518.144159,-8660.409521,2757.943793
163442.870664,1184.329507,-9252.574275,2911.162892
163442.870984,1998.556043,-10066.800811,842.705048
163442.871303,-3108.864956,-10288.862594,-2145.067394
163442.871622,-7105.977043,-10140.821405,-4903.011187
163442.871942,-4737.318029,-12509.480420,-3217.601092
163442.872261,-5551.544565,-9104.533087,-6435.202183
163442.872581,-3182.885551,-9770.718434,-2757.943793
163442.872900,-2664.741391,-8216.285956,-1532.190996
163442.873219,1036.288319,-6513.812290,919.314598
163442.873539,4071.132681,-7105.977043,4213.525239
163442.873858,5107.421000,-8290.306550,7277.907231
163442.874177,1998.556043,-6957.935855,4826.401637
163442.874497,-666.185348,-6957.935855,1149.143247
163442.874816,0.000000,-8956.491898,2604.724693
163442.875136,0.000000,-10140.821405,1225.752797
163442.875455,-3256.906145,-9622.677246,-3907.087040
163442.875774,-4959.379811,-12287.418637,-4443.353888
163442.876094,-5921.647536,-13619.789333,-5209.449386
163442.876413,-4811.338623,-12361.439231,-4826.401637
163442.876733,-74.020594,-11251.130318,-2528.115143
163442.877052,-74.020594,-7994.224174,-3677.258390
163442.877371,1776.494261,-7772.162391,1378.971896
163442.877691,6735.874072,-6513.812290,3600.648841
163442.878010,5921.647536,-5699.585753,4519.963438
163442.878330,4737.318029,-5995.668130,6435.202183
163442.878649,2146.597232,-8290.306550,3064.381992
163442.878968,2072.576638,-10362.883188,3983.696590
163442.879288,3256.906145,-10658.965565,2451.505594
163442.879607,1998.556043,-10510.924376,-153.219100
163442.879926,-74.020594,-11843.295072,-3600.648841
163442.880246,-4737.318029,-11325.150913,-4596.572988
163442.880565,-3034.844362,-12731.542202,-5286.058936
163442.880885,-3627.009116,-11843.295072,-3753.867940
163442.881204,-4515.256246,-8364.327145,-5515.887586
163442.881523,-888.247130,-9252.574275,306.438199
163442.881843,1702.473667,-5625.565159,0.000000
163442.882162,4441.235652,-6069.688724,3600.648841
163442.882482,3478.967927,-6365.771101,4366.744339
163442.882801,296.082377,-5995.668130,2451.505594
163442.883120,592.164754,-7476.080014,2604.724693
163442.883440,2960.823768,-10510.924376,4443.353888
163442.883759,3182.885551,-12435.459826,2834.553343
163442.884079,-74.020594,-12435.459826,-2528.115143
163442.884398,-3627.009116,-12731.542202,-6205.373534
163442.884717,-4515.256246,-14508.036463,-4979.620737
163442.885037,-7105.977043,-11621.233289,-6511.811733
163442.885356,-5403.503377,-10436.903782,-5898.935335
163442.885675,-3701.029710,-9474.636058,-3447.429741
163442.885995,0.000000,-6587.832884,0.000000
163442.886314,2664.741391,-5403.503377,2451.505594
163442.886634,2960.823768,-3627.009116,5209.449386
163442.886953,5921.647536,-5551.544565,8273.831378
163442.887272,4811.338623,-6809.894666,8273.831378
163442.887592,4663.297435,-7105.977043,4826.401637
163442.887911,2368.659014,-9326.594869,2911.162892
163442.888231,-2368.659014,-11029.068536,-2834.553343
163442.888550,-7476.080014,-12213.398043,-6818.249932
163442.888869,-9548.656652,-15322.262999,-8044.002729
163442.889189,-9474.636058,-13693.809927,-9193.145976
163442.889508,-6587.832884,-11843.295072,-7431.126331
163442.889828,-6513.812290,-9252.574275,-3677.258390
163442.890147,-2442.679609,-7476.080014,-612.876398
163442.890466,3478.967927,-4737.318029,2374.896044
163442.890786,7031.956449,-6513.812290,7890.783629
163442.891105,6809.894666,-4219.173869,7814.174080
163442.891424,5477.523971,-6587.832884,7584.345430
163442.891744,4071.132681,-8068.244768,7354.516781
163442.892063,1184.329507,-5995.668130,2451.505594
163442.892383,0.000000,-10362.883188,-1532.190996
163442.892702,-5255.462188,-13101.645173,-5898.935335
163442.893021,-7402.059420,-16210.510130,-7584.345430
163442.893341,-7772.162391,-16580.613101,-9576.193725
163442.893660,-5329.482782,-15544.324782,-6052.154434
163442.893980,-5329.482782,-11325.150913,-5515.887586
163442.894299,-2294.638420,-8586.388927,-1532.190996
163442.894618,1776.494261,-5551.544565,2221.676944
163442.894938,5921.647536,-1258.350101,4826.401637
163442.895257,9992.780217,-1258.350101,7354.516781
163442.895577,11103.089130,-3627.009116,11568.042020
163442.895896,8216.285956,-5625.565159,10035.851024
163442.896215,6661.853478,-7698.141797,6052.154434
163442.896535,1776.494261,-11843.295072,-383.047749
163442.896854,-3923.091493,-14063.912898,-6511.811733
163442.897173,-9548.656652,-17024.736666,-9269.755526
163442.897493,-10732.986159,-18357.107362,-11108.384721
163442.897812,-9030.512492,-18357.107362,-8963.317327
163442.898132,-6513.812290,-12509.480420,-7354.516781
163442.898451,-3923.091493,-6735.874072,-4443.353888
163442.898770,0.000000,-5699.585753,459.657299
163442.899090,5921.647536,-2442.679609,3830.477490
163442.899409,9400.615463,-740.205942,8120.612279
163442.899729,12361.439231,-2146.597232,10955.165621
163442.900048,9400.615463,-6365.771101,10035.851024
163442.900367,5921.647536,-9252.574275,7660.954980
163442.900687,2368.659014,-10140.821405,1838.629195
163442.901006,-2960.823768,-13989.892304,-4596.572988
163442.901326,-11251.130318,-13693.809927,-9806.022374
163442.901645,-11029.068536,-18061.024985,-11568.042020
163442.901964,-8956.491898,-17912.983796,-9729.412825
163442.902284,-5107.421000,-13471.748144,-6511.811733
163442.902603,-1924.535449,-8808.450710,-1991.848295
163442.902922,1998.556043,-6513.812290,229.828649
163442.903242,4811.338623,-2442.679609,5362.668486
163442.903561,5329.482782,-74.020594,5515.887586
163442.903881,11621.233289,-3923.091493,13023.623466
163442.904200,8216.285956,-4737.318029,10955.165621
163442.904519,4737.318029,-7179.997637,8580.269578
163442.904839,1110.308913,-10658.965565,2451.505594
163442.905158,-5033.400406,-11917.315666,-5439.278036
163442.905478,-11843.295072,-16062.468941,-10572.117872
163442.905797,-14582.057057,-16062.468941,-13253.452115
163442.906116,-10732.986159,-16580.613101,-9882.631924
163442.906436,-4811.338623,-15396.283594,-6205.373534
163442.906755,-3034.844362,-9474.636058,-3524.039291
163442.907075,-1924.535449,-3997.112087,-689.485948
163442.907394,6217.729913,-4737.318029,6052.154434
163442.907713,6513.812290,-74.020594,5822.325785
163442.908033,9844.739029,-1924.535449,8350.440928
163442.908352,8068.244768,-5995.668130,9193.145976
163442.908671,5625.565159,-8956.491898,7660.954980
163442.908991,3404.947333,-11547.212695,2298.286494
163442.909310,-1850.514855,-14211.954086,-2145.067394
163442.909630,-8660.409521,-13323.706956,-10495.508323
163442.909949,-12731.542202,-16580.613101,-9882.631924
163442.910268,-9548.656652,-15766.386565,-10648.727422
163442.910588,-2738.761985,-15988.448347,-3753.867940
163442.910907,-1776.494261,-8956.491898,0.000000
163442.911227,1184.329507,-4811.338623,2068.457845
163442.911546,4663.297435,-2516.700203,5132.839837
163442.911865,5995.668130,-1850.514855,6128.763984
163442.912185,6217.729913,-1554.432478,6128.763984
163442.912504,4737.318029,-7031.956449,7737.564530
163442.912824,4663.297435,-9474.636058,8503.660028
163442.913143,2294.638420,-11251.130318,2374.896044
163442.913462,-1554.432478,-11991.336260,-1302.362347
163442.913782,-4811.338623,-13027.624579,-7431.126331
163442.914101,-11695.253884,-15100.201217,-9806.022374
163442.914420,-8364.327145,-15396.283594,-9422.974625
163442.914740,-4145.153275,-14211.954086,-6128.763984
163442.915059,-3552.988522,-9844.739029,-2451.505594
163442.915379,0.000000,-5995.668130,0.000000
163442.915698,2960.823768,-4811.338623,3064.381992
163442.916017,7031.956449,-4737.318029,4519.963438
163442.916337,5847.626942,-2368.659014,5132.839837
163442.916656,4663.297435,-6217.729913,4826.401637
163442.916976,5847.626942,-9474.636058,6665.030833
163442.917295,4885.359217,-11029.068536,4979.620737
163442.917614,2442.679609,-11621.233289,3140.991542
163442.917934,-2960.823768,-10214.842000,-3830.477490
163442.918253,-9474.636058,-11325.150913,-8273.831378
163442.918573,-7179.997637,-13915.871710,-8044.002729
163442.918892,-5625.565159,-11917.315666,-6741.640382
163442.919211,-3256.906145,-11917.315666,-2145.067394
163442.919531,-74.020594,-11251.130318,-76.609550
163442.919850,-74.020594,-4737.318029,-1915.238745
163442.920170,1702.473667,-5699.585753,2374.896044
163442.920489,2664.741391,-2738.761985,2604.724693
163442.920808,1998.556043,-5329.482782,4443.353888
163442.921128,3478.967927,-9178.553681,6052.154434
163442.921447,4663.297435,-9474.636058,6818.249932
163442.921766,4663.297435,-10658.965565,4519.963438
163442.922086,814.226536,-11843.295072,-76.609550
163442.922405,-5699.585753,-9918.759623,-7967.393179
163442.922725,-9474.636058,-11917.315666,-9193.145976
163442.923044,-4811.338623,-14211.954086,-8197.221829
163442.923363,-3404.947333,-12953.603985,-5669.106685
163442.923683,-2146.597232,-11399.171507,-3064.381992
163442.924002,296.082377,-8068.244768,-2221.676944
163442.924322,4515.256246,-9326.594869,4213.525239
163442.924641,4737.318029,-4293.194464,3753.867940
163442.924960,6957.935855,-7105.977043,6665.030833
163442.925280,5551.544565,-4737.318029,4060.306139
163442.925599,5921.647536,-7772.162391,7354.516781
163442.925919,3552.988522,-5995.668130,6128.763984
163442.926238,3478.967927,-8882.471304,2068.457845
163442.926557,-2590.720797,-9918.759623,-2757.943793
163442.926877,-7476.080014,-11029.068536,-6588.421283
163442.927196,-6809.894666,-14285.974681,-7201.297681
163442.927515,-3034.844362,-15100.201217,-4979.620737
163442.927835,-4737.318029,-9844.739029,-4903.011187
163442.928154,-3627.009116,-11251.130318,-3140.991542
163442.928474,-1258.350101,-8882.471304,-1302.362347
163442.928793,-74.020594,-5921.647536,-1225.752797
163442.929112,2294.638420,-4145.153275,1149.143247
163442.929432,3404.947333,-5329.482782,4443.353888
163442.929751,5477.523971,-7031.956449,6665.030833
163442.930071,7698.141797,-8512.368333,9346.365076
163442.930390,8068.244768,-9178.553681,8503.660028
163442.930709,1850.514855,-8586.388927,-76.609550
163442.931029,-4811.338623,-10362.883188,-6511.811733
163442.931348,-7624.121203,-14211.954086,-8044.002729
163442.931668,-7772.162391,-14952.160028,-8503.660028
163442.931987,-4811.338623,-14211.954086,-6205.373534
163442.932306,-3997.112087,-13101.645173,-4136.915689
163442.932626,-2664.741391,-10288.862594,-3217.601092
163442.932945,-666.185348,-8290.306550,229.828649
163442.933264,444.123565,-5699.585753,2911.162892
163442.933584,2960.823768,-3627.009116,6128.763984
163442.933903,7624.121203,-4737.318029,8197.221829
163442.934223,7476.080014,-4959.379811,10418.898773
163442.934542,5403.503377,-5921.647536,8733.488677
163442.934861,1184.329507,-4959.379811,2068.457845
163442.935181,-3627.009116,-9178.553681,-3753.867940
163442.935500,-5995.668130,-15396.283594,-6205.373534
163442.935820,-9474.636058,-14508.036463,-9806.022374
163442.936139,-9474.636058,-15988.448347,-8656.879127
163442.936458,-7179.997637,-15988.448347,-5286.058936
163442.936778,-7105.977043,-10732.986159,-4903.011187
163442.937097,-2664.741391,-8290.306550,-1915.238745
163442.937417,-296.082377,-5255.462188,459.657299
163442.937736,2368.659014,-4885.359217,4596.572988
163442.938055,7624.121203,-3849.070898,6971.469032
163442.938375,10288.862594,-5625.565159,11568.042020
163442.938694,11177.109724,-7105.977043,10801.946522
163442.939013,4959.379811,-5921.647536,4826.401637
163442.939333,-2146.597232,-7179.997637,-2451.505594
163442.939652,-4441.235652,-13841.851115,-4979.620737
163442.939972,-8290.306550,-14878.139434,-9499.584175
163442.940291,-6661.853478,-17616.901420,-8963.317327
163442.940610,-6587.832884,-15766.386565,-7354.516781
163442.940930,-4885.359217,-13027.624579,-5515.887586
163442.941249,-3478.967927,-9548.656652,-4903.011187
163442.941569,-370.102971,-7179.997637,0.000000
163442.941888,3552.988522,-3034.844362,4290.134789
163442.942207,7031.956449,-4145.153275,7277.907231
163442.942527,8512.368333,-1258.350101,9959.241474
163442.942846,12361.439231,-7698.141797,14632.424012
163442.943166,7772.162391,-4959.379811,7124.688131
163442.943485,1480.411884,-6735.874072,1149.143247
163442.943805,-2812.782580,-10362.883188,-4979.620737
163442.944124,-8290.306550,-13249.686362,-9806.022374
163442.944444,-10658.965565,-15470.304188,-9806.022374
163442.944763,-8068.244768,-16580.613101,-10801.946522
163442.945083,-7994.224174,-14285.974681,-7354.516781
163442.945402,-4441.235652,-11769.274478,-4903.011187
163442.945722,-1258.350101,-7105.977043,-3140.991542
163442.946041,3330.926739,-6957.935855,2528.115143
163442.946361,2960.823768,-3627.009116,6741.640382
163442.946680,9992.780217,-2812.782580,10035.851024
163442.947000,9918.759623,-2960.823768,10725.336972
163442.947319,7105.977043,-3923.091493,7660.954980
163442.947639,4663.297435,-6513.812290,2374.896044
163442.947958,-2960.823768,-8512.368333,-2757.943793
163442.948278,-6217.729913,-12509.480420,-9806.022374
163442.948597,-8290.306550,-16654.633695,-9116.536426
163442.948917,-5995.668130,-18949.272115,-8656.879127
163442.949236,-6069.688724,-16506.592507,-6358.592633
163442.949556,-4589.276840,-12879.583391,-4136.915689
163442.949875,-3256.906145,-8586.388927,-2987.772442
163442.950195,-74.020594,-4515.256246,1149.143247
163442.950514,2294.638420,-5329.482782,5592.497135
163442.950834,7624.121203,-2960.823768,9729.412825
163442.951153,9400.615463,-2368.659014,9729.412825
163442.951473,5329.482782,-1850.514855,7967.393179
163442.951792,3849.070898,-5995.668130,4903.011187
163442.952112,-666.185348,-8142.265362,-1302.362347
163442.952431,-4737.318029,-12213.398043,-5286.058936
163442.952751,-8290.306550,-14730.098246,-9269.755526
163442.953071,-10807.006753,-19023.292709,-9882.631924
163442.953390,-8734.430116,-18949.272115,-6971.469032
163442.953710,-7994.224174,-15396.283594,-6052.154434
163442.954029,-6809.894666,-9548.656652,-3677.258390
163442.954349,-1258.350101,-5921.647536,-842.705048
163442.954668,1702.473667,-3552.988522,3600.648841
163442.954988,4737.318029,-1258.350101,7354.516781
163442.955307,12065.356855,-1776.494261,10648.727422
163442.955627,10584.944971,-3330.926739,10342.289223
163442.955946,6439.791695,-6735.874072,6205.373534
163442.956266,148.041188,-8882.471304,919.314598
163442.956585,-2812.782580,-13101.645173,-3677.258390
163442.956905,-9474.636058,-13101.645173,-9193.145976
163442.957224,-8290.306550,-17542.880825,-8810.098227
163442.957544,-7179.997637,-18283.086767,-6205.373534
163442.957863,-4811.338623,-16284.530724,-4366.744339
163442.958183,-5921.647536,-7179.997637,-4290.134789
163442.958502,-1998.556043,-5921.647536,-612.876398
163442.958822,2664.741391,-1332.370696,2374.896044
163442.959141,5773.606348,-3034.844362,7354.516781
163442.959461,9178.553681,-296.082377,10035.851024
163442.959780,9178.553681,-2442.679609,9422.974625
163442.960100,4737.318029,-3627.009116,4903.011187
163442.960419,592.164754,-7179.997637,0.000000
163442.960739,-3552.988522,-11917.315666,-4136.915689
163442.961058,-5403.503377,-16580.613101,-7584.345430
163442.961378,-11251.130318,-15766.386565,-11031.775171
163442.961697,-6883.915261,-18875.251521,-8503.660028
163442.962017,-4737.318029,-14730.098246,-5592.497135
163442.962336,-1628.453072,-11029.068536,-2757.943793
163442.962656,-74.020594,-7105.977043,-383.047749
163442.962975,3923.091493,-3404.947333,1762.019645
163442.963295,6735.874072,-3997.112087,4826.401637
163442.963614,7105.977043,-2738.761985,9806.022374
163442.963934,10288.862594,-4737.318029,10112.460574
163442.964253,6513.812290,-6291.750507,8656.879127
163442.964573,1628.453072,-7179.997637,1685.410096
163442.964892,-2220.617826,-11251.130318,-1532.190996
163442.965212,-6069.688724,-12953.603985,-6511.811733
163442.965531,-7846.182985,-14804.118840,-9039.926876
163442.965851,-7179.997637,-16580.613101,-8044.002729
163442.966170,-4811.338623,-17764.942608,-2528.115143
163442.966490,-2442.679609,-13471.748144,-1302.362347
163442.966809,-1554.432478,-6217.729913,-1149.143247
163442.967129,0.000000,-1258.350101,0.000000
163442.967448,0.000000,-2442.679609,2451.505594
163442.967768,4959.379811,-4737.318029,6665.030833
163442.968087,6809.894666,-4959.379811,7048.078582
163442.968407,5181.441594,-6587.832884,5132.839837
163442.968726,2886.803174,-8882.471304,1762.019645
163442.969046,-2146.597232,-10436.903782,-1149.143247
163442.969365,-5329.482782,-11029.068536,-5822.325785
163442.969685,-5477.523971,-14582.057057,-7354.516781
163442.970004,-5107.421000,-16580.613101,-6205.373534
163442.970324,-5107.421000,-12805.562797,-7354.516781
163442.970643,-1258.350101,-13027.624579,-1302.362347
163442.970963,0.000000,-9104.533087,-995.924147
163442.971282,222.061783,-5625.565159,-229.828649
163442.971602,2960.823768,-3923.091493,1149.143247
163442.971921,5921.647536,-7994.224174,8503.660028
163442.972241,4737.318029,-5551.544565,6511.811733
163442.972560,6365.771101,-6587.832884,5132.839837
163442.972880,4663.297435,-7994.224174,4519.963438
163442.973199,1628.453072,-8364.327145,1838.629195
163442.973519,-2368.659014,-7179.997637,-2451.505594
163442.973838,-4219.173869,-9844.739029,-6205.373534
163442.974158,-6513.812290,-11029.068536,-6741.640382
163442.974478,-5921.647536,-14285.974681,-7354.516781
163442.974797,-4589.276840,-13471.748144,-3140.991542
163442.975117,-2442.679609,-12731.542202,-1302.362347
163442.975436,-4959.379811,-8068.244768,-3907.087040
163442.975756,-2516.700203,-6661.853478,-2528.115143
163442.976075,-888.247130,-7179.997637,842.705048
163442.976395,1776.494261,-6143.709319,4749.792088
163442.976714,5847.626942,-4737.318029,4826.401637
163442.977034,4367.215058,-4959.379811,4979.620737
163442.977353,2960.823768,-5995.668130,2451.505594
163442.977673,3552.988522,-9474.636058,3140.991542
163442.977992,-74.020594,-10658.965565,-1302.362347
163442.978312,-2368.659014,-12287.418637,-3064.381992
163442.978631,-5033.400406,-14285.974681,-5362.668486
163442.978951,-5033.400406,-15396.283594,-3600.648841
163442.979270,-3108.864956,-13693.809927,-2604.724693
163442.979590,-3108.864956,-10436.903782,-1685.410096
163442.979909,-3330.926739,-8660.409521,-1838.629195
163442.980229,888.247130,-6883.915261,2604.724693
163442.980548,5255.462188,-7698.141797,5439.278036
163442.980868,5329.482782,-3627.009116,7660.954980
163442.981187,7031.956449,-3552.988522,6052.154434
163442.981507,2960.823768,-5107.421000,5209.449386
163442.981826,592.164754,-6957.935855,2221.676944
163442.982146,-74.020594,-10066.800811,-536.266849
163442.982465,-2738.761985,-13027.624579,-1915.238745
163442.982785,-4885.359217,-15396.283594,-4979.620737
163442.983104,-7179.997637,-16580.613101,-4979.620737
163442.983424,-5995.668130,-13915.871710,-5975.544884
163442.983743,-4441.235652,-10658.965565,-4060.306139
163442.984063,-3849.070898,-9252.574275,-3294.210641
163442.984382,-370.102971,-7698.141797,-2528.115143
163442.984702,2368.659014,-7550.100608,2451.505594
163442.985021,6143.709319,-5773.606348,6205.373534
163442.985341,8586.388927,-3701.029710,8273.831378
163442.985660,8512.368333,-7105.977043,7890.783629
163442.985980,5107.421000,-6513.812290,4826.401637
163442.986299,0.000000,-5403.503377,0.000000
163442.986619,-2072.576638,-11325.150913,-1532.190996
163442.986938,-3108.864956,-13471.748144,-3753.867940
163442.987258,-5329.482782,-14582.057057,-4136.915689
163442.987577,-6513.812290,-11917.315666,-6128.763984
163442.987897,-2072.576638,-12065.356855,-4519.963438
163442.988216,-2516.700203,-9548.656652,-3907.087040
163442.988536,-1924.535449,-6883.915261,-3294.210641
163442.988855,3182.885551,-9474.636058,1149.143247
163442.989175,3849.070898,-7772.162391,4903.011187
163442.989494,8808.450710,-7105.977043,6971.469032
163442.989814,7031.956449,-5181.441594,6358.592633
163442.990133,1776.494261,-3923.091493,3140.991542
163442.990453,1776.494261,-8364.327145,4290.134789
163442.990772,-2146.597232,-8734.430116,-2145.067394
163442.991092,-4293.194464,-11251.130318,-4903.011187
163442.991411,-6957.935855,-13915.871710,-6358.592633
163442.991731,-5921.647536,-14508.036463,-5439.278036
163442.992050,-3330.926739,-12953.603985,-5515.887586
163442.992370,-4737.318029,-10732.986159,-3983.696590
163442.992689,-3997.112087,-8512.368333,-6128.763984
163442.993009,-74.020594,-9474.636058,-689.485948
163442.993328,1702.473667,-7698.141797,2374.896044
163442.993648,4885.359217,-8364.327145,7507.735880
163442.993967,5551.544565,-5921.647536,6741.640382
163442.994287,4885.359217,-6957.935855,6435.202183
163442.994606,3256.906145,-7105.977043,4290.134789
163442.994926,0.000000,-7179.997637,0.000000
163442.995246,-4145.153275,-7179.997637,-3677.258390
163442.995565,-4367.215058,-10732.986159,-5975.544884
163442.995885,-4737.318029,-12509.480420,-3677.258390
163442.996204,-2368.659014,-13101.645173,-2451.505594
163442.996524,-1850.514855,-11843.295072,-2528.115143
163442.996843,-4293.194464,-10140.821405,-3677.258390
163442.997163,-4515.256246,-8512.368333,-4136.915689
163442.997482,-1628.453072,-9326.594869,-306.438199
163442.997802,888.247130,-8364.327145,3600.648841
163442.998121,592.164754,-4811.338623,5515.887586
163442.998441,4441.235652,-5329.482782,6971.469032
163442.998760,2368.659014,-3627.009116,4290.134789
163442.999080,2664.741391,-6957.935855,4060.306139
163442.999399,-1184.329507,-9474.636058,-76.609550
163442.999719,-1258.350101,-12435.459826,-3140.991542
163443.000038,-5329.482782,-13397.727550,-4290.134789
163443.000358,-4219.173869,-14137.933492,-4903.011187
163443.000677,-3108.864956,-13323.706956,-4596.572988
163443.000997,-3997.112087,-11547.212695,-3753.867940
163443.001316,-5107.421000,-8660.409521,-4979.620737
163443.001636,-74.020594,-9474.636058,-1302.362347
163443.001955,1924.535449,-8364.327145,1991.848295
163443.002275,3552.988522,-4811.338623,5209.449386
163443.002594,6513.812290,-5403.503377,6128.763984
163443.002914,8216.285956,-4737.318029,6665.030833
163443.003233,3849.070898,-5403.503377,3983.696590
163443.003553,962.267725,-7994.224174,0.000000
163443.003872,-1554.432478,-10288.862594,-2834.553343
163443.004192,-3256.906145,-13027.624579,-2604.724693
163443.004511,-3997.112087,-13397.727550,-4290.134789
163443.004831,-1554.432478,-13619.789333,-4749.792088
163443.005150,-1258.350101,-13027.624579,-3907.087040
163443.005470,-4441.235652,-9474.636058,-5745.716235
163443.005789,-4589.276840,-7179.997637,-4903.011187
163443.006109,1998.556043,-9474.636058,1762.019645
163443.006428,3627.009116,-7772.162391,5209.449386
163443.006748,5699.585753,-5551.544565,7277.907231
163443.007067,5403.503377,-4515.256246,5975.544884
163443.007387,5181.441594,-6809.894666,6588.421283
163443.007706,1258.350101,-5995.668130,0.000000
163443.008026,-74.020594,-11251.130318,-2528.115143
163443.008345,-3627.009116,-13027.624579,-4673.182538
163443.008665,-3627.009116,-16580.613101,-4060.306139
163443.008984,-2442.679609,-14211.954086,-4979.620737
163443.009304,-3997.112087,-13101.645173,-5362.668486
163443.009623,-4441.235652,-10807.006753,-5822.325785
163443.009943,-3108.864956,-10140.821405,-3140.991542
163443.010262,1480.411884,-9770.718434,2145.067394
163443.010582,1480.411884,-7698.141797,4826.401637
163443.010901,6143.709319,-5477.523971,7890.783629
163443.011221,6513.812290,-3330.926739,8044.002729
163443.011540,4737.318029,-3034.844362,7354.516781
163443.011860,4663.297435,-7105.977043,4826.401637
163443.012179,-1184.329507,-9548.656652,-612.876398
163443.012499,-4367.215058,-11917.315666,-4826.401637
163443.012818,-5255.462188,-14137.933492,-5056.230287
163443.013138,-5329.482782,-14211.954086,-5209.449386
163443.013457,-8142.265362,-10732.986159,-7354.516781
163443.013777,-6069.688724,-11473.192101,-5669.106685
163443.014096,-5625.565159,-10436.903782,-4903.011187
163443.014416,-370.102971,-10658.965565,-76.609550
163443.014735,666.185348,-7698.141797,2681.334243
163443.015055,3552.988522,-5403.503377,8580.269578
163443.015374,6735.874072,-4737.318029,8273.831378
163443.015694,6439.791695,-4737.318029,7354.516781
163443.016014,4219.173869,-5181.441594,4136.915689
163443.016333,222.061783,-7402.059420,0.000000
163443.016653,-2442.679609,-11251.130318,-5592.497135
163443.016972,-6217.729913,-13841.851115,-6128.763984
163443.017292,-5403.503377,-15618.345376,-6435.202183
163443.017611,-4293.194464,-14582.057057,-6128.763984
163443.017931,-3256.906145,-12139.377449,-4749.792088
163443.018250,-3627.009116,-10214.842000,-3140.991542
163443.018570,-2368.659014,-6587.832884,-1225.752797
163443.018889,3552.988522,-7772.162391,2451.505594
163443.019209,5921.647536,-6587.832884,8580.269578
163443.019528,4959.379811,-2442.679609,6128.763984
163443.019848,7031.956449,-3552.988522,6971.469032
163443.020167,3404.947333,-4515.256246,4290.134789
163443.020487,74.020594,-7698.141797,-459.657299
163443.020806,-3108.864956,-11325.150913,-3370.820191
163443.021126,-4219.173869,-13027.624579,-4979.620737
163443.021445,-5699.585753,-14211.954086,-5898.935335
163443.021765,-5921.647536,-13101.645173,-7967.393179
163443.022084,-6513.812290,-10732.986159,-6128.763984
163443.022404,-5329.482782,-10436.903782,-4979.620737
163443.022723,-4737.318029,-6587.832884,-3677.258390
163443.023043,1110.308913,-7105.977043,1149.143247
163443.023362,3849.070898,-7105.977043,5209.449386
163443.023682,6883.915261,-6217.729913,7890.783629
163443.024001,7698.141797,-4737.318029,6358.592633
163443.024321,7031.956449,-5921.647536,6052.154434
163443.024640,3182.885551,-8290.306550,2374.896044
163443.024960,-2368.659014,-7772.162391,-3217.601092
163443.025279,-4293.194464,-11917.315666,-4903.011187
163443.025599,-3478.967927,-14434.015869,-2911.162892
163443.025918,-6809.894666,-11917.315666,-6128.763984
163443.026238,-3034.844362,-12361.439231,-4519.963438
163443.026557,-3182.885551,-11103.089130,-4213.525239
163443.026877,-2738.761985,-9104.533087,-1532.190996
163443.027196,2294.638420,-8290.306550,2374.896044
163443.027516,5551.544565,-7476.080014,6281.983084
163443.027835,7624.121203,-7994.224174,9422.974625
163443.028155,4959.379811,-5181.441594,7277.907231
163443.028474,1184.329507,-3627.009116,3217.601092
163443.028794,0.000000,-7179.997637,2757.943793
163443.029113,-4737.318029,-8956.491898,-3370.820191
163443.029433,-5403.503377,-11843.295072,-5592.497135
163443.029752,-5181.441594,-13989.892304,-5056.230287
163443.030072,-3849.070898,-13101.645173,-4979.620737
163443.030391,-3849.070898,-11325.150913,-6128.763984
163443.030711,-4737.318029,-9548.656652,-4903.011187
163443.031030,-2812.782580,-9474.636058,-4903.011187
163443.031350,-74.020594,-11843.295072,-76.609550
163443.031669,3182.885551,-10066.800811,2528.115143
163443.031989,4885.359217,-9918.759623,9729.412825
163443.032308,6217.729913,-7179.997637,6971.469032
163443.032628,6661.853478,-6439.791695,6205.373534
163443.032947,3034.844362,-6587.832884,2681.334243
163443.033267,-1776.494261,-6587.832884,-2451.505594
163443.033586,-4737.318029,-7179.997637,-5515.887586
163443.033906,-4145.153275,-10732.986159,-6128.763984
163443.034225,-4737.318029,-11917.315666,-3677.258390
163443.034545,-3108.864956,-12361.439231,-3753.867940
163443.034864,-3034.844362,-11547.212695,-3753.867940
163443.035184,-3256.906145,-10436.903782,-3217.601092
163443.035503,-2812.782580,-9696.697840,-1608.800546
163443.035823,148.041188,-9400.615463,1762.019645
163443.036142,2146.597232,-8364.327145,4979.620737
163443.036462,1184.329507,-5403.503377,5515.887586
163443.036781,1998.556043,-6217.729913,4213.525239
163443.037101,-2368.659014,-5107.421000,2451.505594
163443.037421,-4367.215058,-7994.224174,-612.876398
163443.037740,-5995.668130,-11547.212695,-3140.991542
163443.038060,-7179.997637,-11843.295072,-4979.620737
163443.038379,-8734.430116,-11769.274478,-3064.381992
163443.038699,-6587.832884,-11177.109724,-3524.039291
163443.039018,-5477.523971,-9770.718434,-3064.381992
163443.039338,-5699.585753,-7772.162391,-1915.238745
163443.039657,-5995.668130,-6661.853478,-1915.238745
163443.039977,-3034.844362,-9474.636058,-76.609550
163443.040296,-3256.906145,-8956.491898,1762.019645
163443.040616,-4737.318029,-8364.327145,2451.505594
163443.040935,-3997.112087,-9252.574275,2451.505594
163443.041255,-1258.350101,-9474.636058,2374.896044
163443.041574,-3330.926739,-9252.574275,3217.601092
163443.041894,-3478.967927,-6957.935855,459.657299
163443.042213,-6291.750507,-7698.141797,-1532.190996
163443.042533,-6735.874072,-11325.150913,-383.047749
163443.042852,-6809.894666,-11029.068536,-1378.971896
163443.043172,-6291.750507,-11177.109724,0.000000
163443.043491,-7698.141797,-10288.862594,612.876398
163443.043811,-6291.750507,-9178.553681,-1762.019645
163443.044130,-4737.318029,-6291.750507,0.000000
163443.044450,-74.020594,-8586.388927,4519.963438
163443.044769,-2664.741391,-6365.771101,3370.820191
163443.045089,-5181.441594,-6143.709319,-612.876398
163443.045408,-6291.750507,-8586.388927,-2834.553343
163443.045727,-3849.070898,-13841.851115,-76.609550
163443.046047,-5033.400406,-12583.501014,-2451.505594
163443.046366,-5921.647536,-12139.377449,766.095498
163443.046686,-5477.523971,-10510.924376,-2298.286494
163443.047005,-4737.318029,-9548.656652,-3677.258390
163443.047325,518.144159,-9696.697840,-995.924147
163443.047644,1110.308913,-9474.636058,4826.401637
163443.047963,1702.473667,-7105.977043,3600.648841
163443.048283,-1628.453072,-5329.482782,-919.314598
163443.048602,-1480.411884,-9178.553681,-1302.362347
163443.048922,-2368.659014,-10140.821405,-1915.238745
163443.049241,-2886.803174,-11621.233289,0.000000
163443.049561,-4071.132681,-11103.089130,995.924147
163443.049880,-7105.977043,-7179.997637,-2451.505594
163443.050199,-3330.926739,-8290.306550,-3447.429741
163443.050519,1110.308913,-10066.800811,-76.609550
163443.050838,2960.823768,-9030.512492,2681.334243
163443.051158,3182.885551,-8512.368333,4213.525239
163443.051477,1036.288319,-7254.018232,3064.381992
163443.051797,-2368.659014,-5995.668130,0.000000
163443.052116,-2590.720797,-6809.894666,-3753.867940
163443.052435,-3034.844362,-10066.800811,-4290.134789
163443.052755,-1850.514855,-13027.624579,-2528.115143
163443.053074,-3627.009116,-13619.789333,-2528.115143
163443.053394,-2738.761985,-15988.448347,-76.609550
163443.053713,-4737.318029,-11917.315666,76.609550
163443.054032,-3627.009116,-9104.533087,1455.581446
163443.054352,-148.041188,-5403.503377,1685.410096
163443.054671,1258.350101,-4367.215058,2757.943793
163443.054991,0.000000,-1258.350101,0.000000
163443.055310,-296.082377,-6069.688724,1455.581446
163443.055630,-2960.823768,-8734.430116,-229.828649
163443.055949,-5921.647536,-11547.212695,-3064.381992
163443.056268,-6291.750507,-14211.954086,-4060.306139
163443.056588,-7920.203579,-14137.933492,-4213.525239
163443.056907,-6883.915261,-13323.706956,-2528.115143
163443.057227,-6143.709319,-9770.718434,-1915.238745
163443.057546,-1258.350101,-8882.471304,-383.047749
163443.057866,0.000000,-5995.668130,2757.943793
163443.058185,370.102971,-4219.173869,2451.505594
163443.058504,0.000000,-6957.935855,3294.210641
163443.058824,-2960.823768,-8586.388927,2757.943793
163443.059143,-5033.400406,-11029.068536,1762.019645
163443.059463,-5551.544565,-11177.109724,1149.143247
163443.059782,-6809.894666,-11917.315666,1378.971896
163443.060102,-6883.915261,-11177.109724,612.876398
163443.060421,-6291.750507,-9474.636058,-995.924147
163443.060740,-7179.997637,-6513.812290,-4979.620737
163443.061060,-8290.306550,-7179.997637,-4290.134789
163443.061379,-7179.997637,-7624.121203,-5286.058936
163443.061699,-5625.565159,-7920.203579,-3524.039291
163443.062018,-3034.844362,-8660.409521,-995.924147
163443.062337,-666.185348,-9104.533087,0.000000
163443.062657,518.144159,-8364.327145,1455.581446
163443.062976,740.205942,-9178.553681,2987.772442
163443.063296,0.000000,-9548.656652,3677.258390
163443.063615,-666.185348,-11843.295072,2374.896044
163443.063935,-3034.844362,-11843.295072,-76.609550
163443.064254,-5921.647536,-10140.821405,-919.314598
163443.064573,-6365.771101,-8882.471304,-3447.429741
163443.064893,-6365.771101,-9104.533087,-3753.867940
163443.065212,-4811.338623,-8512.368333,-2911.162892
163443.065532,-3182.885551,-7179.997637,-2068.457845
163443.065851,1702.473667,-9474.636058,3600.648841
163443.066171,2294.638420,-8290.306550,3294.210641
163443.066490,592.164754,-7994.224174,3370.820191
163443.066809,0.000000,-7179.997637,1838.629195
163443.067129,2294.638420,-11843.295072,4519.963438
163443.067448,-1776.494261,-9548.656652,919.314598
163443.067768,-2664.741391,-10807.006753,0.000000
163443.068087,-2516.700203,-11473.192101,229.828649
163443.068407,-1110.308913,-10510.924376,-229.828649
163443.068726,1184.329507,-9844.739029,459.657299
163443.069045,3478.967927,-10658.965565,2068.457845
163443.069365,4219.173869,-8882.471304,4213.525239
163443.069684,6439.791695,-8290.306550,2987.772442
163443.070004,3552.988522,-6735.874072,2757.943793
163443.070323,6439.791695,-9474.636058,4826.401637
163443.070643,1924.535449,-8660.409521,3064.381992
163443.070962,1110.308913,-9770.718434,3294.210641
163443.071281,370.102971,-11769.274478,3600.648841
163443.071601,-1184.329507,-12213.398043,5209.449386
163443.071920,-2368.659014,-9548.656652,4903.011187
163443.072240,-1480.411884,-9104.533087,3677.258390
163443.072559,-296.082377,-9474.636058,4979.620737
163443.072878,-74.020594,-8586.388927,4519.963438
163443.073198,518.144159,-7550.100608,4673.182538
163443.073517,4663.297435,-9474.636058,9729.412825
163443.073837,2960.823768,-7846.182985,9039.926876
163443.074156,2294.638420,-6883.915261,8580.269578
163443.074476,296.082377,-6069.688724,5286.058936
163443.074795,0.000000,-6291.750507,4903.011187
163443.075114,-2368.659014,-7846.182985,2068.457845
163443.075434,-3552.988522,-10140.821405,2451.505594
163443.075753,-2072.576638,-14582.057057,4979.620737
163443.076073,-1850.514855,-17764.942608,7277.907231
163443.076392,-3034.844362,-13175.665768,5132.839837
163443.076712,-2146.597232,-13249.686362,9806.022374
163443.077031,-2294.638420,-8068.244768,8963.317327
163443.077350,-888.247130,-2886.803174,8044.002729
163443.077670,444.123565,-962.267725,6818.249932
163443.077989,0.000000,-2146.597232,4903.011187
163443.078309,814.226536,-5625.565159,4060.306139
163443.078628,-1776.494261,-9548.656652,4903.011187
163443.078948,-1628.453072,-13101.645173,6128.763984
163443.079267,-2442.679609,-14952.160028,4903.011187
163443.079586,-5995.668130,-10584.944971,1225.752797
163443.079906,-4145.153275,-11621.233289,3753.867940
163443.080225,-1480.411884,-9918.759623,4290.134789
163443.080545,1776.494261,-8438.347739,5669.106685
163443.080864,4663.297435,-11251.130318,9116.536426
163443.081183,2294.638420,-10362.883188,8503.660028
163443.081503,-518.144159,-8734.430116,7277.907231
163443.081822,-1850.514855,-7698.141797,2681.334243
163443.082142,-3997.112087,-5995.668130,1378.971896
163443.082461,-2368.659014,-5403.503377,2451.505594
163443.082781,370.102971,-6513.812290,1991.848295
163443.083100,1480.411884,-8956.491898,2604.724693
163443.083419,1036.288319,-10288.862594,842.705048
163443.083739,-2146.597232,-11177.109724,-459.657299
163443.084058,-1924.535449,-15396.283594,-76.609550
163443.084378,-3849.070898,-13545.768739,0.000000
163443.084697,-666.185348,-13027.624579,1149.143247
163443.085017,-74.020594,-9326.594869,-76.609550
163443.085336,962.267725,-9474.636058,2374.896044
163443.085655,2294.638420,-7402.059420,229.828649
163443.085975,3034.844362,-7402.059420,2757.943793
163443.086294,1554.432478,-5847.626942,612.876398
163443.086614,2072.576638,-8364.327145,-1072.533697
163443.086933,4811.338623,-11843.295072,2374.896044
163443.087253,3849.070898,-9548.656652,4826.401637
163443.087572,1406.391290,-7179.997637,919.314598
163443.087891,-2812.782580,-8364.327145,-2145.067394
163443.088211,-7105.977043,-9548.656652,-6128.763984
163443.088530,-4811.338623,-13619.789333,-2528.115143
163443.088850,-2442.679609,-12879.583391,1762.019645
163443.089169,-1628.453072,-8956.491898,1608.800546
163443.089488,1110.308913,-7328.038826,1685.410096
163443.089808,2664.741391,-5255.462188,995.924147
163443.090127,2368.659014,-3627.009116,2451.505594
163443.090447,1332.370696,-5995.668130,536.266849
163443.090766,1258.350101,-9770.718434,-76.609550
163443.091086,1110.308913,-11843.295072,-689.485948
163443.091405,-2368.659014,-11029.068536,0.000000
163443.091724,-74.020594,-15396.283594,2374.896044
163443.092044,-2738.761985,-12805.562797,0.000000
163443.092363,-1924.535449,-10658.965565,612.876398
163443.092683,-2220.617826,-7920.203579,306.438199
163443.093002,-3108.864956,-8142.265362,-1225.752797
163443.093322,-3330.926739,-7624.121203,-2451.505594
163443.093641,1110.308913,-8586.388927,2911.162892
163443.093960,3034.844362,-7698.141797,3677.258390
163443.094280,2590.720797,-8364.327145,2911.162892
163443.094599,3182.885551,-10066.800811,1762.019645
163443.094919,-74.020594,-10658.965565,842.705048
163443.095238,-888.247130,-11843.295072,1225.752797
163443.095558,-666.185348,-13545.768739,2604.724693
163443.095877,-1258.350101,-13619.789333,1762.019645
163443.096196,-4737.318029,-9548.656652,2451.505594
163443.096516,-1554.432478,-7402.059420,536.266849
163443.096835,-444.123565,-7328.038826,3830.477490
163443.097155,-296.082377,-6291.750507,4519.963438
163443.097474,0.000000,-5255.462188,3753.867940
163443.097794,2146.597232,-5329.482782,3294.210641
163443.098113,3330.926739,-6661.853478,4213.525239
163443.098432,2368.659014,-6587.832884,2451.505594
163443.098752,0.000000,-9548.656652,2451.505594
163443.099071,-1702.473667,-11843.295072,-919.314598
163443.099391,-7105.977043,-11917.315666,-3370.820191
163443.099710,-6365.771101,-14211.954086,-2911.162892
163443.100029,-5551.544565,-12879.583391,-1838.629195
163443.100349,-3849.070898,-10658.965565,-153.219100
163443.100668,-296.082377,-7179.997637,0.000000
163443.100988,2886.803174,-3552.988522,229.828649
163443.101307,3701.029710,-4737.318029,4213.525239
163443.101627,1702.473667,-3627.009116,766.095498
163443.101946,2368.659014,-7550.100608,1378.971896
163443.102265,4367.215058,-12435.459826,2374.896044
163443.102585,1184.329507,-10140.821405,0.000000
163443.102904,2516.700203,-13101.645173,536.266849
163443.103224,0.000000,-13027.624579,-1378.971896
163443.103543,-2738.761985,-12657.521608,-3370.820191
163443.103863,-5107.421000,-12139.377449,-4519.963438
163443.104182,-3330.926739,-13619.789333,-2911.162892
163443.104501,-2442.679609,-10658.965565,-2528.115143
163443.104821,-518.144159,-7105.977043,-612.876398
163443.105140,0.000000,-3627.009116,0.000000
163443.105460,4663.297435,-7105.977043,3600.648841
163443.105779,1184.329507,-4219.173869,306.438199
163443.106099,1258.350101,-6513.812290,-306.438199
163443.106418,1406.391290,-8142.265362,-995.924147
163443.106737,814.226536,-9400.615463,-2374.896044
163443.107057,-74.020594,-11843.295072,-2451.505594
163443.107376,-296.082377,-13619.789333,-1915.238745
163443.107696,-2886.803174,-12065.356855,-4366.744339
163443.108015,-4811.338623,-13027.624579,-5592.497135
163443.108334,-7105.977043,-10658.965565,-6128.763984
163443.108654,-1258.350101,-13027.624579,-76.609550
163443.108973,0.000000,-6587.832884,-612.876398
163443.109293,2368.659014,-4737.318029,-76.609550
163443.109612,2590.720797,-3923.091493,0.000000
163443.109932,2368.659014,-5107.421000,0.000000
163443.110251,1184.329507,-5995.668130,0.000000
163443.110570,1924.535449,-8956.491898,-3677.258390
163443.110890,0.000000,-11621.233289,-1072.533697
163443.111209,-74.020594,-14211.954086,-1302.362347
163443.111529,-74.020594,-13323.706956,-2528.115143
163443.111848,-74.020594,-13027.624579,-995.924147
